Type,Timestamp,Data Accelerometer X,Data Accelerometer Y,Data Accelerometer Z,Data Gyroscope X,Data Gyroscope Y,Data Gyroscope Z,Data Magnetometer X,Data Magnetometer Y,Data Magnetometer Z
imu,528.170114,0.7183815128000002,-9.6458120528,2.1210498288,1.00201341,6.83338573,-1.20097063,,,
imu,528.178585,0.7279519576000001,-9.651195428000001,2.1108812312,0.91229049,5.99597181,-1.23087827,,,
imu,528.187056,0.7094092208000001,-9.6494009696,2.1102830784,0.81509066,5.21837317,-1.29817046,,,
imu,528.195527,0.6914646368,-9.6499991224,2.102507092,0.7702292,4.47068217,-1.23835518,,,
imu,528.203998,0.6866794144,-9.6296619272,2.1007126336,0.65059864,3.88748319,-1.22340136,,,
imu,528.21247,0.6735200528,-9.636241608,2.1001144808,0.8823828499999999,3.28933039,-1.17106299,,,
imu,528.220941,0.6711274416,-9.627269316000001,2.105497856,0.81509066,2.7734236,-1.15610917,,,
imu,528.229412,0.6645477608,-9.599754287200001,2.0833662024,0.68050628,2.48182411,-1.06638625,,,
imu,528.237883,0.6555754688000001,-9.6075302736,2.0971237168,0.6954601,2.05564024,-1.00657097,,,
imu,528.246354,0.6483976352,-9.597959828800002,2.096525564,0.53096808,1.60702564,-0.9243249599999999,,,
imu,528.254825,0.6430142600000001,-9.591380148,2.0959274112,0.63564482,1.41262598,-0.8196482199999999,,,
imu,528.263297,0.6507902464,-9.5949690648,2.1001144808,0.74779847,1.09111885,-0.8495558599999999,,,
imu,528.271768,0.6531828576,-9.610521037600002,2.07858098,0.7403215599999999,0.8967191899999998,-0.96918642,,,
imu,528.280239,0.6585662328000002,-9.5985579816,2.072599452,0.7104139199999999,0.76213481,-0.91684805,,,
imu,528.28871,0.6513883992,-9.602745051200001,2.099516328,0.56835263,0.5901658799999998,-0.7523560299999998,,,
imu,528.297181,0.6466031768,-9.609324732000001,2.0935348,0.65807555,0.2686587499999997,-0.5878640099999999,,,
imu,528.305652,0.6352382736000001,-9.634447149600001,2.0977218696,0.74779847,0.1191205499999999,-0.66263311,,,
imu,528.314124,0.6370327320000001,-9.6434194416,2.1019089392,0.56835263,0.02192071999999978,-0.7074945699999999,,,
imu,528.322595,0.6519865520000001,-9.625474857600002,2.0899458832,0.52349117,-0.3818324200000003,-0.68506384,,,
imu,528.331066,0.6597625384000001,-9.585996772800002,2.0761883688,0.65059864,-0.5164168,-0.6551562,,,
imu,528.339537,0.6531828576,-9.588389384000001,2.075590216,0.6954601,-0.5911859000000002,-0.40841817,,,
imu,528.348008,0.6645477608,-9.593772759200002,2.0749920632,0.9347212199999999,-0.7407241,-0.18411087,,,
imu,528.356479,0.6603606912000002,-9.595567217600001,2.0642253128,1.09921324,-1.01736977,-0.40094126,,,
imu,528.364951,0.6549773160000001,-9.6009505928,2.0618327016,1.38333582,-1.12952342,-0.4757103599999999,,,
imu,528.373762,0.6543791632000001,-9.592576453600001,2.0444862704,1.42819728,-1.2641078,-0.5056179999999999,,,
imu,528.382574,0.6555754688000001,-9.588987536800001,2.0570474792,1.54782784,-1.54823038,-0.62524856,,,
imu,528.391385,0.6657440664000001,-9.592576453600001,2.0558511736,1.64502767,-1.75758386,-0.85703277,,,
imu,528.400197,0.6507902464,-9.5949690648,2.0552530208,1.82447351,-1.8622606,-0.99161715,,,
imu,528.409009,0.6442105656,-9.591978300800001,2.051664104,1.62259694,-1.98189116,-1.1785399,,,
imu,528.41782,0.6334438152,-9.5877912312,2.0552530208,1.65250458,-2.03422953,-1.4028472,,,
imu,528.426632,0.6256678288,-9.591380148,2.0432899648,1.84690424,-2.10899863,-1.5523854,,,
imu,528.435444,0.6149010784000001,-9.597959828800002,2.054654868000001,1.77961205,-2.19872155,-1.70940051,,,
imu,528.444255,0.6095177032000001,-9.611119190400002,2.0480751872,1.63755076,-2.03422953,-1.72435433,,,
imu,528.453067,0.6101158560000001,-9.618297024,2.0379065896,1.51044329,-1.87721442,-1.84398489,,,
imu,528.461878,0.6119103144000001,-9.621287788000002,2.048673340000001,1.5179202,-1.92955279,-1.98604618,,,
imu,528.47069,0.5891805080000001,-9.633848996800001,2.045084423200001,1.50296638,-1.85478369,-2.16549202,,,
imu,528.479502,0.5879842024,-9.637437913600001,2.0414955064,1.31604363,-1.78001459,-2.32250713,,,
imu,528.488313,0.5814045216000001,-9.634447149600001,2.0391028952,1.31604363,-1.72019931,-2.46456842,,,
imu,528.497125,0.580208216,-9.633848996800001,2.0492714928,0.97210577,-1.54075347,-2.56924516,,,
imu,528.505936,0.5790119104,-9.6434194416,2.0480751872,0.8823828499999999,-1.39869218,-2.60662971,,,
imu,528.514748,0.5855915912,-9.654186192000001,2.060636396,0.8674290299999999,-1.24167707,-2.66644499,,,
imu,528.52356,0.5730303824,-9.661962178400001,2.0552530208,0.68798319,-1.15943106,-2.80102937,,,
imu,528.532371,0.5814045216000001,-9.648204664000001,2.0767865216,0.35899915,-0.9650314,-2.75616791,,,
imu,528.541183,0.5909749664,-9.6499991224,2.0869551192,0.51601426,-0.86035466,-2.75616791,,,
imu,528.549995,0.5778156048000002,-9.644615747200001,2.0660197712,0.14216876,-0.8902623000000003,-3.15244414,,,
imu,528.558806,0.5772174520000001,-9.6505972752,2.0773846744,-0.01484635000000001,-0.7033395499999999,-3.29450543,,,
imu,528.567618,0.5760211464000001,-9.631456385600002,2.0851606608,-0.25410747,-0.6659550000000003,-3.36927453,,,
imu,528.576104,0.5760211464000001,-9.6039413568,2.0833662024,-0.30644584,-0.5538013500000001,-3.53376655,,,
imu,528.584591,0.5604691736,-9.596165370400001,2.0911421888,-0.08213854000000001,-0.45660152,-3.54124346,,,
imu,528.593077,0.5598710208000001,-9.595567217600001,2.0959274112,-0.02980017,-0.3594016900000003,-3.63844329,,,
imu,528.601564,0.5514968816000001,-9.612315496,2.1120775368,0.11226112,-0.2397711300000003,-3.69825857,,,
imu,528.61005,0.5359449088000001,-9.605735815200001,2.1222461344,-0.11204618,-0.1126636599999999,-3.87770441,,,
imu,528.618536,0.5239818528000001,-9.591978300800001,2.13839626,-0.02232326000000001,0.0368745399999999,-4.0197657,,,
imu,528.627023,0.5215892416000001,-9.556089132800002,2.133611037600001,-0.0522309,0.11164364,-3.97490424,,,
imu,528.635509,0.5180003248000001,-9.5219944232,2.1306202736,0.14216876,0.2387511099999999,-3.85527368,,,
imu,528.643996,0.5096261856000001,-9.519601812000001,2.130022120800001,0.36647606,0.33595094,-3.77302767,,,
imu,528.652482,0.5150095608,-9.540537160000001,2.141387024,0.7702292,0.6125966099999998,-3.53376655,,,
imu,528.660969,0.4958686712000001,-9.553696521600001,2.1282276624,0.94219813,0.8294269999999999,-3.496382,,,
imu,528.669455,0.5102243384,-9.5590798968,2.1342091904,1.09173633,0.9789651999999998,-3.37675144,,,
imu,528.677941,0.5132151024,-9.572239258400002,2.1395925656,1.30856672,1.2780416,-3.18235178,,,
imu,528.686428,0.5120187968000001,-9.597959828800002,2.1425833296,1.39828964,1.36776452,-3.22721324,,,
imu,528.694914,0.520392936,-9.606333968000001,2.1377981072,1.64502767,1.71917929,-3.24964397,,,
imu,528.703401,0.5197947832,-9.596165370400001,2.1282276624,1.63755076,1.9509635,-3.39918217,,,
imu,528.711887,0.5138132552000001,-9.595567217600001,2.1282276624,1.8169966,1.89862513,-3.47395127,,,
imu,528.720374,0.5144114080000001,-9.582407856000001,2.1138719952,1.84690424,2.00330187,-3.6459202,,,
imu,528.72886,0.5185984776000001,-9.575230022400001,2.0923384944,2.01887317,2.11545552,-3.70573548,,,
imu,528.737346,0.520392936,-9.568650341600001,2.0863569664,2.13850373,2.33228591,-3.84779677,,,
imu,528.745833,0.5287670752,-9.5656595776,2.0672160768,2.36281103,2.46687029,-3.7954584,,,
imu,528.754319,0.5425245896,-9.560874355200001,2.054654868000001,2.4899185,2.50425484,-3.78798149,,,
imu,528.762806,0.5568802568000001,-9.575230022400001,2.0391028952,2.73665653,2.56407012,-3.68330475,,,
imu,528.771292,0.5646562432000001,-9.573435564,2.0402992008,2.87871782,2.4743472,-3.66835093,,,
imu,528.779751,0.5604691736,-9.580613397600002,2.039701048,3.1628404,2.48182411,-3.63844329,,,
imu,528.788209,0.56824516,-9.591380148,2.0379065896,3.0133022,2.31733209,-3.63844329,,,
imu,528.796668,0.5796100632000001,-9.602146898400001,2.0355139784,3.20770186,2.30985518,-3.65339711,,,
imu,528.805126,0.5891805080000001,-9.597959828800002,2.039701048,2.94601001,2.0257326,-3.7206893,,,
imu,528.813584,0.5885823552,-9.583604161600002,2.0211583112,2.98339456,1.77151766,-3.60105874,,,
imu,528.822043,0.6035361752000001,-9.578818939200001,2.0319250616,3.0880713,1.62197946,-3.58610492,,,
imu,528.830501,0.6214807592000001,-9.596165370400001,2.0295324504,3.02077911,1.37524143,-3.54872037,,,
imu,528.83896,0.6513883992,-9.593772759200002,2.0032137272,2.99087147,1.06868812,-3.47395127,,,
imu,528.847418,0.6723237472000001,-9.610521037600002,2.0133823248,2.88619473,0.7172733499999997,-3.55619728,,,
imu,528.855877,0.6962498592000002,-9.597361676,2.024747228,2.863764,0.11164364,-3.63844329,,,
imu,528.864335,0.7129981376000001,-9.602146898400001,2.0151767832,3.02825602,-0.3818324200000003,-3.72816621,,,
imu,528.872794,0.7129981376000001,-9.612913648800001,2.009793408,3.23013259,-0.9650314,-3.7206893,,,
imu,528.881252,0.7219704296,-9.617100718400001,1.9996248104,3.34228624,-1.57813802,-3.66087402,,,
imu,528.889711,0.7315408744,-9.594370912,2.0020174216,3.21517877,-2.0865679,-3.63096638,,,
imu,528.898169,0.7452983888000001,-9.582407856000001,2.006802644,3.56659354,-2.78192053,-3.56367419,,,
imu,528.906627,0.7321390272000001,-9.612315496,1.994839588,3.52920899,-3.51465771,-3.66087402,,,
imu,528.915086,0.6908664840000001,-9.638036066400002,1.97390424,3.611455,-4.05299523,-3.5711511,,,
imu,528.923544,0.6753145112000001,-9.606932120800002,1.9374169192,3.8357623,-4.44179455,-3.23469015,,,
imu,528.932003,0.6765108168000001,-9.5740337168,1.911098196,3.95539286,-4.77077859,-2.94309066,,,
imu,528.940461,0.6507902464,-9.578220786400001,1.902125904,4.38157673,-5.19696246,-2.86832156,,,
imu,528.94892,0.6053306336000001,-9.595567217600001,1.8608533608,4.68065313,-5.780161440000001,-3.00290594,,,
imu,528.957378,0.5933675776,-9.608128426400002,1.8351327904,5.12926773,-6.191391489999999,-3.08515195,,,
imu,528.965837,0.5538894928000001,-9.610521037600002,1.8207771232,5.57040542,-6.632529180000001,-3.4216129,,,
imu,528.974295,0.5191966304000001,-9.6284656216,1.8076177616,5.65265143,-6.9465594,-3.84031986,,,
imu,528.982752,0.4868963792000001,-9.662560331200002,1.7956547056,6.2283735,-7.27554344,-3.97490424,,,
imu,528.991209,0.4522035168,-9.676915998400002,1.788476872,6.47511153,-7.462466190000001,-4.341272829999999,,,
imu,528.999667,0.4252866408000001,-9.681103068,1.7723267464,6.60969591,-7.484896920000001,-4.3936112,,,
imu,529.008124,0.3941826952,-9.710412555200001,1.770532288,6.76671102,-7.49237383,-4.3936112,,,
imu,529.016581,0.3726491944000001,-9.728955292000002,1.7507932456,6.72932647,-7.522281469999999,-4.49828794,,,
imu,529.025038,0.3493212352000001,-9.7540777096,1.743615412,6.78166484,-7.36526636,-4.58801086,,,
imu,529.033495,0.3218062064,-9.754675862400001,1.7430172592,6.69941883,-7.021328499999999,-4.3936112,,,
imu,529.041953,0.3032634696000001,-9.754675862400001,1.7292597448,6.34052715,-6.77459047,-4.50576485,,,
imu,529.05041,0.2936930248,-9.748096181600001,1.7292597448,5.98163547,-6.39326806,-4.57305704,,,
imu,529.058867,0.2775428992,-9.743310959200002,1.7113151608,5.68255907,-6.0493302,-4.430995749999999,,,
imu,529.067324,0.2709632184,-9.7474980288,1.6969594936,5.4806825,-5.54090032,-4.13191935,,,
imu,529.075781,0.2679724544000001,-9.7606573904,1.7065299384,5.18908301,-4.98013207,-3.92256587,,,
imu,529.084238,0.272159524,-9.7845835024,1.6951650352,5.00963717,-4.4791791,-3.78798149,,,
imu,529.092696,0.266177996,-9.798341016800002,1.6981557992,4.8077606,-4.09785669,-3.81041222,,,
imu,529.101153,0.2775428992,-9.8043225448,1.6969594936,4.56102257,-3.5819499,-3.72816621,,,
imu,529.109715,0.2709632184,-9.793555794400001,1.6993521048,4.40400746,-3.14081221,-3.60105874,,,
imu,529.118172,0.2769447464000001,-9.7989391696,1.6879872016,4.06754651,-2.6847207,-3.42908981,,,
imu,529.126629,0.2847207328,-9.8144911424,1.686790896,3.86566994,-2.31835211,-3.13001341,,,
imu,529.135087,0.2829262744000001,-9.8210708232,1.6784167568,3.66379337,-1.91459897,-2.98795212,,,
imu,529.143544,0.2924967192,-9.8144911424,1.6939687296,3.34976315,-1.54075347,-2.8982292,,,
imu,529.152001,0.3146283728000001,-9.803126239200001,1.7059317856,2.77404108,-1.21924634,-2.8234601,,,
imu,529.160458,0.3355637208,-9.8013317808,1.7089225496,2.28804193,-0.9874621299999999,-2.72626027,,,
imu,529.168915,0.3367600264,-9.7953502528,1.7143059248,1.70484295,-0.8154932000000001,-2.78607555,,,
imu,529.177372,0.3295821928000001,-9.786976113600002,1.7292597448,1.32352054,-0.43417079,-2.5991528,,,
imu,529.185839,0.3283858872000001,-9.755872168000002,1.7238763696,0.7253677399999999,-0.2173404000000003,-2.53186061,,,
imu,529.194305,0.3176191368,-9.739123889600002,1.7274652864,0.12721494,0.1415512799999998,-2.30755331,,,
imu,529.202771,0.3206099008000001,-9.718786694400002,1.737633884,-0.21672292,0.47801223,-2.18044584,,,
imu,529.211237,0.320011748,-9.682897526400001,1.7328486616,-0.50832241,0.9640113799999996,-1.96361545,,,
imu,529.219703,0.3307784984000001,-9.6494009696,1.7448117176,-0.95693701,1.27056469,-1.76921579,,,
imu,529.228169,0.3457323184,-9.648802816800002,1.7382320368,-1.31582869,1.68179474,-1.73183124,,,
imu,529.236635,0.3594898328000001,-9.633848996800001,1.7394283424,-1.44293616,2.12293243,-1.68696978,,,
imu,529.245101,0.3660695136000001,-9.614708107200002,1.7448117176,-1.27096723,2.43696265,-1.66453905,,,
imu,529.253567,0.3923882368,-9.608128426400002,1.7543821624,-1.39059779,2.52668557,-1.8514618,,,
imu,529.262033,0.4043512928,-9.597959828800002,1.7513913984,-1.30087487,2.81080815,-2.03090764,,,
imu,529.270499,0.4097346680000001,-9.593772759200002,1.7573729264,-1.07656757,3.02763854,-2.30755331,,,
imu,529.278966,0.4294737104000001,-9.611119190400002,1.7489987872,-0.79244499,3.07997691,-2.57672207,,,
imu,529.287432,0.4360533912000001,-9.630858232800001,1.7567747736,-0.43355331,3.07997691,-2.86832156,,,
imu,529.295898,0.4480164472000001,-9.6470083584,1.7687378296,-0.08961545,3.0725,-2.94309066,,,
imu,529.304364,0.4587831976000001,-9.651793580800001,1.7633544544,0.14964567,2.9229618,-3.33188998,,,
imu,529.31283,0.451605364,-9.692467971200001,1.7687378296,0.40386061,2.81828506,-3.74312003,,,
imu,529.321296,0.4414367664,-9.7163940832,1.77950458,0.5459219,2.69117759,-3.86275059,,,
imu,529.329762,0.4354552384000001,-9.724768222400002,1.77950458,0.6281679099999999,2.53416248,-3.92256587,,,
imu,529.338228,0.4216977240000001,-9.7295534448,1.7801027328,0.8823828499999999,2.4743472,-3.80293531,,,
imu,529.346694,0.4145198904,-9.7295534448,1.767541524,0.81509066,2.45939338,-3.75807385,,,
imu,529.35516,0.4205014184,-9.723571916800001,1.7729248992,0.80761375,2.33976282,-3.51881273,,,
imu,529.363626,0.4121272792,-9.718786694400002,1.7872805664,0.68050628,2.4743472,-3.28702852,,,
imu,529.372092,0.4264829464000001,-9.7403201952,1.7944584,0.5982602699999999,2.53416248,-2.98047521,,,
imu,528.255334,,,,,,,-95.22837800000002,166.3047588,114.3875824
imu,528.356744,,,,,,,-95.3748644,166.927326,114.8270416
imu,528.458337,,,,,,,-92.78693799999999,165.2671468,116.5848784
imu,528.5599,,,,,,,-92.55500119999999,165.5967412,113.3133488
imu,529.380559,0.415716196,-9.727160833600001,1.8022343864,0.43376825,2.52668557,-2.92813684,,,
imu,529.389383,0.4228940296000001,-9.706225485600001,1.791467636,0.0001074699999999984,2.36219355,-3.02533667,,,
imu,529.398208,0.4288755576000001,-9.651195428000001,1.7962528584,-0.23915365,2.37714737,-2.95056757,,,
imu,529.407033,0.4252866408000001,-9.635045302400002,1.7878787192,-0.22419983,2.51173175,-2.71130645,,,
imu,529.415858,0.4324644744,-9.632054538400002,1.7908694832,-0.09709236,2.57902394,-2.56924516,,,
imu,529.424683,0.4348570856000001,-9.623082246400001,1.7747193576,-0.26906129,2.69117759,-2.53186061,,,
imu,529.433508,0.430670016,-9.600352440000002,1.7633544544,-0.17933837,2.81080815,-2.47952224,,,
imu,529.442333,0.439642308,-9.595567217600001,1.7549803152,0.04496892999999999,2.8481927,-2.61410662,,,
imu,529.451158,0.4528016696000001,-9.610521037600002,1.7633544544,0.08235347999999998,2.83323888,-2.73373718,,,
imu,529.459983,0.4438293776000001,-9.618895176800002,1.7699341352,0.25432241,2.9229618,-2.99542903,,,
imu,529.468807,0.4557924336,-9.6218859408,1.7753175104,0.33656842,2.90053107,-3.21973633,,,
imu,529.477632,0.4563905864000001,-9.631456385600002,1.7789064272,0.33656842,2.8481927,-3.31693616,,,
imu,529.486457,0.4504090584,-9.636839760800001,1.7801027328,0.38142988,2.85566961,-3.47395127,,,
imu,529.495282,0.4462219888000001,-9.6326526912,1.7699341352,0.38142988,2.8481927,-3.55619728,,,
imu,529.504107,0.4510072112,-9.636241608,1.7597655376,0.2468455,2.78837742,-3.63844329,,,
imu,529.512932,0.4456238360000001,-9.6248767048,1.7561766208,0.34404533,2.7734236,-3.75059694,,,
imu,529.521757,0.4372496968000001,-9.634447149600001,1.7627563016,0.56087572,2.7734236,-3.71321239,,,
imu,529.530582,0.4228940296000001,-9.648204664000001,1.7681396768,0.50853735,2.63136231,-3.68330475,,,
imu,529.539407,0.4222958768,-9.639232372,1.7681396768,0.57582954,2.51920866,-3.67582784,,,
imu,529.548231,0.4181088072000001,-9.6434194416,1.7687378296,0.66555246,2.43696265,-3.60853565,,,
imu,529.557056,0.4079402096,-9.6499991224,1.7872805664,0.65059864,2.56407012,-3.42908981,,,
imu,529.565881,0.4205014184,-9.6458120528,1.7866824136,0.53096808,2.70613141,-3.30198234,,,
imu,529.574706,0.4264829464000001,-9.630260080000001,1.7842898024,0.51601426,2.76594669,-3.10758268,,,
imu,529.583531,0.442633072,-9.596763523200002,1.767541524,0.3963837,2.83323888,-3.05524431,,,
imu,529.592012,0.4551942808000001,-9.583604161600002,1.7448117176,0.66555246,3.02016163,-2.8234601,,,
imu,529.600494,0.472540712,-9.578220786400001,1.7442135648,0.8973366700000001,3.21456129,-2.65896808,,,
imu,529.608975,0.4797185456,-9.593772759200002,1.7214837584,1.42072037,3.26689966,-2.3748455,,,
imu,529.617456,0.4910834488,-9.609922884800001,1.710717008,2.10111918,3.43886859,-2.30755331,,,
imu,529.625938,0.5000557408,-9.612913648800001,1.692772424,2.34785721,3.2968073,-2.43466078,,,
imu,529.634419,0.5114206440000001,-9.634447149600001,1.6820056736,2.84881018,3.17717674,-2.51690679,,,
imu,529.6429,0.4988594352000001,-9.668541859200001,1.6694444648,3.25256332,2.95286944,-2.77112173,,,
imu,529.651382,0.5012520464000001,-9.706823638400001,1.6491072696,3.611455,2.72856214,-3.11505959,,,
imu,529.659863,0.4946723656000001,-9.730749750400001,1.6473128112,3.85071612,2.39210119,-3.63096638,,,
imu,529.668344,0.4701481008,-9.749890640000002,1.6305645328,3.72360865,1.95844041,-4.02724261,,,
imu,529.676826,0.4677554896000001,-9.7786019744,1.6072365736,3.63388573,1.64441019,-4.30388828,,,
imu,529.685307,0.4378478496000001,-9.803126239200001,1.5988624344,3.52173208,1.44253362,-4.51324176,,,
imu,529.693788,0.4193051128000001,-9.803724392000001,1.5886938368,2.97591765,1.22570323,-4.79736434,,,
imu,529.70227,0.4037531400000001,-9.815687448000002,1.5803196976,2.66936434,1.21822632,-4.81231816,,,
imu,529.710751,0.3905937784,-9.8168837536,1.5767307808,2.32542648,1.17336486,-4.84970271,,,
imu,529.719232,0.3798270280000001,-9.818678212000002,1.5629732664,1.95158098,1.07616503,-4.991764,,,
imu,529.727714,0.3499193880000001,-9.8234634344,1.55519728,1.65250458,1.01634975,-4.954379449999999,,,
imu,529.736195,0.3343674152,-9.8228652816,1.5569917384,1.22632071,0.9789651999999998,-4.92447181,,,
imu,529.744676,0.3194135952000001,-9.807313308800001,1.5444305296,0.83004448,1.07616503,-4.954379449999999,,,
imu,529.753158,0.2942911776,-9.8061170032,1.5414397656,0.6954601,1.27056469,-4.931948719999999,,,
imu,529.761639,0.2805336632,-9.802528086400002,1.543234224,0.3963837,1.43505671,-4.976810179999999,,,
imu,529.770121,0.2829262744000001,-9.7959484056,1.5288785568,0.21693786,1.58459491,-4.93942563,,,
imu,529.778602,0.2883096496000001,-9.789966877600001,1.5121302784,0.03749201999999999,1.73413311,-4.98428709,,,
imu,529.787083,0.2954874832,-9.776209363200001,1.5091395144,0.09730729999999999,1.81637912,-4.96933327,,,
imu,529.795694,0.290104108,-9.769629682400002,1.498372764,0.05244583999999999,1.96591732,-5.1413022,,,
imu,529.804305,0.3098431504,-9.762451848800001,1.5031579864,0.08235347999999998,1.93600968,-5.11139456,,,
imu,529.812916,0.3253951232,-9.767835224,1.4977746112,0.23936859,1.74161002,-4.999240909999999,,,
imu,529.821527,0.3218062064,-9.779200127200001,1.5037561392,0.05992275,1.66684092,-5.03662546,,,
imu,529.830138,0.3253951232,-9.783387196800001,1.501363528,-0.09709236,1.45748744,-4.89456417,,,
imu,529.838749,0.3152265256,-9.7534795568,1.4965783056,-0.10456927,1.29299542,-4.72259524,,,
imu,529.847361,0.3289840400000001,-9.766638918400002,1.4905967776,-0.15690764,0.9939190199999999,-4.51324176,,,
imu,529.855972,0.3218062064,-9.783985349600002,1.5031579864,-0.007369440000000005,0.6125966099999998,-4.28893446,,,
imu,529.864583,0.3092449976000001,-9.797742864000002,1.5187099592,-0.04475399000000001,0.1714589200000001,-4.32631901,,,
imu,529.873194,0.275150288,-9.803126239200001,1.5205044176,-0.26158438,-0.2622018600000002,-4.41604193,,,
imu,529.881805,0.2440463424,-9.80970592,1.5498139048,-0.48589168,-0.65847809,-4.386134289999999,,,
imu,529.890416,0.2165313136,-9.803126239200001,1.5659640304,-0.8821679099999999,-0.7930624700000002,-4.0945348,,,
imu,529.899027,0.188418132,-9.80970592,1.5874975312,-1.41302852,-0.9500775800000003,-3.90761205,,,
imu,529.907638,0.1489400472,-9.844996935200001,1.606040268,-1.70462801,-0.8977392100000001,-3.60105874,,,
imu,529.916249,0.1280046992,-9.849184004800001,1.612021796,-2.2205348,-0.68090882,-3.20478251,,,
imu,529.92486,0.131593616,-9.835426490400001,1.6275737688,-2.86354906,-0.3444478700000002,-2.72626027,,,
imu,529.933471,0.1303973104,-9.802528086400002,1.6413312832,-3.4916095,-0.02294074000000013,-2.46456842,,,
imu,529.942082,0.1297991576,-9.785181655200002,1.6491072696,-3.85050118,0.5378275100000001,-1.94866163,,,
imu,529.950693,0.131593616,-9.772022293600001,1.65987402,-4.14957758,1.10607267,-1.30564737,,,
imu,529.959304,0.1441548248,-9.758862932000001,1.662864784,-4.33650033,1.79394839,-0.76730985,,,
imu,529.967915,0.1650901728,-9.7403201952,1.67482784,-4.583238359999999,2.52668557,-0.4158950799999999,,,
imu,529.976526,0.1776513816,-9.713403319200001,1.6915761184,-4.725299649999999,3.05754618,-0.40094126,,,
imu,529.985137,0.2027737992,-9.685290137600001,1.6814075208,-4.986991499999999,3.55849915,-0.3037414299999999,,,
imu,529.993748,0.2458408008,-9.703832874400002,1.695763188,-5.15896043,3.99215993,-0.43832581,,,
imu,530.002203,0.2613927736,-9.672130776000001,1.7268671336,-5.16643734,4.44825144,-0.4458027199999999,,,
imu,530.010658,0.290104108,-9.6296619272,1.7370357312,-5.37579082,4.63517419,-0.5579563699999999,,,
imu,530.019112,0.2972819416,-9.6260730104,1.746606176,-5.510375199999999,4.90434295,-0.8645096799999998,,,
imu,530.027567,0.2918985664000001,-9.6075302736,1.7609618432,-5.40569846,5.23332699,-1.00657097,,,
imu,530.036021,0.2859170384,-9.578220786400001,1.7783082744,-5.24120644,5.42772665,-1.32060119,,,
imu,530.044476,0.3564990688,-9.637437913600001,1.8195808176,-5.031852959999999,5.659510859999999,-1.41032411,,,
imu,530.052931,0.3911919312,-9.616502565600001,1.8309457208,-4.889791669999999,5.88381816,-1.35798574,,,
imu,530.061385,0.4785222400000001,-9.578220786400001,1.827356804,-5.054283689999999,5.97354108,-1.1785399,,,
imu,528.661432,,,,,,,-94.8255404,166.072822,115.5960952
imu,528.763086,,,,,,,-94.54477480000001,165.8042636,114.7171768
imu,528.864557,,,,,,,-94.3006308,165.95075,115.8646536
imu,528.966211,,,,,,,-94.47153160000002,165.03521,115.8402392
imu,529.067682,,,,,,,-94.068694,164.668994,116.6459144
imu,529.169244,,,,,,,-93.77572119999999,164.5347148,116.5726712
imu,529.270776,,,,,,,-93.42171240000002,164.1440844,115.3885728
imu,529.3724,,,,,,,-93.8977932,164.1440844,116.1820408
imu,530.06984,0.517402172,-9.573435564,1.8351327904,-4.79259184,5.80157215,-0.90937114,,,
imu,530.078295,0.520392936,-9.608128426400002,1.8375254016,-4.396315609999999,5.57726485,-0.7000176599999999,,,
imu,530.086749,0.5102243384,-9.6470083584,1.8464976936,-4.35893106,5.03892733,-0.8196482199999999,,,
imu,530.095204,0.5132151024,-9.638634219200002,1.8608533608,-4.373884879999999,4.59031273,-1.06638625,,,
imu,530.103659,0.5168040192000001,-9.616502565600001,1.8692275,-4.17200831,4.1192674,-1.27573973,,,
imu,530.112113,0.4803166984,-9.633848996800001,1.8877702368,-3.88788573,3.75289881,-1.37293956,,,
imu,530.120568,0.4898871432,-9.652989886400002,1.8883683896,-3.618716969999999,3.49120696,-1.47013939,,,
imu,530.129022,0.4611758088,-9.639232372,1.8955462232,-3.40936349,3.37905331,-1.5523854,,,
imu,530.137477,0.472540712,-9.651793580800001,1.91408896,-3.34954821,3.25194584,-1.67949287,,,
imu,530.145932,0.439642308,-9.652989886400002,1.9188741824,-3.29720984,3.13979219,-1.85893871,,,
imu,530.154386,0.4187069600000001,-9.639232372,1.9206686408,-3.25982529,3.06502309,-2.0757691,,,
imu,530.162841,0.4109309736,-9.639830524800002,1.9398095304,-3.28973293,3.12483837,-2.27764567,,,
imu,530.171296,0.3870048616000001,-9.651195428000001,1.949978128,-3.15514855,3.1472691,-2.3000764,,,
imu,530.17975,0.4025568344,-9.630260080000001,1.9428002944,-3.117764,3.39400713,-2.34493786,,,
imu,530.188205,0.3989679176000001,-9.632054538400002,1.949978128,-2.92336434,3.5211146,-2.31503022,,,
imu,530.19666,0.4049494456000001,-9.657176956,1.9673245592,-2.93084125,3.78280645,-2.32998404,,,
imu,530.20495,0.4408386136,-9.746301723200002,2.0552530208,-3.11028709,3.92486774,-2.27764567,,,
imu,530.213268,0.4522035168,-9.699645804800001,1.994839588,-3.59628624,3.99963684,-2.42718387,,,
imu,530.221587,0.4539979752000001,-9.5800152448,1.9756986984,-3.79816281,4.104313579999999,-2.50942988,,,
imu,530.229906,0.4689517952000001,-9.6117173432,2.030728756,-3.81311663,4.15665195,-2.3000764,,,
imu,530.238224,0.4432312248,-9.6260730104,2.0002229632,-3.84302427,4.171605769999999,-2.12063056,,,
imu,530.246543,0.4862982264000001,-9.609324732000001,1.997830352,-3.91779337,4.01459066,-2.3000764,,,
imu,530.254861,0.454596128,-9.594370912,2.0265416864,-4.07480848,3.87252937,-2.30755331,,,
imu,530.26318,0.4653628784000001,-9.595567217600001,2.0600382432,-4.276685049999999,3.73046808,-2.08324601,,,
imu,530.271499,0.4665591840000001,-9.5698466472,2.0438881176,-4.50846926,3.6706528,-2.21035348,,,
imu,530.279817,0.4611758088,-9.561472508000001,2.0289342976,-4.40379252,3.3715764,-2.5243837,,,
imu,530.288136,0.4025568344,-9.5459205352,2.0199620056,-4.34397724,2.9977309,-2.87579847,,,
imu,530.296454,0.4228940296000001,-9.557285438400001,2.0289342976,-3.95517792,2.81080815,-3.18982869,,,
imu,530.304773,0.4169125016,-9.523190728800001,1.9930451296,-3.65610152,2.60893158,-3.45899745,,,
imu,530.313091,0.3876030144000001,-9.5118258256,1.9386132248,-3.38693276,2.48182411,-3.67582784,,,
imu,530.32141,0.3648732080000001,-9.547116840800001,1.9733060872,-2.85607215,2.40705501,-3.40665908,,,
imu,530.329729,0.3415452488,-9.546518688,1.9810820736,-2.39998064,2.6986545,-3.06272122,,,
imu,530.338047,0.3445360128,-9.530966715200002,2.0074007968,-1.98127368,3.02016163,-2.74121409,,,
imu,530.346366,0.3582935272000001,-9.541135312800002,1.9906525184,-1.71210492,3.43139168,-2.27016876,,,
imu,530.354684,0.3642750552,-9.594370912,2.0151767832,-1.15133667,3.93234465,-1.81407725,,,
imu,530.363003,0.3870048616000001,-9.619493329600001,2.024747228,-1.00179847,4.388436159999999,-1.63463141,,,
imu,530.371322,0.4187069600000001,-9.641624983200002,2.0331213672,-0.92702937,4.76975857,-1.61220068,,,
imu,530.37964,0.4611758088,-9.669738164800002,2.0444862704,-0.67281443,5.09874261,-1.76921579,,,
imu,530.387959,0.5197947832,-9.688879054400001,2.0355139784,-0.83730645,5.20341935,-1.97856927,,,
imu,530.396277,0.5000557408,-9.6703363176,2.031326908800001,-0.89712173,5.136127159999999,-2.10567674,,,
imu,530.405096,0.4976631296000001,-9.706823638400001,2.0349158256,-0.79244499,5.10621952,-2.35241477,,,
imu,530.413914,0.4797185456,-9.684093832000002,2.0062044912,-1.00927538,5.00901969,-2.49447606,,,
imu,530.422732,0.4982612824000001,-9.678710456800001,1.991848824,-1.09152139,5.136127159999999,-2.69635263,,,
imu,530.43155,0.4910834488,-9.652989886400002,1.9673245592,-1.15881358,5.068834969999999,-2.96552139,,,
imu,530.440369,0.4701481008,-9.633848996800001,1.9786894624,-1.23358268,5.068834969999999,-3.29450543,,,
imu,530.449187,0.4797185456,-9.610521037600002,1.9535670448,-1.33078251,5.091265699999999,-3.51133582,,,
imu,530.458005,0.4701481008,-9.597959828800002,1.926052016,-1.30087487,5.03145042,-3.78798149,,,
imu,530.466823,0.4551942808000001,-9.602745051200001,1.926052016,-1.12142903,5.091265699999999,-4.034719519999999,,,
imu,530.475642,0.4402404608,-9.611119190400002,1.9218649464,-1.18872122,5.21837317,-4.034719519999999,,,
imu,530.48446,0.4492127528000001,-9.592576453600001,1.9122945016,-1.00179847,5.285665359999999,-4.10948862,,,
imu,530.493278,0.4510072112,-9.594370912,1.9338280024,-0.9793677399999999,5.48754193,-3.93751969,,,
imu,530.502096,0.4528016696000001,-9.626671163200001,1.9457910584,-1.03918302,5.704372319999999,-3.89265823,,,
imu,530.510915,0.4557924336,-9.6284656216,1.932033544,-0.95693701,5.898771979999999,-3.83284295,,,
imu,530.519733,0.4557924336,-9.6218859408,1.9445947528,-0.95693701,6.09317164,-3.66835093,,,
imu,530.528551,0.4803166984,-9.619493329600001,1.955959656,-0.91207555,6.227756019999999,-3.60105874,,,
imu,530.537369,0.49347606,-9.637437913600001,1.9721097816,-1.12890594,6.10064855,-3.52628964,,,
imu,530.546188,0.5066354216000001,-9.656578803200002,1.9786894624,-1.18872122,6.08569473,-3.5711511,,,
imu,530.555006,0.5191966304000001,-9.668541859200001,1.997830352,-1.26349032,6.01840254,-3.53376655,,,
imu,530.563824,0.5221873944000001,-9.6745233872,2.006802644,-1.27096723,5.921202709999999,-3.48142818,,,
imu,530.572642,0.5293652280000001,-9.673925234400002,2.0181675472,-1.41302852,5.704372319999999,-3.58610492,,,
imu,530.581461,0.5425245896,-9.685888290400001,2.0271398392,-1.67472037,5.352957549999999,-3.69825857,,,
imu,530.590279,0.5221873944000001,-9.701440263200002,2.0438881176,-1.45041307,4.99406587,-3.65339711,,,
imu,530.599097,0.5317578392000001,-9.672728928800002,2.0253453808,-1.67472037,4.56040509,-3.91508896,,,
imu,530.607575,0.5185984776000001,-9.6745233872,2.0271398392,-1.79435093,4.29871324,-4.02724261,,,
imu,530.616052,0.5060372688000001,-9.6775141512,2.0325232144,-1.6971511,3.90243701,-4.13191935,,,
imu,530.62453,0.4791203928000001,-9.7056273328,2.042691812,-1.66724346,3.5211146,-4.10948862,,,
imu,530.633007,0.4743351704000001,-9.709216249600003,2.0558511736,-2.06351969,3.15474601,-3.96742733,,,
imu,530.641485,0.4791203928000001,-9.696655040800001,2.0612345488,-2.01865823,2.90800798,-3.8702275,,,
imu,530.649962,0.4599795032,-9.704431027200002,2.0809735912,-2.2953039,2.61640849,-3.95995042,,,
imu,530.65844,0.4390441552000001,-9.690075360000002,2.0642253128,-2.36259609,2.55659321,-3.76555076,,,
imu,530.666917,0.451605364,-9.658373261600001,2.0684123824,-2.53456502,2.4743472,-3.59358183,,,
imu,530.675395,0.4294737104000001,-9.6709344704,2.0869551192,-2.87102597,2.29490136,-3.5711511,,,
imu,530.683872,0.4079402096,-9.6494009696,2.0887495776,-2.80373378,2.09302479,-3.29450543,,,
imu,530.69235,0.4216977240000001,-9.612913648800001,2.1096849256,-2.99065653,1.8761944,-3.39918217,,,
imu,530.700827,0.3983697648000001,-9.578220786400001,2.0857588136,-2.83364142,1.77899457,-3.47395127,,,
imu,530.709305,0.3887993200000001,-9.549509452,2.07858098,-2.71401086,1.70422547,-3.496382,,,
imu,530.717783,0.3684621248000001,-9.558481744000002,2.0935348,-2.67662631,1.68927165,-3.4216129,,,
imu,530.72626,0.3505175408000001,-9.595567217600001,2.0947311056,-2.5196112,1.7266562,-3.27955161,,,
imu,530.734738,0.3170209840000001,-9.631456385600002,2.1013107864,-2.39250373,1.92105586,-3.33936689,,,
imu,530.743215,0.3313766512,-9.612315496,2.1252368984,-2.32521154,2.11545552,-3.32441307,,,
imu,530.751693,0.3289840400000001,-9.618895176800002,2.1282276624,-2.41493446,2.28742445,-3.26459779,,,
imu,530.76017,0.3044597752,-9.6087265792,2.1246387456,-2.42988828,2.67622377,-3.08515195,,,
imu,530.768648,0.2972819416,-9.5949690648,2.12344244,-2.49718047,3.16222292,-2.74121409,,,
imu,530.777125,0.3020671640000001,-9.560874355200001,2.102507092,-2.49718047,3.85009864,-2.47952224,,,
imu,530.785603,0.3002727056,-9.553696521600001,2.096525564,-2.23548862,4.47068217,-2.10567674,,,
imu,530.79408,0.3170209840000001,-9.578818939200001,2.07858098,-2.08595042,5.15108098,-1.97856927,,,
imu,530.802558,0.3505175408000001,-9.5590798968,2.06362716,-1.86912003,5.59969558,-2.06081528,,,
imu,530.811019,0.3941826952,-9.536948243200001,2.0791791328,-1.72705874,6.11560237,-2.14306129,,,
imu,530.81948,0.4001642232,-9.553098368800002,2.072001299200001,-1.51770526,6.511878599999999,-2.26269185,,,
imu,530.827941,0.4127254320000001,-9.5429297712,2.0564493264,-1.21115195,6.69880135,-2.46456842,,,
imu,530.836402,0.4767277816000001,-9.5219944232,2.0438881176,-0.8821679099999999,6.78104736,-2.83093701,,,
imu,530.844863,0.4575868920000001,-9.578220786400001,2.0642253128,-0.49336859,6.82590882,-3.21225942,,,
imu,530.853324,0.4611758088,-9.61530626,2.0582437848,-0.2017691,6.706278259999999,-3.66087402,,,
imu,530.861785,0.4922797544,-9.603343204000002,2.062430854400001,-0.09709236,6.579170789999999,-4.04219643,,,
imu,530.870246,0.5191966304000001,-9.621287788000002,2.0935348,0.06739966,6.28009439,-4.25154991,,,
imu,530.878707,0.5180003248000001,-9.654186192000001,2.1078904672,0.08983038999999998,5.95111035,-4.51324176,,,
imu,529.474362,,,,,,,-91.57842520000001,163.2407516,114.5706904
imu,529.575528,,,,,,,-93.75130680000001,163.7778684,116.9633016
imu,529.677029,,,,,,,-91.6516684,163.0942652,114.5706904
imu,529.778592,,,,,,,-93.69027080000001,163.9243548,116.9510944
imu,529.880154,,,,,,,-93.49495560000001,163.5459316,116.6092928
imu,529.983517,,,,,,,-93.26301880000001,163.692418,117.170824
imu,530.08334,,,,,,,-93.397298,163.8389044,117.6469048
imu,530.184872,,,,,,,-93.4461268,163.9487692,117.2562744
imu,530.887168,0.5371412144000001,-9.6876827488,2.1198535232,0.03001510999999998,5.65203395,-4.625395409999999,,,
imu,530.895629,0.5383375200000001,-9.690075360000002,2.130022120800001,-0.03727708,5.34548064,-4.7674567,,,
imu,530.90409,0.5287670752,-9.706823638400001,2.1599297608,-0.21672292,4.87443531,-4.87213344,,,
imu,530.912551,0.5287670752,-9.7265626808,2.171294664,-0.68029134,4.20151341,-4.931948719999999,,,
imu,530.921012,0.5132151024,-9.715795930400002,2.1856503312,-0.92702937,3.84262173,-4.83474889,,,
imu,530.929473,0.5042428104000001,-9.672130776000001,2.180266956,-1.34573633,3.33419185,-4.74502597,,,
imu,530.937934,0.5048409632,-9.656578803200002,2.1850521784,-1.68219728,2.8481927,-4.67773378,,,
imu,530.946395,0.4743351704000001,-9.599156134400001,2.162322372,-1.6971511,2.44443956,-4.625395409999999,,,
imu,530.954856,0.4563905864000001,-9.599156134400001,2.1611260664,-1.68219728,2.27247063,-4.41604193,,,
imu,530.963317,0.4210995712,-9.6075302736,2.1611260664,-1.51770526,1.9509635,-4.124442439999999,,,
imu,530.971778,0.4061457512000001,-9.591978300800001,2.1677057472,-1.45041307,1.86124058,-3.89265823,,,
imu,530.980239,0.3965753064,-9.553098368800002,2.1575371496,-1.39059779,1.61450255,-3.81041222,,,
imu,530.9887,0.3792288752000001,-9.5602762024,2.1760798864,-1.21862886,1.6518871,-3.78050458,,,
imu,530.997161,0.3660695136000001,-9.562070660800002,2.1575371496,-0.9943215599999999,1.8014253,-3.70573548,,,
imu,531.005622,0.3547046104000001,-9.523190728800001,2.1539482328,-0.79244499,1.80890221,-3.61601256,,,
imu,531.014087,0.370854736,-9.524387034400002,2.1700983584,-0.58309151,1.97339423,-3.58610492,,,
imu,531.022551,0.3959771536000001,-9.553696521600001,2.1826595672,-0.26906129,1.99582496,-3.77302767,,,
imu,531.031016,0.3816214864,-9.556089132800002,2.1808651088,-0.03727708,1.99582496,-4.18425772,,,
imu,531.039481,0.3899956256000001,-9.551303910400001,2.1718928168,-0.02980017,2.01077878,-4.58053395,,,
imu,531.047946,0.3547046104000001,-9.538742701600002,2.178472497600001,0.29918387,2.06311715,-4.55810322,,,
imu,531.056411,0.3505175408000001,-9.535153784800002,2.186248484,0.3963837,2.14536316,-4.6179185,,,
imu,531.064875,0.3415452488,-9.551303910400001,2.1671075944,0.68050628,2.22760917,-4.66277996,,,
imu,531.07334,0.323002512,-9.544126076800001,2.1515556216,0.8749059399999999,2.2500399,-4.93942563,,,
imu,531.081805,0.311039456,-9.550705757600001,2.150957468800001,1.20388998,2.45191647,-5.1413022,,,
imu,531.09027,0.3128339144,-9.5459205352,2.1527519272,1.73475059,2.65379304,-5.17868675,,,
imu,531.098735,0.3062542336,-9.553696521600001,2.1371999544,2.05625772,2.69117759,-5.17868675,,,
imu,531.1072,0.3224043592,-9.583604161600002,2.1150683008,2.57964142,2.63136231,-5.17120984,,,
imu,531.115664,0.331974804,-9.578220786400001,2.099516328,2.97591765,2.63883922,-4.999240909999999,,,
imu,531.124129,0.3337692624,-9.596165370400001,2.1001144808,3.31985551,2.53416248,-4.84970271,,,
imu,531.132594,0.3116376088,-9.5949690648,2.0767865216,3.62640882,2.324809,-4.78988743,,,
imu,531.141059,0.3158246784000001,-9.6015487456,2.0708049936,3.82828539,2.08554788,-4.86465653,,,
imu,531.149524,0.3020671640000001,-9.639830524800002,2.0540567152,3.947915950000001,1.89862513,-4.67773378,,,
imu,531.157988,0.290104108,-9.6505972752,2.0420936592,4.07502342,1.67431783,-4.64034923,,,
imu,531.166453,0.2930948720000001,-9.6709344704,2.0379065896,4.03763887,1.4275798,-4.49081103,,,
imu,531.174918,0.2877114968,-9.681103068,2.0301306032,4.17222325,1.25561087,-4.35622665,,,
imu,531.183383,0.2578038568000001,-9.692467971200001,2.0283361448,3.99277741,1.09111885,-4.124442439999999,,,
imu,531.191848,0.2476352592,-9.704431027200002,2.0103915608,3.80585466,1.03878048,-3.98238115,,,
imu,531.200312,0.2500278704,-9.717590388800001,2.0175693944,3.65631646,1.14345722,-3.7206893,,,
imu,531.208777,0.2380648144,-9.723571916800001,1.9960358936,3.3871477,1.13598031,-3.53376655,,,
imu,531.217234,0.2314851336,-9.7122070136,1.98885806,3.15536349,1.18084177,-3.46647436,,,
imu,531.225692,0.2177276192,-9.690673512800002,1.9792876152,2.88619473,1.32290306,-3.33936689,,,
imu,531.234149,0.2069608688,-9.6912716656,1.9756986984,2.7142258,1.39767216,-3.30945925,,,
imu,531.242606,0.212344244,-9.693664276800002,1.9774931568,2.48244159,1.63693328,-3.18982869,,,
imu,531.251063,0.1997830352,-9.706823638400001,1.9960358936,2.10859609,1.83880985,-3.14496723,,,
imu,531.25952,0.1985867296,-9.7151977776,2.0002229632,1.89924261,2.23508608,-2.98795212,,,
imu,531.267978,0.2165313136,-9.711608860800002,2.0103915608,1.69736604,2.4743472,-2.77859864,,,
imu,531.276435,0.2099516328,-9.728955292000002,2.0074007968,1.33847436,2.73603905,-2.68139881,,,
imu,531.284892,0.2201202304,-9.721179305600002,2.0145786304,1.18893616,2.87810034,-2.57672207,,,
imu,531.293259,0.2278962168,-9.708019944000002,2.0289342976,0.9945364999999999,3.23699202,-2.47204533,,,
imu,531.301717,0.248233412,-9.735534972800002,2.0391028952,0.7552753799999999,3.51363769,-2.26269185,,,
imu,531.310174,0.2386629672,-9.7193848472,2.0289342976,0.29170696,3.73046808,-2.18792275,,,
imu,531.318631,0.2691687600000001,-9.676317845600002,2.0295324504,-0.03727708,3.95477538,-2.25521494,,,
imu,531.327088,0.2799355104,-9.6799067624,2.0229527696,-0.14943073,4.0444983,-1.98604618,,,
imu,531.335545,0.2799355104,-9.673925234400002,2.0145786304,-0.51579932,4.08935976,-2.001,,,
imu,531.344002,0.2930948720000001,-9.684093832000002,2.0169712416,-0.39616876,4.30619015,-2.03838455,,,
imu,531.35246,0.3008708584000001,-9.647606511200001,2.0241490752,-0.40364567,4.44825144,-2.09819983,,,
imu,531.360917,0.3122357616,-9.599156134400001,2.0253453808,-0.38869185,4.44825144,-2.0757691,,,
imu,531.369374,0.3361618736,-9.617100718400001,2.0199620056,-0.26158438,4.56040509,-2.08324601,,,
imu,531.377831,0.3194135952000001,-9.627269316000001,2.0241490752,-0.18681528,4.62769728,-2.19539966,,,
imu,531.386288,0.3259932760000001,-9.635045302400002,2.0211583112,-0.16438455,4.59778964,-2.12063056,,,
imu,531.394746,0.3505175408000001,-9.647606511200001,2.021756464,-0.05970781,4.694989469999999,-1.9262309,,,
imu,531.403203,0.3582935272000001,-9.612315496,2.0343176728,-0.13447691,4.72489711,-2.05333837,,,
imu,531.41166,0.3864067088000001,-9.5985579816,2.0373084368,0.05244583999999999,4.73237402,-2.06081528,,,
imu,531.420481,0.376836264,-9.633848996800001,2.0420936592,-0.04475399000000001,4.530497449999999,-2.12810747,,,
imu,531.429302,0.3852104032000001,-9.654186192000001,2.0432899648,-0.127,4.40338998,-2.18044584,,,
imu,531.438123,0.4055475984,-9.620689635200002,2.0391028952,-0.11204618,4.37348234,-2.14306129,,,
imu,531.446944,0.4139217376000001,-9.611119190400002,2.0402992008,-0.11952309,4.26132869,-1.97856927,,,
imu,531.455765,0.406743904,-9.638036066400002,2.0522622568,-0.0522309,4.16412886,-1.98604618,,,
imu,531.464585,0.3959771536000001,-9.652989886400002,2.0600382432,-0.31392275,3.92486774,-2.13558438,,,
imu,531.473406,0.391790084,-9.6260730104,2.0564493264,-0.48589168,3.73046808,-2.31503022,,,
imu,531.482227,0.35889168,-9.609922884800001,2.0558511736,-0.38869185,3.61083752,-2.50195297,,,
imu,531.491048,0.3606861384,-9.600352440000002,2.045084423200001,-0.3513073,3.55102224,-2.53186061,,,
imu,531.499869,0.3834159448,-9.627269316000001,2.0402992008,-0.26906129,3.55849915,-2.39727623,,,
imu,531.50869,0.3457323184,-9.6015487456,2.036710284,-0.14195382,3.61083752,-2.47204533,,,
imu,531.517511,0.3481249296000001,-9.620091482400001,2.0540567152,0.07487657,3.77532954,-2.36736859,,,
imu,531.526332,0.3451341656,-9.6494009696,2.045682576,0.10478421,3.85009864,-2.38979932,,,
imu,531.535153,0.3541064576,-9.6667474008,2.0391028952,-0.007369440000000005,3.8949601,-2.34493786,,,
imu,531.543974,0.3786307224000001,-9.627867468800002,2.0325232144,0.03749201999999999,4.05945212,-2.27016876,,,
imu,531.552794,0.367863972,-9.6087265792,2.0391028952,0.19450713,4.0444983,-2.19539966,,,
imu,531.561615,0.3864067088000001,-9.625474857600002,2.042691812,0.35152224,4.15665195,-2.09072292,,,
imu,531.570436,0.3744436528,-9.631456385600002,2.027737992,0.26179932,4.22394414,-1.8514618,,,
imu,531.579257,0.3899956256000001,-9.645213900000002,2.012784172,0.41133752,4.1192674,-1.84398489,,,
imu,531.588078,0.4079402096,-9.663158484000002,2.015774936,0.44124516,4.09683667,-1.85893871,,,
imu,531.596899,0.3947808480000001,-9.6499991224,2.015774936,0.50853735,4.05945212,-1.9262309,,,
imu,531.60572,0.4276792520000001,-9.66016772,2.021756464,0.35152224,3.99215993,-1.97856927,,,
imu,531.614541,0.4193051128000001,-9.634447149600001,2.0205601584,0.35152224,3.79028336,-1.88136944,,,
imu,531.623015,0.4270810992000001,-9.612913648800001,2.0121860192,0.34404533,3.76785263,-1.96361545,,,
imu,531.631488,0.4205014184,-9.618297024,2.00381188,0.3963837,3.61083752,-1.98604618,,,
imu,531.639962,0.3995660704000001,-9.658971414400002,2.0085971024,0.29170696,3.47625314,-2.12063056,,,
imu,531.648436,0.3786307224000001,-9.631456385600002,2.0032137272,0.15712258,3.41643786,-2.10567674,,,
imu,531.656909,0.3882011672000001,-9.596165370400001,1.9900543656,0.19450713,3.41643786,-2.02343073,,,
imu,531.665383,0.391790084,-9.620689635200002,1.9870636016,0.18703022,3.56597606,-1.97856927,,,
imu,531.673857,0.3923882368,-9.636839760800001,1.970913476,0.40386061,3.55102224,-1.8514618,,,
imu,531.682331,0.4013605288,-9.6326526912,1.9792876152,0.31413769,3.69308353,-1.93370781,,,
imu,531.690804,0.3798270280000001,-9.6470083584,1.97390424,0.40386061,3.69308353,-2.06081528,,,
imu,531.699278,0.3756399584,-9.6703363176,1.9733060872,0.47862971,3.76785263,-2.13558438,,,
imu,530.286435,,,,,,,-93.6292348,164.42485,117.0975808
imu,530.387997,,,,,,,-90.8093716,164.6812012,116.2796984
imu,530.48956,,,,,,,-93.91000039999999,164.8276876,117.8300128
imu,530.591122,,,,,,,-91.9446412,164.1440844,114.5706904
imu,530.692776,,,,,,,-94.12973,164.7178228,116.9755088
imu,530.794278,,,,,,,-92.89680280000002,164.1318772,114.7171768
imu,530.895779,,,,,,,-94.618018,164.6567868,116.8778512
imu,530.997342,,,,,,,-94.6302252,164.6323724,116.6092928
imu,531.707752,0.3774344168000001,-9.685290137600001,1.97390424,0.3889067899999999,3.95477538,-2.3748455,,,
imu,531.716225,0.3774344168000001,-9.690673512800002,1.98885806,0.05992275,4.0444983,-2.62158353,,,
imu,531.724699,0.3870048616000001,-9.7151977776,1.9810820736,0.08983038999999998,4.08935976,-2.71130645,,,
imu,531.733173,0.3905937784,-9.711608860800002,1.9966340464,-0.01484635000000001,4.37348234,-2.78607555,,,
imu,531.741647,0.3899956256000001,-9.711010708000002,1.997830352,-0.29896893,4.530497449999999,-2.92065993,,,
imu,531.75012,0.4031549872,-9.708019944000002,1.994839588,-0.44850713,4.552928179999999,-2.9729983,,,
imu,531.758594,0.4097346680000001,-9.697253193600002,1.9912506712,-0.55318387,4.694989469999999,-2.99542903,,,
imu,531.767068,0.4109309736,-9.7056273328,1.9930451296,-0.90459864,4.72489711,-2.98795212,,,
imu,531.775541,0.4366515440000001,-9.6954587352,1.9894562128,-0.91207555,4.79966621,-2.8982292,,,
imu,531.784015,0.4181088072000001,-9.6703363176,1.9834746848,-1.0242292,4.77723548,-2.80102937,,,
imu,531.792489,0.4264829464000001,-9.681103068,1.9960358936,-1.05413684,4.73237402,-2.77859864,,,
imu,531.800963,0.4294737104000001,-9.703234721600001,2.0121860192,-1.28592105,4.54545127,-2.85336774,,,
imu,531.809436,0.4222958768,-9.7074217912,2.0163730888,-1.61490509,4.29871324,-3.17487487,,,
imu,531.81791,0.4013605288,-9.6703363176,1.997830352,-1.74201256,4.149175039999999,-3.36179762,,,
imu,531.826393,0.4276792520000001,-9.6075302736,2.009793408,-1.80930475,4.1192674,-3.13001341,,,
imu,531.834875,0.4187069600000001,-9.593772759200002,1.9954377408,-1.77939711,3.98468302,-2.72626027,,,
imu,531.843358,0.4103328208,-9.6224840936,2.0050081856,-1.75696638,3.98468302,-2.28512258,,,
imu,531.85184,0.3840140976,-9.599156134400001,1.997830352,-1.62985891,4.05197521,-1.97109236,,,
imu,531.860323,0.3816214864,-9.5949690648,1.9852691432,-1.51770526,4.15665195,-1.7019236,,,
imu,531.868806,0.3923882368,-9.610521037600002,1.9942414352,-1.3980747,4.26132869,-1.56733922,,,
imu,531.877288,0.4073420568000001,-9.5949690648,1.9864654488,-1.15881358,4.46320526,-1.69444669,,,
imu,531.885771,0.4199032656,-9.5949690648,1.985867296,-0.97189083,4.50806672,-1.91127708,,,
imu,531.894254,0.391790084,-9.6009505928,1.994839588,-0.76253735,4.39591307,-2.27016876,,,
imu,531.902736,0.4013605288,-9.624278552000002,1.991848824,-0.47093786,4.48563599,-2.27016876,,,
imu,531.911219,0.4193051128000001,-9.646410205600002,1.9924469768,-0.31392275,4.51554363,-2.48699915,,,
imu,531.919701,0.4264829464000001,-9.610521037600002,1.9894562128,-0.49336859,4.48563599,-2.75616791,,,
imu,531.928184,0.4390441552000001,-9.610521037600002,1.9912506712,-0.26158438,4.4931129,-3.01038285,,,
imu,531.936667,0.4193051128000001,-9.637437913600001,1.9864654488,-0.21672292,4.56040509,-3.1225365,,,
imu,531.945149,0.4312681688,-9.669140012000002,1.9876617544,-0.21672292,4.59778964,-3.03281358,,,
imu,531.953632,0.4216977240000001,-9.6535880392,1.985867296,-0.4260764,4.57535891,-3.01038285,,,
imu,531.962114,0.442633072,-9.636839760800001,1.9894562128,-0.38121494,4.62769728,-2.89075229,,,
imu,531.970597,0.4581850448000001,-9.648204664000001,1.9960358936,-0.49336859,4.530497449999999,-2.86084465,,,
imu,531.97908,0.4629702672000001,-9.6799067624,1.9984285048,-0.51579932,4.48563599,-2.77859864,,,
imu,531.987562,0.4707462536000001,-9.696655040800001,1.9960358936,-0.39616876,4.44825144,-2.71130645,,,
imu,531.996045,0.4839056152000001,-9.7056273328,1.9960358936,-0.7550604399999999,4.30619015,-2.65896808,,,
imu,532.004528,0.4785222400000001,-9.6799067624,2.0133823248,-0.74758353,4.20151341,-2.64401426,,,
imu,532.01301,0.5012520464000001,-9.696655040800001,2.0265416864,-1.0242292,3.9697292,-2.62158353,,,
imu,532.021493,0.4892889904,-9.687084596000002,2.0259435336,-1.25601341,3.7454219,-2.64401426,,,
imu,532.029938,0.4797185456,-9.673925234400002,2.0510659512,-1.55508981,3.32671494,-2.66644499,,,
imu,532.038384,0.4731388648000001,-9.7008421104,2.0869551192,-1.75696638,3.15474601,-2.73373718,,,
imu,532.04683,0.4474182944000001,-9.702636568800001,2.096525564,-2.05604278,3.05754618,-2.73373718,,,
imu,532.055276,0.4199032656,-9.669738164800002,2.1102830784,-2.30278081,2.95286944,-2.75616791,,,
imu,532.063721,0.4300718632,-9.632054538400002,2.114470148,-2.48222665,2.81828506,-2.62158353,,,
imu,532.072167,0.4372496968000001,-9.605735815200001,2.1156664536,-2.75139541,3.05006927,-2.35989168,,,
imu,532.080613,0.4366515440000001,-9.602146898400001,2.1252368984,-2.97570271,3.16969983,-2.00847691,,,
imu,532.089059,0.430670016,-9.578220786400001,2.1366018016,-3.18505619,3.31923803,-1.75426197,,,
imu,532.097504,0.4731388648000001,-9.526779645600001,2.1366018016,-3.028041079999999,3.66317589,-1.29069355,,,
imu,532.10595,0.4964668240000001,-9.4873015608,2.1246387456,-3.22991765,3.79028336,-0.9018942299999999,,,
imu,532.114396,0.5311596864,-9.5118258256,2.1515556216,-2.95327198,3.99963684,-0.71497148,,,
imu,532.122842,0.5317578392000001,-9.507638756,2.1497611632,-2.69905704,4.09683667,-0.5280487299999999,,,
imu,532.131287,0.5628617848,-9.507638756,2.15335008,-2.49718047,3.83514482,-0.62524856,,,
imu,532.139733,0.5933675776,-9.499264616800001,2.150359316,-2.01865823,3.85757555,-0.68506384,,,
imu,532.148179,0.5688433128,-9.486105255200002,2.1515556216,-1.7719202,3.69308353,-1.12620153,,,
imu,532.156625,0.5933675776,-9.539939007200001,2.174285428,-1.31582869,3.30428421,-1.4776163,,,
imu,532.16507,0.5748248408000001,-9.630858232800001,2.2167542768,-0.71019898,3.05006927,-1.89632326,,,
imu,532.173516,0.5497024232000001,-9.644615747200001,2.191631859200001,-0.64290679,2.52668557,-2.50942988,,,
imu,532.181962,0.5544876456000001,-9.603343204000002,2.1754817336,-0.68776825,2.06311715,-3.10758268,,,
imu,532.190408,0.5425245896,-9.555490980000002,2.1491630104,-0.46346095,1.60702564,-3.63096638,,,
imu,532.198853,0.5066354216000001,-9.530966715200002,2.135405496,-0.08961545,1.03130357,-4.13191935,,,
imu,532.207299,0.4874945320000001,-9.5489112992,2.1180590648,0.41133752,0.6873657099999999,-4.408565019999999,,,
imu,532.215745,0.4438293776000001,-9.577024480800002,2.129423968,0.82256757,0.4854891399999999,-4.48333412,,,
imu,532.22419,0.4276792520000001,-9.551902063200002,2.1078904672,1.00949032,0.3135202100000001,-4.430995749999999,,,
imu,532.232982,0.400762376,-9.5249851872,2.112675689600001,1.34595127,0.3209971199999999,-4.13939626,,,
imu,532.241774,0.3624805968,-9.593174606400002,2.1078904672,1.5926893,0.3060432999999998,-3.85527368,,,
imu,532.250565,0.3433397072,-9.623082246400001,2.1132738424,1.60016621,0.4705353199999998,-3.56367419,,,
imu,532.259357,0.3397507904000001,-9.636241608,2.1180590648,1.53287402,0.78456554,-3.4216129,,,
imu,532.268149,0.3361618736,-9.6248767048,2.105497856,1.39081273,1.03878048,-3.24216706,,,
imu,532.27694,0.3253951232,-9.624278552000002,2.1001144808,1.42819728,1.34533379,-3.07019813,,,
imu,532.285732,0.3265914288,-9.636839760800001,2.07858098,1.30108981,1.85376367,-2.79355246,,,
imu,532.294523,0.3271895816000001,-9.630858232800001,2.0851606608,1.11416706,2.36219355,-2.70382954,,,
imu,532.303315,0.35889168,-9.6709344704,2.1037033976,0.9571519499999999,2.66874686,-2.748691,,,
imu,532.312107,0.3541064576,-9.694860582400002,2.102507092,0.67302937,3.10988455,-2.95056757,,,
imu,532.320898,0.3702565832000001,-9.7008421104,2.1043015504,0.51601426,3.40148404,-3.32441307,,,
imu,532.32969,0.3953790008,-9.666149248000002,2.1048997032,0.30666078,3.93234465,-3.55619728,,,
imu,532.338481,0.4061457512000001,-9.6434194416,2.084562508,0.20198404,4.22394414,-3.57862801,,,
imu,532.347273,0.4187069600000001,-9.667345553600002,2.0779828272,0.10478421,4.27628251,-3.48890509,,,
imu,532.356065,0.43366078,-9.664952942400001,2.0582437848,0.25432241,4.58283582,-3.46647436,,,
imu,532.364856,0.4785222400000001,-9.664952942400001,2.0773846744,0.007584380000000002,4.739850929999999,-3.6459202,,,
imu,532.373648,0.5144114080000001,-9.640428677600001,2.0839643552,0.03749201999999999,4.70994329,-3.87770441,,,
imu,532.382439,0.5245800056000001,-9.632054538400002,2.0600382432,0.27675314,4.433297619999999,-4.07210407,,,
imu,532.391174,0.5263744640000001,-9.627269316000001,2.057645632,0.40386061,4.17908268,-4.18425772,,,
imu,532.399966,0.5419264368000001,-9.635045302400002,2.0558511736,0.45619898,3.68560662,-4.102011709999999,,,
imu,532.408757,0.5299633808,-9.624278552000002,2.0462807288,0.42629134,3.21456129,-4.16182699,,,
imu,532.417549,0.5245800056000001,-9.602146898400001,2.0552530208,0.38142988,2.71360832,-4.22911918,,,
imu,532.42634,0.5126169496,-9.6087265792,2.048673340000001,0.55339881,2.20517844,-4.0197657,,,
imu,532.435132,0.4922797544,-9.597361676,2.031326908800001,0.7403215599999999,1.76404075,-3.73564312,,,
imu,532.443626,0.4767277816000001,-9.575230022400001,2.0343176728,0.77770611,1.24065705,-3.63844329,,,
imu,532.45212,0.4282774048000001,-9.597959828800002,2.0408973536,0.8973366700000001,0.80699627,-3.44404363,,,
imu,532.460614,0.4145198904,-9.617100718400001,2.0235509224,1.07678251,0.5303505999999998,-3.03281358,,,
imu,532.469108,0.4091365152000001,-9.620091482400001,2.0289342976,1.18145925,0.2537049300000001,-2.59167589,,,
imu,532.477602,0.3864067088000001,-9.6009505928,2.0289342976,1.33847436,0.09668981999999993,-2.28512258,,,
imu,532.486096,0.3660695136000001,-9.617698871200002,2.0253453808,1.33099745,-0.15004821,-2.08324601,,,
imu,532.49459,0.3355637208,-9.617698871200002,2.0145786304,1.30856672,-0.15004821,-1.8514618,,,
imu,532.503084,0.3277877344,-9.637437913600001,2.0319250616,1.24875144,-0.08275602000000015,-1.64958523,,,
imu,532.511579,0.3056560808,-9.661962178400001,2.0271398392,1.19641307,0.19388965,-1.31312428,,,
imu,532.520073,0.3146283728000001,-9.6775141512,2.030728756,1.15155161,0.5752120599999997,-1.11124771,,,
imu,531.098842,,,,,,,-94.8133332,164.485886,116.6703288
imu,531.200405,,,,,,,-94.3982884,164.2661564,116.804608
imu,531.30212,,,,,,,-93.82455,164.180706,117.2684816
imu,531.40353,,,,,,,-94.2273876,163.9121476,117.2684816
imu,531.505123,,,,,,,-93.702478,164.5225076,117.7323552
imu,531.606777,,,,,,,-91.38311000000002,163.7412468,115.1932576
imu,531.708217,,,,,,,-93.8611716,164.9497596,116.5726712
imu,531.80978,,,,,,,-94.04427960000001,165.2549396,114.7171768
imu,532.528567,0.3206099008000001,-9.675121540000001,2.0319250616,1.03192105,1.0537343,-0.9318018699999999,,,
imu,532.537061,0.3218062064,-9.655980650400002,2.0379065896,0.9272443100000001,1.4275798,-0.91684805,,,
imu,532.545555,0.3367600264,-9.708019944000002,2.0402992008,0.6132140899999999,1.82385603,-1.14115535,,,
imu,532.554049,0.3367600264,-9.718786694400002,2.0402992008,0.43376825,2.33228591,-1.3280781,,,
imu,532.562543,0.3738455000000001,-9.693066124000001,2.0355139784,0.12721494,2.84071579,-1.67201596,,,
imu,532.571037,0.3864067088000001,-9.6745233872,2.0373084368,0.03001510999999998,3.21456129,-2.25521494,,,
imu,532.579531,0.4001642232,-9.709216249600003,2.0414955064,0.0001074699999999984,3.73794499,-2.50942988,,,
imu,532.588025,0.4210995712,-9.7151977776,2.0462807288,-0.10456927,4.08935976,-2.76364482,,,
imu,532.596519,0.4450256832000001,-9.731347903200001,2.0600382432,-0.33635348,4.171605769999999,-3.17487487,,,
imu,532.605013,0.4785222400000001,-9.7283571392,2.072599452,-0.52327623,4.27628251,-3.52628964,,,
imu,532.613507,0.4916816016,-9.703234721600001,2.0731976048,-0.874691,4.30619015,-3.7206893,,,
imu,532.622001,0.5120187968000001,-9.635045302400002,2.0714031464,-1.14385976,4.149175039999999,-3.70573548,,,
imu,532.630495,0.5090280328000001,-9.6499991224,2.0773846744,-1.22610577,3.82766791,-3.77302767,,,
imu,532.638989,0.5126169496,-9.657775108800001,2.0773846744,-1.30835178,3.56597606,-3.4216129,,,
imu,532.647434,0.5042428104000001,-9.599754287200001,2.06362716,-1.31582869,3.39400713,-3.09262886,,,
imu,532.655878,0.5096261856000001,-9.604539509600002,2.0881514248,-1.42050543,3.16222292,-3.02533667,,,
imu,532.664323,0.5072335744,-9.627867468800002,2.0887495776,-1.18124431,2.90800798,-2.79355246,,,
imu,532.672767,0.5060372688000001,-9.5800152448,2.0809735912,-1.16629049,2.64631613,-2.4496146,,,
imu,532.681212,0.5269726168000001,-9.549509452,2.0869551192,-1.21115195,2.36219355,-2.31503022,,,
imu,532.689656,0.5090280328000001,-9.557883591200001,2.0881514248,-0.97189083,2.07059406,-2.13558438,,,
imu,532.698101,0.4809148512,-9.571641105600001,2.0809735912,-0.90459864,1.83880985,-1.96361545,,,
imu,532.706545,0.4845037680000001,-9.5602762024,2.0959274112,-0.8672140899999999,1.71170238,-1.85893871,,,
imu,532.71499,0.481513004,-9.5740337168,2.1072923144,-0.77749117,1.68179474,-1.65706214,,,
imu,532.723434,0.4665591840000001,-9.555490980000002,2.1132738424,-0.7550604399999999,1.67431783,-1.54490849,,,
imu,532.731879,0.4623721144,-9.576426328,2.1282276624,-0.81487572,1.68179474,-1.67201596,,,
imu,532.740323,0.4569887392,-9.590183842400002,2.135405496,-0.7550604399999999,1.70422547,-1.64210832,,,
imu,532.748768,0.4450256832000001,-9.572239258400002,2.1312184264,-0.61299915,1.89862513,-1.58976995,,,
imu,532.757212,0.4504090584,-9.580613397600002,2.1366018016,-0.81487572,2.12293243,-1.74678506,,,
imu,532.765656,0.4569887392,-9.554892827200002,2.1216479816,-0.7999219,2.3995781,-1.88136944,,,
imu,532.774101,0.4575868920000001,-9.528574104,2.1258350512,-0.64290679,2.68370068,-2.02343073,,,
imu,532.782545,0.4581850448000001,-9.541733465600002,2.1228442872,-0.35878421,2.82576197,-2.36736859,,,
imu,532.79099,0.4432312248,-9.556089132800002,2.1060960088,-0.13447691,3.16222292,-2.66644499,,,
imu,532.799434,0.4462219888000001,-9.571641105600001,2.1138719952,0.20198404,3.26689966,-2.92065993,,,
imu,532.807879,0.4623721144,-9.5566872856,2.0953292584,0.3889067899999999,3.56597606,-3.1225365,,,
imu,532.816323,0.4761296288000001,-9.5590798968,2.0923384944,0.71789083,3.82766791,-3.45899745,,,
imu,532.824768,0.4689517952000001,-9.597959828800002,2.0971237168,1.10669015,4.06692903,-3.60105874,,,
imu,532.833212,0.4719425592000001,-9.6015487456,2.0737957576,1.33847436,4.1192674,-3.84031986,,,
imu,532.841657,0.4803166984,-9.636839760800001,2.0648234656,1.46558183,4.29871324,-3.93004278,,,
imu,532.85011,0.4892889904,-9.625474857600002,2.0779828272,1.58521239,4.4183438,-4.04219643,,,
imu,532.858563,0.5042428104000001,-9.596165370400001,2.0660197712,1.63007385,4.28375942,-4.17678081,,,
imu,532.867017,0.5090280328000001,-9.623082246400001,2.057645632,1.80204278,4.08935976,-4.32631901,,,
imu,532.87547,0.499457588,-9.6523917336,2.0349158256,1.92915025,3.90991392,-4.28893446,,,
imu,532.883924,0.5197947832,-9.645213900000002,2.0379065896,1.82447351,3.73046808,-4.146873169999999,,,
imu,532.892377,0.5084298800000001,-9.634447149600001,2.0349158256,1.8917657,3.64822207,-4.124442439999999,,,
imu,532.90083,0.4880926848000001,-9.6499991224,2.0163730888,1.72727368,3.38653022,-4.02724261,,,
imu,532.909284,0.4862982264000001,-9.668541859200001,2.0062044912,1.71231986,3.30428421,-3.80293531,,,
imu,532.917737,0.4886908376000001,-9.647606511200001,1.9996248104,1.89924261,3.00520781,-3.71321239,,,
imu,532.92619,0.4910834488,-9.6434194416,1.9852691432,1.92915025,2.70613141,-3.51133582,,,
imu,532.934644,0.4713444064,-9.6505972752,1.9834746848,1.71979677,2.44443956,-3.47395127,,,
imu,532.943097,0.4641665728000001,-9.66016772,1.9804839208,1.67493531,2.19022462,-3.45899745,,,
imu,532.95155,0.4605776560000001,-9.640428677600001,1.9673245592,1.74970441,2.01825569,-3.33936689,,,
imu,532.960004,0.4498109056,-9.6499991224,1.9631374896,1.86933497,1.82385603,-3.24216706,,,
imu,532.968457,0.424688488,-9.6775141512,1.9756986984,1.78708896,1.51730272,-3.17487487,,,
imu,532.976911,0.4390441552000001,-9.658373261600001,1.9535670448,1.63755076,1.39767216,-3.18235178,,,
imu,532.985364,0.4414367664,-9.618895176800002,1.9511744336,1.7422275,1.2032725,-3.01038285,,,
imu,532.993817,0.4240903352000001,-9.630858232800001,1.9439966,1.92167334,1.09859576,-2.8982292,,,
imu,533.002271,0.4163143488000001,-9.654784344800001,1.9284446272,1.95158098,0.7920424499999998,-2.84589083,,,
imu,533.010724,0.4019586816,-9.656578803200002,1.9368187664,2.07121154,0.6499811599999998,-2.95056757,,,
imu,533.019177,0.3882011672000001,-9.6775141512,1.9398095304,2.16841137,0.4555814999999996,-2.9729983,,,
imu,533.027631,0.382817792,-9.711608860800002,1.9374169192,2.33290339,0.35838167,-2.83841392,,,
imu,533.036084,0.3732473472,-9.7086180968,1.9398095304,2.36281103,0.3808123999999999,-2.83841392,,,
imu,533.044538,0.3600879856,-9.716992236000001,1.9463892112,2.10859609,0.3284740299999998,-2.62906044,,,
imu,533.052996,0.3379563320000001,-9.7427128064,1.9547633504,1.8169966,0.3284740299999998,-2.51690679,,,
imu,533.061454,0.320011748,-9.727160833600001,1.9667264064,1.54782784,0.4256738599999998,-2.36736859,,,
imu,533.069913,0.3206099008000001,-9.709814402400001,1.9703153232,1.09173633,0.6051196999999999,-2.23278421,,,
imu,533.078371,0.3068523864000001,-9.738525736800002,1.9655301008,0.78518302,0.80699627,-2.12063056,,,
imu,533.08683,0.2948893304,-9.718188541600002,1.9523707392,0.63564482,0.9565344699999998,-1.98604618,,,
imu,533.095288,0.3086468448,-9.7086180968,1.9565578088,0.3889067899999999,1.25561087,-2.02343073,,,
imu,533.103747,0.3271895816000001,-9.675719692800001,1.9583522672,0.07487657,1.69674856,-1.84398489,,,
imu,533.112205,0.3265914288,-9.675121540000001,1.976895004,-0.26906129,2.15284007,-1.64210832,,,
imu,533.120664,0.3218062064,-9.713403319200001,1.985867296,-0.50832241,2.45191647,-1.63463141,,,
imu,533.129122,0.3355637208,-9.756470320800002,1.9900543656,-0.83730645,2.78837742,-1.69444669,,,
imu,533.137581,0.3559009160000001,-9.714599624800002,1.994839588,-1.20367504,3.1472691,-1.7019236,,,
imu,533.146039,0.3893974728000001,-9.669738164800002,1.9894562128,-1.51022835,3.47625314,-1.5523854,,,
imu,533.154497,0.4043512928,-9.666149248000002,1.9954377408,-1.56256672,3.820191,-1.30564737,,,
imu,533.162956,0.4055475984,-9.692467971200001,1.9930451296,-1.59247436,4.194036499999999,-1.05890934,,,
imu,531.911312,,,,,,,-93.8977932,165.1450748,117.3173104
imu,532.013362,,,,,,,-94.04427960000001,165.1694892,117.1464096
imu,532.11465,,,,,,,-94.5691892,165.1694892,117.3417248
imu,532.21606,,,,,,,-94.2029732,165.462462,116.8290224
imu,532.325435,,,,,,,-94.068694,165.1206604,116.1698336
imu,532.426967,,,,,,,-94.2029732,165.0230028,116.804608
imu,532.528621,,,,,,,-91.5906324,164.0342196,115.5960952
imu,532.630123,,,,,,,-94.00765799999999,165.2549396,117.8910488
imu,532.731694,,,,,,,-91.871398,163.6802108,114.8392488
imu,532.833287,,,,,,,-93.82455,164.7544444,116.8900584
imu,532.935094,,,,,,,-94.23959479999999,164.2051204,115.889068
imu,533.036351,,,,,,,-93.5315772,164.5347148,117.4515896
imu,533.138066,,,,,,,-93.61702760000001,164.546922,117.1952384
