Type,Timestamp,Data Accelerometer X,Data Accelerometer Y,Data Accelerometer Z,Data Gyroscope X,Data Gyroscope Y,Data Gyroscope Z,Data Magnetometer X,Data Magnetometer Y,Data Magnetometer Z
imu,93.658704,0.8972292000000002,-9.481320032800001,2.812514465600001,12.0603633,-1.16690797,-5.50767079,,,
imu,93.667186,0.9498666464000002,-9.481320032800001,2.7778216032,11.85848673,-1.51832274,-5.79179337,,,
imu,93.675669,1.0054948568,-9.461580990400002,2.7209970872,11.73885617,-1.95946043,-5.8142241,,,
imu,93.684152,1.0838528736,-9.458590226400002,2.7084358784,11.66408707,-2.69219761,-5.98619303,,,
imu,93.692634,1.1849406968,-9.437654878400002,2.6904912944,11.95568656,-3.69410355,-6.14320814,,,
imu,93.701117,1.2973934232,-9.402363863200002,2.667761488,11.99307111,-5.3016392,-6.509576729999999,,,
imu,93.709599,1.4104443024,-9.385615584800002,2.6540039736,12.48654717,-7.23068198,-6.576868919999999,,,
imu,93.718053,1.4882041664,-9.388606348800002,2.643835376000001,12.86786958,-9.55600099,-6.532007459999999,,,
imu,93.726506,1.5390471544,-9.3766432928,2.6127314304,13.22676126,-12.28507314,-6.42733072,,,
imu,93.73496,1.576132628,-9.3658765424,2.5744496512,13.78752951,-15.08891439,-5.896470109999999,,,
imu,93.743413,1.5635714192,-9.335370749600001,2.5349715664,14.13894428,-18.13201676,-5.1413022,,,
imu,93.751866,1.5061487504,-9.339557819200001,2.4954934816,14.79691236,-21.16016531,-4.102011709999999,,,
imu,93.76032,1.4349685672,-9.3628857784,2.4500338688,15.25300387,-23.96400656,-3.04029049,,,
imu,93.768773,1.3853218848,-9.384419279200001,2.414144700800001,15.88106431,-26.55101742,-1.90380017,,,
imu,93.777226,1.3613957728,-9.462777296000002,2.380648144,16.4717402,-29.05578227,-0.6701100199999999,,,
imu,93.78568,1.324908452,-9.576426328,2.383040755200001,16.74838587,-31.56054712,0.5112417599999999,,,
imu,93.794133,1.2656913248,-9.7534795568,2.4308929792,16.74838587,-33.84848158,1.65520899,,,
imu,93.802586,1.175370252,-9.9335235496,2.449435716,16.14275616,-35.807432,2.79917622,,,
imu,93.81104,1.0653101368,-10.0298261504,2.4093594784,14.61746652,-37.3775831,3.92818963,,,
imu,93.819493,0.9863539672000001,-9.992740676800002,2.3662924768,12.86039267,-38.59631943,5.146925960000001,,,
imu,93.827947,0.9079959504000001,-9.8946436176,2.33279592,10.88648843,-39.56831773,6.26846246,,,
imu,93.8364,0.8194693360000002,-9.8049206976,2.320832864,9.33876806,-40.20385508,7.240460759999999,,,
imu,93.844853,0.7345316384000001,-9.767237071200002,2.293915988,8.0228319,-40.57770058,8.37695108,,,
imu,93.853307,0.6777071224000001,-9.748096181600001,2.290327071200001,6.99101832,-40.71976187,9.23679573,,,
imu,93.86176,0.6304530512000001,-9.7331423616,2.2795603208,6.17603513,-40.4431162,9.977009820000001,,,
imu,93.870213,0.5694414656000001,-9.669140012000002,2.25802682,5.50311323,-40.09170143,10.5602088,,,
imu,93.878667,0.5180003248000001,-9.579417092000002,2.2574286672,4.97225262,-39.55336391,11.11350014,,,
imu,93.88712,0.4677554896000001,-9.487899713600001,2.2346988608,4.69560695,-38.80567291,11.53968401,,,
imu,93.895574,0.4366515440000001,-9.4215047528,2.2143616656,4.41896128,-37.74395169,11.97334479,,,
imu,93.904027,0.400762376,-9.352717180800001,2.222735804800001,4.32923836,-36.45792317,12.40700557,,,
imu,93.91248,0.3744436528,-9.3246039992,2.2472600696,4.374099820000001,-35.00740263,12.54906686,,,
imu,93.920979,0.3612842912,-9.3754469872,2.2831492376,4.1348387,-33.45220535,12.57149759,,,
imu,93.929477,0.3630787496,-9.4663662128,2.3274125448,3.90305449,-31.57550094,12.64626669,,,
imu,93.937976,0.3929863896,-9.5489112992,2.3381792952,3.79090084,-29.6763658,12.5789745,,,
imu,93.946474,0.4276792520000001,-9.557285438400001,2.3441608232,3.52920899,-27.90433813,12.19765209,,,
imu,93.954973,0.4647647256,-9.4908904776,2.3441608232,3.37219388,-26.22203338,11.56959165,,,
imu,93.963471,0.5012520464000001,-9.440047489600001,2.3489460456,3.34976315,-24.46495953,11.09854632,,,
imu,93.97197,0.5383375200000001,-9.441841948000002,2.3650961712,3.46939371,-22.61816276,10.61254717,,,
imu,93.980469,0.580208216,-9.439449336800001,2.3609091016,3.40957843,-20.9283811,10.02187128,,,
imu,93.988967,0.6298548984000001,-9.435860420000001,2.368685088,3.26751714,-19.41804528,9.124642080000001,,,
imu,93.997466,0.6609588440000002,-9.46576806,2.429696673600001,2.89367164,-18.04977075,8.07039777,,,
imu,94.005964,0.6705292888000001,-9.5812115504,2.4841285784,2.3403803,-16.79364987,6.963815090000001,,,
imu,94.014463,0.6896701784000001,-9.671532623200001,2.5116436072,1.76465823,-15.619775,6.09649353,,,
imu,94.022961,0.7046239984,-9.685290137600001,2.5164288296,1.17398234,-14.25897738,5.01981849,,,
imu,94.03146,0.7147925960000001,-9.6260730104,2.529588191200001,0.32909151,-12.94304122,3.6814516,,,
imu,94.039958,0.7273538048000001,-9.5357519376,2.5397567888,-0.30644584,-11.83645854,2.44776145,,,
imu,94.048457,0.7554669864000001,-9.479525574400002,2.5439438584,-0.60552224,-10.66258367,1.41594787,,,
imu,94.056955,0.7883653904000001,-9.4526086984,2.5421494,-0.68029134,-9.4887088,0.6009646800000001,,,
imu,94.065454,0.8218619472,-9.429878892000001,2.548130928,-0.71767589,-8.27744938,0.02524261000000028,,,
imu,94.073952,0.8445917536,-9.393989724,2.575047804,-0.83730645,-7.215728159999999,-0.5355256399999999,,,
imu,94.082451,0.8523677400000002,-9.359895014400001,2.5923942352,-0.76253735,-6.340929689999999,-1.21592445,,,
imu,94.09095,0.8248527112,-9.346735652800001,2.615124041600001,-0.5681376899999999,-5.750253799999999,-2.05333837,,,
imu,94.099448,0.8248527112,-9.351520875200002,2.6420409176,-0.47093786,-5.122193360000001,-2.95804448,,,
imu,94.107947,0.8260490168000001,-9.344941194400002,2.6420409176,-0.61299915,-4.50908674,-3.86275059,,,
imu,94.116445,0.8344231560000002,-9.367671000800001,2.649816904,-0.48589168,-3.96327231,-4.25902682,,,
imu,94.124944,0.8481806704000001,-9.414326919200002,2.667761488,-0.58309151,-3.16324294,-4.58053395,,,
imu,94.134041,0.8553585040000001,-9.4454308648,2.6486205984,-0.7999219,-2.51275177,-4.74502597,,,
imu,94.143137,0.8386102256000002,-9.4203084472,2.592992388,-1.00179847,-1.75758386,-4.70764142,,,
imu,94.152234,0.8146841136000001,-9.4005694048,2.570860734400001,-1.10647521,-1.09213887,-4.737549059999999,,,
imu,94.161331,0.8146841136000001,-9.415523224800001,2.5618884424,-1.27844414,-0.4939860700000001,-4.58801086,,,
imu,94.170428,0.8511714344000001,-9.446627170400001,2.555308761600001,-1.42050543,0.3209971199999999,-4.453426479999999,,,
imu,94.179525,0.8876587552000001,-9.440645642400002,2.5421494,-1.622382,0.98644211,-4.430995749999999,,,
imu,94.188622,0.9109867144000001,-9.426289975200001,2.548729080800001,-1.59995127,1.5023489,-4.22911918,,,
imu,94.197719,0.9038088808000001,-9.441841948000002,2.570860734400001,-1.91398149,1.98087114,-4.13191935,,,
imu,94.206816,0.8936402832000001,-9.486703408,2.5917960824,-2.06351969,2.28742445,-3.98238115,,,
imu,94.215913,0.8816772272000001,-9.526181492800001,2.6157221944,-2.19062716,2.68370068,-3.78798149,,,
imu,94.225009,0.8894532136000001,-9.546518688,2.6252926392,-2.31773463,2.97530017,-3.98985806,,,
imu,94.234106,0.8966310472000002,-9.553696521600001,2.6396483064,-2.48970356,3.2220382,-4.18425772,,,
imu,94.243203,0.8762938520000002,-9.5566872856,2.648022445600001,-2.51213429,3.26689966,-4.28893446,,,
imu,94.2523,0.8583492680000002,-9.541733465600002,2.6324704728,-2.76634923,3.31176112,-4.453426479999999,,,
imu,94.261397,0.8374139200000001,-9.488497866400001,2.6001702216,-2.75887232,3.5958837,-4.56558013,,,
imu,94.270418,0.8290397808000001,-9.416719530400002,2.5905997768,-2.66167249,3.68560662,-4.78241052,,,
imu,94.279515,0.8344231560000002,-9.412532460800001,2.599572068800001,-2.32521154,3.84262173,-4.87213344,,,
imu,94.288612,0.8284416280000001,-9.441841948000002,2.6043572912,-2.01865823,3.820191,-4.93942563,,,
imu,94.297709,0.8134878080000001,-9.460384684800001,2.5888053184,-1.7719202,3.797760269999999,-4.999240909999999,,,
imu,94.306805,0.8212637944000001,-9.447225323200001,2.5888053184,-1.58499745,3.58092988,-5.34317877,,,
imu,94.315902,0.8344231560000002,-9.410139849600002,2.587609012800001,-1.33078251,3.33419185,-5.612347529999999,,,
imu,94.324999,0.8410028368000001,-9.382026668000002,2.581029332,-0.9793677399999999,3.24446893,-5.77683955,,,
imu,94.334096,0.8350213088000001,-9.373054376,2.575047804,-0.62047606,2.87810034,-5.8889932,,,
imu,94.342184,0.8368157672000002,-9.380830362400001,2.5756459568,-0.14943073,2.45191647,-5.9637623,,,
imu,94.350273,0.8116933496000001,-9.4244955168,2.5726551928,0.27675314,2.0257326,-5.99366994,,,
imu,94.358361,0.8069081272,-9.4454308648,2.5606921368,0.5010604399999999,1.5023489,-5.98619303,,,
imu,94.36645,0.7793930984000002,-9.4382530312,2.554112456,0.68798319,1.06121121,-6.02357758,,,
imu,94.374538,0.7488873056,-9.418513988800001,2.5517198448,0.76275229,0.8294269999999999,-5.86656247,,,
imu,94.382626,0.7219704296,-9.409541696800002,2.5367660248,1.03939796,0.56025824,-5.64973208,,,
imu,94.390715,0.7129981376000001,-9.399971252000002,2.5236066632,1.09173633,0.3060432999999998,-5.41794787,,,
imu,94.398803,0.6956517064000001,-9.385017432000001,2.5026713152,1.18893616,0.1041667299999998,-5.0665331,,,
imu,94.406892,0.6663422192,-9.389204501600002,2.499082398400001,1.30108981,0.08921290999999965,-4.68521069,,,
imu,94.41498,0.6729219000000001,-9.436458572800001,2.5218122048,1.4431511,0.2312741999999997,-4.22164227,,,
imu,94.423068,0.6866794144,-9.486703408,2.5259992744,1.7422275,0.3060432999999998,-3.59358183,,,
imu,94.431157,0.7082129152000001,-9.5004609224,2.5134380656,1.68241222,0.47801223,-3.15992105,,,
imu,94.439245,0.7225685824,-9.522592576000001,2.5403549416,1.31604363,0.3434278499999999,-2.88327538,,,
imu,94.447333,0.7034276928000001,-9.562668813600002,2.563084748,0.94219813,0.3135202100000001,-2.56176825,,,
imu,94.455422,0.6986424704000002,-9.6009505928,2.5828237904,0.56087572,0.3060432999999998,-2.32998404,,,
imu,94.46351,0.7165870544000001,-9.623680399200001,2.6073480552,0.03749201999999999,0.2387511099999999,-2.24026112,,,
imu,94.471599,0.7165870544000001,-9.602146898400001,2.603759138400001,-0.47841477,0.3509047599999997,-1.89632326,,,
imu,94.479687,0.7297464160000001,-9.5668558832,2.6061517496,-0.67281443,0.5153967799999997,-1.44770866,,,
imu,94.487775,0.7530743752000001,-9.524387034400002,2.613329583200001,-0.89712173,0.7097964399999999,-0.7822636699999999,,,
imu,94.495864,0.7841783208,-9.487899713600001,2.5935905408,-1.07656757,0.7770886299999997,-0.1093417699999999,,,
imu,94.503952,0.8302360864000001,-9.437056725600002,2.569066276,-1.03170611,0.8294269999999999,0.04019642999999995,,,
imu,94.51204,0.8625363376,-9.3862137376,2.5606921368,-0.7401066199999999,0.8144731799999998,0.0177657,,,
imu,94.520129,0.8846679912000001,-9.3658765424,2.57205704,-0.6279529699999999,0.7397040799999997,-0.1093417699999999,,,
imu,94.528217,0.9145756312000002,-9.3586987088,2.584020096,-0.35878421,0.4481045899999998,-0.2738337899999999,,,
imu,94.536306,0.9307257568000001,-9.374250681600001,2.585814554400001,-0.06718472,0.05182836000000002,-0.4682334499999998,,,
imu,94.544833,0.9169682424000002,-9.4005694048,2.6043572912,-0.17186146,-0.1874327600000001,-0.4682334499999998,,,
imu,94.553361,0.9157719368000001,-9.425691822400001,2.6175166528,-0.13447691,-0.23229422,-0.31869525,,,
imu,94.561889,0.9121830200000002,-9.4107380024,2.590001624000001,-0.23915365,-0.45660152,-0.2813106999999999,,,
imu,94.570416,0.8954347416000001,-9.3557079448,2.5588976784,-0.49336859,-0.5538013500000001,-0.3859874399999998,,,
imu,94.578944,0.885266144,-9.3168280128,2.5654773592,-0.71019898,-0.5463244400000002,-0.37851053,,,
imu,94.587472,0.9079959504000001,-9.326398457600002,2.557103220000001,-0.61299915,-0.31454023,-0.23644924,,,
imu,94.595999,0.9510629520000001,-9.346735652800001,2.5523179976,-0.33635348,-0.1949096699999999,-0.06448030999999999,,,
imu,94.604527,0.9929336480000002,-9.347333805600002,2.5248029688,-0.02980017,-0.03789456000000024,0.1747808100000001,,,
imu,94.613055,1.034804344,-9.337165208000002,2.5188214408,0.3963837,0.1490281899999997,0.4663803,,,
imu,94.621582,1.0629175256,-9.33118368,2.4895119536,0.7552753799999999,-0.03041764999999996,0.4888110299999999,,,
imu,94.63011,1.0820584152,-9.332379985600001,2.4859230368,1.1440747,-0.1350943900000003,0.4140419300000002,,,
imu,94.638638,1.1059845272,-9.361689472800002,2.4631932304,1.7422275,-0.17247894,0.36170356,,,
imu,94.647165,1.1442663064,-9.3718580704,2.4667821472,2.47496468,-0.4042631500000002,0.1448731699999999,,,
imu,94.655693,1.1849406968,-9.385615584800002,2.4679784528,2.96096383,-0.8977392100000001,-0.2065416,,,
imu,94.664221,1.1945111416,-9.405952780000002,2.4799415088,3.24508641,-1.3388769,-0.7224483899999998,,,
imu,93.701551,,,,,,,-94.3860812,166.2681372,105.7448848
imu,93.802991,,,,,,,-94.1541444,166.0606148,108.07646
imu,93.904523,,,,,,,-90.87040760000001,164.485886,108.564748
imu,94.006116,,,,,,,-92.37189320000002,164.9863812,112.410016
imu,94.672748,1.1939129888,-9.4203084472,2.4787452032,3.41705534,-1.80244532,-1.27573973,,,
imu,94.681276,1.1837443912,-9.423299211200002,2.4727636752,3.82828539,-2.22115228,-1.65706214,,,
imu,94.689804,1.1897259192,-9.412532460800001,2.471567369600001,3.9853005,-2.82678199,-2.12810747,,,
imu,94.698331,1.1927166832,-9.403560168800002,2.4566135496,4.42643819,-3.21558131,-2.35989168,,,
imu,94.706859,1.193314836,-9.4244955168,2.45242648,4.8077606,-3.58942681,-2.6739219,,,
imu,94.715387,1.1921185304,-9.4454308648,2.4518283272,5.00963717,-4.05299523,-2.80102937,,,
imu,94.723914,1.205277892,-9.450814240000001,2.416537312,5.06945245,-4.47170219,-2.92813684,,,
imu,94.732442,1.1909222248,-9.446627170400001,2.4279022152,5.45825177,-4.95022443,-3.01785976,,,
imu,94.740936,1.1640053488,-9.462777296000002,2.450632021600001,5.58535924,-5.339023750000001,-3.25712088,,,
imu,94.74943,1.1442663064,-9.517807353600002,2.4512301744,5.53302087,-5.839976719999999,-3.5711511,,,
imu,94.757924,1.1209383472,-9.5184055064,2.443454188,5.32366739,-6.236252950000001,-3.70573548,,,
imu,94.766418,1.0868436376,-9.4908904776,2.429696673600001,4.89000661,-6.520375530000001,-3.60853565,,,
imu,94.774912,1.0521507752,-9.4873015608,2.4338837432,4.62083785,-6.610098450000001,-3.22721324,,,
imu,94.783406,1.0174579128,-9.502255380800001,2.437472660000001,4.4339151,-6.669913729999999,-2.98047521,,,
imu,94.7919,0.9875502728000001,-9.516012895200001,2.4362763544,4.00773123,-6.83440575,-2.83093701,,,
imu,94.800395,0.9618297024000001,-9.4974701584,2.4129483952,3.78342393,-6.77459047,-2.69635263,,,
imu,94.808889,0.9618297024000001,-9.51062952,2.4117520896,3.56659354,-6.77459047,-2.65896808,,,
imu,94.817383,0.9606333968,-9.519003659200001,2.406368714400001,3.37967079,-6.647482999999999,-2.73373718,,,
imu,94.825877,0.9522592576000002,-9.516611048000001,2.383638908,3.23013259,-6.632529180000001,-2.78607555,,,
imu,94.834371,0.9373054376000002,-9.5082369088,2.3854333664,3.10302512,-6.69982137,-3.01785976,,,
imu,94.842865,0.9379035904000002,-9.527377798400002,2.380648144,3.03573293,-6.66243682,-3.35432071,,,
imu,94.851359,0.9594370912000001,-9.554892827200002,2.3800499912,2.87871782,-6.83440575,-3.63844329,,,
imu,94.859853,0.9480721880000001,-9.554294674400001,2.365694324000001,2.7142258,-6.976467039999999,-4.08705789,,,
imu,94.868347,0.9127811728000002,-9.551303910400001,2.374666616,2.50487232,-6.90169794,-4.47585721,,,
imu,94.876841,0.903210728,-9.5357519376,2.3854333664,2.32542648,-6.976467039999999,-4.5431494,,,
imu,94.885335,0.9301276040000002,-9.513620284000002,2.365694324000001,2.21327283,-7.07366687,-4.759979789999999,,,
imu,94.893829,0.9408943544,-9.492086783200001,2.3591146432,1.9665348,-7.133482150000001,-5.16373293,,,
imu,94.902323,0.9271368400000001,-9.471151435200001,2.3603109488,1.8917657,-7.170866699999999,-5.24597894,,,
imu,94.910817,0.8984255056000002,-9.482516338400002,2.3633017128,1.85438115,-7.215728159999999,-5.260932759999999,,,
imu,94.919311,0.8762938520000002,-9.4962738528,2.369283240800001,1.98148862,-7.193297429999999,-5.41794787,,,
imu,94.927805,0.8583492680000002,-9.486703408,2.3650961712,1.77213514,-7.25311271,-5.48524006,,,
imu,94.936299,0.8439936008000001,-9.478927421600002,2.36270356,1.7422275,-7.14843597,-5.42542478,,,
imu,94.944748,0.8398065312,-9.4753385048,2.36270356,1.78708896,-6.894221030000001,-5.46280933,,,
imu,94.953196,0.8242545584000001,-9.4765348104,2.362105407200001,2.06373463,-6.81945193,-5.45533242,,,
imu,94.961644,0.8122915024000001,-9.487899713600001,2.3579183376,2.09364227,-6.602621539999999,-5.4403786,,,
imu,94.970093,0.8332268504000001,-9.504647992000002,2.3615072544,2.07121154,-6.325975870000001,-5.29831731,,,
imu,94.978541,0.8487788232000001,-9.534555632000002,2.371675852,1.98896553,-6.191391489999999,-5.29831731,,,
imu,94.986989,0.8517695872000001,-9.534555632000002,2.369283240800001,1.80204278,-6.15400694,-5.34317877,,,
imu,94.995437,0.8350213088000001,-9.513022131200001,2.36270356,1.79456587,-6.079237839999999,-5.612347529999999,,,
imu,95.003886,0.8302360864000001,-9.5010590752,2.3501423512,1.80204278,-5.98203801,-5.79927028,,,
imu,95.012334,0.8248527112,-9.490292324800002,2.3459552816,1.74970441,-5.95960728,-5.874039379999999,,,
imu,95.020782,0.8146841136000001,-9.4980683112,2.3399737536,1.8169966,-5.89231509,-5.85908556,,,
imu,95.029231,0.8146841136000001,-9.512423978400001,2.3591146432,2.0413039,-5.712869250000001,-5.8889932,,,
imu,95.037679,0.8116933496000001,-9.533957479200001,2.3674887824,1.94410407,-5.555854139999999,-5.8889932,,,
imu,95.046127,0.7889635432000001,-9.555490980000002,2.3650961712,1.80204278,-5.66053088,-6.23293106,,,
imu,95.054575,0.7620466672,-9.5429297712,2.3519368096,1.65998149,-5.600715599999999,-6.51705364,,,
imu,95.063024,0.7303445688000001,-9.536350090400001,2.3513386568,1.54782784,-5.65305397,-6.71893021,,,
imu,95.071472,0.7177833600000001,-9.5184055064,2.3441608232,1.42819728,-5.63062324,-6.85351459,,,
imu,95.07992,0.6998387760000001,-9.499862769600002,2.3333940728,1.24127453,-5.496038860000001,-7.09277571,,,
imu,95.088369,0.6830904976000001,-9.481918185600001,2.33279592,1.63755076,-5.24182392,-7.00305279,,,
imu,95.096817,0.6747163584000001,-9.48072188,2.3226273224,1.60016621,-5.122193360000001,-6.988098969999999,,,
imu,95.105265,0.6424161072,-9.4908904776,2.3244217808,1.45062801,-4.965178249999999,-7.18249863,,,
imu,95.113713,0.6172936896000001,-9.498666464000001,2.3196365584,1.69736604,-4.71844022,-7.04043734,,,
imu,95.122162,0.601143564,-9.505844297600001,2.3172439472,1.69736604,-4.63619421,-7.00305279,,,
imu,95.13061,0.5843952856000001,-9.491488630400001,2.3220291696,1.6674584,-4.49413292,-7.077821889999999,,,
imu,95.139058,0.5718340768000001,-9.502255380800001,2.3333940728,1.54782784,-4.38945618,-7.11520644,,,
imu,95.147873,0.5592728680000001,-9.5010590752,2.3321977672,1.56278166,-4.23244107,-7.055391159999999,,,
imu,95.156687,0.5341504504000001,-9.511227672800002,2.3196365584,1.60016621,-3.9557954,-6.7862224,,,
imu,95.165501,0.5305615336,-9.520199964800002,2.3345903784,1.54782784,-3.58942681,-6.554438189999999,,,
imu,95.174315,0.5191966304000001,-9.5184055064,2.3070753496,1.60016621,-3.27539659,-6.32265398,,,
imu,95.18313,0.5269726168000001,-9.5148165896,2.304084585600001,1.60016621,-3.0585662,-6.10582359,,,
imu,95.191944,0.5311596864,-9.520199964800002,2.3196365584,1.39081273,-2.70715143,-5.75440882,,,
imu,95.200758,0.5329541448,-9.568052188800001,2.3351885312,1.34595127,-2.43798267,-5.58243989,,,
imu,95.209572,0.5455153536,-9.592576453600001,2.3399737536,1.20388998,-2.43050576,-5.567486069999999,,,
imu,95.218387,0.5520950344000001,-9.572837411200002,2.3315996144,0.94967504,-2.40807503,-5.500193879999999,,,
imu,95.227201,0.5437208952000001,-9.539939007200001,2.307673502400001,0.77770611,-2.19124464,-5.350655679999999,,,
imu,95.236015,0.5102243384,-9.568052188800001,2.30288828,0.83004448,-2.07909099,-5.13382529,,,
imu,95.24483,0.4916816016,-9.620091482400001,2.307673502400001,0.77770611,-1.99684498,-5.05157928,,,
imu,95.253644,0.4922797544,-9.638634219200002,2.3345903784,0.6954601,-1.91459897,-5.11887147,,,
imu,95.262458,0.5185984776000001,-9.648802816800002,2.3393756008,0.70293701,-1.75010695,-5.216071299999999,,,
imu,95.271272,0.5335522976000001,-9.662560331200002,2.3453571288,0.46367589,-1.72767622,-5.260932759999999,,,
imu,95.280087,0.5180003248000001,-9.662560331200002,2.321431016800001,0.21693786,-1.64543021,-5.12634838,,,
imu,95.288901,0.5018501992000001,-9.646410205600002,2.3166457944,-0.11952309,-1.51832274,-4.94690254,,,
imu,95.297715,0.4719425592000001,-9.612913648800001,2.331001461600001,-0.46346095,-1.40616909,-5.00671782,,,
imu,95.306529,0.4605776560000001,-9.574631869600001,2.3369829896,-0.54570696,-1.36130763,-5.238502029999999,,,
imu,95.315344,0.4599795032,-9.5590798968,2.323823628,-0.60552224,-1.40616909,-5.41794787,,,
imu,95.324158,0.4689517952000001,-9.5501076048,2.3160476416,-0.68776825,-1.40616909,-5.545055339999999,,,
imu,95.332972,0.4462219888000001,-9.529770409600001,2.3100661136,-0.68029134,-1.47346128,-5.71702427,,,
imu,95.341787,0.4091365152000001,-9.5184055064,2.293915988,-0.78496808,-1.53327656,-5.896470109999999,,,
imu,95.350267,0.3882011672000001,-9.498666464000001,2.2921215296,-0.63542988,-1.36878454,-5.86656247,,,
imu,95.358966,0.3684621248000001,-9.479525574400002,2.2975049048,-0.60552224,-1.13700033,-5.739455,,,
imu,95.367446,0.3738455000000001,-9.462777296000002,2.2885326128,-0.37373803,-0.9725083100000003,-5.38056332,,,
imu,95.375926,0.3636769024000001,-9.4831144912,2.286738154400001,-0.28401511,-0.7257702800000003,-5.216071299999999,,,
imu,95.384406,0.3732473472,-9.4980683112,2.2873363072,-0.15690764,-0.43417079,-4.931948719999999,,,
imu,95.392887,0.3780325696000001,-9.501657228000001,2.2897289184,-0.127,-0.2696787700000001,-4.70764142,,,
imu,95.401367,0.3804251808,-9.520199964800002,2.2915233768,-0.13447691,0.05182836000000002,-4.430995749999999,,,
imu,95.409847,0.3684621248000001,-9.5423316184,2.3016919744,0.05244583999999999,0.2462280199999998,-4.21416536,,,
imu,95.418327,0.3547046104000001,-9.550705757600001,2.2951122936,0.07487657,0.44062768,-4.02724261,,,
imu,95.426807,0.3582935272000001,-9.556089132800002,2.3052808912,0.09730729999999999,0.6724118899999998,-3.98238115,,,
imu,95.435287,0.3654713608,-9.568650341600001,2.3232254752,0.15712258,0.9789651999999998,-3.77302767,,,
imu,95.443767,0.3816214864,-9.578220786400001,2.3130568776,0.18703022,1.23318014,-3.54872037,,,
imu,95.452247,0.3899956256000001,-9.5949690648,2.323823628,0.13469185,1.61450255,-3.30198234,,,
imu,95.460727,0.4115291264,-9.608128426400002,2.3202347112,-0.10456927,1.84628676,-3.32441307,,,
imu,95.469207,0.4300718632,-9.597361676,2.3220291696,-0.30644584,1.99582496,-3.31693616,,,
imu,95.477687,0.4539979752000001,-9.587193078400002,2.325019933600001,-0.47841477,2.04816333,-3.46647436,,,
imu,95.486167,0.4755314760000001,-9.597959828800002,2.3262162392,-0.5756146,2.01825569,-3.496382,,,
imu,94.11604,,,,,,,-89.124778,163.3017876,110.5545216
imu,94.217023,,,,,,,-92.7136948,164.2295348,113.5819072
imu,94.318586,,,,,,,-91.9446412,164.5103004,113.2523128
imu,94.42024,,,,,,,-91.8958124,164.363814,112.9105112
imu,94.528028,,,,,,,-91.8225692,163.7290396,113.5208712
imu,94.623273,,,,,,,-91.3709028,164.2539492,113.3743848
imu,94.724866,,,,,,,-91.50518199999999,163.8022828,113.3499704
imu,94.826429,,,,,,,-89.3200932,163.9243548,113.1790696
imu,95.494647,0.4683536424000001,-9.599754287200001,2.3363848368,-0.76253735,2.0257326,-3.51881273,,,
imu,95.503128,0.4623721144,-9.609922884800001,2.3435626704,-0.9494601,1.94348659,-3.65339711,,,
imu,95.511608,0.4593813504000001,-9.581809703200001,2.3244217808,-1.00927538,1.96591732,-3.68330475,,,
imu,95.520088,0.4641665728000001,-9.5429297712,2.3172439472,-1.06909066,2.16031698,-3.5711511,,,
imu,95.528568,0.4575868920000001,-9.5154147424,2.331001461600001,-1.04665993,2.04816333,-3.4216129,,,
imu,95.537048,0.4629702672000001,-9.536948243200001,2.3519368096,-1.05413684,1.98087114,-3.5711511,,,
imu,95.545528,0.4713444064,-9.580613397600002,2.3465534344,-1.00179847,1.96591732,-3.7206893,,,
imu,95.553991,0.4916816016,-9.582407856000001,2.3459552816,-1.21115195,2.01077878,-3.66087402,,,
imu,95.562455,0.502448352,-9.536948243200001,2.3363848368,-1.3980747,1.90610204,-3.4216129,,,
imu,95.570918,0.4916816016,-9.5154147424,2.3441608232,-1.34573633,1.86871749,-3.23469015,,,
imu,95.579382,0.4827093096,-9.557883591200001,2.353731268,-1.30835178,1.98087114,-2.75616791,,,
imu,95.587846,0.4767277816000001,-9.602146898400001,2.3501423512,-1.37564397,2.01077878,-2.45709151,,,
imu,95.596309,0.4791203928000001,-9.611119190400002,2.3615072544,-1.51770526,1.9509635,-2.27764567,,,
imu,95.604773,0.5006538936,-9.575828175200002,2.3453571288,-1.73453565,2.08554788,-2.26269185,,,
imu,95.613236,0.4982612824000001,-9.538742701600002,2.3603109488,-1.89155076,2.11545552,-2.31503022,,,
imu,95.6217,0.490485296,-9.520798117600002,2.3615072544,-1.95884295,2.09302479,-2.50195297,,,
imu,95.630163,0.4797185456,-9.516611048000001,2.3495441984,-1.73453565,2.06311715,-2.71130645,,,
imu,95.638627,0.4701481008,-9.513620284000002,2.3531331152,-1.74948947,2.0257326,-2.86084465,,,
imu,95.64709,0.4528016696000001,-9.513022131200001,2.3333940728,-1.66724346,2.04816333,-3.17487487,,,
imu,95.655554,0.4480164472000001,-9.520199964800002,2.3489460456,-1.45041307,2.27247063,-3.32441307,,,
imu,95.664017,0.4504090584,-9.5357519376,2.3489460456,-1.15881358,2.4743472,-3.32441307,,,
imu,95.672481,0.4528016696000001,-9.557883591200001,2.3471515872,-0.9494601,2.51920866,-3.38422835,,,
imu,95.680945,0.4599795032,-9.5656595776,2.3465534344,-0.8522602699999999,2.65379304,-3.46647436,,,
imu,95.689408,0.4689517952000001,-9.5668558832,2.3441608232,-1.00179847,2.72856214,-3.57862801,,,
imu,95.697872,0.4880926848000001,-9.553696521600001,2.338777448000001,-0.9943215599999999,2.88557725,-3.57862801,,,
imu,95.706335,0.4851019208000001,-9.5393408544,2.3459552816,-1.06909066,3.01268472,-3.63096638,,,
imu,95.714799,0.4827093096,-9.543527924000001,2.3459552816,-1.21862886,2.90053107,-3.63844329,,,
imu,95.723262,0.4880926848000001,-9.520798117600002,2.3429645176,-1.3980747,2.81828506,-3.69078166,,,
imu,95.731726,0.4964668240000001,-9.519003659200001,2.3393756008,-1.45788998,2.93791562,-3.62348947,,,
imu,95.740189,0.5108224912,-9.5148165896,2.350740504,-1.65228964,2.81828506,-3.47395127,,,
imu,95.748653,0.5144114080000001,-9.5118258256,2.3603109488,-1.59247436,2.69117759,-3.24964397,,,
imu,95.75713,0.5215892416000001,-9.5148165896,2.3680869352,-1.80930475,2.52668557,-3.15244414,,,
imu,95.765608,0.5221873944000001,-9.5082369088,2.362105407200001,-1.74201256,2.30237827,-3.07767504,,,
imu,95.774085,0.5209910888,-9.508835061600001,2.3722740048,-1.57004363,2.36219355,-3.10010577,,,
imu,95.782563,0.5156077136000001,-9.5219944232,2.3722740048,-1.5476129,2.10797861,-3.09262886,,,
imu,95.791041,0.5114206440000001,-9.567454036,2.3668906296,-1.45041307,1.83880985,-3.32441307,,,
imu,95.799518,0.5048409632,-9.5812115504,2.37765738,-1.622382,1.79394839,-3.2720747,,,
imu,95.807996,0.4922797544,-9.5656595776,2.3722740048,-1.75696638,1.77151766,-3.35432071,,,
imu,95.816473,0.4791203928000001,-9.554892827200002,2.3770592272,-1.86164312,1.75656384,-3.21225942,,,
imu,95.824951,0.4504090584,-9.559678049600002,2.3818444496,-1.89155076,1.74161002,-3.16739796,,,
imu,95.833428,0.4468201416000001,-9.583006008800002,2.4087613256,-2.02613514,1.83880985,-2.98795212,,,
imu,95.841906,0.4755314760000001,-9.582407856000001,2.4051724088,-1.96631986,2.01077878,-2.92813684,,,
imu,95.850383,0.5060372688000001,-9.5776226336,2.4039761032,-2.09342733,2.07059406,-2.93561375,,,
imu,95.858861,0.5048409632,-9.557285438400001,2.4111539368,-2.05604278,2.2500399,-2.93561375,,,
imu,95.867338,0.5251781584,-9.5489112992,2.4243132984,-2.04856587,2.13788625,-3.07019813,,,
imu,95.875816,0.5293652280000001,-9.5501076048,2.4171354648,-2.06351969,2.0257326,-3.28702852,,,
imu,95.884293,0.5275707696,-9.538742701600002,2.410555784,-1.93641222,1.98087114,-3.50385891,,,
imu,95.892771,0.5287670752,-9.530368562400001,2.398592728,-1.74201256,1.92105586,-3.60105874,,,
imu,95.901248,0.5060372688000001,-9.5172092008,2.3878259776,-1.70462801,1.77151766,-3.60105874,,,
imu,95.909726,0.5102243384,-9.5184055064,2.4057705616,-1.56256672,1.77899457,-3.63844329,,,
imu,95.918203,0.5150095608,-9.516611048000001,2.396798269600001,-1.33078251,1.59207182,-3.90013514,,,
imu,95.926681,0.5305615336,-9.501657228000001,2.396798269600001,-1.21862886,1.60702564,-3.96742733,,,
imu,95.935158,0.5263744640000001,-9.489694172,2.4027797976,-1.10647521,1.58459491,-3.90761205,,,
imu,95.943636,0.5407301312,-9.489694172,2.4207243816,-1.14385976,1.49487199,-3.78050458,,,
imu,95.952114,0.5377393672000002,-9.516012895200001,2.4332855904,-1.4728438,1.17336486,-3.97490424,,,
imu,95.960561,0.5323559920000001,-9.544126076800001,2.4530246328,-1.4728438,0.9640113799999996,-4.15435008,,,
imu,95.969008,0.5006538936,-9.520798117600002,2.450632021600001,-1.59247436,0.7471809899999999,-4.22911918,,,
imu,95.977455,0.4964668240000001,-9.479525574400002,2.449435716,-1.91398149,0.3882893099999998,-4.4683803,,,
imu,95.985902,0.451605364,-9.420906600000002,2.4392671184,-1.89902767,0.3434278499999999,-4.37865738,,,
imu,95.994349,0.4043512928,-9.422102905600001,2.4518283272,-1.86912003,0.35838167,-4.19921154,,,
imu,96.002796,0.3702565832000001,-9.459786532,2.4482394104,-1.73453565,0.4107200399999997,-3.95247351,,,
imu,96.011243,0.382817792,-9.4980683112,2.4440523408,-1.45041307,0.6873657099999999,-3.8702275,,,
imu,96.01969,0.4061457512000001,-9.489096019200002,2.440463424,-1.3980747,0.8817653699999997,-3.67582784,,,
imu,96.028137,0.4079402096,-9.48072188,2.45242648,-1.22610577,1.04625739,-3.4216129,,,
imu,96.036584,0.3887993200000001,-9.5219944232,2.4757544392,-1.11395212,1.03878048,-3.39918217,,,
imu,96.045031,0.3642750552,-9.597959828800002,2.4799415088,-1.00927538,1.14345722,-3.53376655,,,
imu,96.053478,0.3594898328000001,-9.6087265792,2.476352592,-1.16629049,1.1285034,-3.5711511,,,
imu,96.061925,0.385808556,-9.5865949256,2.4919045648,-1.38312088,1.31542615,-3.48890509,,,
imu,96.070372,0.3899956256000001,-9.544126076800001,2.4996805512,-1.50275144,1.53225654,-3.36179762,,,
imu,96.078819,0.3738455000000001,-9.5172092008,2.4757544392,-1.65976655,1.71917929,-3.18235178,,,
imu,96.087266,0.3337692624,-9.522592576000001,2.4709692168,-1.39059779,2.0257326,-2.77112173,,,
imu,96.095713,0.34393786,-9.5219944232,2.4637913832,-1.25601341,2.26499372,-2.78607555,,,
imu,96.10416,0.3511156936,-9.506442450400002,2.4518283272,-1.0242292,2.42948574,-3.02533667,,,
imu,96.112607,0.3774344168000001,-9.48072188,2.4476412576,-0.77001426,2.67622377,-3.10758268,,,
imu,96.121054,0.4001642232,-9.477132963200003,2.4446504936,-0.47093786,2.76594669,-3.23469015,,,
imu,96.129501,0.4085383624000001,-9.4765348104,2.4249114512,-0.26906129,2.93043871,-3.40665908,,,
imu,96.137948,0.4019586816,-9.4962738528,2.4159391592,0.35152224,2.99025399,-3.60105874,,,
imu,96.146395,0.3971734592000001,-9.492684936000002,2.398592728,0.50853735,2.96782326,-3.73564312,,,
imu,96.154842,0.3840140976,-9.4753385048,2.3962001168,0.56835263,3.00520781,-3.77302767,,,
imu,96.163659,0.385808556,-9.4621791432,2.3962001168,0.31413769,3.0725,-3.87770441,,,
imu,96.172476,0.3876030144000001,-9.490292324800002,2.3950038112,0.41133752,3.10240764,-3.90761205,,,
imu,96.181293,0.3983697648000001,-9.5219944232,2.4057705616,0.29918387,3.10988455,-3.67582784,,,
imu,96.19011,0.3947808480000001,-9.557883591200001,2.396798269600001,0.11973803,3.11736146,-3.43656672,,,
imu,96.198926,0.400762376,-9.573435564,2.4027797976,-0.0522309,3.24446893,-3.09262886,,,
imu,96.207743,0.4151180432000001,-9.593772759200002,2.4249114512,-0.3513073,3.17717674,-2.77859864,,,
imu,96.21656,0.4193051128000001,-9.627269316000001,2.4428560352,-0.58309151,3.22951511,-2.62158353,,,
imu,96.225377,0.3953790008,-9.656578803200002,2.440463424,-1.14385976,3.10240764,-2.5243837,,,
imu,96.234194,0.3864067088000001,-9.659569567200002,2.4452486464,-1.63733582,2.98277708,-2.40475314,,,
imu,96.243011,0.3792288752000001,-9.671532623200001,2.4530246328,-1.93641222,2.9229618,-2.31503022,,,
imu,96.251828,0.3744436528,-9.7008421104,2.462595077600001,-2.52708811,3.03511545,-2.13558438,,,
imu,96.260645,0.3642750552,-9.710412555200001,2.4799415088,-3.00561035,3.11736146,-2.15801511,,,
imu,96.269462,0.3846122504,-9.710412555200001,2.4865211896,-3.54394787,3.31176112,-2.06829219,,,
imu,96.278279,0.3947808480000001,-9.704431027200002,2.5038676208,-4.14210067,3.61831443,-1.7019236,,,
imu,96.287096,0.4085383624000001,-9.678112304,2.5116436072,-4.85988403,3.76037572,-1.59724686,,,
imu,96.295913,0.4270810992000001,-9.651195428000001,2.5349715664,-5.39822155,4.01459066,-1.50004703,,,
imu,96.30473,0.4551942808000001,-9.602146898400001,2.522410357600001,-6.01880508,4.08935976,-1.45518557,,,
imu,94.928337,,,,,,,-90.7361284,163.6191748,113.7772224
imu,95.029777,,,,,,,-88.35572440000001,161.7758876,112.5076736
imu,95.131187,,,,,,,-90.345498,162.4594908,115.583888
imu,95.23278,,,,,,,-89.3811292,160.8481404,113.0936192
imu,95.334312,,,,,,,-90.0891468,161.37305,116.3529416
imu,95.435844,,,,,,,-89.8205884,160.7504828,116.682536
imu,95.537437,,,,,,,-89.918246,161.2387708,116.2064552
imu,95.639,,,,,,,-90.0647324,161.1655276,116.0477616
imu,96.313546,0.4868963792000001,-9.575230022400001,2.5313826496,-6.29545075,4.17908268,-1.50004703,,,
imu,96.322363,0.520392936,-9.532163020800002,2.5403549416,-6.497327319999999,4.23142105,-1.53743158,,,
imu,96.33118,0.5323559920000001,-9.502853533600002,2.5493272336,-6.736588439999999,4.13422122,-1.64958523,,,
imu,96.339997,0.5425245896,-9.486105255200002,2.575047804,-6.923511189999999,3.90991392,-2.09819983,,,
imu,96.348814,0.5317578392000001,-9.482516338400002,2.5977776104,-6.69920389,3.73794499,-2.53933752,,,
imu,96.357631,0.5180003248000001,-9.484908949600001,2.6175166528,-6.48985041,3.66317589,-2.87579847,,,
imu,96.366188,0.5078317272000001,-9.4412437952,2.6282834032,-6.34778912,3.39400713,-3.07019813,,,
imu,96.374744,0.5012520464000001,-9.395784182400002,2.6211055696,-6.17582019,3.36409949,-3.39918217,,,
imu,96.3833,0.4892889904,-9.3455393472,2.6240963336,-5.85431306,3.47625314,-3.52628964,,,
imu,96.391857,0.4731388648000001,-9.304864956800001,2.6234981808,-5.360837,3.52859151,-3.36927453,,,
imu,96.400413,0.4587831976000001,-9.288714831200002,2.6240963336,-4.93465313,3.820191,-3.26459779,,,
imu,96.408969,0.4025568344,-9.2761536224,2.6169185,-4.21686977,4.1192674,-3.05524431,,,
imu,96.417526,0.4079402096,-9.336567055200002,2.667761488,-3.53647096,4.42582071,-2.98047521,,,
imu,96.426082,0.4061457512000001,-9.3664746952,2.6546021264,-3.18505619,4.73237402,-3.13001341,,,
imu,96.434638,0.4073420568000001,-9.3832229736,2.6581910432,-3.02056417,5.00901969,-3.48142818,,,
imu,96.443195,0.3756399584,-9.372456223200002,2.6725467104,-2.57942648,5.47258811,-3.67582784,,,
imu,96.451825,0.3630787496,-9.3664746952,2.6892949888,-2.69905704,5.75671069,-3.95247351,,,
imu,96.460381,0.3564990688,-9.3628857784,2.6611818072,-2.61681103,6.12307928,-4.22911918,,,
imu,96.468938,0.3361618736,-9.326398457600002,2.6516113624,-2.36259609,6.54178624,-4.41604193,,,
imu,96.477494,0.3194135952000001,-9.2917055952,2.6611818072,-1.8466893,7.02778539,-4.408565019999999,,,
imu,96.486051,0.323002512,-9.306659415200002,2.671350404800001,-1.5476129,7.39415398,-4.52071867,,,
imu,96.494607,0.3433397072,-9.294696359200001,2.6540039736,-1.36069015,7.82781476,-4.52819558,,,
imu,96.503163,0.3947808480000001,-9.285724067200002,2.637853848,-0.93450628,8.26895245,-4.57305704,,,
imu,96.51172,0.4432312248,-9.295294512000002,2.622900028000001,-0.40364567,8.53812121,-4.65530305,,,
imu,96.520276,0.4880926848000001,-9.330585527200002,2.6450316816,0.15712258,8.65027486,-4.67773378,,,
imu,96.528832,0.5036446576000001,-9.364680236800002,2.648022445600001,0.68050628,8.597936489999999,-4.70764142,,,
imu,96.537389,0.5341504504000001,-9.4005694048,2.6522095152,1.05435178,8.43344447,-4.72259524,,,
imu,96.545945,0.5538894928000001,-9.422701058400001,2.645629834400001,1.37585891,8.36615228,-4.5431494,,,
imu,96.554502,0.5610673264,-9.4382530312,2.6641725712,1.61512003,8.119414249999998,-4.63287232,,,
imu,96.563058,0.5837971328000001,-9.447225323200001,2.6492187512,1.97401171,7.932491499999999,-4.5431494,,,
imu,96.57167,0.6041343280000001,-9.4621791432,2.6474242928,2.18336519,7.558646,-4.318842099999999,,,
imu,96.580283,0.6232752176,-9.486105255200002,2.648022445600001,2.02635008,6.99040084,-4.25154991,,,
imu,96.588895,0.6358364264000002,-9.495675700000001,2.6390501536,2.07868845,6.6614168,-4.04967334,,,
imu,96.597507,0.6466031768,-9.493283088800002,2.6366575424,2.12354991,6.15298692,-3.90761205,,,
imu,96.606119,0.6382290376000002,-9.499264616800001,2.6240963336,2.23570356,5.6894185,-3.66087402,,,
imu,96.614732,0.6454068712000001,-9.505246144800001,2.6175166528,1.97401171,5.18098862,-3.69078166,,,
imu,96.623344,0.646005024,-9.4831144912,2.6115351248,2.0413039,4.672558739999999,-3.496382,,,
imu,96.631956,0.6268641344,-9.468160671200001,2.595983152,1.84690424,4.1192674,-3.40665908,,,
imu,96.640569,0.6166955368000001,-9.456795768000001,2.5846182488,1.75718132,3.63326825,-3.36179762,,,
imu,96.649181,0.5957601888000001,-9.471749588000002,2.5947868464,1.85438115,3.16222292,-3.47395127,,,
imu,96.657793,0.5742266880000001,-9.482516338400002,2.581029332,1.94410407,2.81080815,-3.26459779,,,
imu,96.666406,0.5544876456000001,-9.48072188,2.566673664800001,1.78708896,2.55659321,-3.30945925,,,
imu,96.675018,0.5281689224000001,-9.460982837600001,2.570860734400001,1.80204278,2.25751681,-3.20478251,,,
imu,96.68363,0.4952705184000001,-9.456197615200002,2.554112456,1.76465823,1.98834805,-3.21973633,,,
imu,96.692243,0.481513004,-9.460384684800001,2.5517198448,1.72727368,1.84628676,-3.32441307,,,
imu,96.700855,0.4737370176,-9.478927421600002,2.539158636000001,1.79456587,1.86871749,-3.37675144,,,
imu,96.709467,0.46356842,-9.4944793944,2.527793732800001,1.82447351,1.67431783,-3.46647436,,,
imu,96.71808,0.4390441552000001,-9.514218436800002,2.520615899200001,1.67493531,1.61450255,-3.46647436,,,
imu,96.726692,0.4199032656,-9.511227672800002,2.521214052,1.69736604,1.73413311,-3.52628964,,,
imu,96.735304,0.3929863896,-9.520199964800002,2.5116436072,1.75718132,1.82385603,-3.48142818,,,
imu,96.743916,0.3786307224000001,-9.526779645600001,2.5104473016,1.95158098,1.97339423,-3.39918217,,,
imu,96.752529,0.3564990688,-9.535153784800002,2.5146343712,1.91419643,2.22760917,-3.28702852,,,
imu,96.761141,0.370854736,-9.531564868,2.5134380656,1.83942733,2.56407012,-3.18235178,,,
imu,96.769753,0.385808556,-9.526779645600001,2.500278704,1.88428879,2.98277708,-2.8982292,,,
imu,96.777997,0.4073420568000001,-9.545322382400002,2.512839912800001,1.52539711,3.3715764,-2.80850628,,,
imu,96.786241,0.424688488,-9.576426328,2.515232524,1.46558183,3.76037572,-2.5243837,,,
imu,96.794484,0.4498109056,-9.599156134400001,2.5134380656,1.41324346,4.08188285,-2.33746095,,,
imu,96.802728,0.4874945320000001,-9.5949690648,2.5134380656,0.9870595899999999,4.30619015,-2.35989168,,,
imu,96.810971,0.505439116,-9.560874355200001,2.5158306768,0.74779847,4.36600543,-2.58419898,,,
imu,96.819215,0.5323559920000001,-9.532163020800002,2.5008768568,0.63564482,4.552928179999999,-2.62158353,,,
imu,96.827458,0.5395338256000001,-9.517807353600002,2.4954934816,0.44872207,4.530497449999999,-2.71878336,,,
imu,96.835702,0.5455153536,-9.504647992000002,2.4919045648,0.23936859,4.68751256,-2.81598319,,,
imu,96.843945,0.5640580904000001,-9.4974701584,2.4936990232,0.25432241,4.73237402,-2.93561375,,,
imu,96.852189,0.5766192992000001,-9.495675700000001,2.4775488976,0.46367589,4.75480475,-2.95056757,,,
imu,96.860433,0.5748248408000001,-9.486105255200002,2.467380300000001,0.46367589,4.85200458,-3.16739796,,,
imu,96.868676,0.5544876456000001,-9.4980683112,2.4865211896,0.45619898,4.70246638,-3.1973056,,,
imu,96.87692,0.5311596864,-9.531564868,2.4996805512,0.5010604399999999,4.65760492,-3.37675144,,,
imu,96.885163,0.5329541448,-9.581809703200001,2.51224176,0.3216146,4.70994329,-3.69825857,,,
imu,96.893407,0.5329541448,-9.5865949256,2.506858384800001,-0.11204618,4.762281659999999,-3.97490424,,,
imu,96.90165,0.5281689224000001,-9.557883591200001,2.5080546904,-0.45598404,4.79966621,-4.02724261,,,
imu,96.909894,0.5120187968000001,-9.5423316184,2.500278704,-0.32887657,5.03892733,-3.93004278,,,
imu,96.918138,0.472540712,-9.550705757600001,2.506260232,-0.44850713,5.07631188,-3.90013514,,,
imu,96.926381,0.4575868920000001,-9.572239258400002,2.4925027176,-0.59056842,5.27818845,-3.84031986,,,
imu,96.934625,0.4486146000000001,-9.576426328,2.4805396616,-0.68776825,5.55483412,-3.96742733,,,
imu,96.942868,0.4605776560000001,-9.5602762024,2.48233412,-0.82982954,5.6894185,-4.23659609,,,
imu,96.951112,0.4797185456,-9.5447242296,2.494297176,-1.27096723,5.77914142,-4.55062631,,,
imu,96.959355,0.4898871432,-9.553696521600001,2.5008768568,-1.43545925,5.749233779999999,-4.670256869999999,,,
imu,96.967599,0.4653628784000001,-9.5656595776,2.5008768568,-1.30835178,5.75671069,-4.85717962,,,
imu,96.976143,0.4390441552000001,-9.565061424800001,2.5026713152,-1.71958183,5.71184923,-5.18616366,,,
imu,96.984686,0.4127254320000001,-9.511227672800002,2.4901101064,-1.90650458,5.86886434,-5.350655679999999,,,
imu,96.99323,0.3870048616000001,-9.457992073600002,2.4667821472,-1.9214584,5.89129507,-5.41047096,,,
imu,97.001773,0.3720510416,-9.4280844336,2.481137814400001,-2.04108896,6.07821782,-5.25345585,,,
imu,97.010317,0.367863972,-9.433467808800001,2.494297176,-1.80182784,6.19784838,-5.05157928,,,
imu,97.018861,0.391790084,-9.440645642400002,2.4769507448,-1.57752054,6.40720186,-4.81979507,,,
imu,97.027404,0.3887993200000001,-9.474142199200001,2.48233412,-1.3233056,6.63898607,-4.602964679999999,,,
imu,97.035948,0.3576953744,-9.509433214400001,2.51224176,-1.2485365,6.89320101,-4.341272829999999,,,
imu,97.044492,0.3547046104000001,-9.507040603200002,2.494297176,-1.33078251,6.94553938,-4.363703559999999,,,
imu,97.053035,0.3511156936,-9.510031367200002,2.5164288296,-1.68219728,7.11750831,-4.647826139999999,,,
imu,97.061579,0.331974804,-9.5393408544,2.548130928,-1.94388913,7.32686179,-4.81231816,,,
imu,97.070123,0.31403022,-9.6117173432,2.570860734400001,-1.97379677,7.56612291,-4.74502597,,,
imu,97.078666,0.2649816904,-9.7265626808,2.6115351248,-2.62428794,7.932491499999999,-4.87213344,,,
imu,97.08721,0.1830347568,-9.790565030400002,2.5888053184,-3.52151714,8.34372155,-5.216071299999999,,,
imu,97.095754,0.1010878232,-9.801929933600002,2.6252926392,-5.02437605,8.964305079999999,-5.82170101,,,
imu,97.104297,0.0,-9.8079114616,2.6366575424,-6.40012749,10.04098012,-6.576868919999999,,,
imu,97.112841,-0.125612088,-9.824659740000001,2.643835376000001,-8.01514005,11.25971645,-7.429236659999999,,,
imu,97.121385,-0.2554112456,-9.869521200000003,2.6743411688,-9.742306260000001,12.96445193,-8.10215856,,,
imu,95.740593,,,,,,,-89.57644440000001,161.006834,115.766996
imu,95.842125,,,,,,,-89.69851639999999,161.4462932,116.865644
imu,95.943992,,,,,,,-87.4523916,160.6039964,114.7537984
imu,96.045189,,,,,,,-89.8205884,160.9091764,116.4139776
imu,96.146812,,,,,,,-88.06275160000001,160.030258,114.0946096
imu,96.248466,,,,,,,-89.97928200000001,161.2143564,116.2308696
imu,96.349937,,,,,,,-90.345498,161.739266,116.6459144
imu,96.452507,,,,,,,-90.4309484,161.7514732,116.9999232
imu,97.129928,-0.4294737104000001,-9.9401032304,2.685706072000001,-11.62648758,15.17761729,-8.81246501,,,
imu,97.138472,-0.6585662328000002,-10.069902388,2.7299693792,-13.78731457,18.09361219,-9.73212494,,,
imu,97.147016,-0.9755872168000002,-10.225422116,2.746119504800001,-16.7257402,21.9890823,-10.6742156,,,
imu,97.155559,-1.3942941768,-10.3713713992,2.7233896984,-20.23241099,27.27525767,-11.48172188,,,
imu,97.164103,-1.8309457208,-10.5352652664,2.692285752800001,-24.44191132,34.06429195,-12.03501322,,,
imu,97.172646,-2.0869551192,-10.635156784,2.6061517496,-29.21965681,41.94495509,-12.80513495,,,
imu,97.181078,-2.0570474792,-10.55739692,2.5594958312,-33.87777174,50.37143266,-14.39771678,,,
imu,97.18951,-1.7896731776,-10.3223228696,2.520615899200001,-38.38634847,58.56612602,-16.64078978,,,
imu,97.197942,-1.4559039152,-10.0513596512,2.552916150400001,-41.96778836,65.97574383,-19.25023137,,,
imu,97.206374,-1.1143586664,-9.803126239200001,2.5499253864,-44.1659999,72.24887132,-21.50825819,,,
imu,97.214805,-0.8344231560000002,-9.568650341600001,2.530186344,-45.18285966,77.44532377,-23.684039,,,
imu,97.223237,-0.580208216,-9.3802322096,2.580431179200001,-45.04827528,81.61743955,-25.58317414,,,
imu,97.231669,-0.3391526376000001,-9.203178980800002,2.5941886936,-44.30806119,84.67549574,-27.14584833,,,
imu,97.240101,-0.0783580168,-9.029116516000002,2.667163335200001,-42.78277155,87.00081475,-28.40944612,,,
imu,97.248532,0.1579123392,-8.9399917488,2.7927754232,-40.71914439,88.48871984,-29.2917215,,,
imu,97.256964,0.415716196,-8.847278064800001,2.8753205096,-38.73028633,88.93733444,-29.93473576,,,
imu,97.265396,0.7363260968000002,-8.785070173600001,2.962052665600001,-36.0909371,88.33918164,-30.06932014,,,
imu,97.273828,0.9253423816,-8.644504265600002,2.9626508184,-33.64598753,86.98586093,-30.54784238,,,
imu,97.282259,0.9965225648000002,-8.599044652800002,3.12534838,-30.95429993,85.27364854,-30.13661233,,,
imu,97.290691,1.1496496816,-8.6319430568,3.2551475376,-27.94858211,83.0006679,-28.71599943,,,
imu,97.299123,1.3123472432,-8.6732156,3.316757276000001,-25.43634035,80.2342112,-27.84120096,,,
imu,97.307555,1.411640608,-8.740806866400002,3.4627065592,-23.20074426,77.13877046,-26.99631013,,,
imu,97.315986,1.4971764584,-8.7276475048,3.4710806984,-21.36890131,73.90126843,-25.50840504,,,
imu,97.324418,1.5474212936,-8.5314533864,3.415452488,-19.74641184,70.20767489,-24.05040759,,,
imu,97.33285,1.51033582,-8.390289325600001,3.454332420000001,-17.73512305,66.5514659,-22.88400963,,,
imu,97.341282,1.4738484992,-8.408832062400002,3.5637943824,-15.10325073,63.02236438,-21.47835055,,,
imu,97.349713,1.5025598336,-8.5511924288,3.595496480800001,-12.32931712,59.35867847999999,-19.95306091,,,
imu,97.358145,1.5384490016,-8.706114004000002,3.674452650400001,-10.11615176,55.67256184999999,-18.62217093,,,
imu,97.366577,1.5767307808,-8.781481256800001,3.703762137600001,-8.37403173,52.17336796999999,-17.11183511,,,
imu,97.375009,1.5874975312,-8.810192591200002,3.7276882496,-7.05061866,48.44238988,-15.88562187,,,
imu,97.383766,1.5534028216,-8.846679912,3.730080860800001,-6.265543109999999,44.66655033,-15.36223817,,,
imu,97.392523,1.4379593312,-9.0434721832,3.7845127656,-5.42812919,40.95800297,-14.95100812,,,
imu,97.40128,1.2997860344,-9.294696359200001,3.774344168000001,-5.031852959999999,37.54853201,-14.36780914,,,
imu,97.410037,1.187333308,-9.406550932800002,3.724697485600001,-5.555236659999999,34.56524492,-13.94910218,,,
imu,97.418795,1.0862454848,-9.348530111200002,3.6523209968,-6.37021985,32.18011063,-13.76965634,,,
imu,97.427552,1.0013077872,-9.163102743200001,3.5901131056,-6.91603428,30.31088313,-13.56030286,,,
imu,97.436309,0.9576426328000002,-9.00219964,3.5757574384,-7.0805263,28.67343984,-13.13411899,,,
imu,97.445066,0.9414925072000001,-8.925037928800002,3.583533424800001,-6.44498895,27.35750368,-12.34156653,,,
imu,97.453824,0.9588389384,-8.913673025600001,3.5745611328,-5.21877571,26.19858263,-11.25741458,,,
imu,97.462581,0.9983170232,-8.931617609600002,3.5536257848,-3.76825517,24.94246175,-10.18821645,,,
imu,97.471338,1.0419821776,-8.921449012000002,3.5578128544,-2.16071952,23.59661795,-9.2536027,,,
imu,97.480095,1.085647332,-8.9298231512,3.5805426608,-0.47841477,22.08628213,-8.31151204,,,
imu,97.488852,1.1269198752,-8.983058750400001,3.582935272,1.12912088,20.46379266,-7.496528849999999,,,
imu,97.49761,1.1586219736,-8.968703083200001,3.5476442568,2.50487232,18.50484224,-6.95819133,,,
imu,97.506367,1.1358921672,-8.950160346400002,3.523119992000001,4.02268505,16.42626126,-6.487145999999999,,,
imu,97.515124,1.0934233184,-8.9226453176,3.502184644000001,5.21151374,14.30281882,-6.00114685,,,
imu,97.523881,1.0383932608,-8.940589901600001,3.504577255200001,6.34800406,12.47097587,-5.567486069999999,,,
imu,97.532638,0.9731946056000002,-8.993825500800002,3.4997920328,7.49197129,10.80362494,-4.8422258,,,
imu,97.541332,0.9073977976000001,-9.062613072800001,3.4848382128,8.22470847,9.15870474,-4.13191935,,,
imu,97.550089,0.8487788232000001,-9.118839436000002,3.4591176424,8.55369251,7.73809184,-3.63844329,,,
imu,97.558846,0.7925524600000001,-9.18164548,3.430406308000001,8.755569079999999,6.67637062,-3.15992105,,,
imu,97.567603,0.7524762224000001,-9.265386872,3.4238266272,8.852768909999998,5.831479789999999,-2.64401426,,,
imu,97.57636,0.7387187080000002,-9.337165208000002,3.3987042096,8.53126178,4.979112049999999,-2.24026112,,,
imu,97.584844,0.7231667352000001,-9.3658765424,3.3508519856,7.85086297,4.15665195,-1.8514618,,,
imu,97.593328,0.6800997336000001,-9.371259917600002,3.352646444,7.32747927,3.68560662,-1.29069355,,,
imu,97.601812,0.6388271904000001,-9.419710294400002,3.358627972000001,6.85643394,3.17717674,-0.8645096799999998,,,
imu,97.610296,0.6370327320000001,-9.481320032800001,3.338290776800001,6.22089659,2.93791562,-0.71497148,,,
imu,97.61878,0.6340419680000001,-9.488497866400001,3.2982145392,5.4806825,2.56407012,-0.77478676,,,
imu,97.627264,0.6322475096000001,-9.457992073600002,3.3000089976,4.92739116,2.36219355,-0.7897405799999999,,,
imu,97.635748,0.6322475096000001,-9.432869656000001,3.3041960672,4.48625347,2.11545552,-0.9018942299999999,,,
imu,97.644232,0.6400234960000001,-9.4346641144,3.302999761600001,4.089977240000001,1.89114822,-1.16358608,,,
imu,97.652715,0.6537810104000001,-9.447225323200001,3.3095794424,3.9853005,1.49487199,-1.28321664,,,
imu,97.661199,0.6627533024,-9.441841948000002,3.302999761600001,3.61893191,1.2780416,-1.55986231,,,
imu,97.669683,0.6507902464,-9.4107380024,3.2844570248,3.44696298,1.09111885,-1.70940051,,,
imu,97.678167,0.6101158560000001,-9.381428515200001,3.298812692000001,3.06564057,0.7696117199999999,-1.88884635,,,
imu,97.686651,0.5718340768000001,-9.401167557600001,3.3113739008,2.90862546,0.64250425,-2.06081528,,,
imu,97.695135,0.5395338256000001,-9.408345391200001,3.310177595200001,2.50487232,0.7172733499999997,-2.17296893,,,
imu,97.703619,0.5371412144000001,-9.4077472384,3.3161591232,2.08616536,0.6724118899999998,-2.3000764,,,
imu,97.712103,0.5508987288,-9.402962016000002,3.3269258736,1.82447351,0.9116730099999999,-2.10567674,,,
imu,97.720587,0.5640580904000001,-9.3557079448,3.3173554288,1.46558183,1.01634975,-2.04586146,,,
imu,97.72907,0.571235924,-9.311444637600001,3.3293184848,1.25622835,1.30794924,-1.82903107,,,
imu,97.737554,0.5508987288,-9.300079734400002,3.3424778464,1.10669015,1.48739508,-1.76173888,,,
imu,97.746038,0.5658525488000001,-9.3317818328,3.3628150416,0.8375213899999999,1.53973345,-1.79164652,,,
imu,97.754522,0.5790119104,-9.310248332,3.358627972000001,0.73284465,1.60702564,-1.90380017,,,
imu,97.763006,0.5951620360000001,-9.2719665528,3.352646444,0.44124516,1.60702564,-1.79912343,,,
imu,97.77149,0.5915731192000001,-9.244451524,3.3478612216,0.53096808,1.78647148,-1.61967759,,,
imu,97.779974,0.6035361752000001,-9.252825663200001,3.361618736,0.8973366700000001,1.79394839,-1.4028472,,,
imu,97.788436,0.6190881480000001,-9.2851259144,3.3628150416,0.83004448,1.86124058,-1.34303192,,,
imu,97.796898,0.6472013296000001,-9.288714831200002,3.3502538328,0.91229049,1.77151766,-1.38041647,,,
imu,97.805361,0.6711274416,-9.252227510400001,3.353842749600001,0.8823828499999999,1.63693328,-1.50004703,,,
imu,97.813823,0.6938572480000001,-9.2127494256,3.3388889296,0.9272443100000001,1.44253362,-1.67949287,,,
imu,97.822285,0.7285501104000001,-9.178654716,3.332309248800001,0.9870595899999999,1.03130357,-1.88136944,,,
imu,97.830747,0.7530743752000001,-9.146952617600002,3.337692624000001,1.13659779,0.5677351499999999,-2.06081528,,,
imu,97.83921,0.7638411256000001,-9.135587714400002,3.326327720800001,1.37585891,0.02939763000000006,-2.32250713,,,
imu,97.847672,0.7793930984000002,-9.1026893104,3.328122179200001,1.68988913,-0.45660152,-2.48699915,,,
imu,97.856134,0.8093007384,-9.074576128800002,3.338290776800001,2.35533412,-0.9949390400000002,-2.6739219,,,
imu,97.864596,0.8655271016000001,-9.1092689912,3.365207652800001,2.91610237,-1.61552257,-2.74121409,,,
imu,97.873059,0.9085941032000001,-9.170280576800002,3.367600264,3.3123786,-2.43798267,-2.8982292,,,
imu,97.881521,0.9390998960000001,-9.2061697448,3.3490575272,3.7609932,-3.44736552,-3.00290594,,,
imu,97.889983,0.9528574104000002,-9.2091605088,3.361020583200001,4.10493106,-4.50160983,-3.10010577,,,
imu,97.898446,0.9337165208000001,-9.234881079200001,3.3759744032,4.08250033,-5.50351577,-3.23469015,,,
imu,97.906908,0.9187627008000002,-9.280340692000001,3.386143000800001,4.10493106,-6.632529180000001,-3.3468438,,,
imu,97.91537,0.8679197128000001,-9.3174261656,3.373581792,4.04511578,-7.6942504,-3.41413599,,,
imu,97.923832,0.7764023344000002,-9.3246039992,3.367600264,3.94043904,-8.47184904,-3.3468438,,,
imu,97.932295,0.6555754688000001,-9.350922722400002,3.3580298192,3.70865483,-9.01766347,-3.20478251,,,
imu,97.940757,0.5359449088000001,-9.370063612000001,3.3394870824,3.41705534,-9.24197077,-3.15992105,,,
imu,96.554033,,,,,,,-90.4431556,162.105482,116.2430768
imu,96.654588,,,,,,,-90.833786,162.0078244,115.9623112
imu,96.75612,,,,,,,-90.4431556,161.8125092,115.3031224
imu,96.857683,,,,,,,-90.8826148,161.8491308,116.2674912
imu,96.959276,,,,,,,-88.45338199999999,161.5927796,113.325556
imu,97.060869,,,,,,,-90.7849572,161.861338,115.3153296
imu,97.16234,,,,,,,-89.2590572,161.1777348,112.5809168
imu,97.263902,,,,,,,-94.14193719999999,164.1318772,111.3357824
imu,97.949219,0.4647647256,-9.3754469872,3.320944345600001,3.21517877,-9.2644015,-2.89075229,,,
imu,97.957681,0.4360533912000001,-9.361689472800002,3.2994108448,2.94601001,-8.9653251,-2.68139881,,,
imu,97.966144,0.4276792520000001,-9.3060612624,3.2826625664,2.54973378,-8.59895651,-2.57672207,,,
imu,97.974606,0.4378478496000001,-9.245049676800003,3.2437826344,2.51234923,-8.07557281,-2.3748455,,,
imu,97.983068,0.5664507016000001,-9.2001882168,3.2222491336,2.66188743,-7.761542589999999,-1.96361545,,,
imu,97.991527,0.8565548096000002,-9.184636244000002,3.238997412,3.2376095,-8.13538809,-1.73183124,,,
imu,97.999985,1.217240948,-9.1918140776,3.2246417448,4.25446926,-9.34664751,-1.7019236,,,
imu,98.008444,1.5904882952,-9.1236246584,3.15525602,5.33862121,-11.67944343,-1.91127708,,,
imu,98.016902,1.9212667936,-8.959132638400002,3.0972351984,6.84148012,-15.43285225,-2.18044584,,,
imu,98.02536,2.1659112888,-8.739012408,3.0523737384,8.94996874,-20.58444324,-2.48699915,,,
imu,98.033819,2.2951122936,-8.541023831200002,2.966239735200001,11.79119454,-26.62578652,-2.71130645,,,
imu,98.042277,2.3010938216,-8.3908874784,2.8902743296,15.22309623,-33.32509788,-2.50195297,,,
imu,98.050736,2.1904355536,-8.3215017536,2.8448147168,19.39521201,-39.83000958,-1.79912343,,,
imu,98.059194,2.0570474792,-8.3340629624,2.820290452000001,24.03837312,-45.84144522,-0.26635688,,,
imu,98.067653,1.9248557104,-8.390289325600001,2.742530588,29.04042591,-51.29211261,1.75240882,,,
imu,98.076111,1.8506847632,-8.450702758400002,2.631872320000001,33.67611011,-56.48108815,3.86089744,,,
imu,98.08457,1.7962528584,-8.4955642184,2.5523179976,38.01271791,-61.34855656,6.111447350000001,,,
imu,98.093028,1.7489987872,-8.616391084,2.4841285784,41.93809565999999,-66.18611732999999,8.33956653,,,
imu,98.101487,1.656883256,-8.752171769600002,2.4003871864,45.61673537999999,-70.76946315999999,10.11907111,,,
imu,98.109945,1.5001672224,-8.855652204000002,2.3064771968,48.6224532,-75.09111714,11.70417603,,,
imu,98.118404,1.2549245744,-8.9609270968,2.2765695568,51.25432551999999,-79.0239718,13.26685022,,,
imu,98.126862,0.9624278552000001,-9.161308284800002,2.2717843344,53.07121464999999,-82.03716653,14.78466295,,,
imu,98.13532,0.7129981376000001,-9.3557079448,2.2095764432,54.12545896,-84.17556278999999,16.11555293,,,
imu,98.143779,0.490485296,-9.472347740800002,2.0869551192,54.52173518999999,-85.67094479,16.78847483,,,
imu,98.152237,0.2745521352,-9.510031367200002,1.941005836,54.68622721,-86.26909758999999,17.22961252,,,
imu,98.160696,0.0442633072,-9.61530626,1.89913514,54.61893502,-86.12703629999999,17.14736651,,,
imu,98.169154,-0.1692772424,-9.7780038216,1.872218264,54.43201226999999,-85.11017654,17.09502814,,,
imu,98.177613,-0.3224043592,-9.9789831624,1.89913514,53.92358238999999,-83.53254853,17.19222797,,,
imu,98.186071,-0.4300718632,-10.2654983536,2.0014192688,52.57026167999999,-81.31938317,17.41653527,,,
imu,98.194891,-0.4821111568000001,-10.5448357112,2.0630290072,50.11035828999999,-78.73984922,17.30438162,,,
imu,98.20371,-0.5072335744,-10.70693512,2.0588419376,46.95510227,-75.77151595,17.26699707,,,
imu,98.21253,-0.5341504504000001,-10.75179658,1.9912506712,42.84280176999999,-72.86299795999999,16.62398281,,,
imu,98.221349,-0.5999472584000001,-10.703944356,1.9075092792,38.31179431,-69.88718777999999,15.77909198,,,
imu,98.230169,-0.6507902464,-10.5926879352,1.8159919008,33.42937207999999,-66.55996282999999,14.86690896,,,
imu,98.238989,-0.7135962904,-10.4533183328,1.6814075208,28.98061063,-63.12058423,14.26127925,,,
imu,98.247808,-0.7201759712000001,-10.3402674536,1.6024513512,25.50384748,-59.39708305,13.67060336,,,
imu,98.256628,-0.6663422192,-10.216449824,1.5468231408,22.66262168,-55.74087406,12.6537436,,,
imu,98.265447,-0.580208216,-10.1398862656,1.5187099592,20.30739503,-52.27906473,11.41257654,,,
imu,98.274267,-0.5156077136000001,-10.1159601536,1.5181118064,18.59518264,-49.02660888,10.00691746,,,
imu,98.283087,-0.5000557408,-10.1303158208,1.4786337216,17.05493918,-45.94612196,8.795658040000001,,,
imu,98.291906,-0.481513004,-10.1542419328,1.4606891376,15.61189555,-42.91797341,7.532060250000001,,,
imu,98.300726,-0.4492127528000001,-10.1662049888,1.4487260816,14.17632883,-39.88982486,6.27593937,,,
imu,98.309545,-0.4133235848,-10.0591356376,1.423603664,12.47159335,-36.88410704,5.04224922,,,
imu,98.318365,-0.3732473472,-9.943692147200002,1.4122387608,11.05845736,-34.00549669,3.62911323,,,
imu,98.327184,-0.3427415544,-9.869521200000003,1.399677552,9.936920859999999,-31.19417853,2.20102342,,,
imu,98.336004,-0.3373581792000001,-9.850978463200002,1.4032664688,9.00978402,-28.59221385,0.7205952400000002,,,
imu,98.344824,-0.3253951232,-9.9030177568,1.4403519424,8.060216449999999,-26.24446411,-0.99161715,,,
imu,98.353643,-0.2936930248,-9.9365143136,1.4463334704,7.05831051,-24.01634493,-2.59167589,,,
imu,98.362463,-0.2655798432,-9.9030177568,1.4361648728,5.98911238,-21.54896463,-3.76555076,,,
imu,98.371282,-0.257205704,-9.8079114616,1.4361648728,4.86757588,-19.27598399,-4.82727198,,,
imu,98.380102,-0.2488315648,-9.738525736800002,1.4421464008,4.26942308,-16.98804953,-5.70954736,,,
imu,98.388921,-0.2111479384,-9.70502918,1.4373611784,3.99277741,-14.81226872,-6.053485220000001,,,
imu,98.397394,-0.1399677552,-9.685290137600001,1.417622136,3.9853005,-12.63648791,-6.14320814,,,
imu,98.405866,-0.07775986400000001,-9.687084596000002,1.4182202888,3.8357623,-10.75230659,-6.270315609999999,,,
imu,98.414339,-0.020935348,-9.689477207200001,1.4283888864,3.82828539,-9.07747875,-6.30022325,,,
imu,98.422811,0.0017944584,-9.682897526400001,1.4367630256,3.84323921,-7.395174000000001,-5.99366994,,,
imu,98.431284,0.04545961280000001,-9.655382497600002,1.4313796504,3.81333157,-6.00446874,-5.62730135,,,
imu,98.439756,0.08194693360000001,-9.655980650400002,1.4541094568,3.71613174,-4.6287173,-5.350655679999999,,,
imu,98.448229,0.1184342544,-9.7122070136,1.495382,3.90305449,-3.41745788,-5.260932759999999,,,
imu,98.456701,0.1680809368,-9.791761336000002,1.5025598336,3.91800831,-2.40059812,-5.03662546,,,
imu,98.465173,0.2171294664,-9.8168837536,1.4929893888,3.34228624,-1.39869218,-4.86465653,,,
imu,98.473646,0.2494297176,-9.818678212000002,1.5055505976,2.88619473,-0.6136166300000001,-4.715118329999999,,,
imu,98.482118,0.272159524,-9.815687448000002,1.5061487504,2.28056502,-0.04537147000000008,-4.66277996,,,
imu,98.490591,0.2930948720000001,-9.7959484056,1.4947838472,1.75718132,0.6724118899999998,-4.70764142,,,
imu,98.499063,0.3104413032000001,-9.766040765600001,1.4810263328,1.26370526,1.12102649,-4.89456417,,,
imu,98.507536,0.3373581792000001,-9.780396432800002,1.4977746112,0.79265993,1.37524143,-4.954379449999999,,,
imu,98.516008,0.3606861384,-9.798341016800002,1.5067469032,0.44124516,1.78647148,-4.98428709,,,
imu,98.524481,0.391790084,-9.834828337600001,1.5061487504,0.23189168,2.07807097,-5.14877911,,,
imu,98.532953,0.4139217376000001,-9.825257892800002,1.4768392632,-0.05970781,2.2500399,-5.10391765,,,
imu,98.541425,0.424688488,-9.773218599200002,1.4660725128,-0.38121494,2.46687029,-4.715118329999999,,,
imu,98.549898,0.4324644744,-9.746899876,1.4828207912,-0.69524516,2.57154703,-4.49828794,,,
imu,98.55837,0.4282774048000001,-9.749890640000002,1.4822226384,-0.83730645,2.87062343,-4.341272829999999,,,
imu,98.566843,0.4222958768,-9.813892989600001,1.4792318744,-0.9644139199999999,2.94539253,-4.22164227,,,
imu,98.575315,0.4121272792,-9.839015407200002,1.4666706656,-1.2485365,3.15474601,-4.012288789999999,,,
imu,98.583788,0.4240903352000001,-9.8049206976,1.4696614296,-1.7719202,3.39400713,-3.69078166,,,
imu,98.59226,0.4372496968000001,-9.766040765600001,1.4917930832,-2.2953039,3.65569898,-3.42908981,,,
imu,98.600724,0.4420349192,-9.754675862400001,1.5019616808,-2.97570271,3.76037572,-3.13001341,,,
imu,98.609187,0.439642308,-9.7953502528,1.5097376672,-3.54394787,3.90991392,-2.94309066,,,
imu,98.617651,0.4372496968000001,-9.810902225600001,1.4965783056,-4.05985466,4.104313579999999,-2.90570611,,,
imu,98.626114,0.4432312248,-9.797742864000002,1.5019616808,-4.725299649999999,4.15665195,-2.89075229,,,
imu,98.634454,0.4342589328000001,-9.760059237600002,1.501363528,-5.33092936,4.18655959,-2.86084465,,,
imu,98.642917,0.4264829464000001,-9.7295534448,1.5007653752,-5.86926688,4.23889796,-3.10758268,,,
imu,98.651381,0.4079402096,-9.7301515976,1.4828207912,-6.190774009999999,4.29123633,-3.13749032,,,
imu,97.366624,,,,,,,-96.57117,166.0239932,106.5871816
imu,97.46718,,,,,,,-96.70544919999999,166.9639476,104.3288496
imu,97.56859,,,,,,,-97.0228364,166.744218,103.2179944
imu,97.670183,,,,,,,-96.632206,166.7808396,103.2668232
imu,97.771745,,,,,,,-95.71666599999999,166.7686324,103.2668232
imu,97.873277,,,,,,,-93.54378439999999,166.3047588,103.7184896
imu,97.97487,,,,,,,-96.1561252,166.6465604,103.49876
imu,98.076585,,,,,,,-93.6780636,165.462462,102.094932
imu,98.17807,,,,,,,-94.3250452,164.2783636,109.4436664
imu,98.279602,,,,,,,-91.27324519999999,162.0932748,110.9085304
imu,98.381195,,,,,,,-88.8073908,161.2753924,115.8646536
imu,98.482758,,,,,,,-88.6120756,160.213366,115.8524464
imu,98.58429,,,,,,,-89.01491320000001,160.6528252,117.0121304
