Type,Timestamp,Data Accelerometer X,Data Accelerometer Y,Data Accelerometer Z,Data Gyroscope X,Data Gyroscope Y,Data Gyroscope Z,Data Magnetometer X,Data Magnetometer Y,Data Magnetometer Z
imu,291.299778,1.2298021568,-9.8402117128,2.0534585624,0.30666078,-15.82165157,-2.38979932,,,
imu,291.308608,1.3440493416,-9.8162856008,2.0223546168,0.32909151,-20.75641217,-1.85893871,,,
imu,291.317438,1.3506290224,-9.785779808000001,2.0121860192,0.7104139199999999,-26.18464883,-0.52057182,,,
imu,291.326269,1.2603079496,-9.710412555200001,1.9792876152,0.94219813,-31.5455933,0.9673332700000001,,,
imu,291.335099,1.1526404456,-9.708019944000002,1.9762968512,1.62259694,-36.44296935,2.97114515,,,
imu,291.343929,1.0665064424,-9.711608860800002,1.9607448784,2.16841137,-41.00388445,4.83289574,,,
imu,291.352759,0.9480721880000001,-9.688280901600002,1.9152852656,2.66188743,-45.16104641,6.044155160000001,,,
imu,291.361589,0.804515516,-9.6470083584,1.9122945016,3.03573293,-48.66024029,6.79932307,,,
imu,291.37042,0.6125084672000001,-9.618895176800002,1.908107432,3.46939371,-51.47155845,7.330183680000001,,,
imu,291.37925,0.3989679176000001,-9.626671163200001,1.8805924032,3.93296213,-53.69220072,7.43486042,,,
imu,291.387931,0.2243073,-9.6296619272,1.8566662912,4.03016196,-54.91841396,7.247937670000001,,,
imu,291.396761,0.1148453376,-9.638036066400002,1.8411143184,4.33671527,-55.247398,6.941384360000001,,,
imu,291.405591,0.04246884880000001,-9.661364025600001,1.8249641928,4.49373038,-55.23992109,6.126401170000001,,,
imu,291.414056,0.0053833752,-9.671532623200001,1.7980473168,4.4339151,-54.93336778,5.24412579,,,
imu,291.422521,-0.06160973840000001,-9.728955292000002,1.8058233032,4.44139201,-54.36512262,4.74317282,,,
imu,291.430986,-0.1244157824,-9.789966877600001,1.803430692,4.4339151,-53.36321668,4.5039117,,,
imu,291.43945,-0.158510492,-9.805518850400002,1.7878787192,4.14231561,-51.99494215,4.25717367,,,
imu,291.447915,-0.191408896,-9.7953502528,1.7801027328,3.64883955,-50.45469869,4.010435640000001,,,
imu,291.45638,-0.2111479384,-9.7815927384,1.7986454696,3.27499405,-48.89950141,3.95062036,,,
imu,291.464845,-0.2009793408,-9.7809945856,1.7962528584,2.96096383,-47.00784318,4.15249693,,,
imu,291.47331,-0.161501256,-9.8168837536,1.8309457208,2.3403803,-45.23581551,4.14502002,,,
imu,291.481774,-0.0675912664,-9.882680561600003,1.8626478192,1.76465823,-43.67314132,4.204835299999999,,,
imu,291.490239,0.04605776560000001,-9.9167752712,1.872218264,1.12164397,-42.45440499,4.10763547,,,
imu,291.498704,0.1124527264,-9.899428840000002,1.8817887088,0.45619898,-41.4898836,4.18988148,,,
imu,291.507169,0.182436604,-9.840809865600002,1.8626478192,-0.2017691,-40.91416153,4.52634243,,,
imu,291.515634,0.1932033544,-9.8013317808,1.8829850144,-0.82235263,-40.49545457,4.8777572,,,
imu,291.524098,0.200381188,-9.783387196800001,1.9015277512,-1.09152139,-39.97954778,5.37123326,,,
imu,291.532563,0.2261017584,-9.754675862400001,1.9015277512,-1.1737674,-39.68794829,5.64040202,,,
imu,291.541028,0.2619909264,-9.7325442088,1.9212667936,-1.2485365,-39.28419515,5.68526348,,,
imu,291.549493,0.2918985664000001,-9.6733270816,1.9009295984,-1.35321324,-39.11222622,5.797417129999999,,,
imu,291.557958,0.334965568,-9.606932120800002,1.938015072,-1.35321324,-38.82810364,5.78994022,,,
imu,291.566423,0.3726491944000001,-9.609324732000001,1.9643337952,-1.30835178,-38.96268802,5.37871017,,,
imu,291.574887,0.3744436528,-9.6075302736,1.9308372384,-0.92702937,-39.14961077,5.11701832,,,
imu,291.583352,0.3882011672000001,-9.533957479200001,1.9284446272,-0.8821679099999999,-39.35148734,4.89271102,,,
imu,291.591817,0.49347606,-9.5237888816,1.97390424,-0.874691,-39.63560992,4.74317282,,,
imu,291.600282,0.6352382736000001,-9.5740337168,2.0026155744,-1.03170611,-40.33843946,4.52634243,,,
imu,291.608747,0.7542706808000001,-9.623680399200001,2.0115878664,-1.24105959,-41.65437562,4.384281140000001,,,
imu,291.617232,0.8918458248000001,-9.651195428000001,2.0193638528,-1.71210492,-43.56098767,4.78055737,,,
imu,291.625717,1.0395895664,-9.701440263200002,2.024747228,-2.19810407,-46.17042926,5.09458759,,,
imu,291.634202,1.1257235696,-9.736731278400002,2.0014192688,-2.62428794,-49.25091618,5.24412579,,,
imu,291.642687,1.1388829312,-9.716992236000001,1.9745023928,-2.78877996,-52.27158782,5.98433988,,,
imu,291.651172,1.0395895664,-9.665551095200001,1.9852691432,-2.8934567,-55.34459783,6.75446161,,,
imu,291.659658,0.8649289488,-9.613511801600001,1.982876532,-2.62428794,-58.14096217,7.73393682,,,
imu,291.668143,0.7141944432000001,-9.618297024,2.0432899648,-2.26539626,-60.02514349,8.84799641,,,
imu,291.676628,0.5987509528,-9.666149248000002,2.0749920632,-1.67472037,-61.32612583,9.48353376,,,
imu,291.685113,0.4767277816000001,-9.675121540000001,2.081571744,-1.22610577,-62.06633992,9.63307196,,,
imu,291.693598,0.3206099008000001,-9.668541859200001,2.1138719952,-0.89712173,-62.31307795,9.5134414,,,
imu,291.702083,0.1710717008,-9.655980650400002,2.1455740936,-0.45598404,-62.01400155,9.1395959,,,
imu,291.710568,0.0855358504,-9.703234721600001,2.1910337064,-0.08961545,-61.02704943,8.466674000000001,,,
imu,291.719054,0.03887993200000001,-9.769629682400002,2.2203431936,0.04496892999999999,-59.76345164,7.576921710000001,,,
imu,291.727539,-0.0281131816,-9.789368724800001,2.2382877776,0.03001510999999998,-58.28302346,6.545108130000001,,,
imu,291.736024,-0.09091922560000001,-9.800733628000001,2.2747750984,0.03001510999999998,-56.47361124,5.715171119999999,,,
imu,291.744509,-0.1034804344,-9.773816752000002,2.2616157368,-0.22419983,-54.46979936,5.08711068,,,
imu,291.752994,-0.08194693360000001,-9.719983000000001,2.237091472,-0.52327623,-52.4809413,4.361850410000001,,,
imu,291.761479,-0.07058203040000001,-9.6703363176,2.2424748472,-0.40364567,-50.58180616,3.65902087,,,
imu,291.769965,-0.1441548248,-9.614109954400002,2.2275210272,-0.19429219,-48.83220922,2.97114515,,,
imu,291.77845,-0.1429585192,-9.591380148,2.2652046536,0.29170696,-46.86578189,2.43280763,,,
imu,291.786935,-0.1561178808,-9.6535880392,2.2765695568,0.81509066,-44.91430838,1.83465483,,,
imu,291.79542,-0.1620994088,-9.637437913600001,2.2652046536,1.0693056,-43.18714217,1.22902512,,,
imu,291.803905,-0.1100601152,-9.659569567200002,2.2933178352,1.25622835,-41.31043776,0.83274889,,,
imu,291.81239,-0.0741709472,-9.658373261600001,2.2592231256,1.27865908,-39.67299447,0.54862631,,,
imu,291.820831,-0.1142471848,-9.639830524800002,2.2765695568,1.24127453,-38.40939668,0.3542266500000002,,,
imu,291.829272,-0.128602852,-9.657176956,2.2957104464,1.20388998,-36.94392232,0.7430259700000001,,,
imu,291.837712,-0.1567160336,-9.703234721600001,2.3160476416,1.02444414,-35.41863268,0.9897640000000001,,,
imu,291.846153,-0.2249054528,-9.688879054400001,2.3124587248,1.03192105,-33.93072759,0.89256417,,,
imu,291.854594,-0.3170209840000001,-9.634447149600001,2.293915988,0.70293701,-32.11383846,0.7804105200000002,,,
imu,291.863034,-0.3475267768,-9.593772759200002,2.2717843344,0.7253677399999999,-29.79599636,0.9224718100000002,,,
imu,291.871475,-0.3373581792000001,-9.5632669664,2.2616157368,0.77770611,-27.59030791,0.64582614,,,
imu,291.879916,-0.3732473472,-9.594370912,2.27298064,0.8524752099999999,-25.37714255,-0.06448030999999999,,,
imu,291.888356,-0.3995660704000001,-9.6117173432,2.2681954176,1.17398234,-22.90228534,-0.40841817,,,
imu,291.896797,-0.3642750552,-9.636241608,2.27298064,1.368382,-20.27041302,-0.5654332799999999,,,
imu,291.905238,-0.3086468448,-9.655980650400002,2.2795603208,1.48053565,-17.74321744,-1.19349372,,,
imu,291.913678,-0.2930948720000001,-9.682299373600001,2.2801584736,1.6674584,-15.60482118,-1.8514618,,,
imu,291.922119,-0.2578038568000001,-9.740918348000001,2.2945141408,1.77213514,-13.54119402,-2.33746095,,,
imu,291.93056,-0.1848292152,-9.744507264800001,2.296906752,1.84690424,-11.47008995,-2.68887572,,,
imu,291.939,-0.09151737840000002,-9.734338667200001,2.2915233768,1.84690424,-9.79526211,-3.00290594,,,
imu,291.947441,0.0113649032,-9.746301723200002,2.2831492376,1.68241222,-8.62138724,-3.5711511,,,
imu,291.955881,0.1387714496,-9.785779808000001,2.2891307656,1.65998149,-8.07557281,-4.13939626,,,
imu,291.964322,0.2918985664000001,-9.820472670400001,2.2837473904,1.5179202,-8.01575753,-4.602964679999999,,,
imu,291.972763,0.4049494456000001,-9.8270523512,2.2622138896,1.20388998,-8.6662487,-5.00671782,,,
imu,291.981203,0.5335522976000001,-9.806715156000001,2.2843455432,0.81509066,-9.78030829,-4.999240909999999,,,
imu,291.989644,0.6567717744000001,-9.8234634344,2.3034864328,0.1720764,-11.21587501,-4.78241052,,,
imu,291.998085,0.8081044328000001,-9.825856045600002,2.2885326128,-0.32887657,-13.3019329,-4.079580979999999,,,
imu,292.006525,0.9887465784000001,-9.813892989600001,2.314851336,-1.21115195,-16.21045089,-3.39918217,,,
imu,292.014966,1.0778713456,-9.889260242400002,2.3304033088,-2.0709966,-19.71712168,-2.80850628,,,
imu,292.023432,1.178361016,-9.866530436000001,2.2975049048,-3.03551799,-23.66493016,-1.78416961,,,
imu,292.031898,1.2746636168,-9.838417254400001,2.3172439472,-4.14210067,-28.24079908,-0.52057182,,,
imu,292.040364,1.2914118952,-9.852174768800001,2.329805156,-5.01689914,-32.92134474,0.81031816,,,
imu,292.04883,1.2938045064,-9.869521200000003,2.3704795464,-5.70477486,-37.73647478,2.31317707,,,
imu,292.057296,1.2991878816,-9.808509614400002,2.3501423512,-6.497327319999999,-42.58898937,4.02538946,,,
imu,292.065763,1.2776543808,-9.745703570400002,2.374666616,-7.394556519999999,-47.48636542,5.849755500000001,,,
imu,292.074229,1.18135178,-9.748694334400001,2.4069668672,-7.753448199999999,-52.11457271,7.43486042,,,
imu,292.082695,1.0342061912,-9.665551095200001,2.3818444496,-8.00766314,-56.31659613,9.02744225,,,
imu,292.091161,0.8996218112000001,-9.564463272000001,2.3764610744,-8.17963207,-60.16720478,10.29104004,,,
imu,292.099627,0.7865709320000001,-9.486105255200002,2.3991908808,-7.970278589999999,-63.33741462,10.97143885,,,
imu,292.108093,0.6107140088,-9.491488630400001,2.4177336176,-7.58147927,-65.95433311999999,11.36771508,,,
imu,292.116559,0.4061457512000001,-9.489096019200002,2.4362763544,-6.878649729999999,-67.87589899,11.50229946,,,
imu,292.125025,0.1776513816,-9.457992073600002,2.447043104800001,-6.071143449999999,-68.90023565999999,11.59202238,,,
imu,292.133491,0.0221316536,-9.414925072,2.461398772,-5.46551374,-68.96005093999999,11.44248418,,,
imu,292.141957,-0.101685976,-9.3419504304,2.470371064,-4.66548437,-68.38432886999999,11.09854632,,,
imu,292.150423,-0.2524204816,-9.349128264,2.5259992744,-3.63367079,-67.37494602,10.38823987,,,
imu,292.15889,-0.4139217376000001,-9.370661764800001,2.548130928,-2.62428794,-65.72254890999999,9.26670337,,,
imu,292.167356,-0.5359449088000001,-9.377839598400001,2.551121692,-1.80930475,-63.53929119000001,8.30965889,,,
imu,292.175822,-0.6376308848000001,-9.346735652800001,2.5816274848,-0.94198319,-60.60834247,7.330183680000001,,,
imu,292.184288,-0.7273538048000001,-9.315631707200001,2.603759138400001,0.17955331,-57.30354825,6.418000660000001,,,
imu,292.192754,-0.7787949456000002,-9.297687123200001,2.6031609856,1.27118217,-53.87912347,5.61797129,,,
imu,292.20122,-0.8152822664000001,-9.315033554400001,2.5977776104,2.35533412,-50.06589937,4.69831136,,,
imu,292.209686,-0.8439936008000001,-9.353913486400002,2.6091425136,3.49930135,-46.43959802,3.58425177,,,
imu,292.218152,-0.8637326432000001,-9.395186029600001,2.584020096,4.55354566,-42.55908173,2.0365314,,,
imu,292.226969,-0.8924439776000002,-9.419112141600001,2.5905997768,5.44329795,-38.55145797,0.9972409099999999,,,
imu,292.235786,-0.8840698384000001,-9.423897364000002,2.570860734400001,6.14612749,-34.60364949,-0.03457266999999997,,,
imu,292.244603,-0.7859727792000001,-9.554294674400001,2.6372556952,6.87886467,-30.47639517,-0.7299252999999999,,,
imu,292.25342,-0.7949450712000001,-9.61530626,2.6001702216,7.21532562,-26.59587888,-1.35798574,,,
imu,292.262237,-0.8529658928000001,-9.6224840936,2.5828237904,7.17794107,-22.88733152,-2.11315365,,,
imu,292.271054,-0.8613400320000001,-9.578818939200001,2.5636829008,7.16298725,-18.94699995,-2.98047521,,,
imu,292.279871,-0.8344231560000002,-9.588987536800001,2.5774404152,7.19289489,-15.02909911,-3.90013514,,,
imu,292.288688,-0.8224601,-9.636241608,2.5618884424,7.17794107,-11.19344428,-4.90204108,,,
imu,292.297504,-0.7937487656000001,-9.6775141512,2.5427475528,7.15551034,-7.55966602,-5.86656247,,,
imu,292.306321,-0.7596540560000001,-9.668541859200001,2.508652843200001,6.90877231,-4.0305645,-6.71893021,,,
imu,292.315138,-0.7375224024000001,-9.708019944000002,2.5463364696,6.76671102,-0.6360473600000001,-7.511482669999999,,,
imu,292.323955,-0.7429057776,-9.768433376800001,2.5439438584,6.39286552,2.95286944,-7.847943620000001,,,
imu,292.332772,-0.6836886504,-9.802528086400002,2.5188214408,5.83209727,6.227756019999999,-8.19935839,,,
imu,291.397343,,,,,,,80.9337252,-35.43142840000002,122.1513616
imu,291.498905,,,,,,,86.03633479999999,-36.76201320000001,121.3701008
imu,291.600498,,,,,,,86.1461996,-36.23710360000001,125.6182064
imu,292.341589,-0.6077232448000001,-9.770825988000002,2.4757544392,5.31619048,9.19608929,-8.81994192,,,
imu,292.350406,-0.5544876456000001,-9.711010708000002,2.450632021600001,4.92739116,11.8204847,-9.41809472,,,
imu,292.359223,-0.5012520464000001,-9.692467971200001,2.413546548,4.80028369,14.20561899,-9.91904769,,,
imu,292.36804,-0.4803166984,-9.664952942400001,2.383638908,4.91991425,16.29167688,-10.3751392,,,
imu,292.376857,-0.5126169496,-9.638036066400002,2.365694324000001,5.0320679,18.33287331,-10.5246774,,,
imu,292.385674,-0.6262659816,-9.640428677600001,2.3698813936,4.964775710000001,20.47126957,-10.65926178,,,
imu,292.394491,-0.8033192104000001,-9.6535880392,2.3662924768,5.06945245,23.29006464,-10.4499083,,,
imu,292.403308,-1.03181358,-9.6523917336,2.3585164904,5.07692936,26.60233577,-10.50224667,,,
imu,292.412124,-1.3117490904,-9.624278552000002,2.3513386568,5.12926773,31.04362031,-11.08544565,,,
imu,292.420941,-1.6257793104,-9.621287788000002,2.3256180864,5.30123666,36.46438006,-11.99762867,,,
imu,292.429418,-1.9715116288,-9.6523917336,2.3010938216,5.76480508,43.41790636,-13.05187298,,,
imu,292.437894,-2.2532415976,-9.635045302400002,2.2209413464,6.14612749,51.70232264,-14.52482425,,,
imu,292.44637,-2.409957631200001,-9.583006008800002,2.15335008,6.72184956,60.87649121,-16.69312815,,,
imu,292.454846,-2.4039761032,-9.654186192000001,2.0977218696,7.47701747,70.41702837,-19.63155378,,,
imu,292.463323,-2.234100708,-9.8049206976,2.0420936592,7.86581679,79.64353531,-23.12327075,,,
imu,292.471799,-1.9254538632,-9.973001634400003,1.9966340464,7.74618623,88.10739743,-26.53274171,,,
imu,292.48016,-1.6215922408,-10.0974174168,1.935024308,6.94615686,95.25532339,-29.5907979,,,
imu,292.488636,-1.327899216,-10.237385172,1.938015072,5.72742053,101.26675903,-31.3104872,,,
imu,292.497113,-1.0042985512,-10.3594083432,1.9128926544,4.06754651,105.88748941,-32.08808584,,,
imu,292.505589,-0.7889635432000001,-10.3546231208,1.8596570552,2.25813429,109.26705273,-32.31239314,,,
imu,292.514065,-0.5736285352000001,-10.2631057424,1.82436604,0.43376825,111.88397123,-31.45254849,,,
imu,292.522542,-0.4193051128000001,-10.1189509176,1.7938602472,-1.12142903,113.46159924,-30.28615053,,,
imu,292.531018,-0.266177996,-10.0298261504,1.7621581488,-2.12333497,114.59808956,-29.0674142,,,
imu,292.539494,-0.158510492,-9.976590551200001,1.7830934968,-2.87850288,114.89716596,-28.38701539,,,
imu,292.54797,-0.0741709472,-9.893447312000001,1.7920657888,-3.46917877,114.95698124,-27.57950911,,,
imu,292.556447,0.0502448352,-9.8467913936,1.8177863592,-3.94770101,114.68781248,-26.71966446,,,
imu,292.564923,0.2440463424,-9.76484446,1.803430692,-4.32902342,113.8803062,-25.85981981,,,
imu,292.573399,0.385808556,-9.7193848472,1.8584607496,-4.62809982,112.15313999,-25.53083577,,,
imu,292.581875,0.4115291264,-9.690075360000002,1.8979388344,-4.71034583,109.8427748,-25.26166701,,,
imu,292.590352,0.4043512928,-9.709216249600003,1.9780913096,-4.71782274,107.51745579,-24.61865275,,,
imu,292.598828,0.3559009160000001,-9.6876827488,1.9876617544,-4.82997639,105.23699824,-23.8335772,,,
imu,292.607304,0.3158246784000001,-9.604539509600002,1.9942414352,-4.85988403,103.18084799,-23.37748569,,,
imu,292.61578,0.4486146000000001,-9.539939007200001,2.0199620056,-4.702868919999999,101.16208229,-23.03354783,,,
imu,292.624257,0.6304530512000001,-9.536350090400001,2.0181675472,-4.299115779999999,98.67227126,-23.34757805,,,
imu,292.632723,0.6884738728,-9.555490980000002,2.0522622568,-3.77573208,95.29270794,-23.42982406,,,
imu,292.641189,0.6806978864000002,-9.5877912312,2.0983200224,-3.27477911,91.70379114,-22.69708688,,,
imu,292.649655,0.6477994824000001,-9.602146898400001,2.132414732,-2.84111833,88.309274,-21.44844291,,,
imu,292.658121,0.5479079648000001,-9.612315496,2.171294664,-2.48222665,85.13906416,-20.49139843,,,
imu,292.666587,0.4821111568000001,-9.573435564,2.1958189288,-2.21305789,82.06605415,-20.12502984,,,
imu,292.675053,0.4432312248,-9.6296619272,2.2508489864,-1.92893531,79.39679728,-19.91567636,,,
imu,292.683519,0.4133235848,-9.6523917336,2.2257265688,-1.86912003,77.25092411,-19.36986193,,,
imu,292.691985,0.4181088072000001,-9.602146898400001,2.2233339576,-1.93641222,74.94055892,-18.99601643,,,
imu,292.700451,0.4312681688,-9.5590798968,2.2329044024,-2.23548862,72.32364042,-19.29509283,,,
imu,292.708917,0.4109309736,-9.555490980000002,2.25802682,-2.04108896,69.85626012,-19.3474312,,,
imu,292.717384,0.3971734592000001,-9.593772759200002,2.293915988,-1.86164312,67.62066403,-18.86143205,,,
imu,292.72585,0.4061457512000001,-9.658373261600001,2.3351885312,-1.59247436,65.4299294,-18.20346397,,,
imu,292.734316,0.3720510416,-9.7217774584,2.3585164904,-1.43545925,63.08217965999999,-17.73989555,,,
imu,292.742782,0.2787392048,-9.7056273328,2.3321977672,-1.51770526,60.7942452,-17.5529728,,,
imu,292.751248,0.2237091472,-9.648204664000001,2.3363848368,-1.46536689,58.98483297999999,-16.99220455,,,
imu,292.759714,0.2135405496,-9.606932120800002,2.3321977672,-1.15133667,57.30252823,-16.25946737,,,
imu,292.76818,0.2416537312,-9.627269316000001,2.3280106976,-0.77749117,55.68003876,-16.04263698,,,
imu,292.776646,0.2219146888,-9.614109954400002,2.311262419200001,-0.34383039,53.97530328,-16.27442119,,,
imu,292.785112,0.1746606176,-9.574631869600001,2.3178421,0.10478421,52.21822942999999,-16.27442119,,,
imu,292.793578,0.1507345056,-9.5632669664,2.3363848368,0.52349117,50.63312450999999,-16.18469827,,,
imu,292.802044,0.08433954480000001,-9.590183842400002,2.3471515872,0.9571519499999999,49.09288105,-16.15479063,,,
imu,292.81051,-0.0017944584,-9.606333968000001,2.3351885312,1.2188438,48.02368292,-15.84823732,,,
imu,292.818977,-0.1040785872,-9.596165370400001,2.3315996144,1.42072037,47.20122282,-15.6089762,,,
imu,292.827443,-0.2296906752000001,-9.595567217600001,2.323823628,1.53287402,47.01430007,-15.21269997,,,
imu,292.835913,-0.3289840400000001,-9.612913648800001,2.311860572000001,1.47305874,46.95448479,-15.14540778,,,
imu,292.844382,-0.3343674152,-9.6535880392,2.3339922256,1.52539711,47.22365354999999,-15.47439182,,,
imu,292.852852,-0.3385544848000001,-9.689477207200001,2.335786684,1.6674584,47.76946797999999,-16.0575908,,,
imu,292.861322,-0.3391526376000001,-9.731347903200001,2.3591146432,1.57025857,48.34519005,-16.45386703,,,
imu,292.869792,-0.3511156936,-9.742114653600002,2.3561238792,1.368382,48.80875846999999,-16.60340523,,,
imu,292.878262,-0.4061457512000001,-9.728955292000002,2.350740504,0.8823828499999999,49.32466526,-16.96977382,,,
imu,292.886732,-0.4653628784000001,-9.7714241408,2.398592728,0.3739529699999999,49.8779566,-17.52306516,,,
imu,292.895202,-0.6029380224,-9.8467913936,2.3884241304,-0.25410747,51.17893893999999,-17.59035735,,,
imu,292.903672,-0.6783052752000002,-9.856959991200002,2.3525349624,-1.13638285,52.65936712,-17.41091151,,,
imu,292.912142,-0.7620466672,-9.858754449600001,2.3501423512,-2.12333497,54.38653333,-17.69503409,,,
imu,292.920612,-0.8392083784000002,-9.83961356,2.323823628,-2.81121069,56.70437543,-17.83709538,,,
imu,292.929081,-0.7859727792000001,-9.818678212000002,2.3166457944,-3.52151714,58.83529478,-18.15860251,,,
imu,292.937551,-0.7249611936,-9.836622796,2.3202347112,-4.17948522,60.73442992,-19.03340098,,,
imu,292.946021,-0.723764888,-9.845595088000001,2.320832864,-4.54585381,62.47654995,-19.63155378,,,
imu,292.954491,-0.7775986400000001,-9.7959484056,2.304084585600001,-5.129052789999999,64.02427032,-20.0203531,,,
imu,292.962961,-0.8350213088000001,-9.759461084800002,2.2843455432,-5.52532902,65.73648271,-20.10259911,,,
imu,292.971431,-0.8583492680000002,-9.682299373600001,2.253839750400001,-5.674867219999999,67.79263296,-20.22222967,,,
imu,292.979901,-0.8451899064,-9.632054538400002,2.2574286672,-5.84683615,69.81887557,-20.64093663,,,
imu,292.988371,-0.8206656416,-9.672728928800002,2.2885326128,-5.60757503,71.76287217000001,-21.20918179,,,
imu,292.996841,-0.7435039304000001,-9.727160833600001,2.299897516,-5.338406269999999,73.56480748,-21.99425734,,,
imu,293.005311,-0.6430142600000001,-9.7427128064,2.3244217808,-5.25616026,74.94803583000001,-22.50268722,,,
imu,293.01378,-0.5718340768000001,-9.652989886400002,2.2987012104,-5.26363717,75.94994177000001,-22.89148654,,,
imu,293.02225,-0.4587831976000001,-9.567454036,2.3064771968,-5.14400661,76.56304839,-23.02607092,,,
imu,293.03072,-0.3511156936,-9.595567217600001,2.3638998656,-4.75520729,76.63034058000001,-23.21299367,,,
imu,293.039176,-0.2249054528,-9.6284656216,2.365694324000001,-4.560807629999999,76.17424907,-23.39991642,,,
imu,293.047632,-0.1692772424,-9.636839760800001,2.396798269600001,-4.36640797,75.38169661,-23.10831693,,,
imu,293.056088,-0.2099516328,-9.6458120528,2.3979945752,-4.38136179,74.4022214,-22.69708688,,,
imu,293.064544,-0.2440463424,-9.619493329600001,2.395601964,-4.50846926,73.62462276000001,-21.97182661,,,
imu,293.073,-0.2261017584,-9.5668558832,2.3818444496,-4.64305364,72.74234738,-21.26899707,,,
imu,293.081456,-0.2326814392,-9.561472508000001,2.3926112,-4.50846926,71.95727183,-20.96992067,,,
imu,293.089912,-0.2847207328,-9.587193078400002,2.3962001168,-4.28416196,71.13481173000001,-20.72318264,,,
imu,293.098368,-0.3445360128,-9.572239258400002,2.3997890336,-4.044900839999999,70.37216691,-20.36429096,,,
imu,293.106823,-0.4456238360000001,-9.5566872856,2.3788536856,-3.59628624,69.85626012,-20.34933714,,,
imu,293.115279,-0.6214807592000001,-9.565061424800001,2.3800499912,-3.10281018,69.96093686,-20.14746057,,,
imu,293.123735,-0.7632429728000001,-9.5865949256,2.3770592272,-2.69905704,70.61890494000001,-19.7212767,,,
imu,293.132191,-0.8368157672000002,-9.5949690648,2.3698813936,-2.62428794,71.56847251,-19.70632288,,,
imu,293.140647,-0.8589474208000002,-9.604539509600002,2.3979945752,-2.31025772,72.70496283,-20.26709113,,,
imu,293.149103,-0.9163700896000002,-9.592576453600001,2.3770592272,-1.89902767,74.19286792,-21.27647398,,,
imu,291.702061,,,,,,,88.36791,-36.38359000000002,126.1187016
imu,291.803654,,,,,,,95.4236716,-36.54228360000003,127.2905928
imu,291.905186,,,,,,,97.4256524,-36.84746360000002,127.1685208
imu,292.006718,,,,,,,98.2923636,-36.92070680000001,126.7778904
imu,292.10828,,,,,,,101.4540284,-36.34696840000002,125.0322608
imu,292.209843,,,,,,,105.2870892,-35.80985160000001,123.6894688
imu,292.311527,,,,,,,108.937042,-36.99395000000001,120.771948
imu,292.412968,,,,,,,105.4091612,-36.20048200000001,123.7260904
imu,293.157559,-1.0694972064,-9.535153784800002,2.3549275736,-1.622382,75.95741868,-22.00921116,,,
imu,293.166015,-1.244157824,-9.519003659200001,2.3638998656,-1.3980747,78.35750679,-22.18118009,,,
imu,293.174471,-1.4008738576,-9.5842023144,2.3525349624,-1.3233056,81.46790135,-22.0391188,,,
imu,293.182927,-1.507345056,-9.699645804800001,2.3435626704,-1.44293616,85.25869472000001,-21.71013476,,,
imu,293.191383,-1.519308112,-9.831239420800001,2.3585164904,-1.89902767,89.51305651,-21.64284257,,,
imu,293.199838,-1.4756429576,-9.9048122152,2.3644980184,-2.78130305,93.70012611,-21.79238077,,,
imu,293.208294,-1.3123472432,-9.897036228800001,2.389022283200001,-3.70843989,97.64045768,-22.18118009,,,
imu,293.21675,-1.0515526224,-9.899428840000002,2.3860315192,-4.538376899999999,100.71346769,-23.50459316,,,
imu,293.225206,-0.8966310472000002,-9.867128588800002,2.3710776992,-5.413175369999999,102.78457176,-25.54578959,,,
imu,293.233662,-0.7213722768,-9.7923594888,2.3650961712,-6.048712719999999,104.22761539,-26.28600368,,,
imu,293.24248,-0.5012520464000001,-9.741516500800001,2.383638908,-6.56461951,105.1323215,-26.19628076,,,
imu,293.251299,-0.2823281216,-9.7295534448,2.398592728,-6.78892681,105.39401335,-26.55517244,,,
imu,293.260117,-0.1238176296,-9.679308609600001,2.37765738,-6.878649729999999,104.75099909,-26.84677193,,,
imu,293.268935,0.0143556672,-9.568650341600001,2.3914148944,-6.945941919999999,103.58460113,-26.45797261,,,
imu,293.277753,0.2051664104,-9.482516338400002,2.3842370608,-6.57957333,101.95463475,-25.52335886,,,
imu,293.286572,0.4384460024000001,-9.440645642400002,2.416537312,-5.742159409999999,99.51716209,-24.53640674,,,
imu,293.29539,0.7123999848000001,-9.4203084472,2.454819091200001,-4.747730379999999,96.14507568,-23.61674681,,,
imu,293.304208,0.9540537160000001,-9.3993730992,2.5074565376,-3.48413259,91.76360642,-22.79428671,,,
imu,293.313026,1.1107697496,-9.340155972000002,2.5146343712,-2.12333497,86.35032358000001,-22.06154953,,,
imu,293.321845,1.2196335592,-9.279144386400002,2.5588976784,-0.77001426,80.45104159,-20.82785938,,,
imu,293.330663,1.3165343128,-9.282135150400002,2.603759138400001,1.0693056,74.37979067,-19.10817008,,,
imu,293.339481,1.369769912,-9.287518525600001,2.6163203472,2.59459524,67.76272532,-17.15669657,,,
imu,293.348299,1.3811348152,-9.290509289600001,2.655200279200001,3.947915950000001,61.13070614999999,-14.89866975,,,
imu,293.357118,1.3482364112,-9.329987374400002,2.6863042248,5.26385211,54.26690276999999,-12.55092001,,,
imu,293.365936,1.2914118952,-9.408345391200001,2.7180063232,6.51997299,47.68722197,-10.09101662,,,
imu,293.374754,1.2435596712,-9.4962738528,2.7377453656,7.30504854,41.29446392,-7.541390310000001,,,
imu,293.383572,1.1598182792,-9.585996772800002,2.745521352,8.0228319,35.21573609,-5.26840967,,,
imu,293.392391,1.0096819264,-9.604539509600002,2.718604476,8.217231559999998,29.32393101,-3.77302767,,,
imu,293.401209,0.8236564056000001,-9.630260080000001,2.7048469616,8.456492679999998,24.06018637,-1.98604618,,,
imu,293.410027,0.6346401208000001,-9.641624983200002,2.6791263912,8.44153886,19.67871711,-0.26635688,,,
imu,293.418845,0.4874945320000001,-9.664952942400001,2.6516113624,8.41910813,15.86549301,0.9224718100000002,,,
imu,293.427664,0.3864067088000001,-9.687084596000002,2.625890792,8.232185379999999,12.59060643,1.737455,,,
imu,293.436482,0.2996745528,-9.701440263200002,2.6270870976,7.94058589,9.8764881,2.05896213,,,
imu,293.444965,0.2195220776,-9.703234721600001,2.6282834032,7.47701747,7.409107799999999,2.16363887,,,
imu,293.453447,0.1716698536,-9.672130776000001,2.6175166528,7.23775635,5.420249739999999,2.16363887,,,
imu,293.46193,0.09630260080000001,-9.675121540000001,2.6025628328,7.34991,3.75289881,1.96923921,,,
imu,293.470412,0.0005981528000000001,-9.651195428000001,2.5941886936,7.40972528,2.55659321,1.78979337,,,
imu,293.478895,-0.011963056,-9.636241608,2.60196468,7.43963292,1.577118,1.6626859,,,
imu,293.487378,0.0125612088,-9.641026830400001,2.6187129584,7.59664803,0.8742884599999998,1.2888404,,,
imu,293.49586,0.0113649032,-9.6428212888,2.6193111112,7.64150949,0.1789358299999999,0.5635801300000001,,,
imu,293.504343,0.007775986400000001,-9.620091482400001,2.6223018752,7.56674039,-0.5463244400000002,0.04767334000000023,,,
imu,293.512825,0.0490485296,-9.583604161600002,2.6217037224,7.48449438,-1.07718505,-0.4532796299999999,,,
imu,293.521308,0.04366515440000001,-9.557285438400001,2.607946208,7.69384786,-1.57813802,-1.07386316,,,
imu,293.529791,-0.0065796808,-9.5459205352,2.5822256376,7.71627859,-2.16881391,-1.29817046,,,
imu,293.538273,-0.04725407120000001,-9.572837411200002,2.5594958312,7.76861696,-2.31835211,-1.12620153,,,
imu,293.546756,-0.06460050240000001,-9.6087265792,2.5409530944,7.75366314,-2.22115228,-1.00657097,,,
imu,293.555239,-0.07656355840000001,-9.6799067624,2.530186344,7.71627859,-1.8622606,-0.6402023799999998,,,
imu,293.563721,-0.0215335008,-9.743310959200002,2.5200177464,7.28261781,-1.79496841,-0.4682334499999998,,,
imu,293.572086,0.0634041968,-9.788770572,2.4865211896,7.0508336,-2.02675262,-0.6551562,,,
imu,293.580568,0.1567160336,-9.783985349600002,2.4865211896,6.72184956,-2.63985924,-0.9542325999999999,,,
imu,293.589051,0.2865151912,-9.773816752000002,2.4865211896,6.54240372,-3.60438063,-1.15610917,,,
imu,293.597533,0.4539979752000001,-9.8162856008,2.5038676208,6.16855822,-5.211916280000001,-1.30564737,,,
imu,293.606016,0.6609588440000002,-9.880886103200002,2.4865211896,5.88443564,-7.42508164,-1.04395552,,,
imu,293.614499,0.8194693360000002,-9.8402117128,2.4518283272,5.50311323,-10.64762985,-0.5878640099999999,,,
imu,293.622981,0.8416009896000001,-9.755274015200001,2.4003871864,5.12179082,-14.33374648,0.36170356,,,
imu,293.631464,0.7393168608000001,-9.7193848472,2.3752647688,4.77785296,-17.72826362,2.20850033,,,
imu,293.639947,0.6454068712000001,-9.722375611200002,2.3232254752,4.53859184,-21.03305784,5.01981849,,,
imu,293.648409,0.6220789120000001,-9.709216249600003,2.305879044,4.33671527,-24.22569841,7.38252205,,,
imu,293.656871,0.6220789120000001,-9.7325442088,2.2981030576,4.49373038,-27.21646241,8.90781169,,,
imu,293.665333,0.5879842024,-9.7540777096,2.3178421,4.4339151,-30.32685697,9.80504089,,,
imu,293.673796,0.5401319784,-9.763050001600002,2.3022901272,4.60588403,-33.0409753,10.35833223,,,
imu,293.682258,0.4659610312,-9.734936820000001,2.2843455432,4.57597639,-35.62798616,10.47796279,,,
imu,293.69072,0.3457323184,-9.709216249600003,2.28793446,4.65074549,-38.10284337,10.15645566,,,
imu,293.699182,0.1519308112,-9.689477207200001,2.2484563752,4.63579167,-39.66551756,9.73027179,,,
imu,293.707645,-0.08254508640000002,-9.715795930400002,2.2562323616,4.46382274,-40.18890126,9.962056,,,
imu,293.716107,-0.2350740504,-9.779200127200001,2.2933178352,4.15726943,-39.63560992,10.76208537,,,
imu,293.724569,-0.2918985664000001,-9.809107767200002,2.311860572000001,3.48434753,-38.58884252,11.15088469,,,
imu,293.733032,-0.2745521352,-9.8043225448,2.3124587248,2.76656417,-37.42992147,10.88171593,,,
imu,293.741494,-0.2171294664,-9.764246307200002,2.3345903784,2.00391935,-36.31586188,10.32094768,,,
imu,293.749956,-0.110658268,-9.752881404000002,2.3573201848,1.60016621,-35.54574015,9.692887240000001,,,
imu,293.758418,-0.003588916800000001,-9.722973764,2.3818444496,1.30856672,-35.22423302,8.65359675,,,
imu,293.766881,0.1052748928,-9.6846919848,2.3950038112,1.19641307,-35.35134049,7.38252205,,,
imu,293.775343,0.221316536,-9.5865949256,2.389620436,1.31604363,-35.97940093,6.126401170000001,,,
imu,293.783805,0.3008708584000001,-9.487899713600001,2.3848352136,1.79456587,-37.02616833,4.98243394,,,
imu,293.792267,0.3433397072,-9.416719530400002,2.396798269600001,2.4899185,-38.08788955,4.25717367,,,
imu,293.80073,0.3373581792000001,-9.422102905600001,2.4183317704,3.10302512,-39.47859481,3.98800491,,,
imu,293.809192,0.2805336632,-9.471151435200001,2.420126228800001,3.947915950000001,-40.43563929,4.010435640000001,,,
imu,293.817654,0.185427368,-9.498666464000001,2.4039761032,4.48625347,-41.01136136,4.25717367,,,
imu,293.826117,0.1381732968,-9.4974701584,2.3938075056,4.68065313,-41.16837647,4.96000321,,,
imu,293.834579,0.1178361016,-9.529770409600001,2.4069668672,4.91243734,-41.16089956,5.872186230000001,,,
imu,293.843041,0.1309954632,-9.620091482400001,2.4332855904,5.14422155,-41.07117664,6.47033903,,,
imu,293.851517,0.1979885768,-9.693066124000001,2.4356782016,5.37600576,-40.98893063,6.86661526,,,
imu,293.859994,0.2237091472,-9.715795930400002,2.4440523408,5.09188318,-41.40763759,6.92643054,,,
imu,293.86847,0.1064711984,-9.751685098400001,2.4362763544,4.77037605,-41.81139073,6.986245820000001,,,
imu,293.876946,0.011963056,-9.802528086400002,2.4362763544,4.29185381,-41.89363674,6.92643054,,,
imu,293.885422,0.008374139200000002,-9.8228652816,2.437472660000001,3.93296213,-41.63194489,6.68716942,,,
imu,293.893899,0.04486146000000001,-9.783985349600002,2.413546548,3.56659354,-40.94406917,6.418000660000001,,,
imu,293.902375,0.0101685976,-9.7163940832,2.4039761032,2.88619473,-40.38330092,5.98433988,,,
imu,293.910851,-0.05084298800000001,-9.688879054400001,2.3722740048,2.45253395,-39.80757885,5.65535584,,,
imu,293.919327,-0.08374139200000001,-9.648204664000001,2.3615072544,2.19831901,-39.08231858,5.4011409,,,
imu,293.927804,-0.09630260080000001,-9.638634219200002,2.362105407200001,2.07868845,-38.25985848,5.04972613,,,
imu,293.93628,-0.1471455888,-9.651195428000001,2.356722032,2.24318047,-37.28786018,4.862803380000001,,,
imu,293.944756,-0.1495382,-9.690075360000002,2.380648144,2.21327283,-36.12146222,4.78055737,,,
imu,293.953232,-0.08852661440000001,-9.7163940832,2.3872278248,2.13850373,-34.88777207,4.578680800000001,,,
imu,293.961709,-0.0065796808,-9.676915998400002,2.3698813936,2.08616536,-34.17746562,4.21978912,,,
imu,293.970185,0.1004896704,-9.593772759200002,2.3603109488,1.74970441,-33.87091231,3.80108216,,,
imu,292.514409,,,,,,,102.9066852,-38.43439960000001,122.9814512
imu,292.615972,,,,,,,93.40948360000002,-37.51885960000001,127.3394216
imu,292.717534,,,,,,,87.7087212,-37.11602200000002,124.8979816
imu,292.819097,,,,,,,84.30291240000001,-36.84746360000002,124.5683872
imu,292.92069,,,,,,,81.66615720000001,-36.85967080000001,123.2622168
imu,293.022222,,,,,,,78.51669960000001,-36.74980600000002,119.856408
imu,293.123784,,,,,,,75.5381428,-35.99295960000002,116.6947432
imu,293.225347,,,,,,,73.7436844,-35.05300520000001,111.9583496
imu,293.978661,0.170473548,-9.5381445488,2.344758976,1.99644244,-34.02792742,3.44219048,,,
imu,293.987137,0.2458408008,-9.51062952,2.3190384056,2.50487232,-34.74571078,3.21788318,,,
imu,293.995614,0.3044597752,-9.478927421600002,2.2945141408,3.27499405,-35.62050925,3.42723666,,,
imu,294.00409,0.3612842912,-9.420906600000002,2.27298064,3.97034668,-36.86915322,3.80855907,,,
imu,294.012566,0.4181088072000001,-9.381428515200001,2.2586249728,4.69560695,-38.28228921,4.21978912,,,
imu,294.021042,0.5048409632,-9.3557079448,2.2424748472,5.71994362,-39.83000958,4.907664840000001,,,
imu,294.029519,0.6166955368000001,-9.3443430416,2.2406803888,6.96111068,-41.76652927,5.89461696,,,
imu,294.037995,0.726755652,-9.3652783896,2.2329044024,8.015354989999999,-44.30867867,6.500246670000001,,,
imu,294.046471,0.7865709320000001,-9.385615584800002,2.22811918,9.18175295,-47.12747374,7.330183680000001,,,
imu,294.054916,0.8350213088000001,-9.443038253600001,2.195220776,10.35562782,-50.3126374,8.23488979,,,
imu,294.06336,0.8727049352000001,-9.483712644000002,2.150957468800001,11.47716432,-53.74453909,9.341472470000001,,,
imu,294.071805,0.8601437264,-9.4663662128,2.12344244,12.37439352,-57.40074808,10.41814751,,,
imu,294.080249,0.8487788232000001,-9.487899713600001,2.0821698968,13.33891491,-60.69058848,11.3078998,,,
imu,294.088694,0.8093007384,-9.585398620000001,2.0690105352,14.49783596,-64.10005944,11.89857569,,,
imu,294.097138,0.6585662328000002,-9.680504915200002,2.0767865216,15.32777297,-67.04596197999999,12.73598961,,,
imu,294.105583,0.4952705184000001,-9.735534972800002,1.9984285048,15.64180319,-69.41614245,13.52854207,,,
imu,294.114027,0.3337692624,-9.743909112,1.9535670448,15.70161847,-70.87413989999999,13.73789555,,,
imu,294.122471,0.242251884,-9.746301723200002,1.9804839208,15.73152611,-71.59940017,14.04444886,,,
imu,294.130916,0.2249054528,-9.788770572,1.9780913096,15.73900302,-72.14521459999999,13.82761847,,,
imu,294.13936,0.191408896,-9.806715156000001,1.9338280024,15.35768061,-72.59382919999999,13.18460421,,,
imu,294.147805,0.1770532288,-9.788770572,1.8895646952,14.99131202,-72.90038250999999,12.63878978,,,
imu,294.156249,0.08015247520000002,-9.745105417600001,1.8907610008,14.64737416,-73.10973598999999,11.97334479,,,
imu,294.164694,-0.0257205704,-9.786976113600002,1.8686293472,14.4529745,-73.01253616,11.55463783,,,
imu,294.173138,-0.1866236736,-9.855763685600001,1.848292152,14.26605175,-72.01810712999999,11.82380659,,,
imu,294.181583,-0.3642750552,-9.9305327856,1.860255208,13.87725243,-70.08158743999999,12.40700557,,,
imu,294.190027,-0.4677554896000001,-10.0029092744,1.9105000432,12.91273104,-67.54691494999999,12.83318944,,,
imu,294.198472,-0.5150095608,-10.051957804,1.9093037376,12.16504004,-64.66082768999999,12.69112815,,,
imu,294.206916,-0.5042428104000001,-10.069902388,1.9075092792,11.30519539,-61.81212498,12.01072934,,,
imu,294.215361,-0.5090280328000001,-10.0615282488,1.9182760296,9.959351589999999,-59.17277575,10.52282425,,,
imu,294.223805,-0.5407301312,-10.022050164,1.8985369872,8.94996874,-56.37641141,8.98258079,,,
imu,294.23225,-0.5724322296000001,-9.973599787200001,1.908107432,7.78357078,-53.36321668,7.509629520000001,,,
imu,294.240694,-0.5670488544000001,-9.9101955904,1.8943499176,6.87886467,-50.27525285,6.38061611,,,
imu,294.249138,-0.5473098120000001,-9.860548908000002,1.8877702368,6.0040662,-47.10504301,5.146925960000001,,,
imu,294.257958,-0.5580765624000001,-9.811500378400002,1.887172084,5.39095958,-44.02455609,3.83846671,,,
imu,294.266778,-0.571235924,-9.801929933600002,1.9099018904,4.94234498,-40.65246968,3.06834498,,,
imu,294.275597,-0.5556839512000001,-9.803126239200001,1.9338280024,4.49373038,-37.21309108,2.67954566,,,
imu,294.284417,-0.5443190480000001,-9.803126239200001,1.9475855168,3.85071612,-33.84848158,2.41785381,,,
imu,294.293236,-0.502448352,-9.776807516000002,1.9751005456,3.49930135,-30.36424152,2.07391595,,,
imu,294.302056,-0.4492127528000001,-9.752283251200002,1.9751005456,3.11050203,-27.23889314,1.5131477,,,
imu,294.310876,-0.400762376,-9.752881404000002,1.9894562128,2.6394567,-24.30046751,0.7729336099999999,,,
imu,294.319695,-0.3367600264,-9.745703570400002,1.9852691432,2.46748777,-21.56391845,0.1972115400000001,,,
imu,294.328515,-0.2805336632,-9.718786694400002,1.9780913096,2.22074974,-19.2086918,-0.3934643499999999,,,
imu,294.337334,-0.2117460912,-9.703832874400002,1.967922712,2.05625772,-16.98057262,-0.9318018699999999,,,
imu,294.346154,-0.1411640608,-9.668541859200001,1.9667264064,1.95158098,-15.25340641,-1.50752394,,,
imu,294.354973,-0.09510629520000001,-9.6499991224,1.9894562128,2.20579592,-13.59353239,-1.7019236,,,
imu,294.363793,-0.0526374464,-9.682299373600001,2.0002229632,2.48244159,-12.19535022,-1.76921579,,,
imu,294.372613,-0.003588916800000001,-9.7217774584,2.0193638528,2.60207215,-11.08129063,-1.86641562,,,
imu,294.381432,0.0382817792,-9.7786019744,2.031326908800001,2.50487232,-10.10929233,-1.76921579,,,
imu,294.390252,0.08733030880000002,-9.802528086400002,2.060636396,2.31794957,-9.35412442,-1.82903107,,,
imu,294.399071,0.1489400472,-9.828248656800001,2.0678142296,1.92167334,-8.72606398,-1.83650798,,,
imu,294.407891,0.1967922712,-9.8198745176,2.0648234656,1.43567419,-8.3671723,-1.75426197,,,
imu,294.41671,0.2560093984,-9.787574266400002,2.0672160768,1.12912088,-8.20268028,-1.75426197,,,
imu,294.42553,0.2590001624000001,-9.762451848800001,2.0708049936,0.7253677399999999,-8.15781882,-1.79164652,,,
imu,294.43435,0.242251884,-9.762451848800001,2.066617924,0.53844499,-8.21015719,-2.00847691,,,
imu,294.443169,0.2350740504,-9.714001472000001,2.054654868000001,0.3963837,-8.41203376,-2.21783039,,,
imu,294.451989,0.2697669128,-9.676915998400002,2.0534585624,0.43376825,-8.50175668,-2.35989168,,,
imu,294.460473,0.2984782472,-9.652989886400002,2.0612345488,0.56087572,-8.71111016,-2.59167589,,,
imu,294.468957,0.3194135952000001,-9.608128426400002,2.0504677984,0.7403215599999999,-9.12981712,-2.92813684,,,
imu,294.47744,0.3224043592,-9.593174606400002,2.0528604096,1.21136689,-9.428893519999999,-2.86084465,,,
imu,294.485924,0.3271895816000001,-9.597959828800002,2.054654868000001,1.68241222,-9.92236958,-2.72626027,,,
imu,294.494408,0.3134320672,-9.574631869600001,2.0528604096,2.17588828,-10.58033766,-2.56924516,,,
imu,294.502892,0.3086468448,-9.5704448,2.0498696456,2.58711833,-11.10372136,-2.62158353,,,
imu,294.511376,0.2895059552,-9.5656595776,2.0355139784,3.13293276,-11.51495141,-2.35989168,,,
imu,294.51986,0.2554112456,-9.543527924000001,2.0259435336,3.611455,-11.97851983,-2.1505382,,,
imu,294.528344,0.2296906752000001,-9.520199964800002,2.0193638528,4.1348387,-12.29255005,-1.83650798,,,
imu,294.536828,0.2051664104,-9.526181492800001,2.0289342976,4.77037605,-12.37479606,-1.57481613,,,
imu,294.545312,0.2141387024,-9.572239258400002,2.0169712416,5.32366739,-12.43461134,-1.33555501,,,
imu,294.553795,0.1985867296,-9.633848996800001,2.021756464,5.54049778,-12.52433426,-1.0290017,,,
imu,294.562279,0.176455076,-9.696655040800001,2.031326908800001,5.86948182,-12.3299346,-0.7074945699999999,,,
imu,294.570763,0.1501363528,-9.7845835024,2.0468788816,6.04892766,-12.28507314,-0.5654332799999999,,,
imu,294.579247,0.1549215752,-9.813892989600001,2.0265416864,5.93677401,-12.00095056,-0.4981410899999998,,,
imu,294.587731,0.1573141864,-9.810902225600001,1.9990266576,5.45077486,-11.72430489,-0.71497148,,,
imu,294.596215,0.1549215752,-9.803126239200001,1.9762968512,5.15917537,-11.35045939,-0.96918642,,,
imu,294.604699,0.1543234224,-9.803126239200001,1.9607448784,4.62083785,-11.133629,-1.20097063,,,
imu,294.613183,0.1549215752,-9.802528086400002,1.9356224608,4.41896128,-10.84202951,-1.34303192,,,
imu,294.621667,0.1268083936,-9.787574266400002,1.9314353912,4.21708471,-10.46818401,-1.64210832,,,
imu,294.63015,0.1250139352,-9.791761336000002,1.9182760296,4.19465398,-10.09433851,-1.86641562,,,
imu,294.638634,0.1244157824,-9.7786019744,1.908107432,4.11240797,-9.61581627,-1.9262309,,,
imu,294.647118,0.1339862272,-9.758264779200001,1.9063129736,3.89557758,-9.35412442,-2.26269185,,,
imu,294.655602,0.1220231712,-9.752283251200002,1.89913514,3.78342393,-9.02514038,-2.54681443,,,
imu,294.664158,0.128602852,-9.744507264800001,1.8943499176,3.76847011,-8.554095049999999,-2.6739219,,,
imu,294.672632,0.1363788384,-9.737927584000001,1.8979388344,3.99277741,-8.28492629,-2.56924516,,,
imu,294.681106,0.1202287128,-9.7301515976,1.887172084,3.79090084,-8.00080371,-2.62906044,,,
imu,294.68958,0.1034804344,-9.724170069600001,1.8776016392,3.6862241,-7.440035460000001,-2.4496146,,,
imu,294.698053,0.07955432240000002,-9.743909112,1.896144376,3.80585466,-6.961513220000001,-2.09072292,,,
imu,294.706527,0.05742266880000001,-9.787574266400002,1.9212667936,3.6862241,-6.37831424,-1.80660034,,,
imu,294.715001,0.0490485296,-9.811500378400002,1.9122945016,3.61893191,-5.6754847,-1.70940051,,,
imu,294.723474,0.04605776560000001,-9.802528086400002,1.9057148208,3.39462461,-4.95770134,-1.88884635,,,
imu,294.731948,0.04007623760000001,-9.751685098400001,1.9164815712,3.00582529,-4.12776433,-1.94866163,,,
imu,294.740422,0.0227298064,-9.746899876,1.911098196,3.00582529,-3.21558131,-2.06829219,,,
imu,294.748896,0.0197390424,-9.7923594888,1.9194723352,2.58711833,-2.31835211,-2.48699915,,,
imu,294.757369,0.004187069600000001,-9.7953502528,1.9116963488,2.29551884,-1.49589201,-2.98047521,,,
imu,294.765843,0.011963056,-9.767237071200002,1.902125904,2.116073,-0.59866281,-2.98047521,,,
imu,294.774317,0.020935348,-9.758264779200001,1.9134908072,1.98896553,0.27613566,-3.38422835,,,
imu,294.78279,0.05203929360000001,-9.767835224,1.9152852656,1.85438115,1.00139593,-3.9449966,,,
imu,294.791264,0.07716171120000001,-9.788172419200002,1.911098196,1.65998149,1.71170238,-4.17678081,,,
imu,293.33106,,,,,,,72.0468836,-33.99097880000001,106.7458752
imu,293.428502,,,,,,,74.07327880000001,-34.25953720000001,101.545608
imu,293.530034,,,,,,,72.4008924,-32.7580516,104.1335344
imu,293.63178,,,,,,,74.7080532,-33.42944760000002,101.2892568
imu,293.733159,,,,,,,72.31544199999999,-32.48949320000001,105.7448848
imu,293.834722,,,,,,,72.925802,-32.5261148,106.2087584
imu,293.936284,,,,,,,73.78030600000001,-32.58715080000001,109.968576
imu,294.037877,,,,,,,74.5005308,-33.22192520000002,111.1526744
imu,294.799738,0.1148453376,-9.758264779200001,1.9009295984,1.67493531,2.25751681,-4.40108811,,,
imu,294.808212,0.1459492832,-9.7122070136,1.9003314456,1.62259694,2.63136231,-4.58801086,,,
imu,294.816685,0.1680809368,-9.671532623200001,1.8949480704,1.68988913,2.84071579,-4.759979789999999,,,
imu,294.825159,0.182436604,-9.659569567200002,1.89913514,1.79456587,3.27437657,-4.51324176,,,
imu,294.833633,0.1770532288,-9.6499991224,1.8889665424,1.90671952,3.39400713,-4.49828794,,,
imu,294.842106,0.1896144376,-9.639830524800002,1.88418132,2.08616536,3.46877623,-4.55810322,,,
imu,294.85058,0.1836329096,-9.651793580800001,1.8889665424,2.407672489999999,3.65569898,-4.55062631,,,
imu,294.859054,0.1776513816,-9.717590388800001,1.9057148208,2.66188743,3.60336061,-4.50576485,,,
imu,294.867498,0.1902125904,-9.736731278400002,1.8883683896,2.99087147,3.64822207,-4.44594957,,,
imu,294.875943,0.1920070488,-9.735534972800002,1.8949480704,3.13293276,3.69308353,-4.23659609,,,
imu,294.884387,0.1920070488,-9.741516500800001,1.8937517648,3.42453225,3.73046808,-3.87770441,,,
imu,294.892832,0.2027737992,-9.7504887928,1.8865739312,3.58154736,3.60336061,-3.7954584,,,
imu,294.901276,0.2081571744,-9.7427128064,1.8746108752,3.64136264,3.50616078,-3.93004278,,,
imu,294.909721,0.2249054528,-9.7510869456,1.848292152,3.7609932,3.48373005,-3.9449966,,,
imu,294.918165,0.2380648144,-9.738525736800002,1.8315438736,3.76847011,3.20708438,-4.13939626,,,
imu,294.92661,0.2261017584,-9.7056273328,1.818384512,3.79837775,3.03511545,-4.13939626,,,
imu,294.935054,0.2075590216,-9.703832874400002,1.80941222,3.87314685,2.87810034,-4.16182699,,,
imu,294.943498,0.1991848824,-9.713403319200001,1.8100103728,4.02268505,2.89305416,-4.079580979999999,,,
imu,294.951943,0.2081571744,-9.710412555200001,1.8022343864,4.14979252,2.85566961,-4.079580979999999,,,
imu,294.960387,0.188418132,-9.708019944000002,1.791467636,4.04511578,2.7734236,-3.93004278,,,
imu,294.968832,0.1902125904,-9.735534972800002,1.7986454696,4.03763887,2.86314652,-3.77302767,,,
imu,294.977276,0.1740624648,-9.773816752000002,1.8022343864,3.97782359,2.81080815,-3.87770441,,,
imu,294.985721,0.191408896,-9.783985349600002,1.7926639416,3.74603938,3.01268472,-3.78050458,,,
imu,294.994165,0.1878199792,-9.7809945856,1.7878787192,3.41705534,3.05754618,-3.75059694,,,
imu,295.00261,0.1878199792,-9.766040765600001,1.776513816,3.05816366,2.96782326,-3.74312003,,,
imu,295.011054,0.1782495344,-9.772022293600001,1.7627563016,3.04320984,3.0725,-3.91508896,,,
imu,295.019499,0.185427368,-9.782789044000001,1.7651489128,2.94601001,3.17717674,-3.87770441,,,
imu,295.027943,0.1740624648,-9.7911631832,1.7549803152,2.77404108,3.19960747,-3.88518132,,,
imu,295.036388,0.1770532288,-9.785779808000001,1.7609618432,2.64693361,3.43139168,-3.78798149,,,
imu,295.044832,0.1686790896,-9.775611210400001,1.752587704,2.6394567,3.50616078,-3.86275059,,,
imu,295.053277,0.1531271168,-9.755274015200001,1.7442135648,2.55721069,3.64822207,-3.95247351,,,
imu,295.061721,0.1561178808,-9.7702278352,1.752587704,2.63197979,3.81271409,-3.91508896,,,
imu,295.070186,0.1650901728,-9.785181655200002,1.7747193576,2.74413344,4.02954448,-3.87770441,,,
imu,295.078651,0.1818384512,-9.785779808000001,1.7687378296,2.6394567,4.149175039999999,-3.81788913,,,
imu,295.087115,0.1920070488,-9.772022293600001,1.7663452184,2.48244159,4.36600543,-3.66087402,,,
imu,295.09558,0.1890162848,-9.742114653600002,1.7866824136,2.45253395,4.51554363,-3.46647436,,,
imu,295.104045,0.1932033544,-9.745105417600001,1.7890750248,2.55721069,4.6426511,-3.39918217,,,
imu,295.11251,0.19439966,-9.748694334400001,1.7896731776,2.59459524,4.62022037,-3.56367419,,,
imu,295.120975,0.1830347568,-9.710412555200001,1.7938602472,2.62450288,4.65760492,-3.41413599,,,
imu,295.12944,0.1686790896,-9.660765872800003,1.82436604,2.81142563,4.74732784,-3.2720747,,,
imu,295.137904,0.1579123392,-9.638036066400002,1.8195808176,3.10302512,5.03892733,-3.05524431,,,
imu,295.146369,0.1591086448,-9.631456385600002,1.8177863592,3.47687062,5.21837317,-2.83841392,,,
imu,295.154834,0.1543234224,-9.606932120800002,1.806421456,3.82828539,5.48754193,-2.85336774,,,
imu,295.163299,0.16449202,-9.5877912312,1.8076177616,4.35166909,5.704372319999999,-2.68887572,,,
imu,295.171764,0.1603049504,-9.561472508000001,1.8088140672,4.9572988,5.88381816,-2.77859864,,,
imu,295.180228,0.1806421456,-9.554294674400001,1.8058233032,5.61526688,6.17541765,-2.95804448,,,
imu,295.188693,0.191408896,-9.5566872856,1.8112066784,6.40781934,6.22027911,-3.11505959,,,
imu,295.197158,0.1920070488,-9.588987536800001,1.8189826648,6.9012954,6.182894559999999,-3.48890509,,,
imu,295.205623,0.20935348,-9.6117173432,1.8249641928,7.17794107,6.11560237,-3.61601256,,,
imu,295.214088,0.2219146888,-9.6494009696,1.82436604,7.63403258,6.063264,-3.84031986,,,
imu,295.222552,0.2398592728,-9.676915998400002,1.80941222,7.70132477,5.988494899999999,-3.84031986,,,
imu,295.231017,0.2613927736,-9.692467971200001,1.7932620944,7.74618623,5.77166451,-3.69825857,,,
imu,295.239482,0.2566075512,-9.7265626808,1.770532288,7.84338606,5.64455704,-3.3468438,,,
imu,295.247947,0.2542149400000001,-9.7540777096,1.7549803152,7.90320134,5.53240339,-3.08515195,,,
imu,295.256412,0.2613927736,-9.7570684736,1.7232782168,7.75366314,5.45763429,-2.86832156,,,
imu,295.264877,0.2727576768,-9.744507264800001,1.7029410216,7.86581679,5.34548064,-2.56176825,,,
imu,295.273699,0.2619909264,-9.725366375200002,1.6736315344,7.88077061,5.33800373,-2.40475314,,,
imu,295.282521,0.2476352592,-9.731946056000002,1.6640610896,7.97049353,5.30061918,-2.28512258,,,
imu,295.291343,0.257205704,-9.7504887928,1.6413312832,8.194800829999998,5.330526819999999,-2.23278421,,,
imu,295.300165,0.2566075512,-9.776807516000002,1.6413312832,8.254616109999999,5.30061918,-2.26269185,,,
imu,295.308988,0.257205704,-9.768433376800001,1.618003324,8.07517027,5.40529592,-2.32998404,,,
imu,295.31781,0.2715613712,-9.770825988000002,1.5868993784,8.13498555,5.53240339,-2.4496146,,,
imu,295.326632,0.2865151912,-9.782789044000001,1.5665621832,8.142462459999999,5.65203395,-2.72626027,,,
imu,295.335454,0.2918985664000001,-9.785181655200002,1.552206516,8.15741628,5.86886434,-2.8234601,,,
imu,295.344277,0.3098431504,-9.7744149048,1.5330656264,8.20227774,5.93615653,-2.95056757,,,
imu,295.353099,0.3277877344,-9.752881404000002,1.51033582,8.209754649999999,5.988494899999999,-3.24216706,,,
imu,295.361921,0.3212080536,-9.745703570400002,1.483418944,8.434061949999998,5.92867962,-3.30198234,,,
imu,295.370743,0.323002512,-9.736731278400002,1.4588946792,8.55369251,5.77914142,-3.32441307,,,
imu,295.379566,0.334965568,-9.724170069600001,1.4582965264,8.807907449999998,5.86138743,-3.24216706,,,
imu,295.388388,0.3499193880000001,-9.725964528,1.4457353176,8.94249183,5.8389567,-3.10758268,,,
imu,295.39721,0.3457323184,-9.7337405144,1.4469316232,9.174276039999999,5.78661833,-3.06272122,,,
imu,295.406032,0.3427415544,-9.745703570400002,1.4397537896,9.346244969999999,5.56231103,-3.04029049,,,
imu,295.414855,0.323002512,-9.709814402400001,1.417622136,9.391106429999999,5.51744957,-3.09262886,,,
imu,295.423677,0.3295821928000001,-9.6709344704,1.4092479968,9.38362952,5.375388279999999,-3.30198234,,,
imu,295.432499,0.3265914288,-9.6458120528,1.3853218848,9.660275189999998,5.27818845,-3.61601256,,,
imu,295.441321,0.323002512,-9.6505972752,1.3913034128,9.959351589999999,5.21837317,-3.78050458,,,
imu,295.450143,0.3343674152,-9.645213900000002,1.3721625232,10.28085872,5.21089626,-4.02724261,,,
imu,295.458966,0.3385544848000001,-9.6284656216,1.348834564,10.69956568,5.0164966,-4.34874974,,,
imu,295.467788,0.3373581792000001,-9.6248767048,1.3273010632,11.22294938,5.14360407,-4.3936112,,,
imu,295.47626,0.3313766512,-9.711010708000002,1.3171324656,11.6865178,5.03892733,-4.625395409999999,,,
imu,295.484733,0.3206099008000001,-9.744507264800001,1.2985897288,12.11270167,5.12117334,-4.5431494,,,
imu,295.493205,0.3236006648,-9.7815927384,1.2842340616,12.23233223,5.12865025,-4.33379592,,,
imu,295.501678,0.3014690112,-9.803724392000001,1.3075620208,12.10522476,5.091265699999999,-4.35622665,,,
imu,295.51015,0.2799355104,-9.822267128800002,1.297991576,11.82857909,5.023973509999999,-4.48333412,,,
imu,295.518623,0.2853188856,-9.819276364800002,1.2704765472,11.55193342,5.06135806,-4.53567249,,,
imu,295.527095,0.2829262744000001,-9.800733628000001,1.2447559768,11.37248758,5.158557889999999,-4.6179185,,,
imu,295.535567,0.2817299688000001,-9.755872168000002,1.2190354064,11.29024157,5.10621952,-4.8422258,,,
imu,295.54404,0.2835244272,-9.730749750400001,1.2094649616,11.3126723,4.814620029999999,-5.18616366,,,
imu,295.552512,0.2984782472,-9.710412555200001,1.1915203776,11.73885617,4.694989469999999,-5.39551714,,,
imu,295.560985,0.2673743016,-9.669738164800002,1.1340977088,12.26971678,4.65760492,-5.43290169,,,
imu,295.569457,0.2619909264,-9.696655040800001,1.1502478344,12.74823902,4.59778964,-5.09644074,,,
imu,295.57793,0.2883096496000001,-9.752881404000002,1.1568275152,13.18937671,4.60526655,-4.7674567,,,
imu,295.586402,0.2787392048,-9.8013317808,1.133499556,13.57817603,4.51554363,-4.8422258,,,
imu,295.594875,0.2913004136,-9.76484446,1.10658268,13.65294513,4.56040509,-4.80484125,,,
imu,295.603347,0.2847207328,-9.702038416,1.0473655528,13.69032968,4.44825144,-4.759979789999999,,,
imu,295.611819,0.227298064,-9.652989886400002,1.0240375936,13.89220625,4.30619015,-4.909517989999999,,,
imu,294.139489,,,,,,,75.12309800000001,-33.88111400000003,113.996952
imu,294.241052,,,,,,,77.78426759999999,-35.0896268,117.6957336
imu,294.342706,,,,,,,80.067014,-35.77323000000001,119.7221288
imu,294.444207,,,,,,,81.1168332,-36.26151800000002,121.6630736
imu,294.545739,,,,,,,83.99773239999999,-36.54228360000003,120.344696
imu,294.647363,,,,,,,82.25210279999999,-36.37138280000001,122.053704
imu,294.748864,,,,,,,85.2062452,-37.43340920000002,119.9906872
imu,294.850579,,,,,,,83.057778,-36.77422040000003,122.8227576
imu,295.620292,0.200381188,-9.6218859408,0.9714001472000001,14.31091321,4.35105161,-4.94690254,,,
imu,295.628764,0.1770532288,-9.583006008800002,0.9205571592,14.64737416,4.42582071,-4.89456417,,,
imu,295.637237,0.1495382,-9.573435564,0.8942384360000002,15.11094258,4.7921893,-4.70016451,,,
imu,295.645709,0.1656883256,-9.5907819952,0.8882569080000001,15.85863358,5.15108098,-4.55062631,,,
imu,295.654182,0.1818384512,-9.630260080000001,0.8918458248000001,16.56146312,5.36791137,-4.51324176,,,
imu,295.662654,0.1848292152,-9.659569567200002,0.8733030880000001,16.90540098,5.51744957,-4.57305704,,,
imu,295.671127,0.19439966,-9.676317845600002,0.8571529624000002,17.31663103,5.67446468,-4.29641137,,,
imu,295.679589,0.1991848824,-9.667345553600002,0.8380120728000001,17.49607687,5.77166451,-4.25902682,,,
imu,295.688051,0.1967922712,-9.654186192000001,0.7937487656000001,17.73533799,5.921202709999999,-4.41604193,,,
imu,295.696513,0.2045682576000001,-9.618895176800002,0.7279519576000001,18.10170658,5.898771979999999,-4.61044159,,,
imu,295.704976,0.227298064,-9.609324732000001,0.6747163584000001,18.55032118,5.98101799,-4.737549059999999,,,
imu,295.713438,0.2518223288000001,-9.648204664000001,0.6244715232,19.17090471,5.921202709999999,-4.96185636,,,
imu,295.7219,0.251224176,-9.675121540000001,0.5646562432000001,19.6868115,5.64455704,-5.25345585,,,
imu,295.730362,0.2613927736,-9.708019944000002,0.5251781584,20.12794919,5.49501884,-5.57496298,,,
imu,295.738825,0.2757484408,-9.7989391696,0.4785222400000001,20.42702559,5.285665359999999,-5.69459354,,,
imu,295.747287,0.2829262744000001,-9.876699033600001,0.4348570856000001,20.81582491,5.08378879,-5.49271697,,,
imu,295.755683,0.2763465936,-9.928738327200001,0.3947808480000001,20.69619435,4.92677368,-5.283363489999999,,,
imu,295.764145,0.263187232,-9.9969277464,0.3397507904000001,20.42702559,4.672558739999999,-4.83474889,,,
imu,295.772608,0.2554112456,-10.0298261504,0.2787392048,19.80644206,4.523020539999999,-4.124442439999999,,,
imu,295.78107,0.2733558296,-10.0076944968,0.2398592728,19.35782746,4.51554363,-3.65339711,,,
imu,295.789532,0.2805336632,-10.013077872,0.200381188,18.84192067,4.29123633,-3.41413599,,,
imu,295.797994,0.2865151912,-10.0633227072,0.1770532288,18.48302899,3.99963684,-3.39918217,,,
imu,295.806457,0.2954874832,-10.1081841672,0.1537252696,17.90730692,3.79028336,-3.31693616,,,
imu,295.814919,0.2930948720000001,-10.0740894576,0.092713684,17.10727755,3.60336061,-3.28702852,,,
imu,295.823381,0.287113344,-10.0465744288,0.0663949608,16.36706346,3.34166876,-3.39918217,,,
imu,295.831843,0.287113344,-10.0465744288,0.0191408896,15.76891066,3.09493073,-3.4216129,,,
imu,295.840306,0.2883096496000001,-10.0645190128,-0.0346928624,15.16328095,2.81080815,-3.47395127,,,
imu,295.848768,0.2918985664000001,-10.0752857632,-0.08433954480000001,14.59503579,2.70613141,-3.48890509,,,
imu,295.85723,0.2918985664000001,-10.0782765272,-0.1321917688,13.71276041,2.42200883,-3.59358183,,,
imu,295.865692,0.2984782472,-10.0866506664,-0.176455076,13.19685362,2.14536316,-3.60853565,,,
imu,295.874155,0.2942911776,-10.0681079296,-0.2165313136,12.68094683,1.93600968,-3.63844329,,,
imu,295.882626,0.2847207328,-10.0411910536,-0.2715613712,11.9855942,1.61450255,-3.85527368,,,
imu,295.891097,0.275150288,-10.0322187616,-0.290104108,11.58184106,1.577118,-3.77302767,,,
imu,295.899568,0.2715613712,-10.0405929008,-0.3277877344,10.97621135,1.39767216,-3.77302767,,,
imu,295.908039,0.2823281216,-10.0543504152,-0.361882444,10.36310473,1.10607267,-3.71321239,,,
imu,295.916511,0.2709632184,-10.0543504152,-0.3726491944000001,9.630367549999999,0.8518577299999999,-3.62348947,,,
imu,295.924982,0.2727576768,-10.0531541096,-0.3959771536000001,9.05464548,0.7696117199999999,-3.40665908,,,
imu,295.933453,0.257205704,-10.0495651928,-0.3953790008,8.478923409999998,0.4929660499999997,-3.2720747,,,
imu,295.941924,0.2446444952,-10.042985512,-0.4079402096,7.80600151,0.27613566,-3.1973056,,,
imu,295.950395,0.2284943696,-10.0298261504,-0.4228940296000001,7.19289489,0.3209971199999999,-2.99542903,,,
imu,295.958866,0.2165313136,-10.0316206088,-0.4240903352000001,6.64708046,0.1639820099999998,-2.96552139,,,
imu,295.967338,0.2021756464,-10.0471725816,-0.4348570856000001,6.02649693,0.05930526999999985,-2.80850628,,,
imu,295.975809,0.1800439928,-10.057939332,-0.46356842,5.35357503,-0.0005100100000001717,-2.94309066,,,
imu,295.98428,0.1656883256,-10.0633227072,-0.4504090584,4.84514515,0.02939763000000006,-2.83093701,,,
imu,295.992751,0.1441548248,-10.0675097768,-0.4384460024000001,4.359146,0.1789358299999999,-2.80850628,,,
imu,296.001222,0.1411640608,-10.0645190128,-0.4318663216,3.72360865,0.2537049300000001,-2.8234601,,,
imu,296.009693,0.140565908,-10.0543504152,-0.4210995712,3.08059439,0.4032431299999999,-2.79355246,,,
imu,296.018165,0.1429585192,-10.0501633456,-0.4055475984,2.407672489999999,0.3882893099999998,-2.80850628,,,
imu,296.026636,0.146547436,-10.0268353864,-0.3989679176000001,1.83942733,0.6350273399999997,-2.65149117,,,
imu,296.035107,0.1591086448,-9.996329593600002,-0.3989679176000001,1.45062801,0.9191499199999997,-2.50195297,,,
imu,296.043578,0.1650901728,-9.973599787200001,-0.3882011672000001,1.01696723,1.01634975,-2.38232241,,,
imu,296.052049,0.1752587704,-9.947281064000002,-0.3720510416,0.68050628,1.33785688,-2.30755331,,,
imu,296.060521,0.197390424,-9.937710619200002,-0.3463304712,0.3739529699999999,1.36028761,-2.46456842,,,
imu,296.068992,0.2237091472,-9.911990048800002,-0.3164228312,0.11226112,1.58459491,-2.38232241,,,
imu,296.077463,0.2494297176,-9.9000269928,-0.2889078024000001,-0.0522309,1.70422547,-2.41223005,,,
imu,296.08592,0.2793373576,-9.900625145600001,-0.2757484408,-0.24663056,1.77151766,-2.42718387,,,
imu,296.094377,0.2907022608000001,-9.9000269928,-0.2368685088,-0.39616876,1.74161002,-2.54681443,,,
imu,296.102834,0.2913004136,-9.902419604000002,-0.2159331608,-0.55318387,1.85376367,-2.56924516,,,
imu,296.111292,0.2984782472,-9.905410368000002,-0.2015774936,-0.88964482,2.03320951,-2.71130645,,,
imu,296.119749,0.3104413032000001,-9.897634381600001,-0.1920070488,-1.28592105,1.95844041,-3.00290594,,,
imu,296.128206,0.3128339144,-9.867726741600002,-0.1740624648,-1.51770526,1.99582496,-3.1225365,,,
imu,296.136663,0.3415452488,-9.869521200000003,-0.158510492,-1.66724346,2.10797861,-3.28702852,,,
imu,296.14512,0.3505175408000001,-9.879689797600001,-0.1429585192,-1.87659694,2.10797861,-3.42908981,,,
imu,296.153578,0.3642750552,-9.897634381600001,-0.137575144,-2.1457657,2.03320951,-3.59358183,,,
imu,296.162035,0.3720510416,-9.893447312000001,-0.1220231712,-2.25044244,1.98087114,-3.6459202,,,
imu,296.170492,0.3744436528,-9.8683248944,-0.10467674,-2.50465738,1.86871749,-3.70573548,,,
imu,296.178949,0.3887993200000001,-9.861147060800002,-0.0813487808,-2.78877996,1.65936401,-3.62348947,,,
imu,296.187406,0.4013605288,-9.850380310400002,-0.0813487808,-2.82616451,1.46496435,-3.72816621,,,
imu,296.195863,0.3899956256000001,-9.8228652816,-0.07177833600000001,-2.86354906,1.36028761,-3.7206893,,,
imu,296.204321,0.3660695136000001,-9.808509614400002,-0.0550300576,-3.15514855,0.9415806499999997,-3.69825857,,,
imu,296.212778,0.3289840400000001,-9.8330338792,-0.0370854736,-3.25234838,0.72475026,-3.78050458,,,
imu,296.221235,0.3026653168,-9.855165532800001,-0.0275150288,-3.28973293,0.7770886299999997,-3.55619728,,,
imu,296.229692,0.2823281216,-9.825856045600002,-0.0281131816,-3.34954821,0.7696117199999999,-3.53376655,,,
imu,296.238149,0.2703650656,-9.8079114616,-0.003588916800000001,-3.30468675,0.8817653699999997,-3.48142818,,,
imu,296.246607,0.2625890792,-9.8162856008,0.007775986400000001,-3.07290254,1.17336486,-3.28702852,,,
imu,296.255064,0.2590001624000001,-9.8593526024,-0.0005981528000000001,-3.12524091,1.30047233,-3.42908981,,,
imu,296.263521,0.2595983152,-9.890456548000001,0.003588916800000001,-2.93831816,1.49487199,-3.37675144,,,
imu,296.271978,0.2685706072,-9.889858395200001,0.0161501256,-3.08037945,1.62197946,-3.51881273,,,
imu,296.280435,0.2990764,-9.853371074400002,0.0155519728,-3.18505619,1.76404075,-3.90013514,,,
imu,296.289255,0.3080486920000001,-9.810902225600001,0.01495382,-3.31964057,1.54721036,-4.25154991,,,
imu,294.951989,,,,,,,83.2286788,-36.7375988,122.7373072
imu,295.053552,,,,,,,83.1432284,-36.67656280000002,122.603028
imu,295.15548,,,,,,,82.8624628,-37.29913000000003,122.4931632
imu,295.256677,,,,,,,82.72818360000001,-37.20147240000002,122.3710912
imu,295.358239,,,,,,,82.9723276,-37.27471560000002,122.2246048
imu,295.459832,,,,,,,82.43521080000001,-37.66534600000002,121.7607312
imu,295.561364,,,,,,,84.9132724,-38.47102120000001,121.0038848
imu,295.662957,,,,,,,82.43521080000001,-38.53205720000001,121.8461816
imu,295.76455,,,,,,,84.6202996,-39.87484920000001,118.818796
imu,295.866143,,,,,,,83.0333636,-39.78939880000001,121.1259568
imu,295.968255,,,,,,,82.8990844,-40.19223640000003,119.001904
imu,296.06939,,,,,,,83.1676428,-39.54525480000002,121.1137496
imu,296.171196,,,,,,,82.88687720000001,-40.27768680000001,120.8818128
imu,296.272362,,,,,,,82.8990844,-39.65511960000001,120.832984
