Type,Timestamp,Data Accelerometer X,Data Accelerometer Y,Data Accelerometer Z,Data Gyroscope X,Data Gyroscope Y,Data Gyroscope Z,Data Magnetometer X,Data Magnetometer Y,Data Magnetometer Z
imu,421.860217,-0.4384460024000001,-9.8432024768,1.8895646952,-0.94198319,1.89114822,-3.81788913,,,
imu,421.869069,-0.4504090584,-9.834828337600001,1.8853776256,-1.28592105,1.98087114,-3.93751969,,,
imu,421.877922,-0.4581850448000001,-9.8013317808,1.887172084,-1.57752054,2.11545552,-3.93751969,,,
imu,421.886347,-0.4641665728000001,-9.745105417600001,1.9212667936,-1.85416621,2.18274771,-3.90013514,,,
imu,421.894773,-0.4809148512,-9.728955292000002,1.9188741824,-2.01118132,2.24256299,-3.76555076,,,
imu,421.903198,-0.4827093096,-9.7331423616,1.9134908072,-1.79435093,2.42948574,-3.45152054,,,
imu,421.911624,-0.4839056152000001,-9.7128051664,1.917079724,-1.83173548,2.61640849,-3.25712088,,,
imu,421.920049,-0.4689517952000001,-9.672728928800002,1.9254538632,-1.82425857,2.63136231,-3.18235178,,,
imu,421.928474,-0.4402404608,-9.6703363176,1.9338280024,-1.5476129,2.63136231,-3.1973056,,,
imu,421.9369,-0.4414367664,-9.676915998400002,1.9326316968,-1.3980747,2.46687029,-3.26459779,,,
imu,421.945325,-0.4551942808000001,-9.667943706400001,1.9404076832,-1.1737674,2.36219355,-3.43656672,,,
imu,421.953751,-0.4647647256,-9.6326526912,1.9422021416,-0.89712173,2.16031698,-3.7206893,,,
imu,421.962176,-0.472540712,-9.633250844,1.9332298496,-0.64290679,2.07807097,-3.84031986,,,
imu,421.970601,-0.4946723656000001,-9.631456385600002,1.9422021416,-0.38869185,2.1005017,-3.95247351,,,
imu,421.979027,-0.5042428104000001,-9.633848996800001,1.9487818224,-0.04475399000000001,2.01825569,-3.9449966,,,
imu,421.987452,-0.5090280328000001,-9.655382497600002,1.941005836,0.1720764,2.04816333,-3.87770441,,,
imu,421.995878,-0.5030465048,-9.660765872800003,1.9601467256,0.34404533,1.99582496,-3.77302767,,,
imu,422.004303,-0.5168040192000001,-9.6703363176,1.9517725864,0.65807555,2.09302479,-3.66835093,,,
imu,422.012728,-0.520392936,-9.6912716656,1.9392113776,0.97958268,2.11545552,-3.55619728,,,
imu,422.021154,-0.5329541448,-9.693066124000001,1.9296409328,1.12912088,2.19770153,-3.51133582,,,
imu,422.029579,-0.5275707696,-9.702038416,1.9248557104,1.30856672,2.18274771,-3.36927453,,,
imu,422.038005,-0.5281689224000001,-9.716992236000001,1.9188741824,1.37585891,2.26499372,-3.13749032,,,
imu,422.04643,-0.5275707696,-9.7337405144,1.9105000432,1.39828964,2.33976282,-3.00290594,,,
imu,422.054855,-0.5269726168000001,-9.741516500800001,1.9015277512,1.42072037,2.35471664,-2.92813684,,,
imu,422.063281,-0.5239818528000001,-9.746301723200002,1.9009295984,1.52539711,2.51173175,-2.87579847,,,
imu,422.071706,-0.520392936,-9.751685098400001,1.8799942504,1.54035093,2.70613141,-2.85336774,,,
imu,422.080131,-0.5084298800000001,-9.759461084800002,1.8776016392,1.68241222,2.87810034,-2.68139881,,,
imu,422.088599,-0.5138132552000001,-9.765442612800001,1.8746108752,1.62259694,2.97530017,-2.71130645,,,
imu,422.097066,-0.4886908376000001,-9.758862932000001,1.8644422776,1.60016621,3.06502309,-2.68887572,,,
imu,422.105534,-0.4767277816000001,-9.769031529600001,1.85427368,1.53287402,3.11736146,-2.81598319,,,
imu,422.114001,-0.4731388648000001,-9.788172419200002,1.860255208,1.42072037,3.11736146,-2.84589083,,,
imu,422.122468,-0.4599795032,-9.779200127200001,1.8554699856,1.24875144,3.17717674,-2.94309066,,,
imu,422.130936,-0.4575868920000001,-9.7714241408,1.8536755272,0.9646288599999999,3.00520781,-3.06272122,,,
imu,422.139403,-0.4528016696000001,-9.770825988000002,1.8524792216,1.09173633,2.99025399,-2.95804448,,,
imu,422.14787,-0.4551942808000001,-9.7786019744,1.8488903048,0.79265993,2.90053107,-3.0477674,,,
imu,422.156338,-0.4444275304,-9.7845835024,1.8441050824,0.67302937,2.95286944,-2.94309066,,,
imu,422.164805,-0.4468201416000001,-9.782789044000001,1.845301388,0.5010604399999999,2.78090051,-2.95804448,,,
imu,422.173272,-0.4551942808000001,-9.777405668800002,1.8441050824,0.52349117,2.74351596,-2.8982292,,,
imu,422.18174,-0.4689517952000001,-9.766040765600001,1.8554699856,0.44872207,2.63883922,-2.81598319,,,
imu,422.190207,-0.4743351704000001,-9.773816752000002,1.8674330416,0.2468455,2.67622377,-2.87579847,,,
imu,422.198674,-0.4851019208000001,-9.7845835024,1.851282916,0.23189168,2.78090051,-2.84589083,,,
imu,422.207142,-0.4940742128000001,-9.762451848800001,1.8464976936,0.10478421,2.85566961,-2.8982292,,,
imu,422.215609,-0.4952705184000001,-9.786377960800001,1.8578625968,0.12721494,2.90800798,-2.77112173,,,
imu,422.224077,-0.4773259344000001,-9.779798280000001,1.857264444,0.11226112,3.07997691,-2.59167589,,,
imu,422.232544,-0.4743351704000001,-9.758862932000001,1.8500866104,0.13469185,3.20708438,-2.57672207,,,
imu,422.241011,-0.4779240872000001,-9.739722042400002,1.8578625968,0.05244583999999999,3.40148404,-2.48699915,,,
imu,422.249479,-0.4617739616000001,-9.714001472000001,1.8764053336,0.1720764,3.46877623,-2.65896808,,,
imu,422.257946,-0.4510072112,-9.745105417600001,1.8686293472,0.06739966,3.49868387,-2.77859864,,,
imu,422.266413,-0.4420349192,-9.7845835024,1.881190556,0.06739966,3.49868387,-2.86832156,,,
imu,422.274881,-0.4270810992000001,-9.773218599200002,1.8758071808,-0.08213854000000001,3.52859151,-3.00290594,,,
imu,422.283348,-0.4234921824,-9.736731278400002,1.878199792,-0.14943073,3.41643786,-2.83841392,,,
imu,422.291809,-0.43366078,-9.709216249600003,1.8853776256,-0.32887657,3.40896095,-2.56924516,,,
imu,422.30027,-0.4312681688,-9.722973764,1.8817887088,-0.03727708,3.3715764,-1.99352309,,,
imu,422.308731,-0.4270810992000001,-9.734338667200001,1.8674330416,0.16459949,3.42391477,-1.61967759,,,
imu,422.317192,-0.4276792520000001,-9.741516500800001,1.863245972,0.29918387,3.65569898,-1.56733922,,,
imu,422.325653,-0.4181088072000001,-9.731347903200001,1.8566662912,0.33656842,3.55849915,-1.68696978,,,
imu,422.334114,-0.385808556,-9.7283571392,1.8447032352,0.3889067899999999,3.54354533,-1.89632326,,,
imu,422.342575,-0.3642750552,-9.725964528,1.8464976936,0.59078336,3.64822207,-2.14306129,,,
imu,422.351036,-0.3738455000000001,-9.7122070136,1.8429087768,0.68798319,3.55849915,-2.66644499,,,
imu,422.359497,-0.3726491944000001,-9.7122070136,1.8399180128,0.82256757,3.46877623,-2.98795212,,,
imu,422.367958,-0.3666676664,-9.711608860800002,1.8357309432,0.7253677399999999,3.31176112,-3.2720747,,,
imu,422.376419,-0.3792288752000001,-9.710412555200001,1.827356804,0.7403215599999999,3.34166876,-3.42908981,,,
imu,422.38488,-0.3672658192000001,-9.723571916800001,1.8357309432,0.8749059399999999,3.33419185,-3.33936689,,,
imu,422.393341,-0.3606861384,-9.718188541600002,1.8417124712,0.9272443100000001,3.30428421,-3.24964397,,,
imu,422.401802,-0.3487230824000001,-9.728955292000002,1.8327401792,0.8823828499999999,3.07997691,-3.20478251,,,
imu,422.410263,-0.3511156936,-9.751685098400001,1.8327401792,0.8749059399999999,2.97530017,-3.13749032,,,
imu,422.418724,-0.3666676664,-9.770825988000002,1.8375254016,1.03192105,2.81828506,-2.98047521,,,
imu,422.427185,-0.3714528888,-9.7750130576,1.8285531096,1.03192105,2.60893158,-3.00290594,,,
imu,422.435646,-0.3744436528,-9.7744149048,1.8315438736,0.8449983,2.4743472,-2.9729983,,,
imu,422.444107,-0.385808556,-9.789966877600001,1.8369272488,0.9646288599999999,2.46687029,-2.98047521,,,
imu,422.452568,-0.3929863896,-9.789966877600001,1.8309457208,0.80013684,2.40705501,-2.92813684,,,
imu,422.461029,-0.3947808480000001,-9.788770572,1.8369272488,0.65059864,2.29490136,-2.90570611,,,
imu,422.46949,-0.3923882368,-9.7786019744,1.833338332,0.4861066199999999,2.35471664,-3.06272122,,,
imu,422.477951,-0.4025568344,-9.765442612800001,1.8375254016,0.33656842,2.63883922,-3.03281358,,,
imu,422.486412,-0.400762376,-9.767237071200002,1.8458995408,0.21693786,2.80333124,-3.15992105,,,
imu,422.494877,-0.4073420568000001,-9.766638918400002,1.830347568,0.3739529699999999,2.8481927,-3.24216706,,,
imu,422.503342,-0.3882011672000001,-9.748694334400001,1.8130011368,0.41133752,2.94539253,-3.39918217,,,
imu,422.511806,-0.3559009160000001,-9.724768222400002,1.848292152,0.33656842,2.96782326,-3.57862801,,,
imu,422.520271,-0.3445360128,-9.758862932000001,1.8590589024,0.47862971,3.13979219,-3.69825857,,,
imu,422.528736,-0.3517138464,-9.803126239200001,1.8626478192,0.4711528,3.07997691,-3.83284295,,,
imu,422.537201,-0.3355637208,-9.798341016800002,1.857264444,0.26927623,3.06502309,-4.00481188,,,
imu,422.545666,-0.3236006648,-9.758264779200001,1.875209028,0.14964567,2.90800798,-4.10948862,,,
imu,422.554131,-0.3325729568,-9.7331423616,1.881190556,-0.08961545,2.59397776,-4.15435008,,,
imu,422.562595,-0.3648732080000001,-9.746899876,1.8728164168,-0.04475399000000001,2.46687029,-4.10948862,,,
imu,422.57106,-0.385808556,-9.739722042400002,1.8740127224,0.08235347999999998,2.34723973,-3.85527368,,,
imu,422.579419,-0.391790084,-9.7151977776,1.8734145696,0.12721494,2.19770153,-3.78050458,,,
imu,422.587884,-0.3840140976,-9.717590388800001,1.8674330416,0.23936859,2.09302479,-3.65339711,,,
imu,422.596349,-0.385808556,-9.725366375200002,1.866236736,0.4861066199999999,2.07807097,-3.5711511,,,
imu,422.604814,-0.4055475984,-9.7163940832,1.866236736,0.51601426,1.98087114,-3.58610492,,,
imu,422.613279,-0.424688488,-9.722375611200002,1.8734145696,0.57582954,1.92105586,-3.67582784,,,
imu,422.621744,-0.4390441552000001,-9.717590388800001,1.875209028,0.7104139199999999,1.98087114,-3.9449966,,,
imu,422.630208,-0.4617739616000001,-9.7265626808,1.8764053336,0.81509066,2.04816333,-4.15435008,,,
imu,422.638673,-0.4641665728000001,-9.7337405144,1.8716201112,0.78518302,2.16779389,-4.34874974,,,
imu,422.647138,-0.4821111568000001,-9.725366375200002,1.8716201112,0.8749059399999999,2.5491163,-4.31136519,,,
imu,422.655603,-0.517402172,-9.725366375200002,1.8728164168,0.8375213899999999,2.80333124,-4.31136519,,,
imu,422.664068,-0.5508987288,-9.7301515976,1.8877702368,0.77770611,3.21456129,-4.25154991,,,
imu,422.672532,-0.55329134,-9.768433376800001,1.9015277512,0.620691,3.73046808,-4.32631901,,,
imu,422.680997,-0.5640580904000001,-9.794752100000002,1.9099018904,0.4861066199999999,4.3435747,-4.53567249,,,
imu,422.689462,-0.5586747152,-9.775611210400001,1.9063129736,0.47862971,4.814620029999999,-4.85717962,,,
imu,422.69828,-0.5401319784,-9.746899876,1.896144376,0.5982602699999999,5.12865025,-5.044102369999999,,,
imu,422.707099,-0.5197947832,-9.722973764,1.8955462232,0.68798319,5.47258811,-5.39551714,,,
imu,422.715917,-0.5048409632,-9.6846919848,1.8728164168,0.88985976,5.681941589999999,-5.4403786,,,
imu,422.724735,-0.481513004,-9.6799067624,1.872218264,1.13659779,5.65203395,-5.45533242,,,
imu,422.733553,-0.4611758088,-9.692467971200001,1.8566662912,1.45810492,5.62212631,-5.24597894,,,
imu,422.742372,-0.4450256832000001,-9.703234721600001,1.8494884576,1.71979677,5.375388279999999,-4.94690254,,,
imu,422.75119,-0.4372496968000001,-9.7122070136,1.848292152,1.84690424,5.136127159999999,-4.73007215,,,
imu,422.760008,-0.4264829464000001,-9.725964528,1.8638441248,2.07121154,4.85200458,-4.363703559999999,,,
imu,422.768826,-0.4169125016,-9.7492924872,1.8656385832,2.04878081,4.29123633,-4.16182699,,,
imu,422.777645,-0.4139217376000001,-9.790565030400002,1.8644422776,1.80951969,4.03702139,-3.7954584,,,
imu,422.786463,-0.415716196,-9.797144711200001,1.8620496664,1.5179202,3.62579134,-3.68330475,,,
imu,422.795281,-0.4205014184,-9.789368724800001,1.8626478192,1.12164397,3.2220382,-3.62348947,,,
imu,422.804099,-0.430670016,-9.76484446,1.8692275,0.70293701,2.90800798,-3.61601256,,,
imu,422.812918,-0.4462219888000001,-9.745703570400002,1.8746108752,0.7403215599999999,2.75846978,-3.66087402,,,
imu,422.821736,-0.4605776560000001,-9.737927584000001,1.8704238056,0.70293701,2.63883922,-3.58610492,,,
imu,422.830554,-0.4803166984,-9.746899876,1.8686293472,0.57582954,2.48930102,-3.71321239,,,
imu,422.839372,-0.4677554896000001,-9.752283251200002,1.8716201112,0.6281679099999999,2.36219355,-3.66087402,,,
imu,422.848191,-0.472540712,-9.762451848800001,1.8704238056,0.83004448,2.42948574,-3.63844329,,,
imu,422.857009,-0.4916816016,-9.762451848800001,1.8740127224,0.80013684,2.57154703,-3.69825857,,,
imu,422.865827,-0.481513004,-9.7786019744,1.8793960976,0.6281679099999999,2.55659321,-3.7954584,,,
imu,422.874645,-0.4677554896000001,-9.785779808000001,1.8746108752,0.51601426,2.48182411,-4.034719519999999,,,
imu,422.883464,-0.4737370176,-9.766040765600001,1.8692275,0.56835263,2.58650085,-4.341272829999999,,,
imu,422.892282,-0.4569887392,-9.748096181600001,1.8680311944,0.52349117,2.57902394,-4.59548777,,,
imu,422.900753,-0.4659610312,-9.7217774584,1.851282916,0.67302937,2.56407012,-4.625395409999999,,,
imu,422.909224,-0.4647647256,-9.721179305600002,1.8548718328,0.77770611,2.43696265,-4.737549059999999,,,
imu,422.917695,-0.4641665728000001,-9.718786694400002,1.8925554592,0.83004448,2.18274771,-4.81231816,,,
imu,422.926167,-0.4767277816000001,-9.709814402400001,1.8787979448,0.80013684,1.68927165,-5.00671782,,,
imu,422.934638,-0.5102243384,-9.684093832000002,1.8644422776,0.7403215599999999,1.31542615,-5.11887147,,,
imu,422.943109,-0.5269726168000001,-9.697851346400002,1.8758071808,0.9347212199999999,1.02382666,-5.09644074,,,
imu,422.95158,-0.5628617848,-9.711010708000002,1.8758071808,1.15902852,0.8369039099999998,-4.999240909999999,,,
imu,422.960051,-0.6071250920000001,-9.7128051664,1.8638441248,1.21136689,0.3957662200000001,-5.05905619,,,
imu,422.968522,-0.6633514552,-9.7008421104,1.8674330416,1.23379762,0.33595094,-4.8422258,,,
imu,422.976994,-0.7165870544000001,-9.675121540000001,1.8740127224,1.39828964,0.35838167,-4.430995749999999,,,
imu,422.985465,-0.723764888,-9.693066124000001,1.8560681384,1.67493531,0.62007352,-3.99733497,,,
imu,421.86909,,,,,,,-90.2478404,171.2364676,116.5726712
imu,421.970561,,,,,,,-90.3210836,171.1632244,114.4608256
imu,422.072093,,,,,,,-90.650678,171.0045308,116.133212
imu,422.173686,,,,,,,-90.69950680000001,170.6871436,116.9144728
imu,422.275218,,,,,,,-90.85820040000002,170.6261076,116.2430768
imu,422.376811,,,,,,,-90.82157880000001,170.7359724,115.1444288
imu,422.993936,-0.7584577504000002,-9.720581152800001,1.8500866104,1.90671952,1.03130357,-3.496382,,,
imu,423.002407,-0.7781967928000002,-9.740918348000001,1.8518810688,2.07121154,1.50982581,-3.02533667,,,
imu,423.010878,-0.7638411256000001,-9.754675862400001,1.8560681384,2.16841137,2.19770153,-2.62906044,,,
imu,423.019349,-0.7189796656000002,-9.770825988000002,1.866236736,2.10111918,2.82576197,-2.26269185,,,
imu,423.027821,-0.6783052752000002,-9.764246307200002,1.8339364848,2.16093446,3.56597606,-1.86641562,,,
imu,423.036292,-0.6513883992,-9.7427128064,1.80941222,1.97401171,4.149175039999999,-1.70940051,,,
imu,423.044763,-0.6143029256000001,-9.7086180968,1.7998417752,1.90671952,4.48563599,-1.53743158,,,
imu,423.053234,-0.5580765624000001,-9.6775141512,1.7872805664,1.93662716,5.001542779999999,-1.39537029,,,
imu,423.061705,-0.5060372688000001,-9.669140012000002,1.7807008856,2.07868845,5.1660348,-1.22340136,,,
imu,423.070176,-0.4474182944000001,-9.669140012000002,1.7603636904,2.30299575,5.023973509999999,-1.28321664,,,
imu,423.078648,-0.3959771536000001,-9.6733270816,1.7448117176,2.61702597,4.89686604,-1.37293956,,,
imu,423.087119,-0.3559009160000001,-9.6733270816,1.7274652864,3.05068675,4.54545127,-1.41780102,,,
imu,423.09559,-0.3343674152,-9.709814402400001,1.7196893,3.18527113,4.05197521,-1.65706214,,,
imu,423.104062,-0.3385544848000001,-9.746899876,1.701744716,3.33480933,3.38653022,-1.86641562,,,
imu,423.112535,-0.3541064576,-9.767237071200002,1.68978166,3.4619168,2.68370068,-2.12810747,,,
imu,423.121007,-0.3594898328000001,-9.797742864000002,1.6993521048,3.43948607,2.03320951,-2.49447606,,,
imu,423.12948,-0.385808556,-9.807313308800001,1.6885853544,3.50677826,1.56964109,-2.53933752,,,
imu,423.137952,-0.4193051128000001,-9.8467913936,1.6951650352,3.4619168,1.12102649,-2.66644499,,,
imu,423.146425,-0.4462219888000001,-9.8820824088,1.6855945904,3.04320984,0.7322271699999998,-2.83841392,,,
imu,423.154897,-0.4976631296000001,-9.908401132000002,1.6849964376,2.87871782,0.5527813299999997,-2.6739219,,,
imu,423.163369,-0.5413282840000001,-9.911990048800002,1.6760241456,2.51234923,0.4107200399999997,-2.62158353,,,
imu,423.171842,-0.5796100632000001,-9.899428840000002,1.67482784,2.1908421,0.3434278499999999,-2.60662971,,,
imu,423.180314,-0.6244715232,-9.869521200000003,1.6706407704,1.94410407,0.7546578999999998,-2.39727623,,,
imu,423.188787,-0.6448087184,-9.850380310400002,1.6736315344,1.49548947,1.04625739,-2.31503022,,,
imu,423.197259,-0.6466031768,-9.870717505600002,1.6939687296,1.06182869,1.58459491,-2.3000764,,,
imu,423.205732,-0.6597625384000001,-9.9131863544,1.677818604,1.02444414,2.1752708,-2.1505382,,,
imu,423.214204,-0.6579680800000002,-9.898830687200002,1.6736315344,0.7253677399999999,2.76594669,-1.9262309,,,
imu,423.222677,-0.6352382736000001,-9.836024643200002,1.6933705768,0.27675314,3.48373005,-1.70940051,,,
imu,423.231149,-0.6143029256000001,-9.822267128800002,1.7095207024,0.03749201999999999,4.15665195,-1.30564737,,,
imu,423.239621,-0.5903768136,-9.837819101600003,1.6969594936,-0.13447691,4.82957385,-0.9018942299999999,,,
imu,423.248094,-0.5706377712,-9.824061587200001,1.6963613408,-0.43355331,5.38286519,-0.4831872699999999,,,
imu,423.256566,-0.5293652280000001,-9.800135475200001,1.6999502576,-0.58309151,5.853910519999999,-0.26635688,,,
imu,423.265039,-0.4671573368000001,-9.780396432800002,1.7059317856,-0.71019898,6.23523293,-0.28878761,,,
imu,423.273511,-0.4061457512000001,-9.772620446400001,1.7053336328,-0.68776825,6.37729422,-0.34860289,,,
imu,423.281984,-0.3570972216000001,-9.745703570400002,1.7023428688,-0.71019898,6.4371095,-0.6551562,,,
imu,423.290456,-0.3265914288,-9.708019944000002,1.7131096192,-0.61299915,6.422155679999999,-0.8420789499999999,,,
imu,423.298929,-0.3086468448,-9.672130776000001,1.7101188552,-0.50832241,6.205325289999999,-1.11124771,,,
imu,423.307384,-0.2930948720000001,-9.704431027200002,1.70473548,-0.30644584,5.84643361,-1.28321664,,,
imu,423.31584,-0.2823281216,-9.731946056000002,1.686790896,-0.05970781,5.65203395,-1.44770866,,,
imu,423.324296,-0.257205704,-9.7331423616,1.6921742712,0.05244583999999999,5.442680469999999,-1.55986231,,,
imu,423.332752,-0.2404574256,-9.744507264800001,1.6861927432,0.3739529699999999,5.068834969999999,-1.4028472,,,
imu,423.341208,-0.2404574256,-9.7403201952,1.6993521048,0.52349117,4.61274346,-1.35050883,,,
imu,423.349664,-0.2524204816,-9.7427128064,1.683800132,0.44124516,4.32114397,-1.35798574,,,
imu,423.35812,-0.2542149400000001,-9.764246307200002,1.6849964376,0.3216146,3.9697292,-1.44023175,,,
imu,423.366576,-0.2781410520000001,-9.7702278352,1.6873890488,0.2468455,3.54354533,-1.7019236,,,
imu,423.375032,-0.2727576768,-9.7612555432,1.7023428688,0.36647606,3.32671494,-1.86641562,,,
imu,423.383488,-0.2913004136,-9.797742864000002,1.6939687296,0.43376825,3.13979219,-2.11315365,,,
imu,423.391944,-0.2954874832,-9.8228652816,1.7065299384,0.29918387,3.03511545,-2.38232241,,,
imu,423.4004,-0.3080486920000001,-9.803724392000001,1.7208856056,0.14964567,3.02763854,-2.53186061,,,
imu,423.408855,-0.320011748,-9.818080059200001,1.737633884,0.10478421,2.93043871,-2.71878336,,,
imu,423.417311,-0.3283858872000001,-9.844996935200001,1.74959694,0.007584380000000002,2.9977309,-2.72626027,,,
imu,423.425767,-0.3152265256,-9.859950755200002,1.7478024816,-0.44103022,3.02763854,-2.8234601,,,
imu,423.434223,-0.3056560808,-9.861147060800002,1.7669433712,-0.73262971,3.10240764,-2.89075229,,,
imu,423.442679,-0.3020671640000001,-9.8497821576,1.761559996,-0.9793677399999999,3.19213056,-2.93561375,,,
imu,423.451135,-0.3020671640000001,-9.8294449624,1.7836916496,-1.21115195,3.22951511,-3.02533667,,,
imu,423.459591,-0.2913004136,-9.8210708232,1.7771119688,-1.37564397,2.94539253,-3.10010577,,,
imu,423.468047,-0.2847207328,-9.800135475200001,1.7699341352,-1.51770526,2.86314652,-3.16739796,,,
imu,423.476503,-0.2823281216,-9.754675862400001,1.7771119688,-1.45041307,2.6238854,-3.40665908,,,
imu,423.484959,-0.305057928,-9.716992236000001,1.776513816,-1.30087487,2.40705501,-3.54872037,,,
imu,423.493415,-0.3271895816000001,-9.690075360000002,1.7693359824,-1.27844414,2.31733209,-3.69078166,,,
imu,423.50187,-0.3499193880000001,-9.692467971200001,1.7573729264,-0.9943215599999999,1.98087114,-3.87770441,,,
imu,423.510342,-0.3786307224000001,-9.689477207200001,1.7627563016,-0.78496808,1.90610204,-3.90761205,,,
imu,423.518813,-0.406743904,-9.685290137600001,1.7663452184,-0.5681376899999999,1.86124058,-3.8702275,,,
imu,423.527284,-0.4210995712,-9.701440263200002,1.7687378296,-0.32887657,1.85376367,-3.9449966,,,
imu,423.535755,-0.439642308,-9.718188541600002,1.7657470656,-0.21672292,1.97339423,-4.13939626,,,
imu,423.544226,-0.4522035168,-9.737329431200001,1.7609618432,-0.18681528,2.1005017,-4.26650373,,,
imu,423.552698,-0.4599795032,-9.742114653600002,1.7747193576,-0.26906129,2.33228591,-4.30388828,,,
imu,423.561169,-0.4641665728000001,-9.751685098400001,1.7789064272,-0.41112258,2.56407012,-4.25902682,,,
imu,423.56964,-0.4653628784000001,-9.7534795568,1.7902713304,-0.47841477,2.72856214,-4.19173463,,,
imu,423.578111,-0.4605776560000001,-9.767835224,1.8141974424,-0.58309151,2.97530017,-4.02724261,,,
imu,423.586582,-0.451605364,-9.766638918400002,1.8130011368,-0.77001426,3.01268472,-4.012288789999999,,,
imu,423.595053,-0.43366078,-9.7786019744,1.827356804,-1.23358268,3.02763854,-4.102011709999999,,,
imu,423.603525,-0.4151180432000001,-9.807313308800001,1.8584607496,-1.36069015,2.99025399,-3.9449966,,,
imu,423.611996,-0.4276792520000001,-9.8497821576,1.8692275,-1.5476129,2.89305416,-3.73564312,,,
imu,423.620467,-0.4354552384000001,-9.842006171200001,1.8865739312,-1.86164312,2.86314652,-3.40665908,,,
imu,423.628938,-0.4366515440000001,-9.800733628000001,1.875209028,-1.98875059,2.70613141,-2.96552139,,,
imu,423.637409,-0.4234921824,-9.7474980288,1.8823868616,-2.00370441,2.58650085,-2.47204533,,,
imu,423.64588,-0.4216977240000001,-9.7337405144,1.8943499176,-1.90650458,2.6238854,-1.93370781,,,
imu,423.654352,-0.4169125016,-9.765442612800001,1.8997332928,-1.622382,2.60893158,-1.78416961,,,
imu,423.662823,-0.4097346680000001,-9.76484446,1.908107432,-1.40555161,2.56407012,-1.90380017,,,
imu,423.671226,-0.3864067088000001,-9.7510869456,1.9128926544,-1.42050543,2.324809,-2.21783039,,,
imu,423.679697,-0.3774344168000001,-9.727160833600001,1.917079724,-1.37564397,2.15284007,-2.58419898,,,
imu,423.688168,-0.385808556,-9.700243957600001,1.911098196,-1.30835178,2.04816333,-2.9729983,,,
imu,423.69664,-0.4103328208,-9.6637566368,1.9099018904,-1.13638285,2.0257326,-3.17487487,,,
imu,423.705111,-0.4234921824,-9.632054538400002,1.89913514,-0.874691,2.07807097,-3.20478251,,,
imu,423.713921,-0.4474182944000001,-9.6009505928,1.8919573064,-0.71019898,2.12293243,-3.18982869,,,
imu,423.722731,-0.4492127528000001,-9.5865949256,1.8943499176,-0.36626112,2.16031698,-3.13001341,,,
imu,423.731542,-0.4581850448000001,-9.592576453600001,1.8776016392,0.03001510999999998,2.19770153,-3.13749032,,,
imu,423.740352,-0.4522035168,-9.5949690648,1.8674330416,0.3216146,2.36967046,-3.07019813,,,
imu,423.749162,-0.4671573368000001,-9.604539509600002,1.8638441248,0.55339881,2.46687029,-2.98795212,,,
imu,423.757972,-0.4701481008,-9.635045302400002,1.8488903048,0.8524752099999999,2.68370068,-2.92065993,,,
imu,423.766783,-0.4785222400000001,-9.678710456800001,1.8644422776,1.33847436,3.02016163,-2.92813684,,,
imu,423.775593,-0.4707462536000001,-9.728955292000002,1.860255208,1.4431511,3.19213056,-2.95804448,,,
imu,423.784403,-0.4533998224,-9.7504887928,1.8608533608,1.53287402,3.46129932,-2.89075229,,,
imu,423.793214,-0.4324644744,-9.782789044000001,1.8734145696,1.42819728,3.88000628,-2.73373718,,,
imu,423.802024,-0.4228940296000001,-9.803126239200001,1.8608533608,1.33847436,3.97720611,-2.66644499,,,
imu,422.478321,,,,,,,-90.50419160000001,171.016738,116.5116352
imu,422.579945,,,,,,,-88.00171560000001,170.2476844,114.79042
imu,422.681416,,,,,,,-90.23563320000001,170.8092156,116.4872208
imu,422.783009,,,,,,,-88.06275160000001,170.101198,113.8992944
imu,422.884541,,,,,,,-90.6628852,170.589486,115.9867256
imu,422.986134,,,,,,,-90.49198439999999,170.162234,115.1200144
imu,423.087635,,,,,,,-90.23563320000001,170.1256124,116.2796984
imu,423.189198,,,,,,,-90.17459720000001,169.7838108,116.6459144
imu,423.810834,-0.3899956256000001,-9.8234634344,1.8698256528,1.32352054,4.07440594,-2.65149117,,,
imu,423.819645,-0.352910152,-9.8264541984,1.8710219584,1.05435178,4.194036499999999,-2.59167589,,,
imu,423.828455,-0.3391526376000001,-9.8264541984,1.8488903048,0.94967504,4.26132869,-2.34493786,,,
imu,423.837265,-0.323002512,-9.818678212000002,1.8357309432,0.8449983,4.14169813,-2.18044584,,,
imu,423.846075,-0.2936930248,-9.786976113600002,1.8524792216,0.55339881,4.01459066,-2.08324601,,,
imu,423.854886,-0.2709632184,-9.812098531200002,1.8668348888,0.53096808,3.79028336,-2.12810747,,,
imu,423.863696,-0.2613927736,-9.8629415192,1.8650404304,0.53844499,3.48373005,-2.35989168,,,
imu,423.872506,-0.2536167872,-9.870119352800002,1.8500866104,0.20946095,2.90800798,-2.64401426,,,
imu,423.881317,-0.2590001624000001,-9.8168837536,1.8566662912,-0.19429219,2.48930102,-2.74121409,,,
imu,423.890127,-0.2643835376,-9.7744149048,1.8548718328,-0.38121494,2.24256299,-2.65149117,,,
imu,423.898937,-0.2895059552,-9.769629682400002,1.8225715816,-0.50832241,1.8761944,-2.48699915,,,
imu,423.907747,-0.3182172896000001,-9.788172419200002,1.8118048312,-0.23167674,1.71917929,-2.16549202,,,
imu,423.916254,-0.3337692624,-9.780396432800002,1.8315438736,-0.11952309,1.53225654,-2.06829219,,,
imu,423.924761,-0.3247969704000001,-9.760059237600002,1.8315438736,-0.17933837,1.39767216,-2.20287657,,,
imu,423.933268,-0.3295821928000001,-9.735534972800002,1.8189826648,-0.09709236,1.47244126,-2.32250713,,,
imu,423.941775,-0.3445360128,-9.741516500800001,1.8177863592,0.07487657,1.49487199,-2.50942988,,,
imu,423.950281,-0.35889168,-9.740918348000001,1.7962528584,0.19450713,1.38271834,-2.85336774,,,
imu,423.958788,-0.3696584304000001,-9.7193848472,1.8147955952,-0.01484635000000001,1.33785688,-3.26459779,,,
imu,423.967295,-0.3971734592000001,-9.7128051664,1.8106085256,0.03749201999999999,1.32290306,-3.62348947,,,
imu,423.975802,-0.43366078,-9.718786694400002,1.8219734288,0.20198404,1.49487199,-3.90013514,,,
imu,423.984308,-0.4450256832000001,-9.7151977776,1.8171882064,0.56087572,1.74161002,-4.012288789999999,,,
imu,423.992815,-0.4605776560000001,-9.714599624800002,1.8135992896,0.47862971,1.92105586,-4.07210407,,,
imu,424.001322,-0.4533998224,-9.720581152800001,1.8201789704,0.33656842,2.20517844,-3.91508896,,,
imu,424.009829,-0.4605776560000001,-9.724170069600001,1.82436604,0.31413769,2.48930102,-3.86275059,,,
imu,424.018336,-0.4677554896000001,-9.7217774584,1.8207771232,0.30666078,2.75846978,-3.6459202,,,
imu,424.026842,-0.4671573368000001,-9.724170069600001,1.8141974424,0.20198404,3.02016163,-3.51881273,,,
imu,424.035349,-0.451605364,-9.718188541600002,1.8118048312,0.20198404,3.21456129,-3.36927453,,,
imu,424.043856,-0.4378478496000001,-9.713403319200001,1.8237678872,0.36647606,3.43139168,-3.39170526,,,
imu,424.052363,-0.4258847936,-9.731347903200001,1.8351327904,0.43376825,3.87252937,-3.22721324,,,
imu,424.060869,-0.415716196,-9.744507264800001,1.8237678872,0.3963837,4.03702139,-3.24216706,,,
imu,424.069376,-0.3953790008,-9.742114653600002,1.8141974424,0.46367589,4.171605769999999,-3.26459779,,,
imu,424.077883,-0.3696584304000001,-9.738525736800002,1.8237678872,0.7104139199999999,4.44077453,-3.37675144,,,
imu,424.08639,-0.3582935272000001,-9.7337405144,1.8231697344,0.78518302,4.567882,-3.47395127,,,
imu,424.094896,-0.3385544848000001,-9.766040765600001,1.8130011368,0.78518302,4.66508183,-3.61601256,,,
imu,424.103403,-0.3224043592,-9.786377960800001,1.8112066784,0.9347212199999999,4.59031273,-3.82536604,,,
imu,424.11191,-0.31403022,-9.783985349600002,1.803430692,0.8375213899999999,4.530497449999999,-3.95995042,,,
imu,424.12038,-0.3002727056,-9.767237071200002,1.8135992896,0.94219813,4.15665195,-4.02724261,,,
imu,424.12885,-0.2889078024000001,-9.785181655200002,1.8088140672,0.8973366700000001,3.96225229,-3.98985806,,,
imu,424.13732,-0.2907022608000001,-9.7953502528,1.7998417752,0.9646288599999999,3.70803735,-4.06462716,,,
imu,424.14579,-0.3008708584000001,-9.794752100000002,1.7890750248,0.9945364999999999,3.48373005,-3.98985806,,,
imu,424.15426,-0.3068523864000001,-9.802528086400002,1.7980473168,0.88985976,3.16969983,-3.98985806,,,
imu,424.162729,-0.2972819416,-9.793555794400001,1.7932620944,0.70293701,3.00520781,-3.78050458,,,
imu,424.171199,-0.3146283728000001,-9.7809945856,1.7950565528,0.5459219,2.78090051,-3.6459202,,,
imu,424.179669,-0.3265914288,-9.801929933600002,1.8076177616,0.5459219,2.51920866,-3.71321239,,,
imu,424.188139,-0.3331711096,-9.803126239200001,1.8070196088,0.44872207,2.36967046,-3.7954584,,,
imu,424.196609,-0.3355637208,-9.801929933600002,1.8118048312,0.23936859,2.24256299,-3.76555076,,,
imu,424.205079,-0.3445360128,-9.76484446,1.8261604984,0.007584380000000002,2.1752708,-3.75807385,,,
imu,424.213549,-0.3463304712,-9.7510869456,1.8147955952,-0.20924601,2.15284007,-3.71321239,,,
imu,424.222019,-0.3523119992,-9.7331423616,1.8177863592,-0.44850713,2.15284007,-3.496382,,,
imu,424.230489,-0.3469286240000001,-9.715795930400002,1.8417124712,-0.41112258,2.07059406,-3.36179762,,,
imu,424.238959,-0.3385544848000001,-9.685888290400001,1.8494884576,-0.47093786,1.95844041,-3.36179762,,,
imu,424.247428,-0.3385544848000001,-9.6643547896,1.8620496664,-0.55318387,1.69674856,-3.56367419,,,
imu,424.255898,-0.3499193880000001,-9.6703363176,1.8638441248,-0.5008455,1.4275798,-3.85527368,,,
imu,424.264368,-0.3523119992,-9.716992236000001,1.8764053336,-0.38121494,1.2032725,-3.92256587,,,
imu,424.272838,-0.3702565832000001,-9.743310959200002,1.8787979448,-0.47841477,0.9640113799999996,-4.057150249999999,,,
imu,424.281308,-0.4133235848,-9.711010708000002,1.881190556,-0.33635348,0.8817653699999997,-4.057150249999999,,,
imu,424.289778,-0.4300718632,-9.673925234400002,1.8895646952,-0.29896893,1.00139593,-3.8702275,,,
imu,424.298248,-0.4557924336,-9.669738164800002,1.881190556,-0.0522309,1.16588795,-3.41413599,,,
imu,424.306718,-0.4749333232000001,-9.699645804800001,1.881190556,0.35899915,1.45748744,-3.10010577,,,
imu,424.315188,-0.4707462536000001,-9.743909112,1.8728164168,0.8749059399999999,1.8014253,-2.95804448,,,
imu,424.323703,-0.4563905864000001,-9.760059237600002,1.8620496664,0.88985976,2.1005017,-2.91318302,,,
imu,424.332219,-0.4342589328000001,-9.7570684736,1.8644422776,0.68798319,2.44443956,-3.13001341,,,
imu,424.340735,-0.4205014184,-9.761853696000001,1.8560681384,0.9197674,2.67622377,-3.38422835,,,
imu,424.34925,-0.4061457512000001,-9.7504887928,1.857264444,0.9571519499999999,2.93043871,-3.6459202,,,
imu,424.357766,-0.4210995712,-9.744507264800001,1.8357309432,0.8823828499999999,3.02763854,-3.8702275,,,
imu,424.366282,-0.4294737104000001,-9.746899876,1.82436604,0.8449983,3.11736146,-3.95995042,,,
imu,424.374797,-0.4121272792,-9.746899876,1.8321420264,0.7104139199999999,3.27437657,-4.11696553,,,
imu,424.383313,-0.3923882368,-9.770825988000002,1.830347568,0.71789083,3.31923803,-4.034719519999999,,,
imu,424.391829,-0.3600879856,-9.789368724800001,1.8447032352,0.65059864,3.48373005,-3.84779677,,,
imu,424.400344,-0.3331711096,-9.802528086400002,1.8441050824,0.52349117,3.5211146,-3.70573548,,,
imu,424.40886,-0.3218062064,-9.810902225600001,1.8518810688,0.25432241,3.32671494,-3.62348947,,,
imu,424.417376,-0.3152265256,-9.803126239200001,1.8441050824,-0.13447691,2.89305416,-3.66087402,,,
imu,424.425891,-0.3116376088,-9.785181655200002,1.845301388,-0.26158438,2.66126995,-3.73564312,,,
imu,424.434407,-0.3463304712,-9.768433376800001,1.8590589024,-0.38869185,2.27994754,-3.74312003,,,
imu,424.442923,-0.35889168,-9.749890640000002,1.8638441248,-0.44850713,1.99582496,-3.77302767,,,
imu,424.451438,-0.3690602776000001,-9.730749750400001,1.857264444,-0.60552224,1.70422547,-3.81788913,,,
imu,424.459954,-0.382817792,-9.706225485600001,1.8494884576,-0.49336859,1.45748744,-3.90761205,,,
imu,424.46847,-0.3899956256000001,-9.692467971200001,1.8506847632,-0.35878421,1.26308778,-3.93751969,,,
imu,424.476985,-0.4181088072000001,-9.681103068,1.8536755272,-0.22419983,1.21074941,-4.00481188,,,
imu,424.485501,-0.4360533912000001,-9.711608860800002,1.8536755272,0.13469185,1.24813396,-3.84031986,,,
imu,424.494017,-0.4605776560000001,-9.737927584000001,1.8614515136,0.17955331,1.30794924,-3.91508896,,,
imu,424.502532,-0.4779240872000001,-9.728955292000002,1.8476939992,0.25432241,1.51730272,-3.9449966,,,
imu,424.511048,-0.4785222400000001,-9.718786694400002,1.8644422776,0.27675314,1.68179474,-3.95247351,,,
imu,424.519564,-0.4653628784000001,-9.752283251200002,1.878199792,0.56835263,1.89114822,-4.00481188,,,
imu,424.527937,-0.4719425592000001,-9.805518850400002,1.881190556,0.620691,2.03320951,-4.124442439999999,,,
imu,424.53631,-0.4623721144,-9.802528086400002,1.8704238056,0.41881443,2.12293243,-4.28145755,,,
imu,424.544684,-0.4533998224,-9.7821908912,1.8692275,0.18703022,2.33228591,-4.28893446,,,
imu,424.553057,-0.4504090584,-9.763050001600002,1.8740127224,0.05992275,2.35471664,-4.10948862,,,
imu,424.56143,-0.4599795032,-9.765442612800001,1.8650404304,0.06739966,2.43696265,-3.81041222,,,
imu,424.569803,-0.4665591840000001,-9.783985349600002,1.8578625968,-0.04475399000000001,2.48930102,-3.68330475,,,
imu,424.578177,-0.4575868920000001,-9.7702278352,1.8470958464,-0.14195382,2.48930102,-3.48142818,,,
imu,424.58655,-0.4432312248,-9.746899876,1.8381235544,-0.10456927,2.57902394,-3.29450543,,,
imu,424.594923,-0.4252866408000001,-9.7427128064,1.8399180128,0.03749201999999999,2.56407012,-3.2720747,,,
imu,424.603296,-0.4085383624000001,-9.7540777096,1.83931986,0.05244583999999999,2.52668557,-3.47395127,,,
imu,424.61167,-0.4133235848,-9.748694334400001,1.842310624,0.14216876,2.42200883,-3.60853565,,,
imu,424.620043,-0.4288755576000001,-9.734338667200001,1.8524792216,0.08983038999999998,2.27994754,-3.78798149,,,
imu,423.29076,,,,,,,-90.6140564,170.3087204,115.9378968
imu,423.392323,,,,,,,-90.5774348,170.6749364,116.3407344
imu,423.493885,,,,,,,-90.04031800000001,171.0289452,115.6815456
imu,423.595448,,,,,,,-90.4187412,170.8458372,115.950104
imu,423.697041,,,,,,,-88.02613000000001,170.1134052,114.0701952
imu,423.798695,,,,,,,-90.63847080000001,171.1876388,115.9256896
imu,423.900166,,,,,,,-88.35572440000001,170.6016932,113.5941144
imu,424.001728,,,,,,,-90.5408132,171.2975036,115.766996
imu,424.628416,-0.4480164472000001,-9.714599624800002,1.8387217072,0.02253820000000001,2.22760917,-3.98985806,,,
imu,424.63679,-0.4611758088,-9.724170069600001,1.8369272488,-0.14943073,2.23508608,-4.012288789999999,,,
imu,424.645163,-0.4611758088,-9.727758986400001,1.848292152,0.0001074699999999984,2.26499372,-3.90761205,,,
imu,424.653536,-0.4647647256,-9.723571916800001,1.851282916,0.007584380000000002,2.24256299,-4.0197657,,,
imu,424.661909,-0.4623721144,-9.7361331256,1.8554699856,-0.05970781,2.27994754,-3.91508896,,,
imu,424.670283,-0.4677554896000001,-9.7492924872,1.857264444,-0.08961545,2.2500399,-3.77302767,,,
imu,424.678656,-0.46356842,-9.748694334400001,1.8524792216,-0.08213854000000001,2.27247063,-3.82536604,,,
imu,424.687029,-0.4623721144,-9.746301723200002,1.8530773744,-0.11204618,2.33228591,-3.71321239,,,
imu,424.695402,-0.4797185456,-9.7325442088,1.8650404304,-0.22419983,2.33976282,-3.58610492,,,
imu,424.703776,-0.4731388648000001,-9.746899876,1.8620496664,0.03749201999999999,2.37714737,-3.42908981,,,
imu,424.712149,-0.481513004,-9.759461084800002,1.872218264,0.11973803,2.37714737,-3.36179762,,,
imu,424.720522,-0.4767277816000001,-9.748096181600001,1.8692275,-0.10456927,2.42948574,-3.33188998,,,
imu,424.729346,-0.4695499480000001,-9.744507264800001,1.8692275,-0.07466163,2.48930102,-3.21225942,,,
imu,424.738169,-0.4677554896000001,-9.731347903200001,1.8764053336,-0.01484635000000001,2.51920866,-3.26459779,,,
imu,424.746993,-0.4671573368000001,-9.735534972800002,1.8728164168,0.05244583999999999,2.57902394,-3.32441307,,,
imu,424.755816,-0.4659610312,-9.741516500800001,1.872218264,0.05992275,2.64631613,-3.24216706,,,
imu,424.76465,-0.4492127528000001,-9.749890640000002,1.8799942504,0.08983038999999998,2.78090051,-3.29450543,,,
imu,424.773474,-0.4432312248,-9.7636481544,1.8829850144,-0.06718472,2.60145467,-3.46647436,,,
imu,424.782297,-0.4468201416000001,-9.767835224,1.8829850144,0.08235347999999998,2.60893158,-3.38422835,,,
imu,424.791121,-0.4456238360000001,-9.763050001600002,1.8919573064,0.16459949,2.64631613,-3.39918217,,,
imu,424.799944,-0.442633072,-9.756470320800002,1.887172084,-0.11204618,2.53416248,-3.51133582,,,
imu,424.808768,-0.4258847936,-9.739123889600002,1.8776016392,-0.06718472,2.5491163,-3.48142818,,,
imu,424.817591,-0.4378478496000001,-9.731347903200001,1.8793960976,0.0001074699999999984,2.41453192,-3.51133582,,,
imu,424.826415,-0.43366078,-9.725964528,1.8692275,-0.007369440000000005,2.27247063,-3.40665908,,,
imu,424.835239,-0.430670016,-9.731946056000002,1.8680311944,0.21693786,2.27247063,-3.33936689,,,
imu,424.844062,-0.4462219888000001,-9.741516500800001,1.8674330416,0.26179932,2.18274771,-3.4216129,,,
imu,424.852886,-0.4528016696000001,-9.748694334400001,1.875209028,0.30666078,2.15284007,-3.42908981,,,
imu,424.861709,-0.4498109056,-9.770825988000002,1.8734145696,0.11226112,2.19022462,-3.55619728,,,
imu,424.870533,-0.46356842,-9.7504887928,1.8746108752,0.17955331,2.14536316,-3.69825857,,,
imu,424.879356,-0.4677554896000001,-9.745105417600001,1.8740127224,0.23189168,2.324809,-3.52628964,,,
imu,424.88818,-0.4587831976000001,-9.7504887928,1.8716201112,0.11973803,2.37714737,-3.43656672,,,
imu,424.897003,-0.4653628784000001,-9.762451848800001,1.8728164168,0.06739966,2.41453192,-3.1973056,,,
imu,424.905827,-0.4623721144,-9.748694334400001,1.8704238056,0.05244583999999999,2.37714737,-3.31693616,,,
imu,424.914651,-0.4587831976000001,-9.722375611200002,1.8728164168,-0.04475399000000001,2.26499372,-3.5711511,,,
imu,424.923474,-0.4605776560000001,-9.738525736800002,1.8829850144,-0.04475399000000001,2.23508608,-3.7954584,,,
imu,424.931958,-0.472540712,-9.779200127200001,1.8925554592,0.01506129,2.25751681,-3.7206893,,,
imu,424.940442,-0.4665591840000001,-9.7989391696,1.890162848,-0.007369440000000005,2.22013226,-3.81041222,,,
imu,424.948926,-0.4791203928000001,-9.7995373224,1.9039203624,-0.23915365,2.22760917,-3.77302767,,,
imu,424.95741,-0.4886908376000001,-9.752881404000002,1.8955462232,-0.39616876,2.28742445,-3.58610492,,,
imu,424.965894,-0.499457588,-9.735534972800002,1.902125904,-0.29896893,2.36219355,-3.10758268,,,
imu,424.974377,-0.5072335744,-9.746899876,1.9099018904,-0.33635348,2.51173175,-2.78607555,,,
imu,424.982861,-0.5120187968000001,-9.7540777096,1.89913514,-0.10456927,2.67622377,-2.64401426,,,
imu,424.991345,-0.502448352,-9.745105417600001,1.9027240568,-0.16438455,2.81828506,-2.64401426,,,
imu,424.999829,-0.4785222400000001,-9.731347903200001,1.902125904,-0.36626112,2.89305416,-2.89075229,,,
imu,425.008313,-0.4539979752000001,-9.724170069600001,1.8985369872,-0.16438455,2.9229618,-2.95804448,,,
imu,425.016797,-0.4486146000000001,-9.7295534448,1.890162848,-0.07466163,2.93043871,-3.20478251,,,
imu,425.025281,-0.4593813504000001,-9.738525736800002,1.8877702368,0.11226112,2.9229618,-3.496382,,,
imu,425.033765,-0.4671573368000001,-9.710412555200001,1.8865739312,0.05992275,2.90800798,-3.74312003,,,
imu,425.042249,-0.4659610312,-9.690075360000002,1.8913591536,0.1720764,2.91548489,-3.84031986,,,
imu,425.050732,-0.4581850448000001,-9.6984494992,1.8817887088,0.4861066199999999,2.91548489,-3.71321239,,,
imu,425.059216,-0.4575868920000001,-9.718188541600002,1.8793960976,0.68050628,2.82576197,-3.7206893,,,
imu,425.0677,-0.4456238360000001,-9.7301515976,1.8829850144,0.68798319,2.78090051,-3.66835093,,,
imu,425.076184,-0.4533998224,-9.749890640000002,1.8823868616,0.50853735,2.63883922,-3.58610492,,,
imu,425.084668,-0.4498109056,-9.758264779200001,1.8907610008,0.65807555,2.53416248,-3.57862801,,,
imu,425.093152,-0.4569887392,-9.773218599200002,1.8949480704,0.91229049,2.48182411,-3.28702852,,,
imu,425.101636,-0.46356842,-9.7845835024,1.8895646952,0.70293701,2.27994754,-3.37675144,,,
imu,425.11012,-0.4653628784000001,-9.76484446,1.8853776256,0.35899915,2.25751681,-3.40665908,,,
imu,425.118604,-0.4695499480000001,-9.761853696000001,1.9033222096,0.14964567,2.19022462,-3.47395127,,,
imu,425.127087,-0.4683536424000001,-9.759461084800002,1.9015277512,0.06739966,2.21265535,-3.60105874,,,
imu,425.135551,-0.4671573368000001,-9.7570684736,1.9146871128,0.14964567,2.13788625,-3.60853565,,,
imu,425.144015,-0.4551942808000001,-9.759461084800002,1.9134908072,0.08983038999999998,1.91357895,-3.78050458,,,
imu,425.152478,-0.46356842,-9.754675862400001,1.9176778768,0.11973803,2.04068642,-3.7954584,,,
imu,425.160942,-0.4713444064,-9.7504887928,1.908107432,0.13469185,1.94348659,-3.77302767,,,
imu,425.169405,-0.4785222400000001,-9.7325442088,1.9027240568,0.20946095,2.07059406,-3.74312003,,,
imu,425.177869,-0.4623721144,-9.706225485600001,1.9057148208,0.34404533,1.92105586,-3.59358183,,,
imu,425.186332,-0.4539979752000001,-9.6942624296,1.9164815712,0.30666078,1.76404075,-3.46647436,,,
imu,425.194796,-0.4480164472000001,-9.741516500800001,1.908107432,0.58330645,1.70422547,-3.66087402,,,
imu,425.203259,-0.4450256832000001,-9.7534795568,1.8859757784,0.49358353,1.59207182,-3.78798149,,,
imu,425.211723,-0.4444275304,-9.693664276800002,1.8859757784,0.31413769,1.47244126,-3.68330475,,,
imu,425.220186,-0.442633072,-9.6428212888,1.8805924032,0.35899915,1.24813396,-3.48890509,,,
imu,425.22865,-0.4587831976000001,-9.652989886400002,1.8692275,0.34404533,1.06868812,-3.3468438,,,
imu,425.237113,-0.4910834488,-9.690673512800002,1.8590589024,0.3963837,1.11354958,-2.94309066,,,
imu,425.245577,-0.5006538936,-9.699047652,1.8399180128,0.65807555,1.13598031,-2.40475314,,,
imu,425.254041,-0.5012520464000001,-9.6918698184,1.8405161656,0.65059864,1.18831868,-2.18044584,,,
imu,425.262504,-0.490485296,-9.709216249600003,1.8357309432,0.65059864,1.3528107,-2.0757691,,,
imu,425.270968,-0.4791203928000001,-9.740918348000001,1.8405161656,0.8375213899999999,1.56964109,-2.001,,,
imu,425.279431,-0.481513004,-9.7576666264,1.8321420264,0.85995212,1.74908693,-2.03838455,,,
imu,425.287895,-0.4988594352000001,-9.772022293600001,1.8458995408,0.85995212,1.83880985,-2.35241477,,,
imu,425.296358,-0.502448352,-9.758862932000001,1.8429087768,0.64312173,2.22760917,-2.68887572,,,
imu,425.304822,-0.5102243384,-9.7492924872,1.8536755272,0.44872207,2.49677793,-2.86832156,,,
imu,425.313285,-0.4988594352000001,-9.755872168000002,1.8644422776,0.30666078,2.70613141,-2.95804448,,,
imu,425.321749,-0.4898871432,-9.7474980288,1.8710219584,-0.02980017,3.10240764,-3.10758268,,,
imu,425.330212,-0.4755314760000001,-9.746301723200002,1.878199792,-0.08213854000000001,3.41643786,-3.09262886,,,
imu,425.338665,-0.4665591840000001,-9.7504887928,1.88418132,0.007584380000000002,3.61831443,-3.03281358,,,
imu,425.347117,-0.4450256832000001,-9.7474980288,1.8764053336,-0.18681528,3.62579134,-3.07019813,,,
imu,425.355569,-0.430670016,-9.7570684736,1.890162848,-0.23915365,3.7454219,-2.99542903,,,
imu,425.364021,-0.4270810992000001,-9.756470320800002,1.8913591536,-0.23167674,3.77532954,-2.9729983,,,
imu,425.372473,-0.4133235848,-9.767237071200002,1.8829850144,-0.01484635000000001,3.80523718,-2.79355246,,,
imu,425.380925,-0.4133235848,-9.772022293600001,1.8805924032,0.08983038999999998,3.61831443,-2.6739219,,,
imu,425.389377,-0.3971734592000001,-9.772620446400001,1.8823868616,0.41133752,3.71551426,-2.5243837,,,
imu,425.397829,-0.3983697648000001,-9.766040765600001,1.8764053336,0.52349117,3.6706528,-2.53186061,,,
imu,425.406281,-0.4073420568000001,-9.7702278352,1.8578625968,0.64312173,3.55849915,-2.59167589,,,
imu,425.414733,-0.3989679176000001,-9.773218599200002,1.85427368,0.73284465,3.58092988,-2.79355246,,,
imu,425.423185,-0.400762376,-9.7570684736,1.845301388,0.6954601,3.53606842,-2.89075229,,,
imu,425.431638,-0.3935845424,-9.7504887928,1.83931986,0.80013684,3.43139168,-3.02533667,,,
imu,425.44009,-0.3887993200000001,-9.7492924872,1.830347568,0.65059864,3.43139168,-3.10010577,,,
imu,424.1035,,,,,,,-90.6018492,170.8702516,115.7425816
imu,424.204818,,,,,,,-90.79716440000001,170.5528644,115.766996
imu,424.306411,,,,,,,-90.45536279999999,171.0045308,115.7914104
imu,424.407974,,,,,,,-90.27225480000001,170.6139004,116.2919056
imu,424.510879,,,,,,,-90.77275,170.7970084,115.9012752
imu,424.611099,,,,,,,-89.8327956,170.711558,114.7782128
imu,424.712631,,,,,,,-90.5408132,170.9679092,115.5960952
imu,424.814163,,,,,,,-87.96509400000001,170.2476844,113.3987992
imu,425.448542,-0.3762381112000001,-9.755274015200001,1.8315438736,0.5982602699999999,3.32671494,-3.18982869,,,
imu,425.456994,-0.3810233336,-9.767835224,1.8267586512,0.64312173,3.31176112,-3.27955161,,,
imu,425.465446,-0.385808556,-9.790565030400002,1.8249641928,0.41881443,3.13979219,-3.33936689,,,
imu,425.473898,-0.3929863896,-9.786377960800001,1.8339364848,0.2468455,3.10988455,-3.33936689,,,
imu,425.48235,-0.3905937784,-9.788770572,1.8357309432,-0.14195382,2.9229618,-3.45899745,,,
imu,425.490802,-0.3762381112000001,-9.7953502528,1.8441050824,-0.44850713,2.74351596,-3.58610492,,,
imu,425.499254,-0.3870048616000001,-9.794153947200002,1.8429087768,-0.51579932,2.79585433,-3.51881273,,,
imu,425.507706,-0.3893974728000001,-9.783985349600002,1.8590589024,-0.83730645,2.6238854,-3.54124346,,,
imu,425.516159,-0.3977716120000001,-9.776807516000002,1.8692275,-0.8672140899999999,2.3995781,-3.65339711,,,
imu,425.524611,-0.4175106544000001,-9.76484446,1.8847794728,-1.08404448,2.28742445,-3.75807385,,,
imu,425.533063,-0.4234921824,-9.752283251200002,1.908107432,-1.42050543,2.28742445,-3.81041222,,,
imu,425.541539,-0.4354552384000001,-9.7636481544,1.9218649464,-1.57004363,2.1752708,-3.9449966,,,
imu,425.550015,-0.430670016,-9.743909112,1.9374169192,-1.60742818,2.23508608,-3.99733497,,,
imu,425.558492,-0.4474182944000001,-9.696056888000001,1.9445947528,-1.59247436,2.28742445,-4.034719519999999,,,
imu,425.566968,-0.46356842,-9.7217774584,1.9583522672,-1.57752054,2.27994754,-4.057150249999999,,,
imu,425.575444,-0.472540712,-9.710412555200001,1.967922712,-1.38312088,2.22760917,-3.96742733,,,
imu,425.58392,-0.4851019208000001,-9.709814402400001,1.9613430312,-1.12142903,2.13040934,-4.04967334,,,
imu,425.592397,-0.4773259344000001,-9.689477207200001,1.9745023928,-0.94198319,2.27994754,-4.13939626,,,
imu,425.600873,-0.4940742128000001,-9.667345553600002,2.0050081856,-0.8672140899999999,2.19770153,-4.20668845,,,
imu,425.609349,-0.5018501992000001,-9.702636568800001,1.9942414352,-0.4260764,2.27994754,-4.47585721,,,
imu,425.617825,-0.535346756,-9.745105417600001,1.9852691432,-0.10456927,2.324809,-4.453426479999999,,,
imu,425.626302,-0.5221873944000001,-9.737329431200001,1.9786894624,-0.13447691,2.37714737,-4.37118047,,,
imu,425.634778,-0.5180003248000001,-9.696655040800001,1.9876617544,0.01506129,2.44443956,-4.35622665,,,
imu,425.643254,-0.5473098120000001,-9.6703363176,1.9870636016,0.2468455,2.6238854,-4.124442439999999,,,
imu,425.65173,-0.5443190480000001,-9.6942624296,1.9786894624,0.59078336,2.80333124,-3.76555076,,,
imu,425.660207,-0.5233837000000001,-9.696056888000001,1.9667264064,0.8823828499999999,2.90053107,-3.55619728,,,
imu,425.668683,-0.5215892416000001,-9.690075360000002,1.9601467256,1.05435178,3.07997691,-3.43656672,,,
imu,425.677159,-0.502448352,-9.701440263200002,1.9565578088,1.17398234,3.15474601,-3.36179762,,,
imu,425.685635,-0.4845037680000001,-9.724170069600001,1.9475855168,1.37585891,3.19213056,-3.44404363,,,
imu,425.694112,-0.4791203928000001,-9.727160833600001,1.9338280024,1.28613599,3.09493073,-3.70573548,,,
imu,425.702588,-0.4940742128000001,-9.7086180968,1.9248557104,1.36090509,3.02763854,-3.90013514,,,
imu,425.711064,-0.4976631296000001,-9.680504915200002,1.9122945016,1.18893616,3.13979219,-4.08705789,,,
imu,425.71954,-0.5030465048,-9.6775141512,1.8979388344,1.19641307,3.10240764,-4.11696553,,,
imu,425.728017,-0.5132151024,-9.666149248000002,1.9003314456,1.19641307,3.01268472,-3.9449966,,,
imu,425.736493,-0.49347606,-9.669738164800002,1.89913514,1.10669015,2.97530017,-3.7954584,,,
imu,425.745299,-0.4892889904,-9.70502918,1.8865739312,1.20388998,2.96034635,-3.53376655,,,
imu,425.754106,-0.4809148512,-9.7217774584,1.8949480704,1.20388998,2.95286944,-3.07767504,,,
imu,425.762912,-0.4737370176,-9.7151977776,1.89913514,1.15902852,2.75846978,-2.88327538,,,
imu,425.771718,-0.4958686712000001,-9.743909112,1.8985369872,1.21136689,2.55659321,-2.86832156,,,
imu,425.780525,-0.5006538936,-9.764246307200002,1.908107432,1.06182869,2.42948574,-2.92813684,,,
imu,425.789331,-0.499457588,-9.765442612800001,1.9194723352,1.06182869,2.45939338,-3.03281358,,,
imu,425.798137,-0.5156077136000001,-9.767835224,1.9134908072,1.11416706,2.33228591,-3.10010577,,,
imu,425.806943,-0.5257763112000001,-9.783387196800001,1.917079724,0.8449983,2.33228591,-3.21973633,,,
imu,425.81575,-0.5461135064000001,-9.786377960800001,1.917079724,0.85995212,2.48182411,-3.26459779,,,
imu,425.824556,-0.5514968816000001,-9.800135475200001,1.9218649464,0.80761375,2.69117759,-3.22721324,,,
imu,425.833362,-0.5568802568000001,-9.8043225448,1.91408896,0.82256757,2.94539253,-3.15992105,,,
imu,425.842169,-0.550300576,-9.8061170032,1.9242575576,0.8749059399999999,3.10240764,-3.10758268,,,
imu,425.850975,-0.5383375200000001,-9.7744149048,1.923061252,0.80013684,3.38653022,-3.23469015,,,
imu,425.859658,-0.5269726168000001,-9.743310959200002,1.9248557104,0.81509066,3.76785263,-3.26459779,,,
imu,425.868464,-0.5048409632,-9.751685098400001,1.9416039888,0.9272443100000001,3.93234465,-3.47395127,,,
imu,425.87727,-0.4773259344000001,-9.8079114616,1.935024308,1.17398234,3.88000628,-3.84031986,,,
imu,425.886077,-0.4533998224,-9.831239420800001,1.9122945016,0.85995212,3.8949601,-4.0945348,,,
imu,425.894883,-0.4438293776000001,-9.800135475200001,1.9152852656,0.6281679099999999,3.7454219,-4.15435008,,,
imu,425.903689,-0.4462219888000001,-9.760059237600002,1.9122945016,0.47862971,3.53606842,-4.04967334,,,
imu,425.912496,-0.4611758088,-9.7612555432,1.9033222096,0.44124516,3.36409949,-4.04967334,,,
imu,425.921302,-0.4857000736000001,-9.790565030400002,1.902125904,0.3739529699999999,3.2220382,-3.69825857,,,
imu,425.930108,-0.4857000736000001,-9.788172419200002,1.8937517648,0.16459949,3.20708438,-3.41413599,,,
imu,425.938914,-0.499457588,-9.761853696000001,1.9087055848,-0.08961545,3.22951511,-3.39918217,,,
imu,425.947381,-0.4892889904,-9.731946056000002,1.9027240568,-0.28401511,3.28933039,-3.42908981,,,
imu,425.955848,-0.4845037680000001,-9.736731278400002,1.9099018904,-0.34383039,3.19213056,-3.39170526,,,
imu,425.964315,-0.4803166984,-9.739123889600002,1.9087055848,-0.41859949,3.12483837,-3.39918217,,,
imu,425.972782,-0.4874945320000001,-9.718188541600002,1.91408896,-0.54570696,3.02016163,-3.40665908,,,
imu,425.981248,-0.4892889904,-9.714599624800002,1.9266501688,-0.5307531400000001,2.97530017,-3.41413599,,,
imu,425.989715,-0.499457588,-9.710412555200001,1.92904278,-0.43355331,3.02016163,-3.24964397,,,
imu,425.998182,-0.4982612824000001,-9.711010708000002,1.9422021416,-0.38869185,3.10988455,-3.09262886,,,
imu,426.006649,-0.4701481008,-9.710412555200001,1.9535670448,-0.26906129,3.24446893,-3.10758268,,,
imu,426.015116,-0.4617739616000001,-9.727758986400001,1.9667264064,-0.34383039,3.25194584,-2.96552139,,,
imu,426.023582,-0.4450256832000001,-9.721179305600002,1.9751005456,-0.31392275,3.1472691,-2.9729983,,,
imu,426.032049,-0.451605364,-9.692467971200001,1.9703153232,-0.37373803,2.91548489,-3.01785976,,,
imu,426.040516,-0.4528016696000001,-9.6775141512,1.970913476,-0.37373803,2.79585433,-3.21973633,,,
imu,426.048983,-0.4498109056,-9.6505972752,1.955959656,0.03001510999999998,2.70613141,-3.37675144,,,
imu,426.05745,-0.451605364,-9.617698871200002,1.9637356424,0.41133752,2.69117759,-3.43656672,,,
imu,426.065916,-0.4551942808000001,-9.606333968000001,1.9475855168,0.65807555,2.71360832,-3.74312003,,,
imu,426.074383,-0.4671573368000001,-9.6051376624,1.9326316968,1.11416706,2.51920866,-3.7954584,,,
imu,426.08285,-0.4755314760000001,-9.6075302736,1.9398095304,1.45062801,2.35471664,-3.87770441,,,
imu,426.091317,-0.4851019208000001,-9.612913648800001,1.9158834184,1.88428879,2.25751681,-3.90761205,,,
imu,426.099784,-0.4892889904,-9.6290637744,1.9027240568,2.43010322,2.33976282,-3.87770441,,,
imu,426.10825,-0.4964668240000001,-9.6428212888,1.8835831672,2.75908726,2.3995781,-3.90761205,,,
imu,426.116717,-0.4910834488,-9.651793580800001,1.8817887088,3.17031731,2.15284007,-4.19921154,,,
imu,426.125184,-0.472540712,-9.688280901600002,1.8650404304,3.49930135,2.06311715,-4.0945348,,,
imu,426.133651,-0.4928779072000001,-9.7427128064,1.8536755272,3.76847011,1.91357895,-3.75807385,,,
imu,426.142118,-0.5000557408,-9.7989391696,1.8405161656,3.85819303,1.75656384,-3.45899745,,,
imu,426.150584,-0.5168040192000001,-9.830641268,1.8279549568,3.94043904,1.75656384,-2.99542903,,,
imu,426.159036,-0.5287670752,-9.855165532800001,1.82436604,3.8357623,1.76404075,-2.66644499,,,
imu,426.167489,-0.5371412144000001,-9.893447312000001,1.8237678872,3.60397809,1.71170238,-2.35989168,,,
imu,426.175941,-0.5371412144000001,-9.9299346328,1.818384512,3.20770186,1.81637912,-2.06081528,,,
imu,426.184393,-0.5287670752,-9.9466829112,1.8327401792,2.76656417,2.12293243,-1.75426197,,,
imu,426.192845,-0.517402172,-9.934719855200001,1.8321420264,1.95158098,2.3995781,-1.44770866,,,
imu,426.201297,-0.5012520464000001,-9.906008520800002,1.8327401792,1.25622835,2.51920866,-1.70940051,,,
imu,426.209749,-0.5048409632,-9.832435726400002,1.8279549568,0.46367589,2.63883922,-1.88136944,,,
imu,426.218201,-0.502448352,-9.802528086400002,1.8207771232,0.0001074699999999984,2.81828506,-2.13558438,,,
imu,426.226653,-0.4868963792000001,-9.800135475200001,1.8141974424,-0.26158438,2.97530017,-2.68887572,,,
imu,426.235105,-0.4761296288000001,-9.755274015200001,1.7998417752,-0.31392275,3.21456129,-3.04029049,,,
imu,426.243557,-0.4773259344000001,-9.696655040800001,1.7902713304,-0.32887657,3.34914567,-3.31693616,,,
imu,426.25201,-0.4557924336,-9.6637566368,1.8100103728,-0.26906129,3.3715764,-3.48890509,,,
imu,426.260462,-0.4438293776000001,-9.651195428000001,1.8219734288,-0.08961545,3.39400713,-3.53376655,,,
imu,424.915786,,,,,,,-90.7361284,170.3941708,116.2796984
imu,425.017593,,,,,,,-88.17261640000001,170.040162,113.9481232
imu,425.118972,,,,,,,-90.49198439999999,170.8702516,116.4261848
imu,425.220504,,,,,,,-90.8459932,171.13881,116.1454192
imu,425.322097,,,,,,,-90.833786,170.4918284,116.2308696
imu,425.423568,,,,,,,-90.6018492,170.9679092,116.0599688
imu,425.525131,,,,,,,-90.3577052,170.9068732,116.133212
imu,425.626693,,,,,,,-88.9050484,170.7970084,115.3519512
imu,426.268914,-0.4408386136,-9.684093832000002,1.833338332,0.08983038999999998,3.40148404,-3.71321239,,,
imu,426.277366,-0.4390441552000001,-9.70502918,1.8494884576,0.07487657,3.2220382,-4.012288789999999,,,
imu,426.285818,-0.4324644744,-9.700243957600001,1.8429087768,0.19450713,3.1472691,-4.08705789,,,
imu,426.29427,-0.4312681688,-9.717590388800001,1.8698256528,0.11226112,2.87810034,-4.44594957,,,
imu,426.302722,-0.4480164472000001,-9.7786019744,1.8668348888,0.19450713,2.64631613,-4.56558013,,,
imu,426.311174,-0.4605776560000001,-9.802528086400002,1.8728164168,0.09730729999999999,2.41453192,-4.70016451,,,
imu,426.319626,-0.4868963792000001,-9.7786019744,1.8668348888,0.13469185,2.22760917,-4.55810322,,,
imu,426.328078,-0.5096261856000001,-9.7283571392,1.8518810688,0.19450713,2.10797861,-4.34874974,,,
imu,426.336531,-0.5227855472,-9.714001472000001,1.8345346376,0.58330645,2.11545552,-3.82536604,,,
imu,426.344983,-0.5227855472,-9.739722042400002,1.8255623456,1.05435178,2.09302479,-3.37675144,,,
imu,426.353435,-0.5359449088000001,-9.7809945856,1.8130011368,1.36090509,2.11545552,-3.10010577,,,
imu,426.361898,-0.5377393672000002,-9.801929933600002,1.8339364848,1.35342818,2.08554788,-3.16739796,,,
imu,426.370362,-0.5383375200000001,-9.810902225600001,1.830347568,1.2936129,2.05564024,-3.30945925,,,
imu,426.378825,-0.5389356728,-9.813892989600001,1.8165900536,1.32352054,1.92105586,-3.21225942,,,
imu,426.387289,-0.5377393672000002,-9.7923594888,1.818384512,1.07678251,1.86124058,-3.21225942,,,
imu,426.395752,-0.5473098120000001,-9.794752100000002,1.8375254016,0.6954601,1.7266562,-3.25712088,,,
imu,426.404216,-0.5778156048000002,-9.8144911424,1.8506847632,0.42629134,1.74161002,-2.99542903,,,
imu,426.41268,-0.601143564,-9.832435726400002,1.8614515136,0.09730729999999999,1.95844041,-2.59167589,,,
imu,426.421143,-0.5891805080000001,-9.805518850400002,1.8584607496,-0.46346095,2.07807097,-2.27016876,,,
imu,426.429607,-0.5538894928000001,-9.7744149048,1.8614515136,-0.95693701,2.13040934,-2.12063056,,,
imu,426.43807,-0.5401319784,-9.741516500800001,1.866236736,-1.18124431,2.16779389,-2.01595382,,,
imu,426.446534,-0.5550857984,-9.699645804800001,1.8668348888,-1.46536689,2.00330187,-2.09819983,,,
imu,426.454997,-0.5814045216000001,-9.668541859200001,1.878199792,-1.29339796,2.09302479,-2.04586146,,,
imu,426.463461,-0.5849934384000001,-9.658971414400002,1.8787979448,-1.05413684,2.26499372,-2.1505382,,,
imu,426.471924,-0.6137047728000001,-9.661962178400001,1.8895646952,-0.9644139199999999,2.35471664,-2.32250713,,,
imu,426.480388,-0.6292567456000001,-9.6703363176,1.8985369872,-0.77001426,2.59397776,-2.44213769,,,
imu,426.488851,-0.6154992312,-9.6799067624,1.9087055848,-0.49336859,2.93791562,-2.53186061,,,
imu,426.497315,-0.5969564944000001,-9.7163940832,1.9242575576,-0.31392275,3.12483837,-2.75616791,,,
imu,426.505778,-0.5969564944000001,-9.743310959200002,1.92904278,-0.17933837,3.37905331,-2.8982292,,,
imu,426.514242,-0.58319898,-9.764246307200002,1.932033544,-0.26906129,3.83514482,-2.80850628,,,
imu,426.522706,-0.5646562432000001,-9.752283251200002,1.9404076832,-0.14943073,4.171605769999999,-2.69635263,,,
imu,426.531169,-0.5431227424,-9.713403319200001,1.9278464744,0.02253820000000001,4.40338998,-2.59167589,,,
imu,426.539633,-0.5281689224000001,-9.7337405144,1.967922712,0.03001510999999998,4.59778964,-2.53186061,,,
imu,426.548096,-0.4862982264000001,-9.783387196800001,1.9655301008,-0.09709236,4.70994329,-2.59167589,,,
imu,426.55656,-0.4510072112,-9.8049206976,1.9535670448,-0.26906129,4.74732784,-2.65149117,,,
imu,426.565058,-0.4276792520000001,-9.777405668800002,1.9547633504,-0.44103022,4.530497449999999,-2.58419898,,,
imu,426.573555,-0.4175106544000001,-9.735534972800002,1.9541651976,-0.43355331,4.37348234,-2.46456842,,,
imu,426.582053,-0.4139217376000001,-9.722973764,1.9607448784,-0.4260764,4.194036499999999,-2.12810747,,,
imu,426.590551,-0.4228940296000001,-9.737329431200001,1.946987364,-0.23167674,4.02954448,-1.70940051,,,
imu,426.599049,-0.4151180432000001,-9.743909112,1.941005836,-0.34383039,3.99963684,-1.5523854,,,
imu,426.607547,-0.4013605288,-9.727160833600001,1.9398095304,-0.23915365,3.85009864,-1.6271545,,,
imu,426.616045,-0.3696584304000001,-9.718786694400002,1.9493799752,-0.06718472,3.48373005,-1.80660034,,,
imu,426.624543,-0.361882444,-9.718786694400002,1.9374169192,-0.02232326000000001,3.24446893,-2.03090764,,,
imu,426.633041,-0.3732473472,-9.7301515976,1.9451929056,0.04496892999999999,2.99025399,-2.21035348,,,
imu,426.641538,-0.3852104032000001,-9.7163940832,1.9404076832,0.03001510999999998,2.78090051,-2.47204533,,,
imu,426.650036,-0.4019586816,-9.694860582400002,1.9386132248,0.08235347999999998,2.58650085,-2.65149117,,,
imu,426.658534,-0.4085383624000001,-9.6918698184,1.9392113776,0.02253820000000001,2.43696265,-2.69635263,,,
imu,426.667032,-0.4264829464000001,-9.704431027200002,1.9445947528,0.28423005,2.42200883,-2.55429134,,,
imu,426.67553,-0.4294737104000001,-9.700243957600001,1.932033544,0.25432241,2.46687029,-2.50942988,,,
imu,426.684028,-0.4294737104000001,-9.706225485600001,1.9362206136,0.14964567,2.41453192,-2.47952224,,,
imu,426.692526,-0.4324644744,-9.7056273328,1.9332298496,0.49358353,2.4743472,-2.30755331,,,
imu,426.701024,-0.442633072,-9.711608860800002,1.9248557104,0.4711528,2.40705501,-2.43466078,,,
imu,426.709521,-0.4444275304,-9.7008421104,1.9248557104,0.65059864,2.38462428,-2.40475314,,,
imu,426.718019,-0.4665591840000001,-9.6942624296,1.9134908072,0.65807555,2.29490136,-2.47204533,,,
imu,426.726517,-0.4821111568000001,-9.693664276800002,1.9158834184,0.9048135799999999,2.46687029,-2.5243837,,,
imu,426.735015,-0.4767277816000001,-9.711608860800002,1.9146871128,0.8524752099999999,2.61640849,-2.65896808,,,
imu,426.743513,-0.481513004,-9.727160833600001,1.9027240568,1.15902852,2.94539253,-2.71878336,,,
imu,426.752011,-0.4803166984,-9.743909112,1.9045185152,1.24127453,3.16969983,-2.75616791,,,
imu,426.760509,-0.4611758088,-9.755274015200001,1.8997332928,1.17398234,3.23699202,-2.77859864,,,
imu,426.769285,-0.4743351704000001,-9.76484446,1.8937517648,1.33847436,3.48373005,-2.89075229,,,
imu,426.77806,-0.4707462536000001,-9.767835224,1.8907610008,1.2936129,3.7454219,-2.98795212,,,
imu,426.786836,-0.4575868920000001,-9.759461084800002,1.8799942504,1.12164397,3.9697292,-2.94309066,,,
imu,426.795612,-0.4330626272,-9.7702278352,1.8823868616,1.18145925,4.02206757,-2.92065993,,,
imu,426.804388,-0.4145198904,-9.772620446400001,1.8740127224,1.1440747,4.0444983,-3.02533667,,,
imu,426.813163,-0.3983697648000001,-9.773218599200002,1.881190556,1.09173633,4.104313579999999,-2.84589083,,,
imu,426.821939,-0.3846122504,-9.755274015200001,1.8793960976,0.97958268,4.02954448,-2.85336774,,,
imu,426.830715,-0.3744436528,-9.763050001600002,1.8805924032,1.04687487,4.02206757,-2.85336774,,,
imu,426.839491,-0.3642750552,-9.752283251200002,1.8835831672,1.01696723,3.93982156,-2.80850628,,,
imu,426.848267,-0.3541064576,-9.7815927384,1.8596570552,0.8674290299999999,3.76785263,-2.77112173,,,
imu,425.728184,,,,,,,-90.85820040000002,171.1143956,116.438392
imu,425.829716,,,,,,,-88.6120756,170.406378,113.4720424
imu,425.931248,,,,,,,-90.4187412,171.199846,116.1210048
imu,426.040836,,,,,,,-88.8318052,170.162234,114.1434384
imu,426.142399,,,,,,,-90.8826148,171.1876388,116.3651488
imu,426.243809,,,,,,,-90.23563320000001,170.8824588,116.072176
imu,426.345432,,,,,,,-90.45536279999999,171.2975036,116.1820408
imu,426.446873,,,,,,,-90.3699124,171.2852964,116.5238424
imu,426.548496,,,,,,,-90.45536279999999,170.955702,116.0355544
imu,426.649998,,,,,,,-90.22342599999999,171.2242604,116.3529416
imu,426.752506,,,,,,,-88.19703080000001,171.1266028,115.766996
imu,426.853153,,,,,,,-90.3699124,171.2975036,116.4505992
