Type,Timestamp,Data Accelerometer X,Data Accelerometer Y,Data Accelerometer Z,Data Gyroscope X,Data Gyroscope Y,Data Gyroscope Z,Data Magnetometer X,Data Magnetometer Y,Data Magnetometer Z
imu,509.285933,-0.1650901728,-9.440047489600001,3.2066971608,-3.14767164,-0.7257702800000003,-4.31136519,,,
imu,509.294344,-0.1740624648,-9.403560168800002,3.239595564800001,-3.23739456,-1.00989286,-4.32631901,,,
imu,509.302913,-0.1842310624,-9.4107380024,3.233015884,-3.1925331,-1.24167707,-4.10948862,,,
imu,509.311482,-0.1902125904,-9.469356976800002,3.2072953136,-3.32711748,-1.46598437,-3.89265823,,,
imu,509.320051,-0.1806421456,-9.435860420000001,3.219856522400001,-3.16262546,-1.62299948,-3.7206893,,,
imu,509.328621,-0.1776513816,-9.364680236800002,3.253951232,-3.28225602,-1.83982987,-3.58610492,,,
imu,509.33719,-0.1979885768,-9.352119028,3.265914288000001,-2.96074889,-1.92207588,-3.47395127,,,
imu,509.345759,-0.182436604,-9.377839598400001,3.231221425600001,-2.67662631,-2.06413717,-3.40665908,,,
imu,509.354328,-0.2069608688,-9.3832229736,3.2234454392,-2.45231901,-2.34078284,-3.36927453,,,
imu,509.362897,-0.1961941184,-9.350922722400002,3.2485678568,-2.31773463,-2.52022868,-3.48142818,,,
imu,509.371466,-0.2207183832,-9.332978138400001,3.252156773600001,-2.06351969,-2.66976688,-3.60853565,,,
imu,509.380035,-0.2434481896,-9.3419504304,3.2467733984,-1.65228964,-2.72958216,-3.66835093,,,
imu,509.388604,-0.2500278704,-9.357502403200002,3.250960468,-1.22610577,-2.82678199,-3.59358183,,,
imu,509.397173,-0.2595983152,-9.3592968616,3.2593346072,-1.0242292,-2.87912036,-3.80293531,,,
imu,509.405742,-0.281131816,-9.360493167200001,3.271895816,-0.78496808,-2.90155109,-3.95247351,,,
imu,509.414311,-0.3044597752,-9.371259917600002,3.274288427200001,-0.69524516,-2.92398182,-3.99733497,,,
imu,509.42288,-0.311039456,-9.388008196000001,3.2844570248,-0.63542988,-2.7594898,-3.95247351,,,
imu,509.43145,-0.3277877344,-9.394587876800001,3.2904385528,-0.61299915,-2.5351825,-4.00481188,,,
imu,509.440019,-0.3451341656,-9.3832229736,3.2994108448,-0.62047606,-2.303398290000001,-4.10948862,,,
imu,509.448588,-0.3654713608,-9.395186029600001,3.291634858400001,-0.48589168,-2.00432189,-4.21416536,,,
imu,509.457157,-0.3648732080000001,-9.395784182400002,3.292831164,-0.37373803,-1.57813802,-4.23659609,,,
imu,509.465726,-0.3690602776000001,-9.394587876800001,3.292831164,-0.25410747,-1.24167707,-4.25154991,,,
imu,509.474295,-0.382817792,-9.3975786408,3.2994108448,-0.35878421,-1.10709269,-4.31136519,,,
imu,509.482864,-0.3882011672000001,-9.398774946400001,3.2886440944,-0.14943073,-0.71829337,-4.453426479999999,,,
imu,509.491433,-0.3899956256000001,-9.405952780000002,3.289242247200001,-0.127,-0.4939860700000001,-4.408565019999999,,,
imu,509.500002,-0.400762376,-9.408345391200001,3.3000089976,-0.2017691,-0.2846325900000002,-4.408565019999999,,,
imu,509.508774,-0.3977716120000001,-9.4077472384,3.300607150400001,-0.17186146,0.02939763000000006,-4.26650373,,,
imu,509.517546,-0.3953790008,-9.401765710400001,3.3035979144,-0.05970781,0.3209971199999999,-4.19921154,,,
imu,509.526318,-0.3971734592000001,-9.405354627200001,3.3000089976,-0.14195382,0.4929660499999997,-4.25154991,,,
imu,509.535089,-0.4055475984,-9.402363863200002,3.2940274696,0.01506129,0.7546578999999998,-4.26650373,,,
imu,509.543861,-0.4181088072000001,-9.411934308000001,3.2982145392,-0.02980017,0.9341037399999998,-4.25154991,,,
imu,509.552633,-0.4193051128000001,-9.408345391200001,3.3012053032,-0.007369440000000005,1.09859576,-4.28893446,,,
imu,509.561405,-0.4205014184,-9.4041583216,3.3083831368,-0.21672292,1.28551851,-4.41604193,,,
imu,509.570177,-0.4163143488000001,-9.403560168800002,3.3089812896,-0.17933837,1.5023489,-4.35622665,,,
imu,509.578949,-0.4121272792,-9.3963823352,3.307784984,-0.25410747,1.6518871,-4.34874974,,,
imu,509.58772,-0.4091365152000001,-9.385615584800002,3.300607150400001,-0.02980017,1.81637912,-4.29641137,,,
imu,509.596492,-0.4055475984,-9.3718580704,3.2886440944,0.05992275,1.89114822,-4.32631901,,,
imu,509.605264,-0.4199032656,-9.3664746952,3.296420080800001,0.20198404,1.96591732,-4.23659609,,,
imu,509.614036,-0.400762376,-9.363483931200001,3.3065886784,0.2468455,2.03320951,-4.17678081,,,
imu,509.622808,-0.400762376,-9.363483931200001,3.301803456,0.46367589,1.98834805,-4.146873169999999,,,
imu,509.631579,-0.3989679176000001,-9.361091320000002,3.296420080800001,0.620691,2.01825569,-3.99733497,,,
imu,509.640351,-0.3702565832000001,-9.372456223200002,3.298812692000001,0.83004448,2.20517844,-3.84031986,,,
imu,509.649123,-0.3702565832000001,-9.3766432928,3.293429316800001,0.9945364999999999,1.96591732,-3.7206893,,,
imu,509.657895,-0.3792288752000001,-9.377839598400001,3.314962817600001,1.04687487,1.92105586,-3.5711511,,,
imu,509.666667,-0.3612842912,-9.3904008072,3.3012053032,1.12912088,1.90610204,-3.48142818,,,
imu,509.675438,-0.3612842912,-9.393989724,3.289242247200001,1.18893616,1.75656384,-3.23469015,,,
imu,509.68421,-0.3582935272000001,-9.404756474400001,3.2994108448,1.31604363,1.59207182,-3.03281358,,,
imu,509.692982,-0.3553027632,-9.4071490856,3.300607150400001,1.24127453,1.51730272,-2.98795212,,,
imu,509.701754,-0.3576953744,-9.4203084472,3.295821928000001,1.42819728,1.48739508,-2.78607555,,,
imu,509.710217,-0.3469286240000001,-9.431075197600002,3.3059905256,1.4431511,1.45748744,-2.748691,,,
imu,509.718681,-0.3499193880000001,-9.436458572800001,3.2952237752,1.38333582,1.40514907,-2.78607555,,,
imu,509.727145,-0.3600879856,-9.439449336800001,3.3251314152,1.30856672,1.38271834,-2.83841392,,,
imu,509.735608,-0.382817792,-9.4346641144,3.3095794424,1.2936129,1.42010289,-2.70382954,,,
imu,509.744072,-0.3630787496,-9.418513988800001,3.2952237752,1.09173633,1.52477963,-2.92813684,,,
imu,509.752535,-0.3744436528,-9.405952780000002,3.2826625664,1.00949032,1.68927165,-2.9729983,,,
imu,509.760999,-0.3804251808,-9.401765710400001,3.2802699552,0.9646288599999999,1.73413311,-3.1225365,,,
imu,509.769462,-0.3816214864,-9.388008196000001,3.274288427200001,0.9197674,1.9509635,-3.32441307,,,
imu,509.777926,-0.361882444,-9.371259917600002,3.2760828856,1.0693056,1.97339423,-3.58610492,,,
imu,509.786389,-0.3624805968,-9.343744888800002,3.273092121600001,1.32352054,2.07807097,-3.81041222,,,
imu,509.794853,-0.3660695136000001,-9.356904250400001,3.275484732800001,1.65998149,2.28742445,-3.97490424,,,
imu,509.803316,-0.3523119992,-9.380830362400001,3.2856533304,1.71979677,2.29490136,-3.85527368,,,
imu,509.81178,-0.3379563320000001,-9.3993730992,3.2910367056,1.74970441,2.34723973,-3.93004278,,,
imu,509.820243,-0.3253951232,-9.405952780000002,3.302999761600001,1.87681188,2.22013226,-4.057150249999999,,,
imu,509.828707,-0.3182172896000001,-9.4077472384,3.2952237752,1.93662716,2.08554788,-4.06462716,,,
imu,509.837171,-0.3206099008000001,-9.405952780000002,3.2904385528,2.07121154,1.91357895,-3.88518132,,,
imu,509.845634,-0.3218062064,-9.401167557600001,3.2832607192,2.0413039,1.66684092,-3.68330475,,,
imu,509.854098,-0.3128339144,-9.401167557600001,3.2677087464,2.18336519,1.59954873,-3.50385891,,,
imu,509.862561,-0.3158246784000001,-9.401167557600001,3.270699510400001,2.42262631,1.47991817,-3.28702852,,,
imu,509.871025,-0.3259932760000001,-9.398176793600001,3.2766810384,2.32542648,1.26308778,-3.22721324,,,
imu,509.879488,-0.3301803456000001,-9.3754469872,3.2790736496,2.45253395,1.21822632,-3.21225942,,,
imu,509.887952,-0.3182172896000001,-9.3664746952,3.265914288000001,2.54225687,1.18084177,-3.33936689,,,
imu,509.896415,-0.3289840400000001,-9.350324569600001,3.256941996000001,2.72917962,0.9565344699999998,-3.35432071,,,
imu,509.904879,-0.3451341656,-9.343146736000001,3.2467733984,2.90862546,0.94905756,-3.45152054,,,
imu,509.913298,-0.3576953744,-9.349128264,3.2431844816,3.20022495,0.9939190199999999,-3.40665908,,,
imu,509.921717,-0.3499193880000001,-9.361091320000002,3.239595564800001,3.34228624,1.07616503,-3.69825857,,,
imu,509.930136,-0.3535083048,-9.368269153600002,3.2431844816,3.47687062,1.07616503,-3.86275059,,,
imu,509.938555,-0.361882444,-9.3652783896,3.224043592000001,3.84323921,1.03878048,-3.72816621,,,
imu,509.946974,-0.3684621248000001,-9.370661764800001,3.2204546752,4.00773123,1.15093413,-3.88518132,,,
imu,509.955393,-0.370854736,-9.385615584800002,3.227034356,4.23951544,1.22570323,-3.78050458,,,
imu,509.963812,-0.3876030144000001,-9.415523224800001,3.221650980800001,4.32176145,1.24813396,-3.81041222,,,
imu,509.972231,-0.3959771536000001,-9.425691822400001,3.212678688800001,4.65074549,1.4275798,-3.59358183,,,
imu,509.98065,-0.406743904,-9.435262267200002,3.214473147200001,4.72551459,1.61450255,-3.63096638,,,
imu,509.989069,-0.4264829464000001,-9.4555994624,3.2055008552,4.67317622,1.83880985,-3.53376655,,,
imu,509.997488,-0.4216977240000001,-9.478927421600002,3.200715632800001,4.41148437,2.08554788,-3.66087402,,,
imu,510.005907,-0.4378478496000001,-9.5010590752,3.1887525768,4.27689999,2.27247063,-3.75059694,,,
imu,510.014691,-0.4456238360000001,-9.488497866400001,3.1749950624,4.04511578,2.6238854,-3.72816621,,,
imu,510.02311,-0.4438293776000001,-9.481320032800001,3.1648264648,3.99277741,2.87062343,-3.83284295,,,
imu,510.031529,-0.4504090584,-9.478927421600002,3.146881880800001,4.11240797,3.15474601,-3.78050458,,,
imu,510.039948,-0.43366078,-9.483712644000002,3.137311436000001,3.79837775,3.42391477,-3.92256587,,,
imu,510.048367,-0.4240903352000001,-9.459786532,3.11039456,3.64136264,3.820191,-3.99733497,,,
imu,510.056786,-0.4151180432000001,-9.460982837600001,3.11039456,3.76847011,4.05945212,-3.89265823,,,
imu,510.065205,-0.4109309736,-9.4555994624,3.1115908656,3.65631646,4.13422122,-3.95247351,,,
imu,510.073624,-0.4001642232,-9.4753385048,3.1187686992,3.64136264,4.18655959,-3.93004278,,,
imu,510.082043,-0.3798270280000001,-9.481918185600001,3.0990296568,3.72360865,4.26132869,-3.96742733,,,
imu,510.090462,-0.3756399584,-9.472347740800002,3.0900573648,3.66379337,4.35105161,-4.012288789999999,,,
imu,510.098881,-0.3612842912,-9.478329268800001,3.0882629064,3.56659354,4.33609779,-3.90761205,,,
imu,510.1073,-0.3606861384,-9.492086783200001,3.083477684,3.67127028,4.3435747,-3.77302767,,,
imu,510.11576,-0.3541064576,-9.502853533600002,3.0673275584,3.55163972,4.30619015,-3.69078166,,,
imu,510.12422,-0.3415452488,-9.495675700000001,3.0649349472,3.48434753,4.20151341,-3.51133582,,,
imu,510.132679,-0.3397507904000001,-9.491488630400001,3.0643367944,3.34976315,4.09683667,-3.54124346,,,
imu,510.141139,-0.3259932760000001,-9.496872005600002,3.0583552664,3.3123786,4.02954448,-3.48890509,,,
imu,510.149599,-0.3283858872000001,-9.4944793944,3.0398125296,3.3871477,3.87252937,-3.3468438,,,
imu,510.158058,-0.3355637208,-9.4974701584,3.023662404,3.20022495,3.67812971,-3.36927453,,,
imu,510.166518,-0.34393786,-9.490292324800002,3.0248587096,3.3123786,3.50616078,-3.43656672,,,
imu,510.174978,-0.3642750552,-9.486703408,3.029045779200001,3.39462461,3.36409949,-3.51881273,,,
imu,510.183438,-0.3882011672000001,-9.502255380800001,3.015288264800001,3.71613174,3.40896095,-3.59358183,,,
imu,510.191897,-0.3864067088000001,-9.499862769600002,3.0134938064,3.48434753,3.39400713,-3.75059694,,,
imu,510.200357,-0.3971734592000001,-9.505246144800001,3.0164845704,3.47687062,3.30428421,-4.034719519999999,,,
imu,510.208817,-0.4049494456000001,-9.506442450400002,3.02067164,3.44696298,3.34166876,-4.21416536,,,
imu,510.217277,-0.4013605288,-9.511227672800002,3.0188771816,3.3123786,3.47625314,-4.22911918,,,
imu,510.225736,-0.4025568344,-9.5172092008,3.0194753344,3.17031731,3.39400713,-4.244073,,,
imu,510.234196,-0.4031549872,-9.505246144800001,3.0158864176,3.08059439,3.4463455,-4.19921154,,,
imu,510.242656,-0.4085383624000001,-9.467562518400001,3.005717820000001,2.85628709,3.51363769,-4.146873169999999,,,
imu,510.251115,-0.4037531400000001,-9.479525574400002,2.9883713888,2.98339456,3.58840679,-3.86275059,,,
imu,510.259575,-0.4037531400000001,-9.51062952,2.9811935552,2.92357928,3.66317589,-3.67582784,,,
imu,510.268035,-0.4037531400000001,-9.5327611736,2.978202791200001,3.0133022,3.5958837,-3.54124346,,,
imu,510.276495,-0.4055475984,-9.522592576000001,2.979997249600001,3.08059439,3.62579134,-3.26459779,,,
imu,510.284954,-0.3959771536000001,-9.524387034400002,2.9835861664,3.08059439,3.72299117,-3.17487487,,,
imu,510.293414,-0.3965753064,-9.535153784800002,2.9841843192,2.78151799,3.6706528,-3.20478251,,,
imu,510.301874,-0.4025568344,-9.543527924000001,2.978800944,2.94601001,3.88748319,-3.13749032,,,
imu,510.310334,-0.400762376,-9.556089132800002,2.975810180000001,2.74413344,3.90243701,-3.07019813,,,
imu,510.319135,-0.3834159448,-9.553098368800002,2.9764083328,2.42262631,3.98468302,-3.01038285,,,
imu,510.327936,-0.3792288752000001,-9.540537160000001,2.968632346400001,2.1908421,3.9697292,-3.07019813,,,
imu,510.336737,-0.3720510416,-9.541733465600002,2.980595402400001,2.22074974,3.99963684,-3.24964397,,,
imu,510.345538,-0.3624805968,-9.5429297712,2.9692304992,2.16093446,4.22394414,-3.17487487,,,
imu,510.354339,-0.3517138464,-9.538742701600002,2.968632346400001,1.97401171,4.26132869,-3.08515195,,,
imu,510.36314,-0.3385544848000001,-9.533957479200001,2.9734175688,1.87681188,4.31366706,-3.10010577,,,
imu,510.371941,-0.3355637208,-9.523190728800001,2.9752120272,1.75718132,4.388436159999999,-3.21973633,,,
imu,510.380742,-0.3044597752,-9.522592576000001,2.9764083328,1.50296638,4.07440594,-3.30198234,,,
imu,510.389543,-0.3128339144,-9.517807353600002,2.9752120272,1.62259694,4.05197521,-3.23469015,,,
imu,510.398344,-0.2817299688000001,-9.520199964800002,2.966837888,1.55530475,3.820191,-3.15992105,,,
imu,510.407145,-0.2793373576,-9.51062952,2.9680341936,1.5179202,3.66317589,-3.0477674,,,
imu,510.415946,-0.281131816,-9.5148165896,2.9614545128,1.41324346,3.3715764,-3.08515195,,,
imu,510.424747,-0.2847207328,-9.512423978400001,2.952482220800001,1.34595127,3.22951511,-3.04029049,,,
imu,510.433548,-0.2859170384,-9.516012895200001,2.9500896096,1.5926893,3.10240764,-2.93561375,,,
imu,510.442349,-0.2805336632,-9.516012895200001,2.9423136232,1.64502767,2.80333124,-2.83093701,,,
imu,510.45115,-0.290104108,-9.519003659200001,2.9387247064,1.71231986,2.57154703,-2.80102937,,,
imu,510.459951,-0.2895059552,-9.526779645600001,2.936930248,1.77213514,2.48182411,-2.70382954,,,
imu,510.468752,-0.2889078024000001,-9.533957479200001,2.927957956,1.74970441,2.27247063,-2.5991528,,,
imu,510.477553,-0.2907022608000001,-9.538742701600002,2.922574580800001,1.70484295,2.14536316,-2.62158353,,,
imu,510.486354,-0.2942911776,-9.5501076048,2.905228149600001,1.62259694,1.98834805,-2.5991528,,,
imu,510.495155,-0.28412258,-9.5698466472,2.905228149600001,1.43567419,1.78647148,-2.53186061,,,
imu,510.503956,-0.2847207328,-9.593174606400002,2.9142004416,1.47305874,1.62945637,-2.39727623,,,
imu,510.512757,-0.2883096496000001,-9.595567217600001,2.9034336912,1.17398234,1.5023489,-2.50942988,,,
imu,510.521238,-0.2895059552,-9.620091482400001,2.9112096776,0.7253677399999999,1.43505671,-2.53186061,,,
imu,510.529719,-0.3152265256,-9.614708107200002,2.9159949,0.56835263,1.36028761,-2.68139881,,,
imu,510.538201,-0.3307784984000001,-9.596165370400001,2.9165930528,0.08235347999999998,1.09859576,-2.77112173,,,
imu,510.546682,-0.3553027632,-9.5812115504,2.9046299968,-0.09709236,1.1285034,-2.78607555,,,
imu,510.555163,-0.3582935272000001,-9.5740337168,2.9159949,-0.30644584,1.48739508,-2.83841392,,,
imu,510.563645,-0.3750418056000001,-9.579417092000002,2.9124059832,-0.59056842,1.62197946,-3.11505959,,,
imu,510.572126,-0.3876030144000001,-9.577024480800002,2.904031844000001,-0.71767589,1.91357895,-3.41413599,,,
imu,509.2864,,,,,,,-89.1491924,172.2740796,109.6267744
imu,509.387963,,,,,,,-89.4421652,172.4327732,109.8709184
imu,509.490532,,,,,,,-88.7951836,172.1886292,109.9441616
imu,509.591088,,,,,,,-86.54905880000001,172.542638,109.4436664
imu,509.69265,,,,,,,-88.92946280000001,172.0299356,110.4934856
imu,509.794213,,,,,,,-86.78099560000001,171.321918,108.2229464
imu,510.699346,-0.3176191368,-9.447823476,2.9722212632,-1.87659694,1.65936401,-2.86832156,,,
imu,510.707828,-0.3289840400000001,-9.4316733504,2.9746138744,-1.71210492,1.56216418,-3.00290594,,,
imu,510.716309,-0.331974804,-9.440645642400002,2.979997249600001,-1.40555161,1.62197946,-3.18235178,,,
imu,510.724771,-0.3493212352000001,-9.447823476,2.9943529168,-1.37564397,1.68179474,-3.3468438,,,
imu,510.733233,-0.3654713608,-9.453805004000001,3.0111011952,-1.43545925,1.83133294,-3.54124346,,,
imu,510.741696,-0.3822196392,-9.4663662128,3.0230642512,-1.41302852,1.86124058,-3.7206893,,,
imu,510.750158,-0.3810233336,-9.489096019200002,3.0469903632,-1.30835178,1.97339423,-3.89265823,,,
imu,510.75862,-0.3893974728000001,-9.513022131200001,3.0523737384,-1.33078251,2.18274771,-4.04967334,,,
imu,510.767083,-0.3852104032000001,-9.520199964800002,3.065533100000001,-1.62985891,2.3995781,-4.079580979999999,,,
imu,510.775545,-0.3756399584,-9.52558334,3.0852721424,-1.73453565,2.71360832,-4.13191935,,,
imu,510.784007,-0.3786307224000001,-9.527377798400002,3.098431504000001,-1.9214584,2.86314652,-4.21416536,,,
imu,510.792469,-0.385808556,-9.527975951200002,3.101422268000001,-2.13081188,3.12483837,-4.22911918,,,
imu,510.800932,-0.3929863896,-9.5327611736,3.1091982544,-2.42241137,3.25194584,-4.244073,,,
imu,510.809394,-0.4061457512000001,-9.532163020800002,3.123553921600001,-2.61681103,3.31923803,-4.21416536,,,
imu,510.817856,-0.4121272792,-9.5291722568,3.128339144,-2.65419558,3.75289881,-4.17678081,,,
imu,510.826318,-0.4222958768,-9.520798117600002,3.1247502272,-2.97570271,4.0444983,-4.22911918,,,
imu,510.834781,-0.442633072,-9.495675700000001,3.126544685600001,-3.028041079999999,4.388436159999999,-4.27398064,,,
imu,510.843243,-0.481513004,-9.493283088800002,3.154657867200001,-3.17010237,4.90434295,-4.28145755,,,
imu,510.851705,-0.5215892416000001,-9.5172092008,3.1666209232,-3.44674804,5.34548064,-4.47585721,,,
imu,510.860168,-0.5963583416000001,-9.565061424800001,3.200715632800001,-3.7159168,5.79409524,-4.89456417,,,
imu,510.86863,-0.6603606912000002,-9.565061424800001,3.2025100912,-3.99256247,6.76609354,-5.350655679999999,,,
imu,510.877092,-0.7321390272000001,-9.584800467200001,3.198921174400001,-4.321546509999999,8.06707588,-5.851608649999999,,,
imu,510.885554,-0.8457880592000001,-9.609922884800001,3.2413900232,-4.82997639,9.599842429999999,-6.54696128,,,
imu,510.894017,-0.9085941032000001,-9.6523917336,3.274288427200001,-5.50289829,11.38682392,-7.26474464,,,
imu,510.902479,-0.9648204664000001,-9.694860582400002,3.249166009600001,-6.527234959999999,13.52522018,-8.01243564,,,
imu,510.910941,-0.9977188704000002,-9.678112304,3.2222491336,-7.731017469999999,16.10475413,-8.894711019999999,,,
imu,510.919403,-1.0162616072,-9.644017594400001,3.2096879248,-8.81516942,18.88616465,-10.29289319,,,
imu,510.927867,-1.007887468,-9.6051376624,3.173200604000001,-9.697444800000001,21.59280607,-11.54901407,,,
imu,510.93633,-0.9588389384,-9.562668813600002,3.142694811200001,-10.39279743,24.14243238,-12.60325838,,,
imu,510.944794,-0.8912476720000001,-9.506442450400002,3.131329908000001,-10.67692001,26.61728959,-13.24627264,,,
imu,510.953258,-0.8248527112,-9.454403156800002,3.136115130400001,-10.96104259,28.80054731,-14.05377892,,,
imu,510.961721,-0.771617112,-9.425691822400001,3.154657867200001,-10.82645821,30.6622979,-14.66688554,,,
imu,510.970185,-0.70282954,-9.377839598400001,3.149872644800001,-10.84888894,32.04552625,-15.19026924,,,
imu,510.978648,-0.6424161072,-9.348530111200002,3.1438911168,-10.54981254,33.24930876,-15.3846689,,,
imu,510.987112,-0.6059287864000001,-9.353913486400002,3.182172896,-10.20587468,34.34841453,-15.81085277,,,
imu,510.995575,-0.5395338256000001,-9.3419504304,3.2013137856,-9.854459910000001,35.08115171,-15.78094513,,,
imu,511.004039,-0.4892889904,-9.357502403200002,3.2455770928,-9.56286042,35.76155052,-15.44448418,,,
imu,511.012502,-0.4569887392,-9.361689472800002,3.268905052,-9.29369166,35.96342709,-15.5342071,,,
imu,511.020966,-0.415716196,-9.390998960000001,3.283858872000001,-9.099292,35.90361180999999,-15.47439182,,,
imu,511.029429,-0.3774344168000001,-9.3652783896,3.282064413600001,-9.06190745,35.95595017999999,-15.51925328,,,
imu,511.037893,-0.3068523864000001,-9.350324569600001,3.300607150400001,-9.08433818,35.90361180999999,-15.36223817,,,
imu,511.046357,-0.2530186344000001,-9.3126409432,3.3083831368,-8.59833903,35.71668906,-14.98839267,,,
imu,511.05482,-0.1848292152,-9.3060612624,3.330514790400001,-8.28430881,35.20825918,-14.74913155,,,
imu,511.063284,-0.11963056,-9.2851259144,3.3394870824,-7.64129455,34.45309127,-14.37528605,,,
imu,511.071747,-0.05742266880000001,-9.259405344000001,3.363413194400001,-7.23754141,33.26426258,-14.05377892,,,
imu,511.080211,0.004785222400000001,-9.24146076,3.376572556000001,-6.58705024,31.55205019,-13.60516432,,,
imu,511.088674,0.06160973840000001,-9.230694009600002,3.403489432,-6.123481819999999,29.98189909,-13.19393427,,,
imu,511.097138,0.09749890640000002,-9.2432552184,3.432798919200001,-5.45055992,28.12762541,-12.3939049,,,
imu,511.105536,0.13458438,-9.252227510400001,3.484240060000001,-4.867360939999999,26.00418297,-11.37704514,,,
imu,511.113999,0.1303973104,-9.247442288000002,3.497997574400001,-4.515946169999999,23.80597143,-10.42000066,,,
imu,511.122463,0.1244157824,-9.245647829600001,3.529699672800001,-3.99256247,21.55542152,-9.50034073,,,
imu,511.131015,0.1082656568,-9.24146076,3.549438715200001,-3.78320899,19.30487161,-8.5806808,,,
imu,511.139568,0.09570444800000001,-9.238469996000001,3.5614017712,-3.4168404,17.41321338,-7.43671357,,,
imu,511.14812,0.08852661440000001,-9.218132800800001,3.575159285600001,-3.16262546,15.49164751,-6.42733072,,,
imu,511.156673,0.06579680800000001,-9.212151272800002,3.5883186472,-2.87850288,13.64485074,-5.74693191,,,
imu,511.165225,0.04545961280000001,-9.2091605088,3.5883186472,-2.42241137,11.76066942,-4.96185636,,,
imu,511.173778,0.0101685976,-9.207366050400001,3.5943001752,-1.9962275,9.98116484,-4.35622665,,,
imu,511.182331,0.0,-9.201384522400001,3.607459536800001,-1.59995127,8.20166026,-3.92256587,,,
imu,511.190883,-0.0251224176,-9.228301398400001,3.627796732000001,-1.19619813,6.601601519999999,-3.45899745,,,
imu,511.199436,-0.0430670016,-9.251629357600002,3.6325819544,-0.8522602699999999,4.95668132,-3.03281358,,,
imu,511.207988,-0.07118018320000001,-9.260601649600002,3.6325819544,-0.38121494,3.72299117,-2.80850628,,,
imu,511.216541,-0.1244157824,-9.281536997600002,3.651722844000001,-0.2017691,2.51920866,-2.68139881,,,
imu,511.225093,-0.1549215752,-9.291107442400001,3.662489594400001,-0.06718472,1.24065705,-2.58419898,,,
imu,511.233646,-0.200381188,-9.289312984,3.6589006776,-0.01484635000000001,0.2237972899999998,-2.43466078,,,
imu,511.242198,-0.2464389536,-9.286920372800001,3.6433487048,0.08235347999999998,-0.4790322499999999,-2.29259949,,,
imu,511.250751,-0.2685706072,-9.288116678400002,3.633180107200001,0.05992275,-1.05475432,-2.23278421,,,
imu,511.259303,-0.2990764,-9.28632222,3.626002273600001,-0.01484635000000001,-1.44355364,-2.20287657,,,
imu,511.267856,-0.3343674152,-9.271368400000002,3.6254041208,0.20198404,-1.66038403,-2.09819983,,,
imu,511.276409,-0.3570972216000001,-9.263592413600001,3.624805968,0.1720764,-1.70524549,-2.03838455,,,
imu,511.284961,-0.3642750552,-9.257012732800002,3.6152355232,0.29918387,-1.72019931,-1.98604618,,,
imu,511.293514,-0.3684621248000001,-9.245647829600001,3.605066925600001,0.35152224,-1.79496841,-2.11315365,,,
imu,511.302066,-0.3750418056000001,-9.247442288000002,3.607459536800001,0.4861066199999999,-1.89216824,-2.18792275,,,
imu,511.310619,-0.3750418056000001,-9.267779483200002,3.6230115096,0.620691,-1.92207588,-2.2253073,,,
imu,511.319171,-0.3774344168000001,-9.287518525600001,3.6092539952,0.7702292,-1.77253768,-2.05333837,,,
imu,511.327724,-0.382817792,-9.304266804000001,3.6200207456,0.94219813,-1.79496841,-1.88884635,,,
imu,511.336445,-0.376836264,-9.315631707200001,3.623609662400001,1.12912088,-1.66786094,-1.76173888,,,
imu,511.345167,-0.367863972,-9.3138372488,3.609852148000001,1.03939796,-1.69029167,-1.78416961,,,
imu,511.353888,-0.3487230824000001,-9.309052026400002,3.612842912,1.11416706,-1.65290712,-1.76173888,,,
imu,511.362609,-0.34393786,-9.2899111368,3.5996835504,1.45062801,-1.73515313,-1.46266248,,,
imu,511.371331,-0.3212080536,-9.289312984,3.5871223416,1.65998149,-1.73515313,-1.23087827,,,
imu,511.380052,-0.3116376088,-9.279144386400002,3.565588840800001,1.73475059,-1.88469133,-1.19349372,,,
imu,511.388774,-0.290104108,-9.262994260800001,3.55900916,2.13102682,-2.10152172,-1.01404788,,,
imu,511.397495,-0.2727576768,-9.259405344000001,3.563196229600001,2.24318047,-2.52022868,-1.06638625,,,
imu,511.406216,-0.2769447464000001,-9.252227510400001,3.546447951200001,2.55721069,-2.90155109,-1.1037708,,,
imu,511.414938,-0.2691687600000001,-9.249834899200001,3.5302978256,2.80394872,-3.25296586,-1.21592445,,,
imu,511.423659,-0.2506260232,-9.252825663200001,3.5279052144,3.05816366,-3.64924209,-1.26078591,,,
imu,511.432381,-0.2320832864,-9.2480404408,3.5135495472,3.282470959999999,-4.14271815,-1.32060119,,,
imu,509.895775,,,,,,,-89.3323004,172.237458,110.2249272
imu,509.997338,,,,,,,-88.23365240000001,170.8824588,108.1008744
imu,510.0989,,,,,,,-88.8684268,171.810206,110.1150624
imu,510.208275,,,,,,,-88.99049880000001,171.8956564,110.2493416
imu,510.30996,,,,,,,-88.88063399999999,171.505026,110.1394768
imu,510.4114,,,,,,,-88.575454,171.4684044,110.3714136
imu,510.521874,,,,,,,-88.6242828,171.6148908,110.8597016
imu,510.622368,,,,,,,-86.95189640000001,170.8702516,109.3948376
imu,511.519595,-0.1064711984,-9.377839598400001,3.5069698664,4.34419218,-13.38417891,1.62530135,,,
imu,511.528316,-0.116639796,-9.395186029600001,3.4878289768,4.0600696,-14.50571541,1.9617623,,,
imu,511.536796,-0.1561178808,-9.391597112800001,3.4878289768,3.82080848,-15.58986736,2.23093106,,,
imu,511.545276,-0.1770532288,-9.390998960000001,3.4944086576,3.731085559999999,-16.47214274,2.51505364,,,
imu,511.553756,-0.212344244,-9.3802322096,3.4645010176,3.7609932,-17.30955666,2.82160695,,,
imu,511.562236,-0.2584020096,-9.338959666400001,3.436387836,3.78342393,-18.00490929,3.05339116,,,
imu,511.570716,-0.3098431504,-9.322211388000001,3.433397072000001,4.01520814,-18.4610008,3.46462121,,,
imu,511.579196,-0.3421434016,-9.338959666400001,3.4280136968,4.00773123,-18.81241557,3.80855907,,,
imu,511.587676,-0.3923882368,-9.364082084000001,3.4375841416,4.18717707,-18.89466158,4.10763547,,,
imu,511.596157,-0.4288755576000001,-9.3862137376,3.4375841416,4.36662291,-18.87970776,4.23474294,,,
imu,511.604637,-0.4569887392,-9.384419279200001,3.430406308000001,4.15726943,-18.78998484,4.227266029999999,,,
imu,511.613117,-0.4892889904,-9.378437751200002,3.447154586400001,4.09745415,-18.79746175,4.24221985,,,
imu,511.621597,-0.517402172,-9.411934308000001,3.447154586400001,4.03016196,-18.33389333,4.055297100000001,,,
imu,511.630077,-0.5162058664000001,-9.444234559200002,3.4417712112,3.81333157,-17.82546345,4.1300662,,,
imu,511.638557,-0.5275707696,-9.437056725600002,3.426219238400001,3.37967079,-17.48152559,4.19735839,,,
imu,511.647037,-0.5544876456000001,-9.443038253600001,3.4280136968,3.11050203,-16.8160806,4.1300662,,,
imu,511.655517,-0.5497024232000001,-9.443038253600001,3.42442478,2.93105619,-16.21045089,4.01791255,,,
imu,511.663997,-0.5574784096000001,-9.426888128000002,3.3987042096,2.72917962,-15.5450059,3.89080508,,,
imu,511.672477,-0.5526931872,-9.429280739200001,3.3927226816,2.24318047,-15.00666838,3.59920559,,,
imu,511.680957,-0.5628617848,-9.416121377600001,3.376572556000001,1.95158098,-14.30383884,3.44966739,,,
imu,511.689437,-0.565254396,-9.403560168800002,3.370591028000001,1.93662716,-13.61596312,3.17302172,,,
imu,511.697917,-0.5694414656000001,-9.4071490856,3.3640113472,1.9665348,-12.89817976,3.01600661,,,
imu,511.706397,-0.5646562432000001,-9.401765710400001,3.356833513600001,1.80204278,-12.20282713,2.74683785,,,
imu,511.714878,-0.5467116592000001,-9.399971252000002,3.367600264,1.83942733,-11.57476669,2.22345415,,,
imu,511.723358,-0.5598710208000001,-9.409541696800002,3.3580298192,1.83195042,-10.78969114,2.01410067,,,
imu,511.731838,-0.5215892416000001,-9.412532460800001,3.361618736,1.71979677,-10.12424615,1.8122241,,,
imu,511.740299,-0.5281689224000001,-9.406550932800002,3.368198416800001,1.86933497,-9.35412442,1.61782444,,,
imu,511.74876,-0.5371412144000001,-9.409541696800002,3.384348542400001,1.60764312,-8.7410178,1.2888404,,,
imu,511.757221,-0.5437208952000001,-9.4137287664,3.368198416800001,1.40576655,-8.10548045,1.03462546,,,
imu,511.765682,-0.5227855472,-9.419112141600001,3.374778097600001,1.26370526,-7.305451079999999,0.8850872600000002,,,
imu,511.774143,-0.5185984776000001,-9.4005694048,3.3646095,1.23379762,-6.632529180000001,0.7205952400000002,,,
imu,511.782604,-0.5197947832,-9.399971252000002,3.3592261248,1.13659779,-6.019422560000001,0.5187186700000002,,,
imu,511.791065,-0.5030465048,-9.384419279200001,3.3592261248,1.02444414,-5.316593019999999,0.4289957499999999,,,
imu,511.799526,-0.4982612824000001,-9.393391571200002,3.3502538328,1.13659779,-4.43431764,0.4065650199999999,,,
imu,511.807987,-0.4767277816000001,-9.3993730992,3.361020583200001,1.28613599,-3.8062572,0.2345960900000001,,,
imu,511.816448,-0.4581850448000001,-9.388606348800002,3.365207652800001,1.24875144,-3.32025805,0.02524261000000028,,,
imu,511.824909,-0.4468201416000001,-9.394587876800001,3.3670021112,1.18145925,-2.78192053,-0.11681868,,,
imu,511.83337,-0.4402404608,-9.4137287664,3.368198416800001,1.22632071,-2.2361061,-0.18411087,,,
imu,511.841831,-0.4276792520000001,-9.411934308000001,3.373581792,1.03939796,-1.81739914,-0.46075654,,,
imu,511.850292,-0.4013605288,-9.406550932800002,3.3849466952,0.9870595899999999,-1.38373836,-0.7000176599999999,,,
imu,511.858753,-0.4061457512000001,-9.4244955168,3.3921245288,0.8375213899999999,-1.09213887,-0.68506384,,,
imu,511.867214,-0.3935845424,-9.4346641144,3.386143000800001,0.53844499,-0.6061397200000003,-0.91684805,,,
imu,511.875675,-0.3923882368,-9.4215047528,3.3897319176,0.6132140899999999,-0.3294940500000001,-1.13367844,,,
imu,511.884136,-0.3905937784,-9.4077472384,3.389133764800001,0.49358353,-0.02294074000000013,-1.38041647,,,
imu,511.892597,-0.3834159448,-9.401765710400001,3.3909282232,0.29918387,0.3434278499999999,-1.60472377,,,
imu,511.901058,-0.3846122504,-9.3904008072,3.3837503896,0.13469185,0.5303505999999998,-1.82155416,,,
imu,511.909519,-0.3953790008,-9.394587876800001,3.378965167200001,0.02253820000000001,0.7995193599999997,-1.94118472,,,
imu,511.91798,-0.3840140976,-9.389204501600002,3.3831522368,-0.05970781,1.34533379,-2.02343073,,,
imu,511.926441,-0.3720510416,-9.3832229736,3.3867411536,-0.007369440000000005,1.71170238,-2.14306129,,,
imu,511.934902,-0.3983697648000001,-9.385615584800002,3.3849466952,-0.04475399000000001,2.0257326,-2.41970696,,,
imu,511.943368,-0.3911919312,-9.381428515200001,3.3933208344,0.08235347999999998,2.43696265,-2.51690679,,,
imu,511.951834,-0.3804251808,-9.3838211264,3.3927226816,0.23189168,2.89305416,-2.51690679,,,
imu,511.9603,-0.3786307224000001,-9.370063612000001,3.390330070400001,0.17955331,3.18465365,-2.5991528,,,
imu,511.968766,-0.3690602776000001,-9.3694654592,3.385544848,-0.03727708,3.38653022,-2.81598319,,,
imu,511.977232,-0.3582935272000001,-9.3718580704,3.3831522368,-0.02232326000000001,3.79028336,-2.8234601,,,
imu,511.985698,-0.3475267768,-9.368269153600002,3.391526376000001,0.35152224,4.27628251,-2.76364482,,,
imu,511.994164,-0.331974804,-9.3652783896,3.3897319176,0.35152224,4.47068217,-2.71878336,,,
imu,512.00263,-0.3247969704000001,-9.3718580704,3.386143000800001,0.41133752,4.63517419,-2.72626027,,,
imu,512.011096,-0.3128339144,-9.3868118904,3.406480196,0.15712258,4.717420199999999,-2.94309066,,,
imu,512.019562,-0.3044597752,-9.387410043200001,3.4016949736,0.15712258,4.8669584,-2.91318302,,,
imu,512.028029,-0.2805336632,-9.3802322096,3.398106056800001,0.18703022,5.03145042,-3.01038285,,,
imu,512.036495,-0.2619909264,-9.3688673064,3.4016949736,0.11226112,5.18098862,-2.95804448,,,
imu,512.044961,-0.2470371064,-9.376045140000002,3.4016949736,0.10478421,5.2408039,-3.04029049,,,
imu,512.053427,-0.23926112,-9.367671000800001,3.4022931264,0.2468455,5.21089626,-2.8982292,,,
imu,512.061893,-0.2189239248,-9.358100556000002,3.397507904,0.25432241,4.8669584,-2.85336774,,,
imu,512.070359,-0.2075590216,-9.3413522776,3.3933208344,0.42629134,4.58283582,-2.8234601,,,
imu,512.078825,-0.2051664104,-9.3443430416,3.413658029600001,0.41881443,4.44825144,-2.95056757,,,
imu,512.087291,-0.212344244,-9.359895014400001,3.4178450992,0.41133752,4.2688056,-2.87579847,,,
imu,512.095757,-0.2087553272,-9.382026668000002,3.415452488,0.45619898,4.0444983,-2.8234601,,,
imu,512.104223,-0.2015774936,-9.382026668000002,3.412461724000001,0.45619898,3.77532954,-2.78607555,,,
imu,512.112689,-0.2117460912,-9.372456223200002,3.417246946400001,0.4861066199999999,3.55102224,-2.76364482,,,
imu,512.121155,-0.2165313136,-9.373054376,3.4070783488,0.71789083,3.39400713,-2.63653735,,,
imu,512.129622,-0.2159331608,-9.377241445600001,3.414854335200001,0.79265993,3.13231528,-2.53186061,,,
imu,512.138088,-0.2117460912,-9.3754469872,3.416648793600001,0.620691,2.95286944,-2.3748455,,,
imu,512.146549,-0.2081571744,-9.3652783896,3.4405749056,0.65807555,2.85566961,-2.09819983,,,
imu,512.15501,-0.206362716,-9.373054376,3.4256210856,1.01696723,2.85566961,-1.90380017,,,
imu,512.163471,-0.1848292152,-9.3832229736,3.3969097512,0.91229049,2.60145467,-1.88136944,,,
imu,512.171932,-0.1902125904,-9.394587876800001,3.4010968208,0.80013684,2.55659321,-1.72435433,,,
imu,512.180393,-0.19439966,-9.3688673064,3.403489432,0.81509066,2.36219355,-1.84398489,,,
imu,512.188854,-0.1573141864,-9.334174444000002,3.404087584800001,0.67302937,2.09302479,-1.89632326,,,
imu,512.197427,-0.1662864784,-9.339557819200001,3.393918987200001,0.8823828499999999,1.82385603,-1.67949287,,,
imu,512.205888,-0.170473548,-9.360493167200001,3.372385486400001,1.03192105,1.68179474,-1.54490849,,,
imu,512.214349,-0.1728661592,-9.338959666400001,3.378965167200001,0.9646288599999999,1.44253362,-1.70940051,,,
imu,512.22281,-0.1668846312,-9.346137500000001,3.3879374592,1.16650543,1.33785688,-1.66453905,,,
imu,512.231271,-0.1758569232,-9.3664746952,3.3711891808,1.30108981,1.2780416,-1.57481613,,,
imu,512.239732,-0.1662864784,-9.363483931200001,3.3831522368,1.368382,0.9565344699999998,-1.6271545,,,
imu,512.248193,-0.1746606176,-9.361091320000002,3.3909282232,1.37585891,0.7770886299999997,-1.74678506,,,
imu,512.256654,-0.1836329096,-9.3622876256,3.384348542400001,1.46558183,0.6574580699999997,-1.60472377,,,
imu,512.265115,-0.1848292152,-9.3694654592,3.3807596256,1.65250458,0.5752120599999997,-1.7766927,,,
imu,512.273576,-0.2009793408,-9.3652783896,3.370591028000001,1.71231986,0.4481045899999998,-1.82155416,,,
imu,512.282037,-0.2009793408,-9.368269153600002,3.384348542400001,1.77961205,0.3733354899999997,-1.93370781,,,
imu,512.290498,-0.2147368552,-9.3664746952,3.3771707088,1.78708896,0.50044296,-1.95613854,,,
imu,510.724011,,,,,,,-89.11257080000001,172.1520076,110.3103776
imu,510.825543,,,,,,,-86.7565812,171.4195756,107.954388
imu,510.927136,,,,,,,-89.17360679999999,172.2740796,109.663396
imu,511.028698,,,,,,,-90.345498,171.505026,106.489524
imu,511.130261,,,,,,,-91.4075244,172.1398004,107.832316
imu,511.237316,,,,,,,-91.9446412,172.4083588,107.1120912
imu,511.333386,,,,,,,-91.24883080000001,172.96989,107.0876768
imu,511.435162,,,,,,,-91.22441640000001,172.5182236,107.221956
imu,512.332803,-0.233279592,-9.394587876800001,3.3520482912,1.97401171,1.19579559,-2.96552139,,,
imu,512.341264,-0.2320832864,-9.378437751200002,3.3598242776,1.88428879,1.42010289,-3.24964397,,,
imu,512.350083,-0.2476352592,-9.395784182400002,3.377768861600001,2.07868845,1.69674856,-3.30198234,,,
imu,512.358903,-0.245242648,-9.4250936696,3.3658058056,1.94410407,1.76404075,-3.43656672,,,
imu,512.367722,-0.2326814392,-9.429280739200001,3.3687965696,1.67493531,1.99582496,-3.74312003,,,
imu,512.376542,-0.2284943696,-9.406550932800002,3.355637208000001,1.45810492,2.23508608,-4.124442439999999,,,
imu,512.385362,-0.2219146888,-9.393391571200002,3.3664039584,1.45810492,2.31733209,-4.11696553,,,
imu,512.394181,-0.2290925224000001,-9.389204501600002,3.3562353608,1.19641307,2.46687029,-4.21416536,,,
imu,512.403001,-0.2069608688,-9.399971252000002,3.3532445968,1.2188438,2.51920866,-4.06462716,,,
imu,512.41182,-0.1979885768,-9.387410043200001,3.341879693600001,1.38333582,2.6238854,-4.00481188,,,
imu,512.42064,-0.1890162848,-9.3694654592,3.347263068800001,1.10669015,2.63883922,-3.93004278,,,
imu,512.429459,-0.1650901728,-9.382624820800002,3.3424778464,1.23379762,2.57154703,-4.04967334,,,
imu,512.438279,-0.1662864784,-9.379035904000002,3.331711096,1.30108981,2.51920866,-3.98238115,,,
imu,512.447099,-0.1668846312,-9.3975786408,3.33470186,1.56278166,2.35471664,-3.95247351,,,
imu,512.455918,-0.1662864784,-9.3927934184,3.3329074016,1.58521239,2.16779389,-3.8702275,,,
imu,512.464738,-0.1597067976,-9.384419279200001,3.335898165600001,1.68988913,1.89114822,-4.04967334,,,
imu,512.473557,-0.1579123392,-9.388008196000001,3.3275240264,1.75718132,1.71170238,-4.00481188,,,
imu,512.482377,-0.1620994088,-9.391597112800001,3.31974804,1.70484295,1.47244126,-3.9449966,,,
imu,512.491197,-0.167482784,-9.387410043200001,3.3161591232,1.78708896,1.32290306,-3.90013514,,,
imu,512.500016,-0.1603049504,-9.384419279200001,3.3131683592,1.80951969,1.11354958,-4.00481188,,,
imu,512.508836,-0.1680809368,-9.3868118904,3.3000089976,1.8917657,0.9714882899999999,-3.8702275,,,
imu,512.517655,-0.1746606176,-9.395186029600001,3.310775748,1.91419643,0.7546578999999998,-3.90013514,,,
imu,512.526475,-0.1967922712,-9.401167557600001,3.3095794424,2.13850373,0.58268897,-3.82536604,,,
imu,512.535294,-0.2135405496,-9.401167557600001,3.3095794424,1.98148862,0.35838167,-3.93751969,,,
imu,512.544114,-0.2261017584,-9.405354627200001,3.314364664800001,2.08616536,0.3658585799999998,-3.90761205,,,
imu,512.552593,-0.2470371064,-9.409541696800002,3.316757276000001,2.08616536,0.41819695,-3.7954584,,,
imu,512.561072,-0.2691687600000001,-9.4316733504,3.3155609704,1.82447351,0.41819695,-3.78798149,,,
imu,512.56955,-0.2739539824000001,-9.426888128000002,3.313766512,1.74970441,0.47801223,-3.71321239,,,
imu,512.578029,-0.2847207328,-9.405952780000002,3.3155609704,1.75718132,0.5677351499999999,-3.66087402,,,
imu,512.586508,-0.2847207328,-9.417915836,3.30479422,1.84690424,0.7172733499999997,-3.40665908,,,
imu,512.594987,-0.3038616224,-9.409541696800002,3.3024016088,1.39828964,0.8742884599999998,-3.4216129,,,
imu,512.603466,-0.3116376088,-9.423299211200002,3.3065886784,1.5179202,1.0537343,-3.35432071,,,
imu,512.611944,-0.3032634696000001,-9.4173176832,3.3024016088,1.46558183,1.30794924,-3.26459779,,,
imu,512.620423,-0.2996745528,-9.403560168800002,3.3065886784,1.42819728,1.49487199,-3.18982869,,,
imu,512.628902,-0.2918985664000001,-9.3993730992,3.2952237752,1.45810492,1.62945637,-3.17487487,,,
imu,512.637381,-0.28412258,-9.4071490856,3.2922330112,1.42072037,1.74161002,-3.36179762,,,
imu,512.64586,-0.2823281216,-9.416121377600001,3.292831164,1.45810492,1.86871749,-3.20478251,,,
imu,512.654338,-0.2787392048,-9.414925072,3.3012053032,1.46558183,1.9509635,-3.16739796,,,
imu,512.662817,-0.2769447464000001,-9.423299211200002,3.314962817600001,1.52539711,2.01825569,-3.10758268,,,
imu,512.671296,-0.2703650656,-9.438851184,3.2922330112,1.57025857,1.98087114,-3.13001341,,,
imu,512.679775,-0.2613927736,-9.440047489600001,3.3041960672,1.54782784,2.07807097,-3.05524431,,,
imu,512.688254,-0.2619909264,-9.440645642400002,3.301803456,1.46558183,2.06311715,-3.22721324,,,
imu,512.696732,-0.2560093984,-9.426888128000002,3.30479422,1.22632071,2.00330187,-3.37675144,,,
imu,512.705211,-0.2649816904,-9.4215047528,3.302999761600001,1.12912088,1.9509635,-3.47395127,,,
imu,512.71369,-0.2643835376,-9.431075197600002,3.293429316800001,1.24127453,1.83880985,-3.39170526,,,
imu,512.722169,-0.2619909264,-9.4244955168,3.2922330112,1.16650543,1.7266562,-3.54872037,,,
imu,512.730648,-0.2637853848,-9.4250936696,3.298812692000001,1.09173633,1.6518871,-3.56367419,,,
imu,512.739126,-0.2679724544000001,-9.4137287664,3.2802699552,1.09173633,1.68927165,-3.59358183,,,
imu,512.747605,-0.257205704,-9.419710294400002,3.2772791912,1.09173633,1.71917929,-3.56367419,,,
imu,512.756064,-0.2470371064,-9.4107380024,3.2671105936,1.03192105,1.68927165,-3.63096638,,,
imu,512.764522,-0.2548130928,-9.420906600000002,3.27488658,1.0693056,1.58459491,-3.48142818,,,
imu,512.772981,-0.2458408008,-9.4280844336,3.2772791912,1.08425942,1.61450255,-3.55619728,,,
imu,512.781439,-0.2410555784,-9.433467808800001,3.2790736496,1.15902852,1.62945637,-3.41413599,,,
imu,512.789898,-0.245242648,-9.438851184,3.282064413600001,1.13659779,1.56964109,-3.44404363,,,
imu,512.798356,-0.2494297176,-9.439449336800001,3.2802699552,0.9646288599999999,1.44253362,-3.496382,,,
imu,512.806814,-0.2416537312,-9.437654878400002,3.2736902744,0.8823828499999999,1.37524143,-3.51133582,,,
imu,512.815273,-0.2356722032,-9.4346641144,3.25993276,0.80013684,1.41262598,-3.48142818,,,
imu,512.823731,-0.2386629672,-9.422102905600001,3.256941996000001,0.63564482,1.33037997,-3.30945925,,,
imu,512.83219,-0.245242648,-9.432869656000001,3.268905052,0.68798319,1.40514907,-3.17487487,,,
imu,512.840648,-0.2386629672,-9.4382530312,3.2641198296,0.56835263,1.4275798,-3.13001341,,,
imu,512.849107,-0.2416537312,-9.429280739200001,3.2665124408,0.60573718,1.47244126,-3.07767504,,,
imu,512.857565,-0.2326814392,-9.4280844336,3.2665124408,0.38142988,1.52477963,-3.1225365,,,
imu,512.866024,-0.242251884,-9.432869656000001,3.2623253712,0.1720764,1.5023489,-3.10758268,,,
imu,512.874482,-0.2374666616,-9.447823476,3.277877344000001,0.05244583999999999,1.66684092,-2.95056757,,,
imu,512.882941,-0.230288828,-9.475936657600002,3.2850551776,0.14216876,1.74908693,-2.85336774,,,
imu,512.891399,-0.2374666616,-9.462777296000002,3.292831164,-0.21672292,1.68179474,-2.8234601,,,
imu,512.899857,-0.2278962168,-9.460982837600001,3.296420080800001,-0.36626112,1.78647148,-2.60662971,,,
imu,512.908316,-0.227298064,-9.448421628800002,3.289242247200001,-0.35878421,1.84628676,-2.41223005,,,
imu,512.916774,-0.2249054528,-9.437056725600002,3.289242247200001,-0.41112258,1.80890221,-2.10567674,,,
imu,512.925233,-0.218325772,-9.4286825864,3.2832607192,-0.36626112,1.9509635,-1.99352309,,,
imu,512.933691,-0.2255036056,-9.3975786408,3.27488658,-0.26906129,2.04068642,-1.88136944,,,
imu,512.94215,-0.2165313136,-9.3832229736,3.282064413600001,-0.04475399000000001,2.14536316,-1.83650798,,,
imu,512.950608,-0.2057645632,-9.382026668000002,3.2826625664,0.12721494,2.1005017,-1.89632326,,,
imu,512.959126,-0.1979885768,-9.371259917600002,3.2766810384,0.0001074699999999984,1.94348659,-2.11315365,,,
imu,512.967645,-0.2057645632,-9.368269153600002,3.265914288000001,0.14964567,1.95844041,-2.43466078,,,
imu,512.976163,-0.212344244,-9.355109792000002,3.2677087464,0.41881443,1.88367131,-2.73373718,,,
imu,512.984681,-0.2141387024,-9.3658765424,3.27488658,0.57582954,1.91357895,-2.94309066,,,
imu,512.993199,-0.218325772,-9.3718580704,3.2677087464,0.7702292,1.82385603,-2.95804448,,,
imu,513.001717,-0.2111479384,-9.390998960000001,3.286849636000001,0.8524752099999999,1.89862513,-3.25712088,,,
imu,513.010236,-0.2147368552,-9.401765710400001,3.286849636000001,0.7104139199999999,1.83133294,-3.54872037,,,
imu,513.018754,-0.2201202304,-9.405952780000002,3.295821928000001,0.67302937,2.00330187,-3.50385891,,,
imu,513.027272,-0.2237091472,-9.4173176832,3.2970182336,0.68050628,1.95844041,-3.5711511,,,
imu,513.03579,-0.2249054528,-9.4316733504,3.3089812896,0.56835263,1.91357895,-3.63096638,,,
imu,513.044309,-0.2344758976,-9.429280739200001,3.3161591232,0.3963837,1.95844041,-3.61601256,,,
imu,513.052827,-0.230288828,-9.438851184,3.3161591232,0.30666078,1.96591732,-3.5711511,,,
imu,513.061345,-0.2344758976,-9.4424401008,3.3161591232,0.23189168,1.98087114,-3.63844329,,,
imu,513.069863,-0.2416537312,-9.438851184,3.3245332624,0.21693786,1.9509635,-3.66087402,,,
imu,513.078381,-0.2440463424,-9.4496179344,3.325729568,-0.02980017,1.86871749,-3.61601256,,,
imu,513.0869,-0.2434481896,-9.443636406400001,3.337692624000001,0.0001074699999999984,1.89862513,-3.47395127,,,
imu,511.536511,,,,,,,-91.61504680000002,173.3238988,107.3318208
imu,511.638073,,,,,,,-90.5408132,172.3961516,107.954388
imu,511.739636,,,,,,,-87.2204548,171.6759268,108.2473608
imu,511.841198,,,,,,,-89.74734520000001,172.3717372,108.9553784
imu,511.942761,,,,,,,-86.97631080000001,171.5416476,106.489524
imu,512.044323,,,,,,,-89.2590572,172.786782,110.1150624
imu,512.145947,,,,,,,-89.28347160000001,172.1886292,106.977812
imu,512.24815,,,,,,,-89.3323004,172.420566,110.3714136
imu,513.155045,-0.2703650656,-9.3718580704,3.3364963184,-0.14195382,1.8014253,-3.2720747,,,
imu,513.163458,-0.2930948720000001,-9.3628857784,3.333505554400001,-0.127,1.98087114,-3.15992105,,,
imu,513.171871,-0.2924967192,-9.377241445600001,3.340085235200001,-0.127,2.25751681,-3.06272122,,,
imu,513.180283,-0.2930948720000001,-9.382624820800002,3.3299166376,0.09730729999999999,2.52668557,-2.76364482,,,
imu,513.188696,-0.281131816,-9.3832229736,3.3275240264,0.16459949,2.58650085,-2.64401426,,,
imu,513.197109,-0.2643835376,-9.374848834400002,3.3388889296,0.05244583999999999,2.75099287,-2.72626027,,,
imu,513.205521,-0.248233412,-9.370063612000001,3.3388889296,0.27675314,2.98277708,-2.73373718,,,
imu,513.213934,-0.2368685088,-9.377241445600001,3.316757276000001,0.57582954,3.1472691,-2.62906044,,,
imu,513.222347,-0.230288828,-9.371259917600002,3.3215424984,0.68050628,3.07997691,-2.74121409,,,
imu,513.23076,-0.2326814392,-9.367072848000001,3.320944345600001,0.80013684,3.0725,-2.77112173,,,
imu,513.239172,-0.2284943696,-9.361091320000002,3.3269258736,0.94219813,3.11736146,-2.83093701,,,
imu,513.247585,-0.2159331608,-9.364082084000001,3.335898165600001,1.00201341,3.2220382,-2.84589083,,,
imu,513.255998,-0.2015774936,-9.373054376,3.31974804,1.1440747,3.1472691,-2.92065993,,,
imu,513.26441,-0.200381188,-9.382026668000002,3.3131683592,1.42072037,3.13231528,-2.86832156,,,
imu,513.272823,-0.185427368,-9.374848834400002,3.3191498872,1.57025857,2.98277708,-2.9729983,,,
imu,513.281236,-0.1872218264,-9.3904008072,3.330514790400001,1.52539711,2.91548489,-2.8982292,,,
imu,513.289527,-0.19439966,-9.405354627200001,3.310775748,1.35342818,2.75099287,-2.99542903,,,
imu,513.297939,-0.2027737992,-9.413130613600002,3.316757276000001,1.30856672,2.71360832,-3.01038285,,,
imu,513.306352,-0.2087553272,-9.4071490856,3.331711096,1.33847436,2.64631613,-2.99542903,,,
imu,513.314765,-0.2171294664,-9.4077472384,3.3161591232,1.49548947,2.61640849,-3.00290594,,,
imu,513.323177,-0.2374666616,-9.430477044800002,3.314962817600001,1.35342818,2.61640849,-2.90570611,,,
imu,513.33159,-0.2398592728,-9.427486280800002,3.305392372800001,1.26370526,2.52668557,-2.96552139,,,
imu,513.340003,-0.2470371064,-9.436458572800001,3.313766512,0.8973366700000001,2.63136231,-3.1225365,,,
imu,513.348415,-0.2542149400000001,-9.431075197600002,3.3089812896,1.09173633,2.94539253,-3.00290594,,,
imu,513.356828,-0.2476352592,-9.436458572800001,3.3024016088,1.18893616,3.13979219,-2.8982292,,,
imu,513.36569,-0.2440463424,-9.4280844336,3.2940274696,1.08425942,3.18465365,-3.01785976,,,
imu,513.374552,-0.2428500368,-9.426289975200001,3.2940274696,0.9272443100000001,3.26689966,-2.9729983,,,
imu,513.383414,-0.2338777448,-9.422102905600001,3.2970182336,0.9571519499999999,3.4463455,-3.0477674,,,
imu,513.392276,-0.2225128416,-9.4173176832,3.296420080800001,0.9347212199999999,3.51363769,-3.03281358,,,
imu,513.401138,-0.2237091472,-9.408943544000001,3.296420080800001,0.9197674,3.54354533,-3.01785976,,,
imu,513.41,-0.2141387024,-9.410139849600002,3.300607150400001,0.74779847,3.64074516,-3.07019813,,,
imu,513.418862,-0.2015774936,-9.399971252000002,3.2904385528,0.8973366700000001,3.76037572,-2.98795212,,,
imu,513.427724,-0.1938015072,-9.395784182400002,3.2910367056,0.66555246,3.64822207,-3.09262886,,,
imu,513.436586,-0.191408896,-9.389204501600002,3.291634858400001,0.80761375,3.76037572,-2.89075229,,,
imu,513.445448,-0.1896144376,-9.385017432000001,3.2814662608,1.00201341,3.70056044,-2.95804448,,,
imu,513.45431,-0.1698753952,-9.385017432000001,3.2760828856,1.10669015,3.55849915,-2.91318302,,,
imu,513.463172,-0.167482784,-9.380830362400001,3.2844570248,1.0693056,3.67812971,-2.98047521,,,
imu,513.472035,-0.1692772424,-9.380830362400001,3.279671802400001,1.08425942,3.61831443,-3.06272122,,,
imu,513.480897,-0.1597067976,-9.388008196000001,3.2760828856,1.15902852,3.53606842,-3.01038285,,,
imu,513.489759,-0.1561178808,-9.412532460800001,3.2677087464,1.28613599,3.42391477,-2.9729983,,,
imu,513.498621,-0.140565908,-9.425691822400001,3.2766810384,1.47305874,3.49868387,-3.06272122,,,
imu,513.507483,-0.1537252696,-9.430477044800002,3.2826625664,1.54035093,3.37905331,-3.07019813,,,
imu,513.516345,-0.1638938672,-9.4412437952,3.282064413600001,1.48801256,3.2968073,-3.21225942,,,
imu,513.525207,-0.1561178808,-9.446627170400001,3.2850551776,1.48801256,3.2968073,-3.21973633,,,
imu,513.534069,-0.161501256,-9.450814240000001,3.2832607192,1.39081273,3.28185348,-3.15992105,,,
imu,513.542931,-0.1567160336,-9.437654878400002,3.2790736496,1.04687487,3.1472691,-3.43656672,,,
imu,513.551793,-0.16449202,-9.450216087200001,3.277877344000001,0.8823828499999999,3.13979219,-3.51133582,,,
imu,513.560655,-0.1609031032,-9.450216087200001,3.27488658,0.8524752099999999,3.16222292,-3.31693616,,,
imu,513.569087,-0.1561178808,-9.444234559200002,3.2665124408,0.64312173,3.17717674,-3.33188998,,,
imu,513.577518,-0.1441548248,-9.414326919200002,3.2695032048,0.66555246,3.1472691,-3.43656672,,,
imu,513.58595,-0.1507345056,-9.419710294400002,3.275484732800001,0.6954601,3.10240764,-3.52628964,,,
imu,513.594382,-0.155519728,-9.432869656000001,3.2772791912,0.34404533,3.01268472,-3.66835093,,,
imu,513.602814,-0.1501363528,-9.425691822400001,3.274288427200001,0.30666078,2.96034635,-3.75807385,,,
imu,513.611245,-0.1597067976,-9.437056725600002,3.2874477888,0.16459949,3.02016163,-3.6459202,,,
imu,513.619677,-0.1417622136,-9.457393920800001,3.289242247200001,0.10478421,2.93791562,-3.75059694,,,
imu,513.628109,-0.1357806856,-9.4424401008,3.289242247200001,0.01506129,2.83323888,-3.86275059,,,
imu,513.636541,-0.1274065464,-9.430477044800002,3.282064413600001,0.11226112,2.75846978,-3.97490424,,,
imu,513.644972,-0.1339862272,-9.422701058400001,3.2772791912,0.14216876,2.73603905,-4.07210407,,,
imu,513.653404,-0.1244157824,-9.4077472384,3.260530912800001,0.18703022,2.69117759,-4.07210407,,,
imu,513.661836,-0.1303973104,-9.393989724,3.2695032048,0.3889067899999999,2.57154703,-3.93751969,,,
imu,513.670268,-0.1220231712,-9.385615584800002,3.275484732800001,0.4711528,2.39210119,-3.96742733,,,
imu,513.678699,-0.1268083936,-9.377839598400001,3.2736902744,0.70293701,2.27994754,-3.95247351,,,
imu,513.687131,-0.1357806856,-9.3652783896,3.256941996000001,0.7702292,2.0257326,-4.057150249999999,,,
imu,513.695563,-0.1357806856,-9.367671000800001,3.2557456904,1.12912088,1.95844041,-4.04219643,,,
imu,513.703995,-0.158510492,-9.3862137376,3.2515586208,1.20388998,1.9509635,-4.11696553,,,
imu,513.712426,-0.1656883256,-9.3975786408,3.2437826344,1.07678251,1.8014253,-4.19921154,,,
imu,513.720858,-0.1848292152,-9.402962016000002,3.2557456904,1.19641307,1.65936401,-4.20668845,,,
imu,513.72929,-0.2045682576000001,-9.423299211200002,3.2635216768,1.16650543,1.65936401,-4.057150249999999,,,
imu,513.737722,-0.215335008,-9.435860420000001,3.2712976632,1.12912088,1.82385603,-3.98985806,,,
imu,513.746153,-0.2338777448,-9.444832712,3.2760828856,0.94967504,1.91357895,-3.84031986,,,
imu,513.754585,-0.2374666616,-9.447823476,3.2784754968,0.78518302,1.99582496,-3.74312003,,,
imu,513.763017,-0.2320832864,-9.453805004000001,3.280868108,0.8449983,2.12293243,-3.60853565,,,
imu,513.7715,-0.242251884,-9.448421628800002,3.2802699552,0.52349117,2.13788625,-3.6459202,,,
imu,513.779982,-0.2440463424,-9.435860420000001,3.288045941600001,0.32909151,2.19770153,-3.6459202,,,
imu,513.788465,-0.2243073,-9.4412437952,3.288045941600001,0.26179932,2.35471664,-3.59358183,,,
imu,513.796947,-0.2338777448,-9.457393920800001,3.2695032048,0.26927623,2.55659321,-3.60105874,,,
imu,513.80543,-0.2255036056,-9.447823476,3.2712976632,0.32909151,2.60893158,-3.69078166,,,
imu,513.813913,-0.2147368552,-9.4250936696,3.3059905256,0.14216876,2.68370068,-3.68330475,,,
imu,513.822395,-0.2231109944,-9.440645642400002,3.2886440944,0.17955331,2.65379304,-3.66835093,,,
imu,513.830878,-0.2039701048,-9.450814240000001,3.273092121600001,0.12721494,2.75099287,-3.76555076,,,
imu,512.348887,,,,,,,-89.124778,172.6402956,109.6267744
imu,512.45048,,,,,,,-88.8318052,172.6158812,109.7976752
imu,512.552928,,,,,,,-88.99049880000001,172.542638,109.6389816
imu,512.653575,,,,,,,-88.8928412,172.3351156,110.2615488
imu,512.755137,,,,,,,-89.2590572,172.5792596,110.1883056
imu,512.85786,,,,,,,-86.80541,171.8346204,109.4924952
imu,512.958262,,,,,,,-88.94166999999999,172.0055212,110.639972
imu,513.060985,,,,,,,-86.4514012,171.6148908,108.5281264
imu,513.839361,-0.1902125904,-9.401167557600001,3.2856533304,0.22441477,2.59397776,-3.75807385,,,
imu,513.847843,-0.1800439928,-9.401765710400001,3.2832607192,0.12721494,2.51920866,-3.8702275,,,
imu,513.856326,-0.1878199792,-9.4346641144,3.270101357600001,-0.01484635000000001,2.33976282,-3.85527368,,,
imu,513.864808,-0.188418132,-9.4382530312,3.3024016088,-0.007369440000000005,2.09302479,-3.78798149,,,
imu,513.873291,-0.1836329096,-9.4244955168,3.30479422,-0.02980017,2.11545552,-3.89265823,,,
imu,513.881774,-0.1872218264,-9.390998960000001,3.2946256224,-0.10456927,1.9509635,-3.92256587,,,
imu,513.890256,-0.212344244,-9.3802322096,3.293429316800001,-0.07466163,1.69674856,-3.90013514,,,
imu,513.898739,-0.2249054528,-9.391597112800001,3.2982145392,0.01506129,1.62197946,-3.8702275,,,
imu,513.907221,-0.2278962168,-9.395186029600001,3.302999761600001,0.21693786,1.66684092,-3.50385891,,,
imu,513.915704,-0.2320832864,-9.3796340568,3.301803456,0.11226112,1.74908693,-3.08515195,,,
imu,513.924187,-0.227298064,-9.384419279200001,3.3179535816,0.10478421,1.62945637,-2.94309066,,,
imu,513.932669,-0.227298064,-9.380830362400001,3.3131683592,0.27675314,1.86871749,-2.88327538,,,
imu,513.941152,-0.233279592,-9.381428515200001,3.3059905256,0.57582954,1.94348659,-2.83093701,,,
imu,513.949635,-0.2255036056,-9.379035904000002,3.3065886784,0.68050628,1.89114822,-2.83093701,,,
imu,513.958117,-0.2320832864,-9.380830362400001,3.2862514832,0.78518302,2.00330187,-3.1225365,,,
imu,513.9666,-0.23926112,-9.377241445600001,3.305392372800001,0.8749059399999999,2.12293243,-3.22721324,,,
imu,513.975077,-0.2374666616,-9.379035904000002,3.2910367056,0.88985976,2.16031698,-3.32441307,,,
imu,513.983555,-0.227298064,-9.374250681600001,3.296420080800001,0.85995212,2.33228591,-3.45899745,,,
imu,513.992032,-0.2266999112,-9.3832229736,3.288045941600001,1.11416706,2.46687029,-3.43656672,,,
imu,514.00051,-0.2278962168,-9.388606348800002,3.291634858400001,1.26370526,2.59397776,-3.53376655,,,
imu,514.008987,-0.2290925224000001,-9.395784182400002,3.2910367056,1.18145925,2.61640849,-3.58610492,,,
imu,514.017465,-0.2195220776,-9.402363863200002,3.2922330112,1.24875144,2.64631613,-3.50385891,,,
imu,514.025942,-0.2237091472,-9.403560168800002,3.289242247200001,1.33847436,2.64631613,-3.44404363,,,
imu,514.03442,-0.2237091472,-9.4107380024,3.2910367056,1.40576655,2.69117759,-3.43656672,,,
imu,514.042897,-0.2171294664,-9.413130613600002,3.291634858400001,1.27865908,2.91548489,-3.33188998,,,
imu,514.051375,-0.2195220776,-9.433467808800001,3.2790736496,1.21136689,2.81828506,-3.21225942,,,
imu,514.059853,-0.212344244,-9.430477044800002,3.2850551776,1.21136689,2.94539253,-3.17487487,,,
imu,514.06833,-0.212344244,-9.426289975200001,3.2844570248,1.27118217,2.90800798,-3.09262886,,,
imu,514.076808,-0.2111479384,-9.4424401008,3.274288427200001,1.09173633,2.8481927,-3.05524431,,,
imu,514.085285,-0.19439966,-9.441841948000002,3.268306899200001,1.01696723,2.88557725,-3.07767504,,,
imu,514.093763,-0.1991848824,-9.437056725600002,3.279671802400001,1.00949032,3.0725,-3.11505959,,,
imu,514.10224,-0.1866236736,-9.432869656000001,3.277877344000001,1.03939796,2.96782326,-3.15244414,,,
imu,514.110718,-0.188418132,-9.429280739200001,3.27488658,1.12912088,2.98277708,-3.23469015,,,
imu,514.119195,-0.1818384512,-9.440645642400002,3.268905052,0.94967504,2.88557725,-3.30198234,,,
imu,514.127673,-0.1836329096,-9.4286825864,3.27488658,0.9347212199999999,2.78090051,-3.38422835,,,
imu,514.13615,-0.1818384512,-9.4250936696,3.270101357600001,0.7702292,2.82576197,-3.58610492,,,
imu,514.144628,-0.1758569232,-9.422102905600001,3.268905052,0.67302937,2.79585433,-3.73564312,,,
imu,514.153105,-0.1716698536,-9.426289975200001,3.2695032048,0.77770611,2.63136231,-3.67582784,,,
imu,514.161583,-0.1896144376,-9.425691822400001,3.274288427200001,0.68050628,2.54163939,-3.7206893,,,
imu,514.17006,-0.1800439928,-9.416719530400002,3.2623253712,0.53096808,2.40705501,-3.81041222,,,
imu,514.17849,-0.1788476872,-9.420906600000002,3.2623253712,0.5010604399999999,2.36219355,-3.85527368,,,
imu,514.186919,-0.1902125904,-9.423299211200002,3.2635216768,0.60573718,2.33228591,-3.72816621,,,
imu,514.195348,-0.2015774936,-9.411934308000001,3.2695032048,0.64312173,2.16779389,-3.75807385,,,
imu,514.203777,-0.206362716,-9.417915836,3.270699510400001,0.5459219,1.99582496,-3.70573548,,,
imu,514.212206,-0.212344244,-9.405354627200001,3.258736454400001,0.66555246,2.11545552,-3.54124346,,,
imu,514.220636,-0.215335008,-9.4107380024,3.2617272184,0.7552753799999999,2.04816333,-3.50385891,,,
imu,514.229065,-0.2207183832,-9.4041583216,3.256343843200001,0.79265993,2.04068642,-3.51133582,,,
imu,514.237494,-0.2243073,-9.415523224800001,3.2593346072,0.8674290299999999,2.04816333,-3.41413599,,,
imu,514.245923,-0.2255036056,-9.415523224800001,3.2527549264,0.94967504,2.15284007,-3.40665908,,,
imu,514.254353,-0.2350740504,-9.418513988800001,3.2641198296,0.9197674,2.25751681,-3.31693616,,,
imu,514.262782,-0.2255036056,-9.435262267200002,3.2635216768,0.8524752099999999,2.30237827,-3.26459779,,,
imu,514.271211,-0.227298064,-9.440645642400002,3.268306899200001,0.8823828499999999,2.36219355,-3.36179762,,,
imu,514.27964,-0.2159331608,-9.444832712,3.268306899200001,0.94219813,2.44443956,-3.31693616,,,
imu,513.16154,,,,,,,-89.063742,172.4327732,108.625784
imu,513.26295,,,,,,,-88.9172556,172.35953,110.4446568
imu,513.364512,,,,,,,-88.58766120000001,172.237458,110.2371344
imu,513.466075,,,,,,,-88.3068956,172.7379532,110.2371344
imu,513.567668,,,,,,,-88.8684268,172.2008364,110.6521792
imu,513.6692,,,,,,,-88.95387720000001,172.3717372,109.8342968
imu,513.770793,,,,,,,-89.21022840000002,171.8590348,110.4080352
imu,513.872325,,,,,,,-86.71995960000001,171.7613772,109.2727656
imu,513.973817,,,,,,,-89.3933364,172.786782,110.6643864
imu,514.075349,,,,,,,-86.988518,171.6759268,108.137496
imu,514.176942,,,,,,,-88.8073908,172.3473228,110.090648
imu,514.278474,,,,,,,-89.0759492,172.6402956,108.0520456
