Type,Timestamp,Data Accelerometer X,Data Accelerometer Y,Data Accelerometer Z,Data Gyroscope X,Data Gyroscope Y,Data Gyroscope Z,Data Magnetometer X,Data Magnetometer Y,Data Magnetometer Z
imu,348.872075,-0.3804251808,-9.226506940000002,3.6266004264,0.19450713,-5.87736127,-1.82155416,,,
imu,348.880535,-0.3887993200000001,-9.274957316800002,3.6451431632,0.68050628,-5.361454480000001,-1.9262309,,,
imu,348.888995,-0.4037531400000001,-9.342548583200001,3.6708637336,1.1440747,-4.91283988,-2.04586146,,,
imu,348.897458,-0.4216977240000001,-9.399971252000002,3.696584304,1.35342818,-4.44179455,-2.17296893,,,
imu,348.905922,-0.4324644744,-9.437056725600002,3.7139307352,1.22632071,-3.76139574,-2.21035348,,,
imu,348.914385,-0.4330626272,-9.4412437952,3.714528888000001,1.24127453,-3.45484243,-2.38979932,,,
imu,348.922849,-0.4366515440000001,-9.436458572800001,3.743838375200001,0.8749059399999999,-3.11090457,-3.24216706,,,
imu,348.931312,-0.4797185456,-9.4077472384,3.730679013600001,0.14964567,-3.03613547,-4.25154991,,,
imu,348.939776,-0.4880926848000001,-9.3377633608,3.7001732208,-0.36626112,-2.79687435,-4.83474889,,,
imu,348.94824,-0.502448352,-9.2617979552,3.669667428,-0.51579932,-2.5351825,-5.18616366,,,
imu,348.956703,-0.5209910888,-9.1894214664,3.63377826,-0.6503837,-2.22862919,-5.522624609999999,,,
imu,348.965167,-0.5461135064000001,-9.1092689912,3.605066925600001,-0.47093786,-1.73515313,-5.45533242,,,
imu,348.97363,-0.5538894928000001,-9.094913324,3.5853278832,-0.19429219,-1.29401544,-5.29831731,,,
imu,348.982094,-0.5592728680000001,-9.094315171200002,3.586524188800001,0.43376825,-0.7781086500000001,-4.83474889,,,
imu,348.990557,-0.5341504504000001,-9.100296699200001,3.5763555912,0.9646288599999999,-0.17247894,-4.625395409999999,,,
imu,348.999021,-0.5215892416000001,-9.125419116800002,3.60387062,1.53287402,0.33595094,-4.47585721,,,
imu,349.007484,-0.5042428104000001,-9.181047327200002,3.6230115096,2.07121154,0.8518577299999999,-4.430995749999999,,,
imu,349.015948,-0.499457588,-9.225310634400001,3.631983801600001,2.47496468,1.22570323,-4.58053395,,,
imu,349.024411,-0.4958686712000001,-9.2719665528,3.646937621600001,2.77404108,1.74908693,-4.61044159,,,
imu,349.032875,-0.4797185456,-9.301874192800001,3.646937621600001,2.96096383,2.10797861,-4.625395409999999,,,
imu,349.041338,-0.4611758088,-9.335968902400001,3.6636859,3.17031731,2.35471664,-4.75250288,,,
imu,349.049802,-0.4330626272,-9.373054376,3.660695136000001,3.34228624,2.56407012,-4.89456417,,,
imu,349.058266,-0.4139217376000001,-9.3688673064,3.669667428,3.12545585,2.6238854,-5.13382529,,,
imu,349.066729,-0.3905937784,-9.364680236800002,3.6618914416,3.10302512,2.55659321,-5.18616366,,,
imu,349.075193,-0.3846122504,-9.340754124800002,3.636769024,2.93105619,2.33976282,-5.35813259,,,
imu,349.083656,-0.3905937784,-9.340754124800002,3.637367176800001,3.08059439,1.93600968,-5.3656095,,,
imu,349.09212,-0.4073420568000001,-9.3658765424,3.6230115096,2.88619473,1.68179474,-5.260932759999999,,,
imu,349.100937,-0.4288755576000001,-9.3766432928,3.623609662400001,2.67684125,1.25561087,-5.09644074,,,
imu,349.109754,-0.4330626272,-9.379035904000002,3.645741316000001,2.33290339,0.8219500899999996,-4.737549059999999,,,
imu,349.118571,-0.4773259344000001,-9.3694654592,3.654115455200001,1.85438115,0.21632038,-4.6179185,,,
imu,349.127387,-0.5000557408,-9.373054376,3.6439468576,1.27865908,-0.4042631500000002,-4.82727198,,,
imu,349.136204,-0.55329134,-9.368269153600002,3.6355727184,0.67302937,-0.8454008399999999,-4.954379449999999,,,
imu,349.145021,-0.5879842024,-9.348530111200002,3.6176281344,0.11973803,-1.06223123,-4.83474889,,,
imu,349.153838,-0.6298548984000001,-9.3144354016,3.609852148000001,-0.06718472,-1.00241595,-4.66277996,,,
imu,349.162655,-0.6543791632000001,-9.2935000536,3.5901131056,-0.11204618,-0.7482010100000003,-4.31136519,,,
imu,349.171472,-0.6836886504,-9.2851259144,3.5715703688,-0.17933837,-0.3594016900000003,-3.97490424,,,
imu,349.180289,-0.6878757200000001,-9.239068148800001,3.579944508,0.05992275,0.1639820099999998,-3.54124346,,,
imu,349.189106,-0.6382290376000002,-9.247442288000002,3.582935272,0.41881443,0.78456554,-3.16739796,,,
imu,349.197923,-0.6107140088,-9.250433052000002,3.5691777576,0.79265993,1.40514907,-2.83093701,,,
imu,349.20674,-0.5634599376000001,-9.267779483200002,3.5763555912,1.2188438,2.01077878,-2.56176825,,,
imu,349.215557,-0.5144114080000001,-9.268377636,3.5925057168,1.52539711,2.40705501,-2.48699915,,,
imu,349.224374,-0.4749333232000001,-9.2958926648,3.6080576896,1.91419643,2.68370068,-2.32998404,,,
imu,349.233191,-0.4342589328000001,-9.297687123200001,3.593103869600001,2.13102682,2.69117759,-2.44213769,,,
imu,349.242007,-0.4049494456000001,-9.3168280128,3.5960946336,2.116073,2.42200883,-2.66644499,,,
imu,349.250824,-0.3995660704000001,-9.3455393472,3.5984872448,2.1908421,2.31733209,-2.83093701,,,
imu,349.259641,-0.3804251808,-9.364680236800002,3.590711258400001,2.27308811,2.10797861,-2.9729983,,,
imu,349.268458,-0.3786307224000001,-9.3413522776,3.582935272,2.13850373,1.68179474,-3.29450543,,,
imu,349.277275,-0.3816214864,-9.304864956800001,3.564990688,2.10111918,1.37524143,-3.59358183,,,
imu,349.286092,-0.3953790008,-9.295294512000002,3.553027632,2.18336519,0.9191499199999997,-3.77302767,,,
imu,349.294909,-0.4264829464000001,-9.307257568,3.5524294792,2.12354991,0.4032431299999999,-3.98985806,,,
imu,349.303387,-0.4665591840000001,-9.319220624000002,3.541064576,1.97401171,0.1565051,-4.06462716,,,
imu,349.311864,-0.4839056152000001,-9.330585527200002,3.5452516456,1.93662716,0.02939763000000006,-4.00481188,,,
imu,349.320342,-0.4862982264000001,-9.3269966104,3.5314941312,1.86933497,-0.08275602000000015,-4.0945348,,,
imu,349.328819,-0.4946723656000001,-9.329987374400002,3.5314941312,1.80951969,0.0368745399999999,-4.034719519999999,,,
imu,349.337297,-0.5168040192000001,-9.3317818328,3.535681200800001,1.78708896,0.1714589200000001,-3.93751969,,,
imu,349.345774,-0.5162058664000001,-9.332978138400001,3.5344848952,1.73475059,0.5303505999999998,-3.51881273,,,
imu,349.354252,-0.520392936,-9.346137500000001,3.541064576,1.82447351,1.03878048,-3.16739796,,,
imu,349.362729,-0.5078317272000001,-9.364082084000001,3.544653492800001,1.63007385,1.44253362,-3.1225365,,,
imu,349.371207,-0.5066354216000001,-9.343146736000001,3.5302978256,1.4431511,1.74908693,-3.26459779,,,
imu,349.379684,-0.4797185456,-9.325202152000001,3.511755088800001,1.63007385,2.22760917,-3.30198234,,,
imu,349.388156,-0.4611758088,-9.311444637600001,3.5069698664,1.71979677,2.50425484,-3.51133582,,,
imu,349.396634,-0.4456238360000001,-9.295294512000002,3.502184644000001,1.57773548,2.65379304,-3.96742733,,,
imu,349.405111,-0.4300718632,-9.2899111368,3.488427129600001,1.71979677,2.60893158,-4.52819558,,,
imu,349.413589,-0.4294737104000001,-9.3060612624,3.484240060000001,2.09364227,2.52668557,-4.909517989999999,,,
imu,349.422066,-0.4097346680000001,-9.301276040000001,3.470482545600001,2.23570356,2.39210119,-5.17120984,,,
imu,349.430544,-0.4097346680000001,-9.306659415200002,3.479454837600001,2.51234923,2.33228591,-5.283363489999999,,,
imu,349.439021,-0.4103328208,-9.338959666400001,3.4896234352,2.94601001,2.14536316,-5.216071299999999,,,
imu,349.447499,-0.4073420568000001,-9.367072848000001,3.486632671200001,3.02825602,1.93600968,-5.03662546,,,
imu,349.455976,-0.415716196,-9.370661764800001,3.4734733096,3.10302512,1.83880985,-4.84970271,,,
imu,349.464454,-0.415716196,-9.381428515200001,3.4836419072,3.11050203,1.68927165,-4.670256869999999,,,
imu,349.472931,-0.4121272792,-9.398176793600001,3.4848382128,3.35724006,1.56964109,-4.49828794,,,
imu,349.481409,-0.4097346680000001,-9.403560168800002,3.4710806984,3.3123786,1.31542615,-4.59548777,,,
imu,349.489886,-0.4288755576000001,-9.4322715032,3.4698843928,3.05068675,1.18084177,-4.72259524,,,
imu,349.498364,-0.4360533912000001,-9.413130613600002,3.4686880872,2.75908726,1.02382666,-4.976810179999999,,,
imu,349.506844,-0.4318663216,-9.380830362400001,3.451939808800001,2.51234923,0.9191499199999997,-5.12634838,,,
imu,349.515324,-0.4354552384000001,-9.370661764800001,3.448350892000001,2.34785721,0.8892422799999999,-5.305794219999999,,,
imu,349.523804,-0.4402404608,-9.3862137376,3.4429675168,2.18336519,0.9714882899999999,-5.40299405,,,
imu,349.532284,-0.4420349192,-9.3832229736,3.432798919200001,2.0413039,1.02382666,-5.20859439,,,
imu,349.540764,-0.4312681688,-9.395784182400002,3.4417712112,1.85438115,1.00887284,-5.14877911,,,
imu,349.549244,-0.4498109056,-9.4041583216,3.4627065592,1.51044329,1.10607267,-5.31327113,,,
imu,349.557724,-0.4749333232000001,-9.402363863200002,3.4615102536,1.21136689,1.17336486,-5.39551714,,,
imu,349.566205,-0.4946723656000001,-9.443636406400001,3.488427129600001,1.03192105,1.25561087,-5.33570186,,,
imu,349.574685,-0.505439116,-9.443636406400001,3.508166172,0.53096808,1.1285034,-5.27588658,,,
imu,349.583165,-0.5329541448,-9.408943544000001,3.525512603200001,-0.14943073,0.9565344699999998,-5.70954736,,,
imu,349.591645,-0.5969564944000001,-9.376045140000002,3.514147700000001,-0.46346095,0.7995193599999997,-6.61425347,,,
imu,349.600125,-0.6448087184,-9.343744888800002,3.504577255200001,-0.874691,0.7770886299999997,-7.01800661,,,
imu,349.608605,-0.6836886504,-9.2964908176,3.493212352,-0.9943215599999999,0.9041961000000001,-6.950714420000001,,,
imu,349.617085,-0.7034276928000001,-9.2719665528,3.4896234352,-0.9943215599999999,0.9640113799999996,-7.11520644,,,
imu,349.625565,-0.7351297912000001,-9.277349928000001,3.486632671200001,-0.65786061,1.12102649,-7.02548352,,,
imu,349.634045,-0.7572614448000001,-9.280938844800001,3.4734733096,-0.11204618,1.4275798,-6.666591840000001,,,
imu,349.642525,-0.7602522088000001,-9.304864956800001,3.488427129600001,0.27675314,1.85376367,-6.30770016,,,
imu,349.651005,-0.7435039304000001,-9.329389221600001,3.508166172,0.60573718,2.27994754,-5.85908556,,,
imu,349.659485,-0.7207741240000002,-9.3652783896,3.5183347696,1.00949032,2.76594669,-5.305794219999999,,,
imu,349.667965,-0.7070166096,-9.374250681600001,3.529699672800001,1.23379762,3.05754618,-5.05157928,,,
imu,349.676445,-0.6693329832000001,-9.3898026544,3.5302978256,1.21136689,3.18465365,-4.96933327,,,
imu,349.684926,-0.6603606912000002,-9.3832229736,3.509960630400001,1.27118217,3.23699202,-5.13382529,,,
imu,349.693406,-0.6513883992,-9.3754469872,3.502184644000001,1.19641307,3.16969983,-5.24597894,,,
imu,349.701886,-0.6436124128,-9.368269153600002,3.4973994216,0.88985976,3.08745382,-5.3656095,,,
imu,349.710654,-0.631051204,-9.346735652800001,3.490819740800001,0.7702292,2.90053107,-5.31327113,,,
imu,349.719423,-0.6244715232,-9.327594763200002,3.489025282400001,0.3216146,2.61640849,-5.33570186,,,
imu,349.728192,-0.6442105656,-9.303070498400002,3.4740714624,0.23936859,2.27247063,-5.46280933,,,
imu,349.736961,-0.6561736216000001,-9.288714831200002,3.457921336800001,-0.11952309,1.98834805,-5.49271697,,,
imu,349.745729,-0.6854831088000001,-9.274359164000002,3.451341656,-0.38121494,1.83880985,-5.34317877,,,
imu,349.754498,-0.6944554008000001,-9.272564705600002,3.4549305728,-0.23915365,1.8761944,-5.02914855,,,
imu,349.763267,-0.6992406232000001,-9.267779483200002,3.447154586400001,-0.0522309,1.92105586,-4.78241052,,,
imu,349.772035,-0.7010350816000002,-9.289312984,3.4381822944,0.11973803,1.96591732,-4.64034923,,,
imu,349.780804,-0.7112036792,-9.295294512000002,3.451939808800001,0.59078336,2.28742445,-4.386134289999999,,,
imu,349.789573,-0.6914646368,-9.3269966104,3.472277004,0.65807555,2.34723973,-4.363703559999999,,,
imu,349.798342,-0.6711274416,-9.368269153600002,3.491417893600001,0.7403215599999999,2.53416248,-4.3936112,,,
imu,349.80711,-0.6615569968000001,-9.381428515200001,3.5153440056,0.60573718,2.63883922,-4.49828794,,,
imu,349.815879,-0.6525847048000001,-9.390998960000001,3.5386719648,0.41881443,2.63136231,-4.55062631,,,
imu,349.824648,-0.6334438152,-9.402363863200002,3.539270117600001,0.14964567,2.55659321,-4.670256869999999,,,
imu,349.833416,-0.6202844536000002,-9.3927934184,3.5279052144,0.01506129,2.60145467,-4.7674567,,,
imu,349.842185,-0.6149010784000001,-9.364680236800002,3.5093624776,-0.02232326000000001,2.66126995,-4.81979507,,,
imu,349.850954,-0.6226770648,-9.339557819200001,3.4997920328,-0.02980017,2.61640849,-4.9169949,,,
imu,349.859723,-0.6250696760000001,-9.313239096000002,3.4848382128,0.23189168,2.52668557,-4.86465653,,,
imu,349.868491,-0.6448087184,-9.3006778872,3.477062226400001,0.47862971,2.53416248,-4.87961035,,,
imu,349.87726,-0.6579680800000002,-9.284527761600001,3.4764640736,1.03192105,2.63883922,-4.68521069,,,
imu,349.886029,-0.6789034280000001,-9.280340692000001,3.454332420000001,1.42072037,2.80333124,-4.41604193,,,
imu,349.894797,-0.6717255944000001,-9.281536997600002,3.4555287256,1.83942733,2.87810034,-4.18425772,,,
imu,349.903566,-0.6872775672000001,-9.322211388000001,3.4920160464,2.30299575,3.06502309,-3.90761205,,,
imu,349.912335,-0.7058203040000001,-9.370063612000001,3.4997920328,2.57216451,3.23699202,-3.68330475,,,
imu,349.920477,-0.6878757200000001,-9.382026668000002,3.511755088800001,2.58711833,3.49120696,-3.35432071,,,
imu,349.928619,-0.6729219000000001,-9.414326919200002,3.528503367200001,2.35533412,3.62579134,-3.21973633,,,
imu,349.93676,-0.6747163584000001,-9.4005694048,3.514745852800001,1.89924261,3.71551426,-3.37675144,,,
imu,349.944902,-0.6579680800000002,-9.398774946400001,3.5093624776,1.13659779,3.61083752,-3.66087402,,,
imu,349.953044,-0.663949608,-9.423299211200002,3.5207273808,0.63564482,3.5211146,-3.72816621,,,
imu,349.961186,-0.6561736216000001,-9.4286825864,3.5183347696,0.07487657,3.54354533,-3.91508896,,,
imu,349.969328,-0.6597625384000001,-9.414925072,3.502184644000001,-0.38869185,3.34166876,-4.15435008,,,
imu,349.97747,-0.6717255944000001,-9.3975786408,3.49919388,-0.54570696,3.32671494,-4.21416536,,,
imu,349.985611,-0.681894192,-9.367072848000001,3.4968012688,-0.7550604399999999,3.45382241,-4.13191935,,,
imu,349.993753,-0.6962498592000002,-9.3557079448,3.5015864912,-1.0242292,3.45382241,-4.23659609,,,
imu,350.001895,-0.6896701784000001,-9.339557819200001,3.514147700000001,-1.13638285,3.58840679,-4.20668845,,,
imu,350.010037,-0.7016332344,-9.340754124800002,3.523119992000001,-1.2485365,3.68560662,-4.16182699,,,
imu,350.018179,-0.7022313872,-9.329987374400002,3.530895978400001,-1.33825942,3.68560662,-4.16182699,,,
imu,350.026321,-0.7141944432000001,-9.298883428800002,3.5404664232,-1.53265908,3.6706528,-4.29641137,,,
imu,350.034462,-0.7285501104000001,-9.282135150400002,3.535681200800001,-1.67472037,3.48373005,-4.430995749999999,,,
imu,350.042604,-0.7554669864000001,-9.2917055952,3.562598076800001,-1.78687402,3.48373005,-4.68521069,,,
imu,350.050746,-0.7752060288000001,-9.304864956800001,3.560205465600001,-2.0709966,3.37905331,-4.75250288,,,
imu,350.058888,-0.7799912512000001,-9.282135150400002,3.575159285600001,-2.23548862,3.22951511,-4.93942563,,,
imu,348.958605,,,,,,,-86.76878839999999,173.4825924,111.0794312
imu,349.060137,,,,,,,-86.683338,173.7389436,111.311368
imu,349.161761,,,,,,,-86.9641036,173.3849348,111.1038456
imu,349.263293,,,,,,,-84.9865372,173.5070068,110.5179
imu,350.06703,-0.7913561544000001,-9.2707702472,3.581738966400001,-2.15324261,3.25194584,-4.887087259999999,,,
imu,350.075172,-0.8212637944000001,-9.274957316800002,3.5715703688,-1.95136604,3.25194584,-4.92447181,,,
imu,350.083313,-0.8314323920000001,-9.277349928000001,3.5596073128,-1.60742818,3.36409949,-4.78988743,,,
imu,350.091455,-0.8248527112,-9.2617979552,3.5608036184,-1.18872122,3.55849915,-4.430995749999999,,,
imu,350.099597,-0.8140859608000002,-9.2588071912,3.5661869936,-0.88964482,3.91739083,-4.15435008,,,
imu,350.107739,-0.8009265992000001,-9.245647829600001,3.549438715200001,-0.47841477,4.26132869,-3.61601256,,,
imu,350.116602,-0.7740097232000002,-9.250433052000002,3.5458497984,0.14964567,4.63517419,-3.02533667,,,
imu,350.125466,-0.7411113192000001,-9.277948080800002,3.5524294792,0.67302937,5.00901969,-2.48699915,,,
imu,350.134329,-0.6938572480000001,-9.3204169296,3.556018396000001,0.88985976,5.20341935,-2.10567674,,,
imu,350.143192,-0.6472013296000001,-9.330585527200002,3.5554202432,1.27118217,5.22585008,-1.90380017,,,
imu,350.152056,-0.6154992312,-9.33118368,3.5608036184,1.40576655,5.17351171,-1.87389253,,,
imu,350.160919,-0.6065269392000001,-9.359895014400001,3.5596073128,1.36090509,5.14360407,-1.64210832,,,
imu,350.169783,-0.5861897440000001,-9.382624820800002,3.550635020800001,1.19641307,5.136127159999999,-1.41780102,,,
imu,350.178646,-0.5598710208000001,-9.3796340568,3.5302978256,1.19641307,4.88191222,-1.22340136,,,
imu,350.187509,-0.5365430616000001,-9.363483931200001,3.5165403112,1.03192105,4.739850929999999,-1.34303192,,,
imu,350.196373,-0.5317578392000001,-9.357502403200002,3.5225218392,0.77770611,4.4931129,-1.35050883,,,
imu,350.205236,-0.5144114080000001,-9.364082084000001,3.5009883384,0.82256757,4.39591307,-1.05890934,,,
imu,350.214099,-0.4958686712000001,-9.352717180800001,3.4985957272,0.65807555,4.20899032,-0.8645096799999998,,,
imu,350.222963,-0.4862982264000001,-9.335370749600001,3.478258532,0.8375213899999999,4.11179049,-0.5953409199999999,,,
imu,350.231826,-0.4857000736000001,-9.328791068800001,3.46928624,0.7403215599999999,3.9697292,-0.7598329399999999,,,
imu,350.240689,-0.5042428104000001,-9.312042790400001,3.4591176424,0.58330645,3.72299117,-0.99161715,,,
imu,350.249553,-0.5191966304000001,-9.318024318400001,3.470482545600001,0.59078336,3.54354533,-1.22340136,,,
imu,350.258416,-0.5221873944000001,-9.347333805600002,3.463304712000001,0.5982602699999999,3.55849915,-1.39537029,,,
imu,350.26728,-0.5371412144000001,-9.373652528800001,3.4686880872,0.57582954,3.63326825,-1.52247776,,,
imu,350.276143,-0.5616654792000001,-9.387410043200001,3.488427129600001,0.29918387,3.64074516,-2.03838455,,,
imu,350.285006,-0.5730303824,-9.395784182400002,3.497997574400001,0.13469185,3.72299117,-2.38232241,,,
imu,350.29387,-0.5921712720000001,-9.422102905600001,3.5135495472,-0.02232326000000001,3.90243701,-2.72626027,,,
imu,350.302733,-0.5999472584000001,-9.453805004000001,3.528503367200001,-0.32887657,4.0444983,-2.93561375,,,
imu,350.311596,-0.6107140088,-9.460982837600001,3.5554202432,-0.8672140899999999,4.26132869,-3.10010577,,,
imu,350.320029,-0.6172936896000001,-9.467562518400001,3.5775518968,-1.43545925,4.36600543,-3.21225942,,,
imu,350.328462,-0.6220789120000001,-9.452010545600002,3.5853278832,-1.95884295,4.58283582,-3.30198234,,,
imu,350.336895,-0.6196863008000001,-9.4215047528,3.573962980000001,-2.34016536,4.70246638,-3.43656672,,,
imu,350.345328,-0.6334438152,-9.367072848000001,3.553027632,-2.68410322,4.76975857,-3.45152054,,,
imu,350.353761,-0.6495939408000001,-9.297687123200001,3.546447951200001,-2.80373378,4.72489711,-3.70573548,,,
imu,350.362195,-0.6645477608,-9.263592413600001,3.5279052144,-2.8934567,4.70994329,-3.97490424,,,
imu,350.370628,-0.6980443176000002,-9.229497704000002,3.514745852800001,-2.76634923,4.739850929999999,-4.25902682,,,
imu,350.379061,-0.7135962904,-9.201982675200002,3.511156936,-2.51213429,4.94920441,-4.52071867,,,
imu,350.387494,-0.7614485144,-9.224712481600001,3.523119992000001,-2.16819643,5.22585008,-4.52819558,,,
imu,350.395927,-0.7764023344000002,-9.263592413600001,3.542260881600001,-2.06351969,5.614649399999999,-4.41604193,,,
imu,350.40436,-0.7488873056,-9.294098206400001,3.529699672800001,-1.93641222,6.08569473,-4.318842099999999,,,
imu,350.412793,-0.7500836112000001,-9.309650179200002,3.5177366168,-1.83921239,6.579170789999999,-4.3936112,,,
imu,350.421226,-0.7578595976000001,-9.236077384800002,3.535083048000001,-1.89902767,6.85581646,-4.625395409999999,,,
imu,350.429659,-0.7530743752000001,-9.1511396872,3.538073812,-1.88407385,7.012831569999999,-4.715118329999999,,,
imu,350.438092,-0.7578595976000001,-9.2169364952,3.5578128544,-1.76444329,7.51378454,-4.65530305,,,
imu,350.446525,-0.7141944432000001,-9.230694009600002,3.550635020800001,-2.01865823,7.887630039999999,-4.759979789999999,,,
imu,350.454958,-0.6926609424000001,-9.203777133600001,3.575159285600001,-2.17567334,8.23904481,-4.909517989999999,,,
imu,350.463391,-0.6549773160000001,-9.177458410400002,3.573962980000001,-2.2205348,8.38858301,-5.044102369999999,,,
imu,350.471824,-0.6196863008000001,-9.156523062400002,3.572168521600001,-2.04856587,8.665228679999998,-4.87961035,,,
imu,350.480171,-0.5861897440000001,-9.197795605600001,3.597290939200001,-1.66724346,8.67270559,-4.83474889,,,
imu,350.488604,-0.5419264368000001,-9.236077384800002,3.6020761616,-0.9644139199999999,8.79233615,-4.79736434,,,
imu,350.497037,-0.505439116,-9.283331456,3.642750552,-0.56066078,8.575505759999999,-4.954379449999999,,,
imu,350.50547,-0.4821111568000001,-9.307257568,3.683424942400001,-0.09709236,8.16427571,-5.13382529,,,
imu,350.513903,-0.4557924336,-9.394587876800001,3.7252956384,0.35152224,7.6334151,-5.32074804,,,
imu,350.522372,-0.4557924336,-9.478927421600002,3.7486235976,0.3889067899999999,6.99787775,-5.477763149999999,,,
imu,350.53084,-0.4563905864000001,-9.4729458936,3.7737460152,0.23189168,6.40720186,-5.34317877,,,
imu,350.539309,-0.4641665728000001,-9.440047489600001,3.7587921952,-0.06718472,5.749233779999999,-5.08896383,,,
imu,350.547777,-0.4599795032,-9.340754124800002,3.7217067216,-0.5980453299999999,5.03892733,-4.737549059999999,,,
imu,350.556246,-0.451605364,-9.267779483200002,3.695387998400001,-0.80739881,4.76975857,-3.81788913,,,
imu,350.564715,-0.4587831976000001,-9.225908787200002,3.675648956,-0.9494601,4.70246638,-2.42718387,,,
imu,350.573183,-0.4330626272,-9.262396108,3.6870138592,-0.92702937,4.61274346,-0.7074945699999999,,,
imu,350.581652,-0.4025568344,-9.2719665528,3.691200928800001,-0.66533752,4.717420199999999,0.7131183299999999,,,
imu,350.590121,-0.3612842912,-9.245647829600001,3.690004623200001,-0.33635348,4.29123633,1.07201001,,,
imu,350.598589,-0.3636769024000001,-9.233086620800002,3.7001732208,0.11226112,3.76037572,1.00471782,,,
imu,350.607058,-0.367863972,-9.249236746400001,3.6923972344,0.8375213899999999,3.19960747,0.9374256299999999,,,
imu,350.615526,-0.3870048616000001,-9.291107442400001,3.695387998400001,1.34595127,2.75099287,0.89256417,,,
imu,350.623995,-0.4037531400000001,-9.2659850248,3.6768452616,1.68988913,2.19022462,0.7131183299999999,,,
imu,350.632464,-0.4288755576000001,-9.187028855200001,3.662489594400001,2.14598064,1.62197946,0.4140419300000002,,,
imu,350.640932,-0.4809148512,-9.178654716,3.6642840528,2.2656112,1.27056469,0.2121653600000002,,,
imu,350.649401,-0.5030465048,-9.1924122304,3.6571062192,2.29551884,1.18831868,0.3916112000000003,,,
imu,350.65787,-0.4880926848000001,-9.172673188000001,3.6254041208,2.12354991,1.30794924,0.7056414200000001,,,
imu,350.666338,-0.4868963792000001,-9.175663952,3.6313856488,2.16841137,1.32290306,0.8850872600000002,,,
imu,350.674807,-0.4868963792000001,-9.229497704000002,3.6361708712,2.15345755,1.43505671,0.7953643399999999,,,
imu,350.683275,-0.4689517952000001,-9.225310634400001,3.6409560936,1.99644244,1.27056469,0.7056414200000001,,,
imu,350.691744,-0.4797185456,-9.194206688800001,3.6254041208,1.93662716,1.16588795,0.52619558,,,
imu,350.700213,-0.4689517952000001,-9.218132800800001,3.6242078152,2.08616536,1.09859576,0.2495499100000003,,,
imu,350.708681,-0.4617739616000001,-9.245049676800003,3.612842912,2.116073,1.03130357,0.04019642999999995,,,
imu,350.71715,-0.4551942808000001,-9.214543884000001,3.602674314400001,2.28804193,1.00139593,0.0626271599999999,,,
imu,350.725616,-0.4683536424000001,-9.306659415200002,3.654115455200001,2.39271867,1.09111885,-0.31869525,,,
imu,350.734082,-0.4958686712000001,-9.426888128000002,3.680434178400001,2.14598064,1.60702564,-0.4757103599999999,,,
imu,350.742548,-0.4611758088,-9.4424401008,3.6690692752,1.60764312,2.33976282,-0.004665029999999959,,,
imu,350.751014,-0.4408386136,-9.431075197600002,3.676247108800001,1.27118217,3.05754618,0.1299193500000002,,,
imu,350.75948,-0.4264829464000001,-9.426289975200001,3.645741316000001,1.20388998,3.61831443,-0.2214954199999999,,,
imu,350.767947,-0.3893974728000001,-9.423897364000002,3.60387062,1.27865908,4.28375942,-0.55047946,,,
imu,350.776413,-0.3301803456000001,-9.396980488,3.582935272,1.80204278,4.68751256,-1.27573973,,,
imu,350.784879,-0.2907022608000001,-9.388008196000001,3.572766674400001,2.22074974,4.837050759999999,-2.11315365,,,
imu,350.793345,-0.2679724544000001,-9.382624820800002,3.5572147016,3.10302512,4.979112049999999,-2.61410662,,,
imu,350.801811,-0.2308869808,-9.3832229736,3.5512331736,3.57407045,4.837050759999999,-2.98795212,,,
imu,350.810277,-0.2165313136,-9.402363863200002,3.5314941312,4.04511578,4.85948149,-3.02533667,,,
imu,350.818743,-0.2015774936,-9.408345391200001,3.535681200800001,4.41148437,4.93425059,-3.04029049,,,
imu,350.827209,-0.1896144376,-9.4496179344,3.5512331736,4.32176145,4.7921893,-3.13001341,,,
imu,350.835675,-0.1620994088,-9.437056725600002,3.523718144800001,4.24699235,4.47068217,-3.13749032,,,
imu,350.844141,-0.1178361016,-9.346137500000001,3.4597157952,4.32923836,3.80523718,-3.42908981,,,
imu,350.852607,-0.1537252696,-9.283331456,3.4088728072,4.29185381,2.90800798,-4.40108811,,,
imu,350.861073,-0.1770532288,-9.169084271200001,3.3430759992,4.52363802,1.92853277,-5.14877911,,,
imu,350.86954,-0.1872218264,-9.056033392000002,3.2814662608,4.97225262,1.18084177,-5.39551714,,,
imu,350.878006,-0.2859170384,-9.13678402,3.328720332000001,5.16665228,1.04625739,-5.39551714,,,
imu,349.367828,,,,,,,-87.07396840000001,173.6779076,111.0550168
imu,349.46637,,,,,,,-84.60811400000001,172.6402956,108.6379912
imu,349.569366,,,,,,,-87.12279720000001,173.3849348,111.8362776
imu,349.669525,,,,,,,-86.31712200000001,172.3473228,109.7122248
imu,349.771027,,,,,,,-87.0373468,172.3839444,111.5188904
imu,349.87262,,,,,,,-86.78099560000001,173.1407908,111.7508272
imu,349.974182,,,,,,,-86.866446,173.0675476,111.7019984
imu,350.075745,,,,,,,-86.9030676,172.8966468,111.4822688
imu,350.886472,-0.3630787496,-9.340754124800002,3.4585194896,4.98720644,1.85376367,-4.02724261,,,
imu,350.894938,-0.3337692624,-9.5459205352,3.5691777576,3.88810067,3.43886859,-1.71687742,,,
imu,350.903404,-0.2649816904,-9.702636568800001,3.676247108800001,2.13850373,5.285665359999999,0.02524261000000028,,,
imu,350.91187,-0.2231109944,-9.718188541600002,3.748025444800001,0.27675314,6.489447869999999,0.04019642999999995,,,
imu,350.920336,-0.1339862272,-9.6499991224,3.730679013600001,-1.50275144,7.06516994,-1.07386316,,,
imu,350.929121,-0.04725407120000001,-9.448421628800002,3.630189343200001,-2.81121069,7.16236977,-2.65896808,,,
imu,350.937907,-0.017944584,-9.097305935200001,3.4860345184,-3.22991765,5.943633439999999,-4.9169949,,,
imu,350.946692,-0.0526374464,-8.8000239936,3.3478612216,-1.97379677,3.7454219,-7.541390310000001,,,
imu,350.955477,-0.13458438,-8.7515736168,3.2772791912,-0.23167674,1.18831868,-10.73403088,,,
imu,350.964262,-0.176455076,-8.8221556472,3.3161591232,2.06373463,-1.36878454,-13.46310303,,,
imu,350.973048,-0.2954874832,-9.010573779200001,3.4238266272,4.359146,-3.86607248,-15.93048333,,,
imu,350.981833,-0.4749333232000001,-9.2139457312,3.537475659200001,6.18351204,-5.83249981,-17.53801898,,,
imu,350.990618,-0.6166955368000001,-9.429878892000001,3.675050803200001,7.31252545,-7.00637468,-17.59035735,,,
imu,350.999403,-0.7452983888000001,-9.616502565600001,3.778531237600001,7.34991,-7.38022018,-16.89500472,,,
imu,351.008189,-0.8266471696000001,-9.779798280000001,3.8592818656,6.57231136,-6.78954429,-15.84076041,,,
imu,351.016974,-0.8499751288000001,-9.817481906400001,3.930462048800001,4.91991425,-5.383885210000001,-13.8145178,,,
imu,351.025759,-0.8445917536,-9.803126239200001,3.9639586056,2.90862546,-3.85111866,-10.99572273,,,
imu,351.034544,-0.8589474208000002,-9.7074217912,3.920891604000001,0.57582954,-2.24358301,-8.5059117,,,
imu,351.043329,-0.8685178656000001,-9.544126076800001,3.840739128800001,-1.50275144,-0.9575544899999997,-6.636684199999999,,,
imu,351.052115,-0.8188711832000002,-9.3269966104,3.7587921952,-3.16262546,0.2088434699999997,-5.41047096,,,
imu,351.0609,-0.7542706808000001,-9.140372936800002,3.6708637336,-4.06733157,1.14345722,-5.15625602,,,
imu,351.069685,-0.7153907488000001,-8.9435806656,3.600879856,-4.351454149999999,1.8014253,-5.64225517,,,
imu,351.07847,-0.6986424704000002,-8.8209593416,3.541064576,-4.06733157,2.19770153,-6.397423079999999,,,
imu,351.087256,-0.6693329832000001,-8.743797630400001,3.4800529904,-3.18505619,2.34723973,-6.816130039999999,,,
imu,351.096041,-0.6268641344,-8.725853046400001,3.4818474488,-1.90650458,2.27247063,-7.4591443,,,
imu,351.104826,-0.6322475096000001,-8.7802849512,3.497997574400001,-0.52327623,1.86871749,-8.69283445,,,
imu,351.113611,-0.6472013296000001,-8.840698384000001,3.523718144800001,0.8449983,1.4275798,-9.68726348,,,
imu,351.122397,-0.6681366776000001,-8.9399917488,3.5614017712,2.25813429,1.14345722,-10.17326263,,,
imu,351.131182,-0.6789034280000001,-9.045266641600001,3.5895149528,3.46939371,0.5976427899999996,-10.24055482,,,
imu,351.13964,-0.7171852072000001,-9.1499433816,3.609852148000001,4.42643819,0.2387511099999999,-10.15830881,,,
imu,351.148099,-0.7506817640000001,-9.259405344000001,3.633180107200001,5.2563752,0.006966899999999665,-9.9265246,,,
imu,351.156557,-0.7799912512000001,-9.3335762912,3.6176281344,5.88443564,-0.3444478700000002,-9.64987893,,,
imu,351.165016,-0.8093007384,-9.392195265600002,3.606861384000001,6.32557333,-0.59866281,-9.2536027,,,
imu,351.173474,-0.8164785720000002,-9.4346641144,3.5763555912,6.79661866,-0.6958626400000001,-8.71526518,,,
imu,351.181933,-0.8212637944000001,-9.440645642400002,3.533288589600001,7.23027944,-0.8080162900000003,-8.19188148,,,
imu,351.190391,-0.8386102256000002,-9.4454308648,3.4800529904,7.58169421,-0.9725083100000003,-7.690928509999999,,,
imu,351.19885,-0.8386102256000002,-9.452010545600002,3.4459582808,7.955539709999999,-1.12204651,-7.09277571,,,
imu,351.207308,-0.8290397808000001,-9.4382530312,3.3771707088,8.17984701,-1.31644617,-6.644161110000001,,,
imu,351.215767,-0.8188711832000002,-9.426888128000002,3.328122179200001,8.33686212,-1.48093819,-6.374992349999999,,,
imu,351.224225,-0.8242545584000001,-9.4005694048,3.275484732800001,8.44153886,-1.50336892,-5.9637623,,,
imu,351.232683,-0.8427972952,-9.405354627200001,3.271895816,8.35929285,-1.81739914,-5.567486069999999,,,
imu,351.241142,-0.86732156,-9.440047489600001,3.256941996000001,8.471446499999999,-2.04170644,-5.20111748,,,
imu,351.2496,-0.8637326432000001,-9.487899713600001,3.2222491336,8.38172358,-2.04170644,-4.70016451,,,
imu,351.258059,-0.8583492680000002,-9.5219944232,3.2150713,7.76114005,-2.11647554,-4.43847266,,,
imu,351.266517,-0.8912476720000001,-9.528574104,3.241988176,7.2003718,-2.13142936,-4.169303899999999,,,
imu,351.274976,-0.900219964,-9.529770409600001,3.238997412,6.38538861,-2.0865679,-4.102011709999999,,,
imu,351.283434,-0.9157719368000001,-9.531564868,3.212080536000001,5.67508216,-2.03422953,-4.25902682,,,
imu,351.291893,-0.9498666464000002,-9.527377798400002,3.1929396464,4.68813004,-2.04918335,-4.244073,,,
imu,351.300351,-0.9576426328000002,-9.5154147424,3.1947341048,3.91800831,-1.81739914,-4.28145755,,,
imu,351.30881,-0.9761853696000001,-9.487899713600001,3.1839673544,3.18527113,-1.59309184,-4.430995749999999,,,
imu,351.317268,-0.9857558144000002,-9.467562518400001,3.1696116872,2.60954906,-1.29401544,-4.56558013,,,
imu,351.325726,-0.9971207176000002,-9.495675700000001,3.161237548,2.10111918,-1.00241595,-4.55810322,,,
imu,351.334185,-0.9947281064000002,-9.4944793944,3.1648264648,1.74970441,-0.45660152,-4.44594957,,,
imu,351.342655,-0.9911391896000001,-9.495077547200001,3.172004298400001,1.2188438,-0.02294074000000013,-4.318842099999999,,,
imu,351.351125,-0.9731946056000002,-9.498666464000001,3.1833692016,1.12164397,0.4705353199999998,-4.07210407,,,
imu,351.359595,-0.9684093832000001,-9.520798117600002,3.188154424,0.83004448,0.80699627,-4.02724261,,,
imu,351.368065,-0.9606333968,-9.551303910400001,3.2043045496,0.7403215599999999,1.1285034,-3.98985806,,,
imu,351.376534,-0.9331183680000001,-9.572837411200002,3.231221425600001,0.65059864,1.24813396,-3.81041222,,,
imu,351.385004,-0.9265386872000001,-9.585996772800002,3.2551475376,0.56835263,1.61450255,-3.76555076,,,
imu,351.393474,-0.9205571592,-9.593174606400002,3.2665124408,0.10478421,1.62945637,-3.82536604,,,
imu,351.401944,-0.9169682424000002,-9.574631869600001,3.2635216768,-0.36626112,1.68927165,-3.93004278,,,
imu,351.410414,-0.9145756312000002,-9.565061424800001,3.274288427200001,-0.76253735,1.53973345,-3.88518132,,,
imu,351.418884,-0.9044070336000001,-9.5489112992,3.2802699552,-0.9494601,1.62197946,-3.84031986,,,
imu,351.427354,-0.9008181168,-9.504647992000002,3.274288427200001,-1.23358268,1.64441019,-3.8702275,,,
imu,351.435824,-0.9026125752,-9.471749588000002,3.2641198296,-1.3980747,1.66684092,-3.75807385,,,
imu,351.444294,-0.9211553120000001,-9.437056725600002,3.2551475376,-1.62985891,1.80890221,-3.6459202,,,
imu,351.452764,-0.9127811728000002,-9.414925072,3.262923524000001,-1.66724346,1.83133294,-3.51881273,,,
imu,351.461233,-0.8990236584000001,-9.374250681600001,3.256343843200001,-1.82425857,2.09302479,-3.28702852,,,
imu,351.469703,-0.8870606024000001,-9.344941194400002,3.2503623152,-1.79435093,2.35471664,-2.98047521,,,
imu,351.478173,-0.8685178656000001,-9.328791068800001,3.2611290656,-1.74948947,2.48930102,-2.92813684,,,
imu,351.486643,-0.8607418792,-9.329987374400002,3.2635216768,-1.56256672,2.66126995,-2.8982292,,,
imu,351.495113,-0.8356194616000001,-9.321613235200001,3.275484732800001,-1.45788998,2.66874686,-2.81598319,,,
imu,351.503583,-0.8033192104000001,-9.321613235200001,3.283858872000001,-1.20367504,2.69117759,-2.75616791,,,
imu,351.512053,-0.7991321408000002,-9.324005846400002,3.2910367056,-0.93450628,2.75846978,-2.88327538,,,
imu,351.520523,-0.7758041816000001,-9.340155972000002,3.2994108448,-0.68029134,2.74351596,-2.88327538,,,
imu,351.528993,-0.7530743752000001,-9.3592968616,3.3119720536,-0.82982954,2.66874686,-3.01038285,,,
imu,351.537462,-0.7482891528000001,-9.396980488,3.331711096,-0.51579932,2.60893158,-2.85336774,,,
imu,351.545922,-0.7225685824,-9.416719530400002,3.3364963184,-0.53823005,2.41453192,-2.83093701,,,
imu,351.554382,-0.7213722768,-9.399971252000002,3.3550390552,-0.41859949,2.19770153,-3.07019813,,,
imu,351.562842,-0.7291482632,-9.401765710400001,3.361618736,-0.20924601,1.80890221,-3.39170526,,,
imu,351.57141,-0.7518780696000001,-9.438851184,3.367600264,-0.2765382,1.6518871,-3.54124346,,,
imu,351.57987,-0.7488873056,-9.4490197816,3.375376250400001,-0.49336859,1.51730272,-3.33188998,,,
imu,351.58833,-0.7488873056,-9.450814240000001,3.3897319176,-0.66533752,1.44253362,-3.16739796,,,
imu,351.596789,-0.7632429728000001,-9.446627170400001,3.419041404800001,-1.00179847,1.37524143,-3.16739796,,,
imu,351.605249,-0.7871690848,-9.433467808800001,3.427415544,-1.31582869,1.33785688,-3.10758268,,,
imu,351.613709,-0.7835801680000001,-9.405952780000002,3.420835863200001,-1.80182784,1.19579559,-3.18982869,,,
imu,351.622168,-0.8158804192000001,-9.3796340568,3.4280136968,-2.43736519,1.03878048,-3.31693616,,,
imu,351.630628,-0.8416009896000001,-9.355109792000002,3.439976752800001,-2.43736519,0.9640113799999996,-3.32441307,,,
imu,351.639088,-0.8344231560000002,-9.325800304800001,3.420835863200001,-2.75139541,0.76213481,-3.48142818,,,
imu,351.647548,-0.8511714344000001,-9.281536997600002,3.409470960000001,-2.8934567,0.5976427899999996,-3.57862801,,,
imu,351.656007,-0.8870606024000001,-9.234881079200001,3.419041404800001,-2.64671867,0.5303505999999998,-3.7954584,,,
imu,351.664467,-0.8984255056000002,-9.2277032456,3.432798919200001,-2.42241137,0.47801223,-3.7954584,,,
imu,351.672927,-0.9139774784000001,-9.246245982400001,3.436985988800001,-2.01865823,0.5378275100000001,-3.51133582,,,
imu,351.681387,-0.9181645480000001,-9.2510312048,3.442369364000001,-1.57004363,0.78456554,-3.42908981,,,
imu,351.689846,-0.9205571592,-9.266583177600001,3.4387804472,-1.12142903,0.9789651999999998,-3.32441307,,,
imu,351.698306,-0.9235479232000001,-9.283929608800001,3.4639028648,-0.56066078,1.13598031,-3.10010577,,,
imu,350.177307,,,,,,,-87.3425268,173.3483132,111.1526744
imu,350.278839,,,,,,,-87.36694119999999,173.3605204,110.9207376
imu,350.380432,,,,,,,-84.91329400000001,172.9454756,110.7376296
imu,350.481995,,,,,,,-87.81860759999999,173.4459708,111.0794312
imu,350.583557,,,,,,,-85.13302360000002,172.96989,108.0520456
imu,350.685577,,,,,,,-87.83081480000001,173.5680428,110.7742512
imu,350.786896,,,,,,,-87.17162600000002,173.2506556,108.5891624
imu,350.888245,,,,,,,-87.5866708,173.6657004,110.9573592
imu,351.706766,-0.9169682424000002,-9.285724067200002,3.4710806984,-0.127,1.39767216,-2.8234601,,,
imu,351.715225,-0.8984255056000002,-9.304266804000001,3.462108406400001,0.44124516,1.69674856,-2.58419898,,,
imu,351.723685,-0.8858642968000001,-9.3138372488,3.4525379616,0.83004448,2.03320951,-2.13558438,,,
imu,351.732145,-0.8697141712000002,-9.326398457600002,3.449547197600001,1.06182869,2.31733209,-1.95613854,,,
imu,351.740605,-0.8427972952,-9.325202152000001,3.451341656,1.0693056,2.3995781,-2.04586146,,,
imu,351.749066,-0.8248527112,-9.3269966104,3.4351915304,1.06182869,2.51920866,-2.09072292,,,
imu,351.757527,-0.804515516,-9.351520875200002,3.4298081552,0.9347212199999999,2.58650085,-2.43466078,,,
imu,351.765988,-0.7931506128000001,-9.3592968616,3.4178450992,0.9272443100000001,2.36967046,-2.55429134,,,
imu,351.774449,-0.7943469184000002,-9.361689472800002,3.42442478,0.91229049,2.22013226,-2.6739219,,,
imu,351.78291,-0.8075062800000001,-9.356904250400001,3.4100691128,0.94967504,2.01825569,-3.02533667,,,
imu,351.791371,-0.8063099744000001,-9.368269153600002,3.4142561824,0.9646288599999999,2.06311715,-3.18982869,,,
imu,351.799832,-0.8176748776000001,-9.377839598400001,3.4088728072,0.97958268,2.09302479,-3.27955161,,,
imu,351.808293,-0.8212637944000001,-9.367072848000001,3.3987042096,1.05435178,2.12293243,-3.35432071,,,
imu,351.816754,-0.8212637944000001,-9.361689472800002,3.405283890400001,1.04687487,2.04816333,-3.31693616,,,
imu,351.825215,-0.8194693360000002,-9.364680236800002,3.3933208344,0.91229049,2.01077878,-3.53376655,,,
imu,351.833676,-0.8248527112,-9.3592968616,3.385544848,0.88985976,2.14536316,-3.54872037,,,
imu,351.842137,-0.8087025856000001,-9.3383615136,3.3867411536,1.18893616,2.20517844,-3.47395127,,,
imu,351.850598,-0.8134878080000001,-9.325800304800001,3.37956332,1.27118217,2.1005017,-3.62348947,,,
imu,351.859059,-0.8015247520000001,-9.3413522776,3.3717873336,1.32352054,2.14536316,-3.77302767,,,
imu,351.86752,-0.8081044328000001,-9.344941194400002,3.373581792,1.51044329,1.94348659,-3.98238115,,,
imu,351.875981,-0.8051136688,-9.343146736000001,3.363413194400001,1.60764312,1.99582496,-4.13191935,,,
imu,351.884442,-0.8075062800000001,-9.347333805600002,3.3622168888,1.72727368,1.89862513,-4.22164227,,,
imu,351.892903,-0.8081044328000001,-9.363483931200001,3.3664039584,1.73475059,1.73413311,-4.37865738,,,
imu,351.901364,-0.8296379336000002,-9.3898026544,3.351450138400001,1.65250458,1.56964109,-4.4683803,,,
imu,351.909825,-0.8206656416,-9.406550932800002,3.3628150416,1.73475059,1.6518871,-4.49081103,,,
imu,351.918286,-0.8302360864000001,-9.381428515200001,3.3628150416,1.82447351,1.79394839,-4.341272829999999,,,
imu,351.926747,-0.8290397808000001,-9.379035904000002,3.3478612216,1.43567419,1.56964109,-4.52819558,,,
imu,351.935208,-0.8487788232000001,-9.4005694048,3.3711891808,1.42072037,1.53973345,-4.386134289999999,,,
imu,351.943669,-0.8481806704000001,-9.423299211200002,3.3831522368,1.24127453,1.49487199,-4.0945348,,,
imu,351.952487,-0.8667234072000001,-9.440645642400002,3.3873393064,0.9646288599999999,1.42010289,-4.04219643,,,
imu,351.961305,-0.8798827688,-9.433467808800001,3.3831522368,0.71789083,1.3528107,-4.00481188,,,
imu,351.970123,-0.8882569080000001,-9.425691822400001,3.3927226816,0.34404533,1.56216418,-3.85527368,,,
imu,351.978942,-0.9020144224000001,-9.426289975200001,3.4112654184,0.08235347999999998,1.51730272,-3.70573548,,,
imu,351.98776,-0.9014162696000001,-9.4460290176,3.390330070400001,-0.07466163,1.68927165,-3.51133582,,,
imu,351.996578,-0.8966310472000002,-9.429878892000001,3.3879374592,-0.21672292,1.83880985,-3.24964397,,,
imu,352.005396,-0.8768920048000002,-9.414925072,3.3933208344,-0.41859949,1.95844041,-2.9729983,,,
imu,352.014215,-0.8750975464000001,-9.401765710400001,3.402891279200001,-0.7401066199999999,2.08554788,-3.03281358,,,
imu,352.023033,-0.8529658928000001,-9.3862137376,3.385544848,-0.53823005,2.20517844,-3.01038285,,,
imu,352.031851,-0.8499751288000001,-9.384419279200001,3.3813577784,-0.5307531400000001,2.22760917,-3.24216706,,,
imu,352.040669,-0.8469843648000001,-9.3658765424,3.373581792,-0.61299915,2.06311715,-3.44404363,,,
imu,352.049488,-0.8469843648000001,-9.329389221600001,3.3664039584,-0.40364567,1.88367131,-3.65339711,,,
imu,352.058306,-0.8451899064,-9.3036686512,3.367600264,-0.35878421,1.69674856,-4.02724261,,,
imu,352.067124,-0.8499751288000001,-9.303070498400002,3.355637208000001,-0.20924601,1.67431783,-4.19921154,,,
imu,352.075942,-0.8583492680000002,-9.303070498400002,3.353842749600001,0.05992275,1.68927165,-4.25902682,,,
imu,352.084761,-0.8703123240000001,-9.306659415200002,3.3604224304,0.23936859,1.53973345,-4.28145755,,,
imu,352.093579,-0.8888550608000001,-9.328192916,3.372983639200001,0.36647606,1.59207182,-4.31136519,,,
imu,352.102397,-0.8882569080000001,-9.337165208000002,3.3711891808,0.63564482,1.53225654,-4.13191935,,,
imu,352.111215,-0.9008181168,-9.368269153600002,3.390330070400001,0.7552753799999999,1.45748744,-4.079580979999999,,,
imu,352.120034,-0.9026125752,-9.3832229736,3.393918987200001,0.70293701,1.62197946,-3.98985806,,,
imu,352.128852,-0.9151737840000002,-9.3862137376,3.402891279200001,0.5982602699999999,1.77899457,-3.80293531,,,
imu,352.13767,-0.9193608536000001,-9.3975786408,3.399900515200001,0.40386061,1.65936401,-3.7954584,,,
imu,352.146488,-0.9277349928000002,-9.405952780000002,3.404087584800001,0.18703022,1.65936401,-3.75059694,,,
imu,352.154971,-0.9319220624000001,-9.398176793600001,3.4100691128,0.12721494,1.77899457,-3.59358183,,,
imu,352.163454,-0.9355109792000001,-9.377241445600001,3.4082746544,-0.20924601,1.98834805,-3.496382,,,
imu,352.171936,-0.9432869656,-9.371259917600002,3.395713445600001,-0.2765382,2.04068642,-3.41413599,,,
imu,352.180419,-0.9426888128,-9.348530111200002,3.3933208344,-0.21672292,2.27247063,-3.28702852,,,
imu,352.188902,-0.9498666464000002,-9.356904250400001,3.3927226816,-0.31392275,2.34723973,-3.09262886,,,
imu,352.197384,-0.9385017432000002,-9.350324569600001,3.396311598400001,-0.20924601,2.56407012,-2.78607555,,,
imu,352.205867,-0.9253423816,-9.356904250400001,3.413658029600001,-0.25410747,2.76594669,-2.6739219,,,
imu,352.214349,-0.9181645480000001,-9.353315333600001,3.426219238400001,-0.13447691,2.97530017,-2.54681443,,,
imu,352.222832,-0.9026125752,-9.361091320000002,3.4226303216,-0.06718472,3.10988455,-2.51690679,,,
imu,352.231315,-0.8894532136000001,-9.356904250400001,3.4280136968,0.05992275,3.13231528,-2.59167589,,,
imu,352.239797,-0.8810790744000001,-9.352119028,3.4142561824,0.06739966,3.19213056,-2.83093701,,,
imu,352.24828,-0.8727049352000001,-9.3419504304,3.413658029600001,0.03001510999999998,3.11736146,-3.10758268,,,
imu,352.256762,-0.8583492680000002,-9.340754124800002,3.409470960000001,0.14964567,3.18465365,-3.21225942,,,
imu,352.265245,-0.8559566568000001,-9.357502403200002,3.4112654184,0.16459949,3.12483837,-3.42908981,,,
imu,352.273728,-0.8559566568000001,-9.3628857784,3.412461724000001,0.17955331,3.13231528,-3.48890509,,,
imu,352.28221,-0.8326286976000001,-9.3658765424,3.4130598768,0.41133752,3.07997691,-3.40665908,,,
imu,352.290693,-0.8182730304000002,-9.3664746952,3.420835863200001,0.41881443,3.1472691,-3.36179762,,,
imu,352.299176,-0.8098988912000001,-9.3592968616,3.4142561824,0.3739529699999999,3.07997691,-3.42908981,,,
imu,352.307658,-0.7997302936000001,-9.340754124800002,3.402891279200001,0.5459219,2.91548489,-3.41413599,,,
imu,352.316141,-0.8063099744000001,-9.326398457600002,3.412461724000001,0.3739529699999999,2.67622377,-3.5711511,,,
imu,352.324623,-0.804515516,-9.315033554400001,3.402891279200001,0.45619898,2.44443956,-3.61601256,,,
imu,352.333106,-0.8110951968000001,-9.301276040000001,3.3987042096,0.49358353,2.19022462,-3.56367419,,,
imu,352.341589,-0.8356194616000001,-9.307257568,3.3969097512,0.41881443,1.95844041,-3.52628964,,,
imu,352.350071,-0.8445917536,-9.298285276000001,3.389133764800001,0.60573718,1.83880985,-3.33936689,,,
imu,352.358527,-0.8583492680000002,-9.2935000536,3.3801614728,0.79265993,1.74908693,-3.13001341,,,
imu,352.366983,-0.8727049352000001,-9.315033554400001,3.3921245288,1.00201341,1.74161002,-3.11505959,,,
imu,352.375439,-0.8768920048000002,-9.336567055200002,3.4022931264,1.11416706,1.88367131,-2.92065993,,,
imu,352.383895,-0.8888550608000001,-9.3545116392,3.416648793600001,1.15155161,1.96591732,-2.80102937,,,
imu,352.392351,-0.8768920048000002,-9.3832229736,3.421434016000001,1.19641307,2.05564024,-2.68887572,,,
imu,352.400807,-0.8762938520000002,-9.389204501600002,3.4298081552,1.03192105,2.12293243,-2.70382954,,,
imu,352.409263,-0.8709104768000001,-9.410139849600002,3.431004460800001,0.80761375,2.19770153,-2.8234601,,,
imu,352.417719,-0.8583492680000002,-9.4244955168,3.4316026136,0.71789083,2.29490136,-2.73373718,,,
imu,352.426174,-0.8457880592000001,-9.4203084472,3.444163822400001,0.6132140899999999,2.3995781,-2.66644499,,,
imu,352.43463,-0.8158804192000001,-9.405952780000002,3.4459582808,0.7104139199999999,2.54163939,-2.68139881,,,
imu,352.443086,-0.8051136688,-9.390998960000001,3.4489490448,0.32909151,2.4743472,-2.96552139,,,
imu,352.451542,-0.804515516,-9.3993730992,3.456126878400001,0.01506129,2.40705501,-3.01038285,,,
imu,352.459998,-0.8069081272,-9.3993730992,3.4615102536,-0.11952309,2.39210119,-3.1225365,,,
imu,352.468454,-0.8158804192000001,-9.394587876800001,3.456725031200001,-0.21672292,2.25751681,-3.17487487,,,
imu,352.47691,-0.8188711832000002,-9.3628857784,3.436387836,-0.40364567,2.0257326,-3.45899745,,,
imu,352.485366,-0.8475825176000001,-9.3413522776,3.430406308000001,-0.56066078,1.91357895,-3.59358183,,,
imu,352.493822,-0.8577511152000001,-9.328192916,3.428611849600001,-0.46346095,1.90610204,-3.52628964,,,
imu,352.502278,-0.8733030880000001,-9.334174444000002,3.4178450992,-0.14943073,1.90610204,-3.2720747,,,
imu,352.510734,-0.8541621984000002,-9.301276040000001,3.4268173912,-0.007369440000000005,1.97339423,-2.8982292,,,
imu,352.519189,-0.8619381848000001,-9.267181330400001,3.4411730584,0.21693786,2.16031698,-2.62158353,,,
imu,350.989951,,,,,,,-87.0983828,174.0807452,111.250332
imu,351.091483,,,,,,,-87.1350044,173.5558356,110.8597016
imu,351.193046,,,,,,,-87.0251396,173.763358,111.2991608
imu,351.294669,,,,,,,-87.29369799999999,173.2628628,111.9949712
imu,351.404014,,,,,,,-85.1696452,171.8834492,111.494476
imu,351.505576,,,,,,,-87.3425268,172.8600252,111.9949712
imu,351.607261,,,,,,,-85.340546,171.9200708,110.0662336
imu,351.708732,,,,,,,-87.2692836,172.8722324,111.73862
imu,352.527645,-0.8517695872000001,-9.3174261656,3.395713445600001,0.73284465,2.41453192,-2.34493786,,,
imu,352.536101,-0.8206656416,-9.347333805600002,3.378965167200001,1.16650543,2.49677793,-2.33746095,,,
imu,352.544557,-0.8176748776000001,-9.298883428800002,3.411863571200001,1.15155161,2.52668557,-2.44213769,,,
imu,352.553013,-0.8015247520000001,-9.2929019008,3.420835863200001,1.368382,2.68370068,-2.43466078,,,
imu,352.561505,-0.7859727792000001,-9.313239096000002,3.3897319176,1.57025857,2.71360832,-2.62158353,,,
imu,352.569996,-0.7781967928000002,-9.3246039992,3.378965167200001,1.98148862,2.63883922,-2.77112173,,,
imu,352.578488,-0.7662337368000001,-9.324005846400002,3.382554084,2.01887317,2.59397776,-3.14496723,,,
imu,352.586979,-0.7500836112000001,-9.346735652800001,3.3693947224,2.01887317,2.49677793,-3.43656672,,,
imu,352.595471,-0.741709472,-9.372456223200002,3.3741799448,2.02635008,2.28742445,-3.66087402,,,
imu,352.603962,-0.7321390272000001,-9.3664746952,3.381955931200001,2.08616536,2.10797861,-3.81041222,,,
imu,352.612454,-0.7297464160000001,-9.373054376,3.381955931200001,2.13850373,1.86871749,-3.95247351,,,
imu,352.620945,-0.7357279440000001,-9.388008196000001,3.382554084,2.07121154,1.58459491,-4.19921154,,,
imu,352.629437,-0.7464946944,-9.392195265600002,3.3664039584,2.00391935,1.2780416,-4.26650373,,,
imu,352.637928,-0.7530743752000001,-9.4005694048,3.3670021112,1.86185806,1.16588795,-4.34874974,,,
imu,352.64642,-0.7710189592000001,-9.395784182400002,3.3628150416,1.84690424,0.80699627,-4.318842099999999,,,
imu,352.654911,-0.7847764736,-9.409541696800002,3.3592261248,1.62259694,0.5677351499999999,-4.453426479999999,,,
imu,352.663434,-0.7997302936000001,-9.393391571200002,3.3550390552,1.43567419,0.4929660499999997,-4.65530305,,,
imu,352.671926,-0.8224601,-9.382624820800002,3.3490575272,1.2936129,0.3658585799999998,-4.737549059999999,,,
imu,352.680417,-0.8517695872000001,-9.376045140000002,3.352646444,1.27118217,0.3733354899999997,-4.86465653,,,
imu,352.688909,-0.8565548096000002,-9.367671000800001,3.3388889296,1.30108981,0.3658585799999998,-5.00671782,,,
imu,352.6974,-0.8744993936000002,-9.391597112800001,3.3562353608,1.30856672,0.3658585799999998,-4.96185636,,,
imu,352.705892,-0.8798827688,-9.380830362400001,3.3412815408,1.13659779,0.4705353199999998,-4.98428709,,,
imu,352.714383,-0.8876587552000001,-9.384419279200001,3.3532445968,1.21136689,0.6499811599999998,-4.81231816,,,
imu,352.722875,-0.9067996448000001,-9.4005694048,3.3741799448,1.12912088,0.6873657099999999,-4.647826139999999,,,
imu,352.731367,-0.9026125752,-9.423299211200002,3.367600264,1.02444414,0.6798887999999996,-4.602964679999999,,,
imu,352.739858,-0.9020144224000001,-9.405952780000002,3.370591028000001,0.79265993,0.6499811599999998,-4.79736434,,,
imu,352.74835,-0.9050051864,-9.373054376,3.3592261248,0.49358353,0.6125966099999998,-4.931948719999999,,,
imu,352.756841,-0.9157719368000001,-9.372456223200002,3.37956332,0.68050628,0.8518577299999999,-4.80484125,,,
imu,352.765279,-0.9313239096000001,-9.401167557600001,3.3741799448,0.76275229,0.8219500899999996,-4.70016451,,,
imu,352.773717,-0.9379035904000002,-9.403560168800002,3.3484593744,0.79265993,0.9939190199999999,-4.46090339,,,
imu,352.782155,-0.9355109792000001,-9.384419279200001,3.352646444,0.83004448,1.08364194,-4.20668845,,,
imu,352.790594,-0.9307257568000001,-9.3766432928,3.3628150416,0.94967504,1.30047233,-4.0945348,,,
imu,352.799032,-0.9193608536000001,-9.399971252000002,3.3670021112,1.24875144,1.5023489,-4.034719519999999,,,
imu,352.80747,-0.9097904088000002,-9.419112141600001,3.361618736,1.24127453,1.65936401,-4.13191935,,,
imu,352.815908,-0.8846679912000001,-9.422102905600001,3.3520482912,1.2188438,1.68927165,-4.34874974,,,
imu,352.824346,-0.8888550608000001,-9.416719530400002,3.356833513600001,1.26370526,1.56216418,-4.52819558,,,
imu,352.832784,-0.8744993936000002,-9.423299211200002,3.3454686104,1.11416706,1.50982581,-4.78988743,,,
imu,352.841222,-0.8721067824000002,-9.416719530400002,3.3370944712,0.9870595899999999,1.41262598,-4.991764,,,
imu,352.84966,-0.8631344904,-9.420906600000002,3.3442723048,1.01696723,1.34533379,-4.991764,,,
imu,352.858098,-0.8553585040000001,-9.401167557600001,3.323935109600001,1.07678251,1.25561087,-5.02914855,,,
imu,352.866536,-0.8607418792,-9.356904250400001,3.2994108448,1.17398234,1.18831868,-4.991764,,,
imu,352.874975,-0.8517695872000001,-9.323407693600002,3.2766810384,1.33099745,0.9341037399999998,-5.17120984,,,
imu,352.883413,-0.8703123240000001,-9.287518525600001,3.265914288000001,1.43567419,0.7696117199999999,-5.33570186,,,
imu,352.891851,-0.8942384360000002,-9.266583177600001,3.250960468,1.46558183,0.3733354899999997,-5.72450118,,,
imu,352.900289,-0.9319220624000001,-9.258209038400002,3.2515586208,1.55530475,0.06678217999999969,-5.92637775,,,
imu,352.908727,-0.9558481744000001,-9.276751775200001,3.2461752456,1.62259694,-0.04537147000000008,-6.053485220000001,,,
imu,352.917165,-1.0013077872,-9.315033554400001,3.254549384800001,1.60016621,-0.1949096699999999,-6.12825432,,,
imu,352.925603,-1.0360006496,-9.3658765424,3.2736902744,1.54035093,-0.05284837999999992,-5.97123921,,,
imu,352.934041,-1.0503563168,-9.419710294400002,3.314962817600001,1.49548947,0.1191205499999999,-5.500193879999999,,,
imu,352.942479,-1.0276265104,-9.478329268800001,3.3394870824,1.16650543,0.3060432999999998,-5.08148692,,,
imu,352.950918,-1.0383932608,-9.520199964800002,3.3693947224,0.79265993,0.6350273399999997,-4.83474889,,,
imu,352.959356,-1.0342061912,-9.553098368800002,3.3897319176,0.40386061,0.7172733499999997,-4.70016451,,,
imu,352.96823,-1.0162616072,-9.5842023144,3.4016949736,-0.11204618,0.8518577299999999,-4.26650373,,,
imu,352.977104,-0.9905410368000002,-9.571042952800001,3.409470960000001,-0.52327623,1.06121121,-3.81788913,,,
imu,352.985978,-0.9785779808,-9.553098368800002,3.417246946400001,-0.9793677399999999,1.29299542,-3.60105874,,,
imu,352.994852,-0.9731946056000002,-9.527975951200002,3.42442478,-1.42798234,1.39019525,-3.44404363,,,
imu,353.003726,-0.9492684936000001,-9.492086783200001,3.4106672656,-1.61490509,1.41262598,-3.40665908,,,
imu,353.0126,-0.9355109792000001,-9.426888128000002,3.409470960000001,-1.98127368,1.43505671,-3.43656672,,,
imu,353.021474,-0.9175663952000002,-9.368269153600002,3.3927226816,-2.15324261,1.32290306,-3.69825857,,,
imu,353.030348,-0.9097904088000002,-9.3210150824,3.3801614728,-2.25044244,1.15093413,-3.99733497,,,
imu,353.039222,-0.9217534648000001,-9.287518525600001,3.3670021112,-2.01118132,1.08364194,-4.169303899999999,,,
imu,353.048096,-0.9331183680000001,-9.2486385936,3.3622168888,-1.66724346,1.04625739,-4.40108811,,,
imu,353.056969,-0.9408943544,-9.236077384800002,3.361618736,-1.3233056,0.9341037399999998,-4.78988743,,,
imu,353.065843,-0.9654186192,-9.2271050928,3.3693947224,-0.98684465,0.6798887999999996,-5.05905619,,,
imu,353.074717,-0.9719983000000001,-9.243853371200002,3.3783670144,-0.44103022,0.7322271699999998,-5.25345585,,,
imu,353.083591,-0.9779798280000002,-9.266583177600001,3.3783670144,-0.08213854000000001,0.7995193599999997,-5.26840967,,,
imu,353.092465,-0.9899428840000002,-9.286920372800001,3.3909282232,0.18703022,0.8967191899999998,-5.41047096,,,
imu,353.101339,-0.9803724392000001,-9.304864956800001,3.3969097512,0.23189168,1.02382666,-5.46280933,,,
imu,353.110213,-0.9893447312000001,-9.318024318400001,3.3951152928,0.41133752,1.00887284,-5.27588658,,,
imu,353.119087,-0.9923354952000002,-9.310248332,3.3933208344,0.32909151,0.9789651999999998,-5.24597894,,,
imu,353.127961,-0.9785779808,-9.3210150824,3.397507904,0.55339881,0.9191499199999997,-5.14877911,,,
imu,353.136835,-0.9995133288000001,-9.328791068800001,3.406480196,0.47862971,0.84438082,-5.1413022,,,
imu,353.145709,-0.9875502728000001,-9.322211388000001,3.4010968208,0.5010604399999999,0.7097964399999999,-4.87961035,,,
imu,353.154583,-0.980970592,-9.340754124800002,3.3993023624,0.66555246,0.64250425,-4.8422258,,,
imu,353.163457,-0.9977188704000002,-9.360493167200001,3.406480196,0.79265993,0.4705353199999998,-4.999240909999999,,,
imu,353.171883,-1.007887468,-9.374848834400002,3.409470960000001,0.67302937,0.4481045899999998,-5.10391765,,,
imu,353.180308,-1.0306172744,-9.3592968616,3.412461724000001,0.55339881,0.21632038,-4.976810179999999,,,
imu,353.188733,-1.0240375936,-9.360493167200001,3.397507904,0.70293701,0.08921290999999965,-4.81979507,,,
imu,353.197159,-1.0413840248,-9.377241445600001,3.4112654184,0.76275229,0.0368745399999999,-4.74502597,,,
imu,353.205584,-1.055739692,-9.377839598400001,3.416648793600001,0.59078336,0.0368745399999999,-4.64034923,,,
imu,353.21401,-1.052748928,-9.363483931200001,3.404087584800001,0.53096808,-0.09023292999999999,-4.61044159,,,
imu,353.222435,-1.06172122,-9.339557819200001,3.4058820432,0.49358353,-0.01546383000000029,-4.56558013,,,
imu,353.23086,-1.0772731928,-9.349128264,3.418443252,0.41881443,0.1041667299999998,-4.647826139999999,,,
imu,353.239286,-1.0850491792,-9.360493167200001,3.4142561824,0.36647606,0.02192071999999978,-4.63287232,,,
imu,353.247711,-1.0910307072,-9.352119028,3.4130598768,0.26179932,-0.03789456000000024,-4.75250288,,,
imu,353.256137,-1.1017974576,-9.351520875200002,3.416648793600001,0.23936859,0.01444380999999995,-4.82727198,,,
imu,353.264562,-1.1029937632,-9.346735652800001,3.3993023624,0.20198404,0.1041667299999998,-4.87213344,,,
imu,353.272987,-1.103591916,-9.344941194400002,3.397507904,0.5010604399999999,0.27613566,-4.83474889,,,
imu,353.281413,-1.0952177768,-9.326398457600002,3.381955931200001,0.50853735,0.2088434699999997,-4.75250288,,,
imu,353.289838,-1.0910307072,-9.319818776800002,3.3807596256,0.55339881,0.1714589200000001,-4.73007215,,,
imu,353.298264,-1.0898344016,-9.302472345600002,3.373581792,0.78518302,0.3284740299999998,-4.70016451,,,
imu,353.306689,-1.067702748,-9.292303748000002,3.3670021112,1.09921324,0.3733354899999997,-4.84970271,,,
imu,353.315114,-1.0545433864,-9.3036686512,3.3693947224,1.08425942,0.41819695,-5.20859439,,,
imu,353.32354,-1.052748928,-9.307257568,3.3664039584,1.38333582,0.33595094,-5.34317877,,,
imu,353.331965,-1.0491600112,-9.2935000536,3.3640113472,1.67493531,0.3733354899999997,-5.500193879999999,,,
imu,353.340391,-1.055739692,-9.305463109600002,3.361618736,1.70484295,0.2237972899999998,-5.761885729999999,,,
imu,351.810264,,,,,,,-87.11059000000002,172.4449804,109.7488464
imu,351.911826,,,,,,,-87.2692836,173.2018268,112.1292504
imu,352.013389,,,,,,,-87.24486920000001,172.9454756,111.43344
imu,352.114982,,,,,,,-87.2814908,173.1774124,111.2991608
imu,352.216514,,,,,,,-87.18383320000001,173.2018268,111.7264128
imu,352.318107,,,,,,,-86.9641036,173.3116916,111.6897912
imu,352.419913,,,,,,,-87.3181124,172.9576828,111.5921336
imu,352.52172,,,,,,,-84.9255012,172.3839444,111.006188
imu,353.348816,-1.0629175256,-9.3168280128,3.365207652800001,1.61512003,0.02939763000000006,-6.135731229999999,,,
imu,353.357241,-1.0748805816,-9.329987374400002,3.3646095,1.65250458,-0.06780220000000003,-6.19554651,,,
imu,353.365667,-1.0742824288,-9.347333805600002,3.3711891808,1.72727368,-0.1051867500000001,-6.090869769999999,,,
imu,353.374134,-1.0904325544,-9.367072848000001,3.376572556000001,1.77213514,-0.2472480400000001,-5.93385466,,,
imu,353.382601,-1.0964140824,-9.3898026544,3.3849466952,1.5179202,-0.2921095,-5.806747189999999,,,
imu,353.391069,-1.1023956104,-9.399971252000002,3.3927226816,1.31604363,-0.25472495,-5.72450118,,,
imu,353.399536,-1.1071808328,-9.406550932800002,3.3867411536,1.17398234,-0.31454023,-5.47028624,,,
imu,353.408004,-1.1251254168,-9.4203084472,3.400498668,0.97958268,-0.37435551,-5.22354821,,,
imu,353.416471,-1.1221346528,-9.4316733504,3.395713445600001,0.80013684,-0.3818324200000003,-5.17120984,,,
imu,353.424938,-1.1239291112,-9.426289975200001,3.396311598400001,0.68050628,-0.4865091600000002,-4.991764,,,
imu,353.433406,-1.130508792,-9.420906600000002,3.3921245288,0.53096808,-0.5238937100000003,-4.81231816,,,
imu,353.441873,-1.1406773896,-9.4041583216,3.402891279200001,0.29170696,-0.68090882,-4.56558013,,,
imu,353.45034,-1.139481084,-9.380830362400001,3.3933208344,0.35899915,-0.6883857300000003,-4.35622665,,,
imu,353.458808,-1.1496496816,-9.3622876256,3.382554084,0.41881443,-0.6210935399999999,-4.16182699,,,
imu,353.467275,-1.1687905712,-9.348530111200002,3.3771707088,0.3216146,-0.7033395499999999,-4.057150249999999,,,
imu,353.475742,-1.187333308,-9.302472345600002,3.3670021112,0.4711528,-0.6435242699999999,-4.0945348,,,
imu,353.48421,-1.202287128,-9.268377636,3.3532445968,0.33656842,-0.6210935399999999,-4.102011709999999,,,
imu,353.492677,-1.2136520312,-9.2851259144,3.3532445968,0.49358353,-0.5911859000000002,-3.9449966,,,
imu,353.501144,-1.2190354064,-9.288116678400002,3.3532445968,0.58330645,-0.3668786000000002,-4.0197657,,,
imu,353.509612,-1.2519338104,-9.291107442400001,3.343674152,0.82256757,-0.07527911000000032,-4.21416536,,,
imu,353.518079,-1.259111644,-9.272564705600002,3.3394870824,1.04687487,0.02192071999999978,-4.20668845,,,
imu,353.526547,-1.2632987136,-9.2917055952,3.3442723048,1.38333582,0.2013665599999999,-4.19173463,,,
imu,353.535014,-1.2926082008,-9.335370749600001,3.3478612216,1.65998149,0.4854891399999999,-4.19173463,,,
imu,353.543481,-1.2914118952,-9.3658765424,3.326327720800001,1.91419643,0.7397040799999997,-4.25902682,,,
imu,353.551949,-1.2848322144,-9.382026668000002,3.3353000128,2.07868845,1.09859576,-3.99733497,,,
imu,353.560416,-1.2603079496,-9.398176793600001,3.3502538328,2.08616536,1.43505671,-3.96742733,,,
imu,353.568883,-1.2507375048,-9.4107380024,3.3478612216,2.12354991,1.61450255,-4.16182699,,,
imu,353.57746,-1.2543264216,-9.420906600000002,3.340085235200001,1.92915025,1.70422547,-4.22911918,,,
imu,353.586037,-1.244157824,-9.423897364000002,3.335898165600001,1.69736604,1.66684092,-4.3936112,,,
imu,353.594613,-1.2333910736,-9.413130613600002,3.3251314152,1.42819728,1.66684092,-4.63287232,,,
imu,353.60319,-1.2453541296,-9.3993730992,3.3173554288,1.368382,1.56216418,-4.8422258,,,
imu,353.611767,-1.2387744488,-9.385017432000001,3.3173554288,1.39081273,1.60702564,-4.715118329999999,,,
imu,353.620344,-1.2483448936,-9.379035904000002,3.300607150400001,1.21136689,1.53973345,-4.59548777,,,
imu,353.62892,-1.2465504352,-9.3718580704,3.2910367056,0.97958268,1.4275798,-4.49081103,,,
imu,353.637497,-1.2549245744,-9.370063612000001,3.292831164,0.8749059399999999,1.5023489,-4.32631901,,,
imu,353.646074,-1.2519338104,-9.3694654592,3.2898404,0.9571519499999999,1.48739508,-4.02724261,,,
imu,353.65465,-1.2483448936,-9.3754469872,3.2982145392,1.08425942,1.5023489,-3.69078166,,,
imu,353.663227,-1.24116706,-9.3832229736,3.295821928000001,0.8973366700000001,1.50982581,-3.65339711,,,
imu,353.671804,-1.2435596712,-9.378437751200002,3.3035979144,0.91229049,1.73413311,-3.48890509,,,
imu,353.680381,-1.2459522824,-9.3766432928,3.301803456,0.9945364999999999,1.80890221,-3.28702852,,,
imu,353.688957,-1.2447559768,-9.385017432000001,3.298812692000001,0.9197674,1.65936401,-3.29450543,,,
imu,353.697534,-1.2369799904,-9.385017432000001,3.2982145392,0.80013684,1.70422547,-3.32441307,,,
imu,353.706111,-1.244157824,-9.376045140000002,3.300607150400001,0.6954601,1.83133294,-3.31693616,,,
imu,353.714687,-1.2453541296,-9.371259917600002,3.292831164,0.71789083,1.77151766,-3.29450543,,,
imu,353.723264,-1.2369799904,-9.3766432928,3.295821928000001,0.67302937,1.83133294,-3.44404363,,,
imu,353.731841,-1.2405689072,-9.367671000800001,3.2904385528,0.63564482,1.93600968,-3.46647436,,,
imu,353.740418,-1.2459522824,-9.368269153600002,3.2904385528,0.57582954,1.98834805,-3.47395127,,,
imu,353.748994,-1.2537282688,-9.376045140000002,3.2946256224,0.58330645,2.16031698,-3.50385891,,,
imu,353.757451,-1.244157824,-9.374250681600001,3.291634858400001,0.59078336,2.07059406,-3.43656672,,,
imu,353.766028,-1.2345873792,-9.3766432928,3.3035979144,0.4861066199999999,2.22760917,-3.39170526,,,
imu,353.774604,-1.2429615184,-9.3927934184,3.3035979144,0.38142988,2.30237827,-3.35432071,,,
imu,353.782948,-1.232194768,-9.3796340568,3.307784984,0.33656842,2.26499372,-3.25712088,,,
imu,353.791292,-1.2304003096,-9.381428515200001,3.310177595200001,0.14216876,2.2500399,-3.18235178,,,
imu,353.799636,-1.2250169344,-9.382624820800002,3.3119720536,-0.14195382,2.31733209,-3.08515195,,,
imu,353.80798,-1.2130538784,-9.3868118904,3.3173554288,-0.17933837,2.49677793,-2.99542903,,,
imu,353.816324,-1.2046797392,-9.374848834400002,3.314962817600001,-0.14943073,2.51173175,-2.83093701,,,
imu,353.824668,-1.2136520312,-9.370063612000001,3.3293184848,-0.14195382,2.69117759,-2.81598319,,,
imu,353.833012,-1.1957074472,-9.3664746952,3.3251314152,-0.14943073,2.67622377,-2.65149117,,,
imu,353.841356,-1.1879314608,-9.3652783896,3.3341037072,-0.23167674,2.66874686,-2.71878336,,,
imu,353.8497,-1.1867351552,-9.3754469872,3.3388889296,-0.19429219,2.65379304,-2.70382954,,,
imu,353.858044,-1.1819499328,-9.376045140000002,3.323935109600001,0.03001510999999998,2.63136231,-2.83093701,,,
imu,353.866388,-1.1735757936,-9.3628857784,3.340683388,0.06739966,2.61640849,-2.99542903,,,
imu,352.622679,,,,,,,-87.5744636,173.2628628,111.5066832
imu,352.724272,,,,,,,-84.7179788,171.810206,109.7366392
imu,352.825804,,,,,,,-87.3181124,172.8722324,112.0804216
imu,352.927366,,,,,,,-87.12279720000001,171.9811068,109.60236
imu,353.028929,,,,,,,-87.2692836,172.4938092,112.5076736
imu,353.130491,,,,,,,-86.76878839999999,172.3839444,111.8240704
imu,353.232023,,,,,,,-86.80541,173.0431332,112.2147008
imu,353.333647,,,,,,,-86.5734732,172.8600252,112.6175384
imu,353.435209,,,,,,,-86.84203159999998,172.8356108,112.2513224
imu,353.544523,,,,,,,-86.89086040000001,172.4327732,112.8006464
imu,353.646116,,,,,,,-84.4616276,171.7613772,111.3846112
imu,353.747648,,,,,,,-87.30590520000001,172.2008364,112.6419528
imu,353.849272,,,,,,,-84.9255012,171.6393052,109.2849728
