Type,Timestamp,Data Accelerometer X,Data Accelerometer Y,Data Accelerometer Z,Data Gyroscope X,Data Gyroscope Y,Data Gyroscope Z,Data Magnetometer X,Data Magnetometer Y,Data Magnetometer Z
imu,289.415314,-0.4103328208,-9.3622876256,3.25993276,-0.32887657,2.44443956,-3.89265823,,,
imu,289.423564,-0.4097346680000001,-9.343146736000001,3.2527549264,-0.05970781,2.35471664,-3.82536604,,,
imu,289.431814,-0.4127254320000001,-9.330585527200002,3.242586328800001,0.21693786,2.10797861,-3.66835093,,,
imu,289.440064,-0.4258847936,-9.328791068800001,3.2264362032,0.64312173,1.97339423,-3.39918217,,,
imu,289.448314,-0.4318663216,-9.337165208000002,3.2222491336,1.27118217,1.86871749,-3.16739796,,,
imu,289.456564,-0.4444275304,-9.334174444000002,3.2342121896,1.80204278,1.71170238,-2.95804448,,,
imu,289.464814,-0.4743351704000001,-9.3479319584,3.2186602168,2.22822665,1.51730272,-2.78607555,,,
imu,289.473064,-0.4845037680000001,-9.3832229736,3.2186602168,2.45253395,1.47991817,-2.69635263,,,
imu,289.481313,-0.5072335744,-9.404756474400001,3.231221425600001,2.6394567,1.47244126,-2.71130645,,,
imu,289.489563,-0.5209910888,-9.414326919200002,3.2306232728,2.73665653,1.65936401,-2.65149117,,,
imu,289.497813,-0.5401319784,-9.4137287664,3.212080536000001,2.65441052,1.74908693,-2.68139881,,,
imu,289.506063,-0.5419264368000001,-9.4286825864,3.2084916192,2.57216451,1.97339423,-2.79355246,,,
imu,289.514883,-0.5455153536,-9.439449336800001,3.204902702400001,2.47496468,2.30237827,-2.748691,,,
imu,289.523702,-0.5508987288,-9.4460290176,3.1929396464,2.44505704,2.57902394,-2.8234601,,,
imu,289.532522,-0.5497024232000001,-9.464571754400001,3.170209840000001,2.30299575,2.89305416,-2.93561375,,,
imu,289.541342,-0.5359449088000001,-9.481918185600001,3.179182132,2.13850373,3.13979219,-3.03281358,,,
imu,289.550161,-0.5233837000000001,-9.478329268800001,3.161237548,1.9665348,3.34914567,-3.09262886,,,
imu,289.558981,-0.5227855472,-9.4980683112,3.1510689504,1.76465823,3.5211146,-3.13749032,,,
imu,289.5678,-0.5042428104000001,-9.5213962704,3.1486763392,1.67493531,3.70803735,-2.98795212,,,
imu,289.57662,-0.49347606,-9.526181492800001,3.1450874224,1.40576655,3.9697292,-3.0477674,,,
imu,289.585439,-0.4755314760000001,-9.5447242296,3.1414985056,1.12164397,4.06692903,-3.06272122,,,
imu,289.594259,-0.4569887392,-9.5566872856,3.1337225192,0.8524752099999999,4.22394414,-3.10010577,,,
imu,289.603079,-0.439642308,-9.555490980000002,3.1420966584,0.52349117,4.33609779,-3.01038285,,,
imu,289.611898,-0.4264829464000001,-9.554294674400001,3.1301336024,0.43376825,4.478159079999999,-3.10010577,,,
imu,289.620718,-0.4097346680000001,-9.554892827200002,3.1301336024,0.22441477,4.4931129,-3.05524431,,,
imu,289.629537,-0.3893974728000001,-9.5213962704,3.115179782400001,0.05244583999999999,4.38095925,-3.0477674,,,
imu,289.638357,-0.3762381112000001,-9.502255380800001,3.105609337600001,-0.2765382,4.32114397,-3.14496723,,,
imu,289.647176,-0.3750418056000001,-9.482516338400002,3.1068056432,-0.59056842,4.246374869999999,-3.2720747,,,
imu,289.655996,-0.3570972216000001,-9.481918185600001,3.108001948800001,-0.5681376899999999,4.25385178,-3.25712088,,,
imu,289.664816,-0.3457323184,-9.456795768000001,3.094244434400001,-0.77749117,4.26132869,-3.22721324,,,
imu,289.673635,-0.334965568,-9.4412437952,3.098431504000001,-0.85973718,4.0444983,-3.24964397,,,
imu,289.682455,-0.3415452488,-9.444832712,3.0972351984,-0.84478336,3.85757555,-3.3468438,,,
imu,289.691274,-0.3469286240000001,-9.446627170400001,3.108001948800001,-0.82235263,3.79028336,-3.30945925,,,
imu,289.700094,-0.3475267768,-9.4460290176,3.107403796,-0.91207555,3.60336061,-3.2720747,,,
imu,289.708914,-0.3642750552,-9.4753385048,3.1169742408,-0.70272207,3.57345297,-3.21973633,,,
imu,289.717385,-0.3690602776000001,-9.4831144912,3.126544685600001,-0.67281443,3.55102224,-3.1973056,,,
imu,289.725856,-0.3547046104000001,-9.5040498392,3.137311436000001,-0.73262971,3.55849915,-3.09262886,,,
imu,289.734327,-0.3517138464,-9.499862769600002,3.136115130400001,-0.81487572,3.75289881,-2.99542903,,,
imu,289.742798,-0.3594898328000001,-9.501657228000001,3.128937296800001,-0.6503837,3.797760269999999,-2.83841392,,,
imu,289.751269,-0.3403489432000001,-9.509433214400001,3.140302200000001,-0.70272207,3.78280645,-2.80102937,,,
imu,289.759741,-0.3295821928000001,-9.516012895200001,3.1438911168,-0.77749117,3.65569898,-2.8234601,,,
imu,289.768212,-0.3206099008000001,-9.504647992000002,3.143292964,-0.80739881,3.55102224,-3.21973633,,,
imu,289.776683,-0.3265914288,-9.505246144800001,3.1450874224,-1.10647521,3.34914567,-3.60105874,,,
imu,289.785154,-0.3289840400000001,-9.498666464000001,3.142694811200001,-1.39059779,3.19960747,-3.83284295,,,
imu,289.793625,-0.3337692624,-9.4974701584,3.1576486312,-1.62985891,3.10988455,-3.93004278,,,
imu,289.802096,-0.3415452488,-9.486105255200002,3.1630320064,-1.80930475,2.84071579,-4.07210407,,,
imu,289.810568,-0.3511156936,-9.4801237272,3.167817228800001,-1.82425857,2.83323888,-4.06462716,,,
imu,289.819039,-0.3714528888,-9.479525574400002,3.1839673544,-2.16071952,2.60893158,-4.10948862,,,
imu,289.82751,-0.3774344168000001,-9.475936657600002,3.207893466400001,-2.49718047,2.63136231,-4.11696553,,,
imu,289.835981,-0.3738455000000001,-9.474142199200001,3.207893466400001,-2.5943803,2.81080815,-3.91508896,,,
imu,289.844452,-0.3780325696000001,-9.481320032800001,3.2150713,-2.93831816,2.84071579,-3.83284295,,,
imu,289.852923,-0.3822196392,-9.467562518400001,3.239595564800001,-3.2673022,2.82576197,-3.76555076,,,
imu,289.861395,-0.3876030144000001,-9.4633754488,3.2467733984,-3.31964057,2.82576197,-3.73564312,,,
imu,289.869866,-0.3977716120000001,-9.4555994624,3.260530912800001,-3.58880933,2.75846978,-3.78798149,,,
imu,289.878337,-0.4049494456000001,-9.439449336800001,3.25993276,-3.52899405,2.80333124,-3.83284295,,,
imu,289.886808,-0.4127254320000001,-9.438851184,3.268306899200001,-3.80563972,2.98277708,-3.99733497,,,
imu,289.895279,-0.4145198904,-9.4215047528,3.2790736496,-3.85797809,2.90800798,-4.06462716,,,
imu,289.90375,-0.4264829464000001,-9.414326919200002,3.2946256224,-3.760778259999999,2.97530017,-4.17678081,,,
imu,289.912222,-0.4354552384000001,-9.4250936696,3.295821928000001,-3.42431731,3.05006927,-4.20668845,,,
imu,289.920685,-0.4528016696000001,-9.423299211200002,3.307186831200001,-3.43927113,2.97530017,-4.34874974,,,
imu,289.929149,-0.4611758088,-9.4113361552,3.305392372800001,-3.4168404,3.15474601,-4.4683803,,,
imu,289.937612,-0.4767277816000001,-9.3652783896,3.2874477888,-3.2673022,3.43139168,-4.58053395,,,
imu,289.946076,-0.5060372688000001,-9.385017432000001,3.3191498872,-3.18505619,3.61831443,-4.9169949,,,
imu,289.954539,-0.517402172,-9.4071490856,3.3221406512,-3.13271782,3.90243701,-5.03662546,,,
imu,289.963003,-0.5449172008000001,-9.408943544000001,3.328720332000001,-3.20748692,4.27628251,-5.238502029999999,,,
imu,289.971466,-0.5580765624000001,-9.401765710400001,3.338290776800001,-3.31216366,4.76975857,-5.39551714,,,
imu,289.97993,-0.5921712720000001,-9.402962016000002,3.354440902400001,-3.65610152,5.285665359999999,-5.38804023,,,
imu,289.988394,-0.6172936896000001,-9.454403156800002,3.376572556000001,-3.82059354,5.898771979999999,-5.58243989,,,
imu,289.996857,-0.6400234960000001,-9.486105255200002,3.402891279200001,-4.21686977,6.78104736,-5.73197809,,,
imu,290.005321,-0.6292567456000001,-9.5213962704,3.4112654184,-4.71782274,7.625938189999999,-5.73197809,,,
imu,290.013784,-0.6328456624000001,-9.526779645600001,3.4196395576,-5.23372953,8.51569048,-5.98619303,,,
imu,290.022248,-0.6442105656,-9.517807353600002,3.433397072000001,-5.82440542,9.39048895,-6.44976145,,,
imu,290.030711,-0.6226770648,-9.5154147424,3.4100691128,-6.50480423,10.16808759,-7.055391159999999,,,
imu,290.039175,-0.6178918424000002,-9.508835061600001,3.386143000800001,-6.923511189999999,10.97559387,-7.4591443,,,
imu,290.047638,-0.6172936896000001,-9.468758824,3.4058820432,-7.3796027,11.88029998,-7.780651429999999,,,
imu,290.056102,-0.6149010784000001,-9.426289975200001,3.4088728072,-7.72354056,12.67285244,-8.0572971,,,
imu,290.064565,-0.5826008272000001,-9.4113361552,3.390330070400001,-7.86560185,13.32334361,-8.21431221,,,
imu,290.073029,-0.5694414656000001,-9.361689472800002,3.3849466952,-8.00766314,13.98131169,-8.371327319999999,,,
imu,290.081492,-0.5347486032000001,-9.325202152000001,3.412461724000001,-8.06747842,14.51964921,-8.66292681,,,
imu,290.089956,-0.5120187968000001,-9.304864956800001,3.419041404800001,-8.03009387,15.04303291,-8.68535754,,,
imu,290.09842,-0.4528016696000001,-9.300079734400002,3.4292100024,-7.69363292,15.35706313,-8.677880629999999,,,
imu,290.106883,-0.4139217376000001,-9.288714831200002,3.439976752800001,-7.544094719999999,15.47669369,-8.67040372,,,
imu,290.115347,-0.4121272792,-9.289312984,3.4818474488,-7.27492596,15.51407824,-8.70778827,,,
imu,290.12386,-0.3870048616000001,-9.3108464848,3.5225218392,-7.13286467,15.1850942,-8.77508046,,,
imu,290.132373,-0.3690602776000001,-9.335968902400001,3.528503367200001,-7.12538776,14.87106398,-8.67040372,,,
imu,290.140886,-0.3457323184,-9.313239096000002,3.533288589600001,-6.96089574,14.44488011,-8.59563462,,,
imu,290.149399,-0.3367600264,-9.281536997600002,3.5596073128,-6.86369591,13.99626551,-8.79751119,,,
imu,290.157912,-0.3259932760000001,-9.262994260800001,3.563196229600001,-6.736588439999999,13.51026636,-8.78255737,,,
imu,290.166425,-0.3116376088,-9.262396108,3.5667851464,-6.51228114,12.94949811,-8.677880629999999,,,
imu,290.174939,-0.2996745528,-9.228301398400001,3.575159285600001,-6.22068165,12.27657621,-8.46105024,,,
imu,290.183452,-0.2948893304,-9.218132800800001,3.591907564,-6.01880508,11.73076178,-8.07972783,,,
imu,290.191965,-0.2847207328,-9.2133475784,3.622413356800001,-5.54028284,10.98307078,-7.65354396,,,
imu,290.200478,-0.2757484408,-9.190019619200001,3.639161635200001,-5.09914515,10.43725635,-7.19745245,,,
imu,290.208991,-0.275150288,-9.1930103832,3.651124691200001,-4.64305364,9.891441919999998,-6.659114929999999,,,
imu,290.217504,-0.2643835376,-9.190019619200001,3.675648956,-4.276685049999999,9.098889459999999,-6.14320814,,,
imu,290.226017,-0.2727576768,-9.181047327200002,3.6828267896,-3.99256247,8.41101374,-5.5151477,,,
imu,290.23453,-0.2637853848,-9.175663952,3.697780609600001,-3.57385551,7.67827656,-4.78241052,,,
imu,290.243044,-0.2673743016,-9.1619064376,3.716323346400001,-3.32711748,6.848339549999999,-4.341272829999999,,,
imu,290.251557,-0.2697669128,-9.171476882400002,3.730080860800001,-3.10281018,6.15298692,-3.90761205,,,
imu,290.26007,-0.2859170384,-9.1583175208,3.732473472000001,-2.90841052,5.52492648,-3.41413599,,,
imu,290.268583,-0.2763465936,-9.142167395200001,3.7348660832,-2.57942648,4.694989469999999,-3.01785976,,,
imu,290.277096,-0.28412258,-9.140372936800002,3.735464236,-2.30278081,4.03702139,-2.83841392,,,
imu,290.285609,-0.2918985664000001,-9.128409880800001,3.7402494584,-1.97379677,3.38653022,-2.70382954,,,
imu,290.294122,-0.275150288,-9.119437588800002,3.735464236,-1.50275144,2.76594669,-2.55429134,,,
imu,290.302636,-0.2637853848,-9.121232047200001,3.7193141104,-1.03170611,2.25751681,-2.4496146,,,
imu,290.311149,-0.2566075512,-9.145158159200001,3.732473472000001,-0.44103022,1.74161002,-2.3000764,,,
imu,290.319662,-0.2398592728,-9.154728604,3.7318753192,0.20198404,1.09111885,-2.001,,,
imu,290.328082,-0.2350740504,-9.1619064376,3.7336697776,0.67302937,0.4555814999999996,-1.70940051,,,
imu,290.336502,-0.2338777448,-9.187627008000002,3.751016208800001,1.27865908,-0.09023292999999999,-1.31312428,,,
imu,290.344923,-0.2189239248,-9.211553120000001,3.7486235976,1.84690424,-0.7482010100000003,-0.8719865899999999,,,
imu,290.353343,-0.1782495344,-9.224114328800002,3.7456328336,2.22822665,-1.3388769,-0.43832581,,,
imu,290.361763,-0.2015774936,-9.2271050928,3.735464236,2.45253395,-2.19872155,-0.1317724999999998,,,
imu,290.370184,-0.251224176,-9.244451524,3.759390348,2.57216451,-2.96136637,0.01028879000000016,,,
imu,290.378904,-0.2948893304,-9.284527761600001,3.7641755704,2.66188743,-3.79130338,0.2794575500000001,,,
imu,290.387324,-0.3241988176,-9.272564705600002,3.742043916800001,2.49739541,-4.40441,0.52619558,,,
imu,290.395745,-0.3547046104000001,-9.242657065600001,3.730080860800001,2.34785721,-4.80068623,0.3392728300000001,,,
imu,290.404165,-0.3929863896,-9.245647829600001,3.732473472000001,2.30299575,-5.099762630000001,0.04767334000000023,,,
imu,290.412585,-0.4408386136,-9.261199802400002,3.7169214992,2.24318047,-5.06237808,-0.04204958000000003,,,
imu,290.421005,-0.49347606,-9.2617979552,3.704958443200001,2.07121154,-4.88293224,-0.05700339999999993,,,
imu,290.429426,-0.49347606,-9.2689757888,3.7019676792,1.83195042,-4.61376348,-0.2065416,,,
imu,290.437846,-0.5150095608,-9.253423816000002,3.696584304,1.57773548,-4.35954854,-0.3560797999999998,,,
imu,290.446266,-0.5185984776000001,-9.2546201216,3.693593540000001,1.6674584,-3.94831849,-0.55047946,,,
imu,290.454687,-0.5114206440000001,-9.265386872,3.680434178400001,1.80951969,-3.46231934,-0.62524856,,,
imu,290.463107,-0.5084298800000001,-9.271368400000002,3.674452650400001,1.97401171,-2.93145873,-0.5953409199999999,,,
imu,290.471527,-0.5078317272000001,-9.261199802400002,3.658302524800001,2.16841137,-2.57256705,-0.52057182,,,
imu,290.479948,-0.4839056152000001,-9.251629357600002,3.651722844000001,2.44505704,-2.19124464,-0.7000176599999999,,,
imu,290.488368,-0.4809148512,-9.252825663200001,3.645741316000001,2.87124091,-1.92207588,-0.8944173199999998,,,
imu,290.496788,-0.481513004,-9.251629357600002,3.626002273600001,3.05816366,-1.75758386,-1.3280781,,,
imu,290.505209,-0.4719425592000001,-9.2480404408,3.616431828800001,3.30490169,-1.5631842,-1.58229304,,,
imu,289.475045,,,,,,,-84.77901480000001,171.5416476,109.3460088
imu,289.576607,,,,,,,-86.74437400000001,172.7379532,111.7874488
imu,289.67817,,,,,,,-86.7932028,172.3229084,111.6043408
imu,289.779732,,,,,,,-86.54905880000001,172.35953,111.12826
imu,290.513629,-0.4833074624000001,-9.249834899200001,3.608655842400001,3.42453225,-1.45850746,-1.88884635,,,
imu,290.522049,-0.4827093096,-9.259405344000001,3.6056650784,3.37967079,-1.22672325,-2.30755331,,,
imu,290.530863,-0.4922797544,-9.2659850248,3.600879856,3.57407045,-0.9201699400000001,-2.65896808,,,
imu,290.539678,-0.4982612824000001,-9.285724067200002,3.600879856,3.52173208,-0.6958626400000001,-2.89075229,,,
imu,290.548492,-0.4874945320000001,-9.288714831200002,3.5901131056,3.69370101,-0.3594016900000003,-2.9729983,,,
imu,290.557306,-0.4958686712000001,-9.2929019008,3.586524188800001,3.64883955,0.006966899999999665,-3.1225365,,,
imu,290.56612,-0.4803166984,-9.308453873600001,3.597290939200001,3.59650118,0.4107200399999997,-3.03281358,,,
imu,290.574935,-0.4551942808000001,-9.311444637600001,3.600281703200001,3.589024269999999,0.58268897,-2.95056757,,,
imu,290.583749,-0.4300718632,-9.315631707200001,3.586524188800001,3.36471697,0.6574580699999997,-3.03281358,,,
imu,290.592563,-0.4115291264,-9.3204169296,3.5883186472,3.43200916,0.80699627,-2.86832156,,,
imu,290.601378,-0.3870048616000001,-9.326398457600002,3.593702022400001,3.35724006,0.7322271699999998,-2.79355246,,,
imu,290.610192,-0.361882444,-9.309650179200002,3.594898328000001,3.44696298,0.6873657099999999,-2.68139881,,,
imu,290.619006,-0.340947096,-9.304864956800001,3.5853278832,3.3123786,0.47801223,-2.55429134,,,
imu,290.62782,-0.3355637208,-9.290509289600001,3.581140813600001,3.49182444,0.27613566,-2.28512258,,,
imu,290.636635,-0.3224043592,-9.286920372800001,3.582935272,3.36471697,-0.1276174800000001,-2.0757691,,,
imu,290.645449,-0.3104413032000001,-9.288714831200002,3.586524188800001,3.67127028,-0.4416477000000003,-1.67949287,,,
imu,290.654263,-0.311039456,-9.3144354016,3.5960946336,3.731085559999999,-0.71829337,-1.44770866,,,
imu,290.663077,-0.3146283728000001,-9.2964908176,3.5661869936,3.80585466,-1.27906162,-1.3280781,,,
imu,290.671892,-0.3277877344,-9.305463109600002,3.5847297304,3.87314685,-1.49589201,-1.24583209,,,
imu,290.680706,-0.3343674152,-9.315631707200001,3.6032724672,3.97034668,-1.70524549,-1.15610917,,,
imu,290.68952,-0.3391526376000001,-9.3335762912,3.5925057168,4.11988488,-2.05666026,-1.01404788,,,
imu,290.698335,-0.3493212352000001,-9.307257568,3.5637943824,4.12736179,-2.28096756,-1.253309,,,
imu,290.707149,-0.3594898328000001,-9.272564705600002,3.55900916,4.04511578,-2.49032104,-1.44023175,,,
imu,290.715963,-0.3804251808,-9.267779483200002,3.544653492800001,4.232038530000001,-2.5351825,-1.3280781,,,
imu,290.724777,-0.3834159448,-9.252825663200001,3.5338867424,4.31428454,-2.69219761,-1.29069355,,,
imu,290.733059,-0.3684621248000001,-9.2378718432,3.5195310752,4.658222400000001,-2.57256705,-1.02152479,,,
imu,290.74134,-0.367863972,-9.219927259200002,3.5057735608,5.01711408,-2.43050576,-0.68506384,,,
imu,290.749621,-0.3744436528,-9.226506940000002,3.4818474488,5.36105194,-2.4604134,-0.4532796299999999,,,
imu,290.757902,-0.3547046104000001,-9.228899551200001,3.46928624,5.839574180000001,-2.33330593,-0.07943412999999988,,,
imu,290.766184,-0.3367600264,-9.235479232000001,3.4627065592,6.44520389,-2.13890627,0.242073,,,
imu,290.774465,-0.3517138464,-9.276751775200001,3.471678851200001,6.83400321,-2.19872155,0.38413429,,,
imu,290.782746,-0.3648732080000001,-9.335370749600001,3.4950068104,7.13307961,-2.25105992,0.4813341200000001,,,
imu,290.791027,-0.3654713608,-9.372456223200002,3.4764640736,7.17046416,-2.39312121,0.4589033900000001,,,
imu,290.799309,-0.3786307224000001,-9.3796340568,3.472277004,7.05831051,-2.40807503,0.04019642999999995,,,
imu,290.80759,-0.4079402096,-9.393391571200002,3.4668936288,6.92372613,-2.44545958,-0.4532796299999999,,,
imu,290.815871,-0.415716196,-9.402363863200002,3.436985988800001,6.72932647,-2.35573666,-0.8196482199999999,,,
imu,290.824152,-0.4342589328000001,-9.4113361552,3.42442478,6.57978827,-2.05666026,-1.03647861,,,
imu,290.832434,-0.4438293776000001,-9.4203084472,3.4088728072,6.12369676,-1.8622606,-1.31312428,,,
imu,290.840715,-0.4504090584,-9.4346641144,3.393918987200001,6.03397384,-1.45103055,-1.26826282,,,
imu,290.848996,-0.4557924336,-9.450814240000001,3.3801614728,5.74237435,-1.01736977,-1.47013939,,,
imu,290.857277,-0.4539979752000001,-9.4801237272,3.3664039584,5.44329795,-0.4640784300000003,-1.50004703,,,
imu,290.865559,-0.4701481008,-9.4974701584,3.356833513600001,5.18908301,0.07425908999999997,-1.31312428,,,
imu,290.87384,-0.4581850448000001,-9.4944793944,3.340085235200001,4.83019133,0.6948426199999997,-1.35050883,,,
imu,290.882121,-0.4474182944000001,-9.505246144800001,3.3245332624,4.32923836,1.2780416,-1.46266248,,,
imu,290.890402,-0.4402404608,-9.5040498392,3.314962817600001,4.15726943,1.84628676,-1.53743158,,,
imu,290.898684,-0.424688488,-9.508835061600001,3.296420080800001,3.84323921,2.36219355,-1.71687742,,,
imu,290.906965,-0.4216977240000001,-9.516611048000001,3.2832607192,3.48434753,2.75099287,-1.91875399,,,
imu,290.915246,-0.3935845424,-9.502255380800001,3.2862514832,2.998348379999999,3.08745382,-2.20287657,,,
imu,290.923527,-0.3882011672000001,-9.492684936000002,3.2772791912,2.7142258,3.40896095,-2.49447606,,,
imu,290.931809,-0.3654713608,-9.478927421600002,3.2515586208,2.73665653,3.7454219,-2.61410662,,,
imu,290.940468,-0.3624805968,-9.471151435200001,3.258736454400001,2.40019558,3.84262173,-3.01038285,,,
imu,290.949127,-0.3564990688,-9.456197615200002,3.247969704,2.20579592,3.99215993,-3.36927453,,,
imu,290.957786,-0.3451341656,-9.4412437952,3.2372029536,2.15345755,4.14169813,-3.48890509,,,
imu,290.966445,-0.331974804,-9.4173176832,3.238997412,2.16841137,4.32862088,-3.52628964,,,
imu,290.975104,-0.3146283728000001,-9.414925072,3.230025120000001,2.12354991,4.36600543,-3.60105874,,,
imu,290.983763,-0.3158246784000001,-9.414326919200002,3.228828814400001,2.05625772,4.246374869999999,-3.65339711,,,
imu,290.992422,-0.3122357616,-9.425691822400001,3.2431844816,1.89924261,4.02954448,-3.81041222,,,
imu,291.001081,-0.3062542336,-9.425691822400001,3.224043592000001,1.90671952,3.99963684,-3.81788913,,,
imu,291.00974,-0.3092449976000001,-9.440047489600001,3.2413900232,1.94410407,3.90243701,-3.63096638,,,
imu,291.018399,-0.3002727056,-9.4633754488,3.238399259200001,2.08616536,3.76037572,-3.41413599,,,
imu,291.027058,-0.305057928,-9.4621791432,3.2413900232,1.99644244,3.62579134,-3.24216706,,,
imu,291.035717,-0.2895059552,-9.481320032800001,3.256343843200001,1.71231986,3.38653022,-3.24216706,,,
imu,291.044376,-0.3056560808,-9.484908949600001,3.254549384800001,1.55530475,3.19960747,-3.07767504,,,
imu,291.053035,-0.3068523864000001,-9.486703408,3.25993276,1.23379762,3.04259236,-2.85336774,,,
imu,291.061694,-0.3056560808,-9.489694172,3.25993276,1.05435178,2.91548489,-2.73373718,,,
imu,291.070353,-0.3098431504,-9.483712644000002,3.258736454400001,0.7702292,2.86314652,-2.62906044,,,
imu,291.079012,-0.311039456,-9.475936657600002,3.253951232,0.49358353,2.67622377,-2.65149117,,,
imu,291.087671,-0.3044597752,-9.458590226400002,3.254549384800001,0.44872207,2.68370068,-2.50942988,,,
imu,291.09633,-0.3038616224,-9.441841948000002,3.2515586208,0.3889067899999999,2.75846978,-2.4496146,,,
imu,291.104989,-0.3074505392,-9.4424401008,3.2611290656,0.23189168,2.78837742,-2.46456842,,,
imu,291.113648,-0.3014690112,-9.434065961600002,3.2515586208,0.06739966,2.72108523,-2.65896808,,,
imu,291.122307,-0.2978800944000001,-9.419710294400002,3.2527549264,-0.10456927,2.67622377,-2.71130645,,,
imu,291.130966,-0.2883096496000001,-9.4137287664,3.2677087464,-0.08213854000000001,2.6238854,-2.73373718,,,
imu,291.139444,-0.2936930248,-9.416121377600001,3.2695032048,0.08983038999999998,2.63136231,-2.61410662,,,
imu,291.147921,-0.2835244272,-9.422102905600001,3.2910367056,-0.11952309,2.61640849,-2.71130645,,,
imu,291.156399,-0.2817299688000001,-9.405952780000002,3.2826625664,-0.21672292,2.57154703,-2.90570611,,,
imu,291.164876,-0.2805336632,-9.388606348800002,3.2904385528,-0.14195382,2.67622377,-2.89075229,,,
imu,291.173354,-0.2823281216,-9.3927934184,3.2904385528,-0.14195382,2.57902394,-2.86832156,,,
imu,291.181832,-0.275150288,-9.402363863200002,3.295821928000001,-0.11204618,2.4743472,-2.72626027,,,
imu,291.190309,-0.2847207328,-9.3904008072,3.298812692000001,-0.17186146,2.57154703,-2.60662971,,,
imu,291.198787,-0.2745521352,-9.3664746952,3.293429316800001,-0.17933837,2.57154703,-2.62158353,,,
imu,291.207264,-0.281131816,-9.3628857784,3.310775748,-0.07466163,2.51920866,-2.54681443,,,
imu,291.215742,-0.2859170384,-9.382624820800002,3.331711096,-0.08213854000000001,2.4743472,-2.5243837,,,
imu,291.224219,-0.287113344,-9.401765710400001,3.343674152,-0.02980017,2.40705501,-2.47952224,,,
imu,291.232697,-0.2703650656,-9.402363863200002,3.3233369568,0.08235347999999998,2.31733209,-2.32250713,,,
imu,291.241174,-0.2709632184,-9.419710294400002,3.2970182336,0.15712258,2.38462428,-2.32998404,,,
imu,291.249652,-0.2542149400000001,-9.405952780000002,3.310177595200001,0.07487657,2.28742445,-2.42718387,,,
imu,291.258129,-0.2619909264,-9.361091320000002,3.3394870824,0.19450713,2.24256299,-2.19539966,,,
imu,291.266607,-0.2261017584,-9.368269153600002,3.31974804,0.32909151,2.25751681,-2.05333837,,,
imu,291.275084,-0.215335008,-9.401167557600001,3.288045941600001,0.6954601,2.13788625,-1.74678506,,,
imu,291.283562,-0.2099516328,-9.3898026544,3.2904385528,0.79265993,1.96591732,-1.75426197,,,
imu,291.292039,-0.2051664104,-9.337165208000002,3.320944345600001,0.9272443100000001,1.65936401,-1.68696978,,,
imu,291.300517,-0.1949978128,-9.358100556000002,3.310177595200001,0.9646288599999999,1.55468727,-1.67949287,,,
imu,291.308994,-0.170473548,-9.387410043200001,3.2790736496,1.00949032,1.53225654,-1.67201596,,,
imu,291.317472,-0.176455076,-9.3628857784,3.286849636000001,1.27865908,1.32290306,-1.57481613,,,
imu,291.32595,-0.2009793408,-9.332978138400001,3.3059905256,1.42819728,0.8817653699999997,-1.81407725,,,
imu,289.881295,,,,,,,-86.4636084,172.8600252,112.0560072
imu,289.982857,,,,,,,-86.53685159999999,173.2384484,111.0916384
imu,290.08442,,,,,,,-87.47680600000001,173.763358,111.0428096
imu,290.186013,,,,,,,-86.0973924,173.7877724,109.6511888
imu,290.287545,,,,,,,-88.5510396,173.8121868,109.8220896
imu,290.390206,,,,,,,-85.56027560000001,173.458178,107.8567304
imu,290.49067,,,,,,,-87.81860759999999,174.0319164,110.334792
imu,290.592232,,,,,,,-84.99874439999999,173.214034,107.7956944
imu,291.334427,-0.2021756464,-9.3628857784,3.2952237752,1.33847436,0.66493498,-2.00847691,,,
imu,291.342891,-0.20935348,-9.393391571200002,3.2760828856,1.4431511,0.5079198699999998,-2.21035348,,,
imu,291.351354,-0.2368685088,-9.402363863200002,3.2940274696,1.48801256,0.4032431299999999,-2.29259949,,,
imu,291.359818,-0.2434481896,-9.4005694048,3.289242247200001,1.43567419,0.41819695,-2.44213769,,,
imu,291.368281,-0.2536167872,-9.409541696800002,3.289242247200001,1.49548947,0.3509047599999997,-2.50942988,,,
imu,291.376745,-0.2440463424,-9.425691822400001,3.2802699552,1.61512003,0.4555814999999996,-2.41970696,,,
imu,291.385208,-0.2494297176,-9.419710294400002,3.2772791912,1.43567419,0.6051196999999999,-2.48699915,,,
imu,291.393672,-0.2554112456,-9.4244955168,3.2886440944,1.54782784,0.78456554,-2.51690679,,,
imu,291.402135,-0.2584020096,-9.430477044800002,3.2802699552,1.50296638,0.9041961000000001,-2.63653735,,,
imu,291.410599,-0.2530186344000001,-9.420906600000002,3.2784754968,1.33847436,1.07616503,-2.80850628,,,
imu,291.419062,-0.2524204816,-9.4215047528,3.27488658,1.41324346,1.21074941,-3.00290594,,,
imu,291.427526,-0.2524204816,-9.4346641144,3.275484732800001,1.16650543,1.25561087,-3.1973056,,,
imu,291.43599,-0.263187232,-9.430477044800002,3.279671802400001,0.88985976,1.21074941,-3.42908981,,,
imu,291.444453,-0.2595983152,-9.4250936696,3.271895816,1.05435178,1.28551851,-3.39918217,,,
imu,291.452917,-0.266177996,-9.438851184,3.2844570248,0.9571519499999999,1.33037997,-3.57862801,,,
imu,291.46138,-0.2625890792,-9.4460290176,3.2653161352,0.9571519499999999,1.47244126,-3.70573548,,,
imu,291.4698,-0.2590001624000001,-9.4215047528,3.256941996000001,0.94967504,1.59954873,-3.58610492,,,
imu,291.478264,-0.2518223288000001,-9.422701058400001,3.268306899200001,0.8524752099999999,1.66684092,-3.55619728,,,
imu,291.486727,-0.2649816904,-9.434065961600002,3.271895816,0.8973366700000001,1.7266562,-3.60853565,,,
imu,291.495191,-0.23926112,-9.444234559200002,3.275484732800001,0.63564482,1.61450255,-3.66835093,,,
imu,291.503654,-0.2434481896,-9.423299211200002,3.2712976632,0.620691,1.60702564,-3.70573548,,,
imu,291.512118,-0.2554112456,-9.423299211200002,3.286849636000001,0.49358353,1.63693328,-3.61601256,,,
imu,291.520582,-0.2590001624000001,-9.4071490856,3.2856533304,0.4861066199999999,1.64441019,-3.496382,,,
imu,291.529045,-0.2590001624000001,-9.402962016000002,3.265914288000001,0.50853735,1.62197946,-3.33936689,,,
imu,291.537509,-0.2578038568000001,-9.3832229736,3.2557456904,0.53096808,1.71170238,-3.22721324,,,
imu,291.546328,-0.2673743016,-9.382624820800002,3.2653161352,0.51601426,1.75656384,-3.1973056,,,
imu,291.555148,-0.2667761488000001,-9.389204501600002,3.262923524000001,0.78518302,1.7266562,-3.11505959,,,
imu,291.563967,-0.2518223288000001,-9.390998960000001,3.2533530792,0.9048135799999999,1.78647148,-2.89075229,,,
imu,291.572787,-0.2494297176,-9.392195265600002,3.2443807872,1.00949032,1.79394839,-3.01785976,,,
imu,291.581607,-0.2584020096,-9.3898026544,3.2551475376,1.02444414,1.69674856,-3.20478251,,,
imu,291.590426,-0.2566075512,-9.3975786408,3.2617272184,1.2188438,1.68179474,-3.18982869,,,
imu,291.599246,-0.2542149400000001,-9.3975786408,3.2527549264,1.23379762,1.55468727,-3.21225942,,,
imu,291.608065,-0.2518223288000001,-9.414326919200002,3.2575401488,1.25622835,1.5023489,-3.36179762,,,
imu,291.616885,-0.2655798432,-9.418513988800001,3.2635216768,1.38333582,1.49487199,-3.3468438,,,
imu,291.625704,-0.272159524,-9.425691822400001,3.253951232,1.2188438,1.49487199,-3.47395127,,,
imu,291.634524,-0.2637853848,-9.4244955168,3.2593346072,1.4431511,1.56216418,-3.3468438,,,
imu,291.643344,-0.2607946208,-9.4203084472,3.256343843200001,1.35342818,1.577118,-3.30198234,,,
imu,291.652163,-0.2560093984,-9.413130613600002,3.25993276,1.28613599,1.69674856,-3.23469015,,,
imu,291.660983,-0.2590001624000001,-9.417915836,3.250960468,1.25622835,1.6518871,-3.1225365,,,
imu,291.669802,-0.2548130928,-9.4244955168,3.247969704,1.32352054,1.59954873,-2.95056757,,,
imu,291.678622,-0.2566075512,-9.4203084472,3.2503623152,1.11416706,1.68927165,-3.07019813,,,
imu,291.687441,-0.2691687600000001,-9.434065961600002,3.253951232,1.08425942,1.80890221,-3.15992105,,,
imu,291.696261,-0.263187232,-9.430477044800002,3.256343843200001,1.15902852,1.89862513,-3.24964397,,,
imu,291.705081,-0.2823281216,-9.454403156800002,3.2581383016,1.28613599,1.77151766,-3.1225365,,,
imu,291.7139,-0.2757484408,-9.452010545600002,3.2551475376,1.31604363,1.99582496,-2.93561375,,,
imu,291.72272,-0.2769447464000001,-9.447225323200001,3.2575401488,1.35342818,2.01825569,-2.8982292,,,
imu,291.731539,-0.2805336632,-9.4286825864,3.25993276,1.16650543,2.0257326,-2.99542903,,,
imu,291.740359,-0.2715613712,-9.422701058400001,3.2461752456,1.09173633,2.10797861,-3.02533667,,,
imu,291.748834,-0.2697669128,-9.434065961600002,3.247969704,0.94967504,2.16031698,-3.02533667,,,
imu,291.757309,-0.2590001624000001,-9.4215047528,3.241988176,1.1440747,2.16779389,-2.88327538,,,
imu,291.765784,-0.2643835376,-9.4005694048,3.228828814400001,1.23379762,2.16779389,-2.87579847,,,
imu,291.774259,-0.2578038568000001,-9.402962016000002,3.237801106400001,1.24875144,2.13788625,-2.88327538,,,
imu,291.782734,-0.2470371064,-9.3993730992,3.233614036800001,1.33847436,2.20517844,-2.90570611,,,
imu,291.791209,-0.2488315648,-9.395186029600001,3.2324177312,1.30108981,2.03320951,-2.95056757,,,
imu,291.799684,-0.23926112,-9.390998960000001,3.2366048008,1.50296638,2.1005017,-2.88327538,,,
imu,291.808159,-0.2326814392,-9.402363863200002,3.224043592000001,1.45810492,1.98087114,-2.86084465,,,
imu,291.816634,-0.2380648144,-9.406550932800002,3.2401937176,1.39828964,1.92853277,-2.86832156,,,
imu,291.825109,-0.251224176,-9.410139849600002,3.2372029536,1.40576655,1.93600968,-2.84589083,,,
imu,291.833584,-0.2506260232,-9.4215047528,3.25993276,1.52539711,1.97339423,-2.83841392,,,
imu,291.842059,-0.2416537312,-9.426888128000002,3.2497641624,1.48801256,1.8761944,-2.77112173,,,
imu,291.850534,-0.245242648,-9.440047489600001,3.241988176,1.45062801,1.8761944,-2.70382954,,,
imu,291.859009,-0.242251884,-9.4316733504,3.235408495200001,1.47305874,1.91357895,-2.64401426,,,
imu,291.867484,-0.248233412,-9.422701058400001,3.2324177312,1.48053565,1.92105586,-2.62906044,,,
imu,291.875959,-0.2446444952,-9.408345391200001,3.2413900232,1.22632071,1.86871749,-2.72626027,,,
imu,291.884434,-0.242251884,-9.419710294400002,3.237801106400001,1.31604363,1.85376367,-2.60662971,,,
imu,291.892909,-0.2398592728,-9.4382530312,3.2252398976,1.39828964,2.06311715,-2.53186061,,,
imu,291.901384,-0.2266999112,-9.439449336800001,3.2156694528,1.35342818,2.11545552,-2.64401426,,,
imu,291.909859,-0.2320832864,-9.439449336800001,3.221650980800001,1.46558183,2.16031698,-2.77859864,,,
imu,291.918334,-0.2207183832,-9.439449336800001,3.2204546752,1.27865908,2.1752708,-2.87579847,,,
imu,291.926809,-0.2290925224000001,-9.4454308648,3.2096879248,1.18893616,2.19022462,-2.99542903,,,
imu,291.935284,-0.2255036056,-9.459786532,3.2013137856,1.22632071,2.08554788,-3.05524431,,,
imu,291.943759,-0.2147368552,-9.478329268800001,3.203108244,1.05435178,2.19022462,-3.18235178,,,
imu,291.952251,-0.2189239248,-9.4801237272,3.204902702400001,0.9945364999999999,2.22013226,-3.18982869,,,
imu,291.960744,-0.2326814392,-9.48072188,3.2072953136,0.91229049,2.29490136,-3.26459779,,,
imu,291.969237,-0.2195220776,-9.4873015608,3.207893466400001,0.8449983,2.42948574,-3.30198234,,,
imu,291.97773,-0.2261017584,-9.488497866400001,3.2037063968,0.6954601,2.40705501,-3.50385891,,,
imu,291.986223,-0.2350740504,-9.492684936000002,3.2108842304,0.4711528,2.57154703,-3.63844329,,,
imu,291.994715,-0.2290925224000001,-9.474740352000001,3.2168657584,0.09730729999999999,2.48930102,-3.82536604,,,
imu,292.003208,-0.2398592728,-9.447823476,3.198921174400001,-0.17186146,2.51920866,-3.98985806,,,
imu,292.011701,-0.2344758976,-9.4412437952,3.2043045496,-0.17186146,2.68370068,-3.91508896,,,
imu,290.693746,,,,,,,-87.5622564,173.641286,110.8352872
imu,290.795309,,,,,,,-87.59887800000001,173.6779076,110.3469992
imu,290.896871,,,,,,,-86.89086040000001,172.8722324,111.0550168
imu,290.998434,,,,,,,-86.41477960000002,173.397142,111.372404
imu,291.100027,,,,,,,-86.5978876,173.1285836,110.9085304
imu,291.209402,,,,,,,-84.7546004,173.3116916,110.3225848
imu,291.310934,,,,,,,-87.0861756,173.7145292,110.3103776
imu,291.412466,,,,,,,-84.2052764,172.9820972,108.259568
imu,292.020194,-0.2344758976,-9.4412437952,3.2168657584,-0.47093786,2.78837742,-4.124442439999999,,,
imu,292.028686,-0.2278962168,-9.422102905600001,3.218062064,-0.56066078,2.7734236,-4.13939626,,,
imu,292.037179,-0.215335008,-9.406550932800002,3.227034356,-0.61299915,2.87062343,-4.34874974,,,
imu,292.045672,-0.2249054528,-9.415523224800001,3.238997412,-0.69524516,2.82576197,-4.52819558,,,
imu,292.054165,-0.2296906752000001,-9.4244955168,3.238997412,-0.70272207,2.80333124,-4.41604193,,,
imu,292.062658,-0.218325772,-9.422701058400001,3.247371551200001,-0.7251528,2.87810034,-4.32631901,,,
imu,292.07115,-0.218325772,-9.427486280800002,3.256343843200001,-0.7401066199999999,2.83323888,-4.25154991,,,
imu,292.079643,-0.212344244,-9.430477044800002,3.253951232,-0.69524516,2.80333124,-4.22911918,,,
imu,292.088136,-0.2069608688,-9.4286825864,3.2515586208,-0.60552224,2.78837742,-3.98985806,,,
imu,292.096629,-0.2087553272,-9.429280739200001,3.249166009600001,-0.47093786,2.72108523,-3.7954584,,,
imu,292.105122,-0.197390424,-9.423897364000002,3.238399259200001,-0.09709236,2.66874686,-3.53376655,,,
imu,292.113614,-0.2027737992,-9.4005694048,3.237801106400001,0.17955331,2.5491163,-3.42908981,,,
imu,292.122107,-0.2081571744,-9.393391571200002,3.2294269672,0.50853735,2.35471664,-3.54124346,,,
imu,292.1306,-0.200381188,-9.390998960000001,3.2204546752,0.50853735,2.22760917,-3.75807385,,,
imu,292.139093,-0.221316536,-9.389204501600002,3.2156694528,0.53844499,2.06311715,-3.95995042,,,
imu,292.147586,-0.2231109944,-9.382624820800002,3.2168657584,0.6132140899999999,1.83880985,-4.04967334,,,
imu,292.156021,-0.23926112,-9.374848834400002,3.209089772,0.80761375,1.88367131,-3.88518132,,,
imu,292.164457,-0.2595983152,-9.385017432000001,3.2055008552,0.74779847,1.85376367,-3.84031986,,,
imu,292.172892,-0.2697669128,-9.3993730992,3.2156694528,0.8823828499999999,1.98087114,-3.68330475,,,
imu,292.181328,-0.272159524,-9.414326919200002,3.2282306616,0.73284465,2.16031698,-3.53376655,,,
imu,292.189763,-0.2763465936,-9.422102905600001,3.2276325088,0.6281679099999999,2.28742445,-3.496382,,,
imu,292.198199,-0.2739539824000001,-9.4250936696,3.235408495200001,0.41133752,2.28742445,-3.47395127,,,
imu,292.206634,-0.2775428992,-9.440047489600001,3.2443807872,0.32909151,2.3995781,-3.45899745,,,
imu,292.21507,-0.2637853848,-9.4496179344,3.2485678568,0.3889067899999999,2.54163939,-3.41413599,,,
imu,292.223506,-0.2607946208,-9.4424401008,3.2497641624,0.15712258,2.61640849,-3.42908981,,,
imu,292.231941,-0.2524204816,-9.4490197816,3.2581383016,0.01506129,2.64631613,-3.496382,,,
imu,292.240377,-0.2506260232,-9.4526086984,3.256343843200001,0.07487657,2.88557725,-3.43656672,,,
imu,292.248812,-0.233279592,-9.458590226400002,3.2581383016,0.007584380000000002,2.81828506,-3.63096638,,,
imu,292.257248,-0.2458408008,-9.4382530312,3.2617272184,-0.08961545,2.90053107,-3.7206893,,,
imu,292.265683,-0.2320832864,-9.4346641144,3.25993276,-0.03727708,2.91548489,-3.68330475,,,
imu,292.274119,-0.230288828,-9.437056725600002,3.256941996000001,-0.19429219,2.90053107,-3.78798149,,,
imu,292.282555,-0.2255036056,-9.435262267200002,3.253951232,0.18703022,2.90800798,-3.66835093,,,
imu,292.29099,-0.2266999112,-9.419710294400002,3.2282306616,0.33656842,2.79585433,-3.69078166,,,
imu,292.299426,-0.2201202304,-9.3993730992,3.2306232728,0.26179932,2.7734236,-3.71321239,,,
imu,292.307861,-0.2350740504,-9.4077472384,3.2497641624,0.29170696,2.66126995,-3.60853565,,,
imu,292.316297,-0.2237091472,-9.4382530312,3.2665124408,0.23936859,2.54163939,-3.70573548,,,
imu,292.324732,-0.2231109944,-9.454403156800002,3.2593346072,0.26927623,2.42200883,-3.81041222,,,
imu,292.333168,-0.2308869808,-9.414326919200002,3.2527549264,0.11973803,2.34723973,-3.78798149,,,
imu,292.341604,-0.2440463424,-9.3993730992,3.2575401488,0.10478421,2.19770153,-3.71321239,,,
imu,292.350039,-0.2578038568000001,-9.4203084472,3.2677087464,-0.007369440000000005,2.27247063,-3.496382,,,
imu,292.358551,-0.2619909264,-9.429280739200001,3.256941996000001,-0.16438455,2.36219355,-3.18982869,,,
imu,292.367063,-0.248233412,-9.422102905600001,3.250960468,-0.11952309,2.50425484,-2.91318302,,,
imu,292.375575,-0.2500278704,-9.422701058400001,3.2766810384,-0.18681528,2.45939338,-2.83841392,,,
imu,292.384087,-0.2428500368,-9.4107380024,3.2766810384,-0.19429219,2.45191647,-3.0477674,,,
imu,292.392598,-0.2338777448,-9.420906600000002,3.25993276,-0.02232326000000001,2.53416248,-3.22721324,,,
imu,292.40111,-0.2344758976,-9.4173176832,3.2515586208,-0.01484635000000001,2.4743472,-3.36179762,,,
imu,292.409622,-0.23926112,-9.403560168800002,3.2635216768,0.01506129,2.45191647,-3.59358183,,,
imu,292.418134,-0.2290925224000001,-9.401167557600001,3.247969704,0.15712258,2.36219355,-3.74312003,,,
imu,292.426646,-0.2446444952,-9.392195265600002,3.2485678568,0.2468455,2.30985518,-3.87770441,,,
imu,292.435158,-0.245242648,-9.388008196000001,3.2497641624,0.20198404,2.35471664,-3.84031986,,,
imu,292.44367,-0.2344758976,-9.390998960000001,3.250960468,0.35152224,2.38462428,-3.95247351,,,
imu,292.452181,-0.2308869808,-9.3963823352,3.2443807872,0.49358353,2.3995781,-3.81041222,,,
imu,292.460693,-0.2249054528,-9.388606348800002,3.2443807872,0.49358353,2.37714737,-3.66087402,,,
imu,292.469205,-0.2111479384,-9.393989724,3.254549384800001,0.46367589,2.51173175,-3.57862801,,,
imu,292.477717,-0.2015774936,-9.398774946400001,3.254549384800001,0.57582954,2.48182411,-3.42908981,,,
imu,292.486229,-0.2015774936,-9.4077472384,3.2467733984,0.68798319,2.3995781,-3.3468438,,,
imu,292.494741,-0.1961941184,-9.418513988800001,3.260530912800001,0.53096808,2.33976282,-3.45152054,,,
imu,292.503253,-0.2135405496,-9.427486280800002,3.270101357600001,0.5459219,2.18274771,-3.496382,,,
imu,292.511764,-0.212344244,-9.439449336800001,3.271895816,0.5010604399999999,2.15284007,-3.53376655,,,
imu,292.520276,-0.2261017584,-9.446627170400001,3.2826625664,0.34404533,1.88367131,-3.72816621,,,
imu,292.528788,-0.2398592728,-9.454403156800002,3.2856533304,0.25432241,1.95844041,-3.9449966,,,
imu,292.5373,-0.2440463424,-9.4460290176,3.2814662608,0.43376825,2.01825569,-3.98985806,,,
imu,292.545812,-0.2542149400000001,-9.4322715032,3.2922330112,0.15712258,1.89114822,-4.10948862,,,
imu,292.554324,-0.2530186344000001,-9.405354627200001,3.2832607192,0.05244583999999999,2.03320951,-4.146873169999999,,,
imu,292.563077,-0.2548130928,-9.402363863200002,3.2790736496,0.16459949,2.11545552,-4.19921154,,,
imu,292.571843,-0.2554112456,-9.388606348800002,3.2653161352,0.1720764,2.13788625,-4.10948862,,,
imu,292.58061,-0.2542149400000001,-9.3796340568,3.2623253712,0.26927623,2.19770153,-4.124442439999999,,,
imu,292.589376,-0.2476352592,-9.349128264,3.2581383016,0.40386061,2.30985518,-4.057150249999999,,,
imu,292.598143,-0.2404574256,-9.3592968616,3.247969704,0.70293701,2.43696265,-4.012288789999999,,,
imu,292.60691,-0.2428500368,-9.368269153600002,3.2533530792,0.7702292,2.30985518,-4.04967334,,,
imu,292.615676,-0.227298064,-9.3862137376,3.265914288000001,0.82256757,2.22013226,-4.146873169999999,,,
imu,292.624443,-0.2266999112,-9.3832229736,3.258736454400001,0.8449983,2.23508608,-4.21416536,,,
imu,292.633209,-0.2278962168,-9.402962016000002,3.2623253712,0.9945364999999999,2.04068642,-4.21416536,,,
imu,292.641976,-0.2344758976,-9.416121377600001,3.268306899200001,1.05435178,1.89862513,-4.33379592,,,
imu,292.650742,-0.2410555784,-9.435262267200002,3.2712976632,0.8823828499999999,1.83133294,-4.35622665,,,
imu,292.659509,-0.2470371064,-9.432869656000001,3.2557456904,1.00201341,1.59954873,-4.13939626,,,
imu,292.668275,-0.2506260232,-9.419112141600001,3.2551475376,1.00201341,1.55468727,-4.17678081,,,
imu,292.677042,-0.2679724544000001,-9.4244955168,3.254549384800001,1.08425942,1.5023489,-4.16182699,,,
imu,292.685808,-0.2924967192,-9.4280844336,3.235408495200001,1.09921324,1.54721036,-4.00481188,,,
imu,292.694575,-0.2948893304,-9.4322715032,3.236006648,0.9870595899999999,1.51730272,-3.84031986,,,
imu,292.703341,-0.2913004136,-9.429280739200001,3.2372029536,0.9945364999999999,1.75656384,-3.44404363,,,
imu,292.712108,-0.2918985664000001,-9.436458572800001,3.2324177312,1.21136689,1.91357895,-3.23469015,,,
imu,292.720874,-0.2763465936,-9.434065961600002,3.227034356,1.03939796,2.04068642,-3.21225942,,,
imu,292.729641,-0.266177996,-9.437654878400002,3.2186602168,1.12164397,2.22760917,-3.04029049,,,
imu,292.738407,-0.2578038568000001,-9.437654878400002,3.2264362032,1.00201341,2.28742445,-3.01038285,,,
imu,292.747174,-0.2458408008,-9.433467808800001,3.2276325088,0.91229049,2.36219355,-3.06272122,,,
imu,292.75594,-0.2374666616,-9.429878892000001,3.2156694528,0.9945364999999999,2.36219355,-3.22721324,,,
imu,292.764532,-0.2290925224000001,-9.435262267200002,3.2222491336,0.74779847,2.324809,-3.31693616,,,
imu,292.773124,-0.2386629672,-9.4424401008,3.2108842304,0.83004448,2.24256299,-3.29450543,,,
imu,292.781716,-0.2338777448,-9.4316733504,3.212678688800001,0.620691,2.16779389,-3.43656672,,,
imu,292.790308,-0.2464389536,-9.405952780000002,3.2228472864,0.53096808,2.0257326,-3.61601256,,,
imu,292.7989,-0.2548130928,-9.419112141600001,3.238997412,0.3963837,1.91357895,-3.81041222,,,
imu,292.807492,-0.2847207328,-9.438851184,3.2461752456,0.28423005,1.83133294,-4.02724261,,,
imu,292.816084,-0.2877114968,-9.447225323200001,3.2497641624,0.3963837,2.03320951,-3.89265823,,,
imu,292.824676,-0.3086468448,-9.468160671200001,3.2671105936,0.3216146,2.01825569,-3.8702275,,,
imu,292.833268,-0.3224043592,-9.4729458936,3.262923524000001,0.21693786,1.98834805,-3.90013514,,,
imu,291.514059,,,,,,,-86.24387879999999,173.4459708,110.7132152
imu,291.615621,,,,,,,-83.92451080000001,172.8600252,108.7966848
imu,291.717184,,,,,,,-86.0851852,173.3605204,111.0183952
imu,291.818746,,,,,,,-86.1095996,173.6779076,110.7132152
imu,291.920309,,,,,,,-86.3293292,172.8600252,110.5301072
imu,292.021902,,,,,,,-86.36595080000001,173.2628628,110.9695664
imu,292.123434,,,,,,,-86.54905880000001,173.0553404,111.1648816
imu,292.224996,,,,,,,-86.2927076,173.3116916,110.7986656
imu,292.84186,-0.3367600264,-9.46576806,3.274288427200001,0.05992275,1.91357895,-4.04967334,,,
imu,292.850452,-0.3499193880000001,-9.4496179344,3.2617272184,0.02253820000000001,2.05564024,-3.95995042,,,
imu,292.859044,-0.3511156936,-9.439449336800001,3.252156773600001,0.10478421,2.23508608,-3.69825857,,,
imu,292.867636,-0.3415452488,-9.416121377600001,3.2431844816,0.22441477,2.38462428,-3.42908981,,,
imu,292.876228,-0.3236006648,-9.401765710400001,3.2348103424,0.43376825,2.41453192,-3.07767504,,,
imu,292.88482,-0.3014690112,-9.381428515200001,3.242586328800001,0.57582954,2.57902394,-2.86084465,,,
imu,292.893412,-0.287113344,-9.3832229736,3.2401937176,0.7104139199999999,2.72108523,-2.72626027,,,
imu,292.902004,-0.2625890792,-9.3718580704,3.2222491336,0.67302937,2.56407012,-2.78607555,,,
imu,292.910596,-0.2368685088,-9.3652783896,3.219856522400001,0.76275229,2.60145467,-2.75616791,,,
imu,292.919188,-0.230288828,-9.370063612000001,3.221650980800001,0.9272443100000001,2.42948574,-2.75616791,,,
imu,292.927779,-0.221316536,-9.370063612000001,3.219856522400001,1.0693056,2.39210119,-2.72626027,,,
imu,292.936371,-0.2368685088,-9.377839598400001,3.2192583696,0.9646288599999999,2.27994754,-2.90570611,,,
imu,292.944963,-0.2308869808,-9.392195265600002,3.2252398976,1.01696723,2.09302479,-2.92065993,,,
imu,292.953555,-0.2255036056,-9.4137287664,3.2234454392,1.04687487,1.97339423,-3.07767504,,,
imu,292.962147,-0.2344758976,-9.431075197600002,3.233614036800001,1.10669015,1.98087114,-3.09262886,,,
imu,292.97053,-0.2320832864,-9.437056725600002,3.224043592000001,1.09173633,1.88367131,-3.22721324,,,
imu,292.978912,-0.242251884,-9.456197615200002,3.2407918704,0.80761375,1.74908693,-3.42908981,,,
imu,292.987294,-0.2584020096,-9.464571754400001,3.249166009600001,0.8375213899999999,1.91357895,-3.47395127,,,
imu,292.995676,-0.263187232,-9.469356976800002,3.252156773600001,0.78518302,2.01825569,-3.50385891,,,
imu,293.004058,-0.2578038568000001,-9.481918185600001,3.2635216768,0.60573718,2.03320951,-3.55619728,,,
imu,293.01244,-0.2542149400000001,-9.478927421600002,3.2611290656,0.41133752,2.23508608,-3.58610492,,,
imu,293.020823,-0.2607946208,-9.460384684800001,3.262923524000001,0.4861066199999999,2.37714737,-3.61601256,,,
imu,293.029205,-0.2500278704,-9.451412392800002,3.256941996000001,0.36647606,2.49677793,-3.60105874,,,
imu,293.037587,-0.2470371064,-9.444234559200002,3.2611290656,-0.02980017,2.53416248,-3.81788913,,,
imu,293.045969,-0.2243073,-9.437654878400002,3.2503623152,-0.01484635000000001,2.72108523,-3.83284295,,,
imu,293.054351,-0.2231109944,-9.414326919200002,3.2401937176,-0.007369440000000005,2.88557725,-3.83284295,,,
imu,293.062733,-0.2039701048,-9.3993730992,3.2443807872,0.01506129,2.80333124,-3.65339711,,,
imu,293.071115,-0.2147368552,-9.409541696800002,3.2515586208,0.26927623,2.6986545,-3.66087402,,,
imu,293.079498,-0.197390424,-9.429280739200001,3.2557456904,0.11973803,2.60145467,-3.73564312,,,
imu,293.08788,-0.2075590216,-9.425691822400001,3.2557456904,0.32909151,2.48930102,-3.91508896,,,
imu,293.096262,-0.2207183832,-9.3898026544,3.2557456904,0.19450713,2.19022462,-4.07210407,,,
imu,293.104644,-0.2344758976,-9.367072848000001,3.25993276,0.41133752,2.00330187,-4.034719519999999,,,
imu,293.113026,-0.2524204816,-9.389204501600002,3.25993276,0.44124516,1.8761944,-3.78050458,,,
imu,293.121408,-0.2673743016,-9.395186029600001,3.2407918704,0.6281679099999999,1.82385603,-3.36927453,,,
imu,293.129791,-0.2733558296,-9.384419279200001,3.2431844816,0.65807555,1.99582496,-3.01785976,,,
imu,293.138173,-0.2847207328,-9.377839598400001,3.241988176,0.76275229,1.95844041,-2.81598319,,,
imu,293.146555,-0.2823281216,-9.3832229736,3.2443807872,1.00949032,2.01825569,-2.76364482,,,
imu,293.154937,-0.2799355104,-9.398774946400001,3.2324177312,0.9646288599999999,2.11545552,-2.87579847,,,
imu,293.163319,-0.2703650656,-9.411934308000001,3.238997412,1.12164397,2.14536316,-2.94309066,,,
imu,293.171751,-0.2787392048,-9.417915836,3.236006648,1.05435178,2.22013226,-3.15244414,,,
imu,293.180183,-0.2829262744000001,-9.430477044800002,3.233015884,0.9870595899999999,2.1752708,-3.37675144,,,
imu,293.188615,-0.2793373576,-9.4286825864,3.2222491336,1.00201341,2.1005017,-3.58610492,,,
imu,293.197046,-0.2889078024000001,-9.437654878400002,3.2306232728,1.02444414,2.19770153,-3.70573548,,,
imu,293.205478,-0.2913004136,-9.443636406400001,3.221650980800001,0.9870595899999999,2.324809,-3.90013514,,,
imu,293.21391,-0.3056560808,-9.453805004000001,3.2318195784,0.9197674,2.40705501,-3.84779677,,,
imu,293.222342,-0.2930948720000001,-9.446627170400001,3.2252398976,0.9197674,2.63136231,-3.65339711,,,
imu,293.230773,-0.2966837888,-9.457992073600002,3.2348103424,0.6954601,2.69117759,-3.66087402,,,
imu,293.239205,-0.290104108,-9.462777296000002,3.233015884,0.70293701,2.71360832,-3.69078166,,,
imu,293.247637,-0.2918985664000001,-9.453206851200001,3.230025120000001,0.620691,2.69117759,-3.59358183,,,
imu,293.256069,-0.3002727056,-9.459786532,3.231221425600001,0.3963837,2.60145467,-3.60105874,,,
imu,293.2645,-0.281131816,-9.4460290176,3.2318195784,0.53096808,2.71360832,-3.59358183,,,
imu,293.272932,-0.2859170384,-9.444832712,3.219856522400001,0.5010604399999999,2.74351596,-3.54872037,,,
imu,293.281364,-0.2691687600000001,-9.464571754400001,3.206099008,0.41133752,2.65379304,-3.48890509,,,
imu,293.289796,-0.2584020096,-9.4412437952,3.2222491336,0.43376825,2.56407012,-3.35432071,,,
imu,293.298227,-0.2643835376,-9.4286825864,3.2156694528,0.33656842,2.56407012,-3.23469015,,,
imu,293.306659,-0.251224176,-9.422701058400001,3.212080536000001,0.44124516,2.54163939,-3.04029049,,,
imu,293.315091,-0.2542149400000001,-9.433467808800001,3.2186602168,0.5459219,2.45191647,-2.87579847,,,
imu,293.323523,-0.2524204816,-9.441841948000002,3.2204546752,0.65807555,2.44443956,-2.68139881,,,
imu,293.331954,-0.2607946208,-9.437056725600002,3.235408495200001,0.43376825,2.28742445,-2.71878336,,,
imu,293.340386,-0.2619909264,-9.4382530312,3.2342121896,0.13469185,2.13040934,-2.8234601,,,
imu,293.348818,-0.2739539824000001,-9.4316733504,3.2246417448,0.19450713,2.10797861,-2.96552139,,,
imu,293.35725,-0.2847207328,-9.4244955168,3.2192583696,0.007584380000000002,2.06311715,-3.03281358,,,
imu,293.365681,-0.2877114968,-9.438851184,3.2222491336,-0.09709236,2.20517844,-3.13001341,,,
imu,293.374184,-0.2942911776,-9.433467808800001,3.2294269672,-0.08961545,2.33228591,-3.13001341,,,
imu,293.382687,-0.3032634696000001,-9.435860420000001,3.236006648,0.04496892999999999,2.48930102,-3.13749032,,,
imu,293.39119,-0.2966837888,-9.4382530312,3.2461752456,-0.13447691,2.51173175,-3.30198234,,,
imu,293.399693,-0.3068523864000001,-9.4424401008,3.2431844816,-0.08961545,2.74351596,-3.26459779,,,
imu,293.408196,-0.2877114968,-9.4454308648,3.2515586208,-0.20924601,2.8481927,-3.26459779,,,
imu,293.416699,-0.2763465936,-9.4496179344,3.2581383016,-0.15690764,3.07997691,-3.30945925,,,
imu,293.425202,-0.2607946208,-9.450216087200001,3.2653161352,-0.20924601,3.07997691,-3.45152054,,,
imu,293.433705,-0.2619909264,-9.440645642400002,3.268306899200001,-0.14195382,3.20708438,-3.40665908,,,
imu,293.442208,-0.2518223288000001,-9.4346641144,3.270101357600001,-0.31392275,3.21456129,-3.54872037,,,
imu,293.450711,-0.2464389536,-9.4215047528,3.271895816,-0.46346095,3.19960747,-3.74312003,,,
imu,293.459214,-0.2398592728,-9.408943544000001,3.272493968800001,-0.48589168,3.13979219,-3.74312003,,,
imu,293.467717,-0.2374666616,-9.402363863200002,3.275484732800001,-0.36626112,3.13231528,-3.71321239,,,
imu,293.47622,-0.2326814392,-9.377241445600001,3.270699510400001,-0.46346095,3.08745382,-3.84031986,,,
imu,293.484723,-0.2326814392,-9.367072848000001,3.2581383016,-0.21672292,2.97530017,-3.73564312,,,
imu,293.493226,-0.215335008,-9.351520875200002,3.2653161352,-0.31392275,2.90800798,-3.78050458,,,
imu,293.501729,-0.2237091472,-9.3586987088,3.268306899200001,-0.09709236,2.98277708,-3.50385891,,,
imu,293.510232,-0.2290925224000001,-9.3652783896,3.272493968800001,0.14216876,2.86314652,-3.32441307,,,
imu,293.518735,-0.2147368552,-9.3688673064,3.268306899200001,0.17955331,2.75099287,-3.25712088,,,
imu,293.527238,-0.2195220776,-9.381428515200001,3.271895816,0.27675314,2.78090051,-3.07767504,,,
imu,293.535741,-0.2207183832,-9.3868118904,3.2784754968,0.35152224,2.75099287,-3.07019813,,,
imu,293.544243,-0.212344244,-9.402363863200002,3.2766810384,0.44124516,2.66126995,-3.09262886,,,
imu,293.552746,-0.20935348,-9.422102905600001,3.277877344000001,0.44872207,2.6238854,-3.13001341,,,
imu,293.561249,-0.2135405496,-9.427486280800002,3.274288427200001,0.4861066199999999,2.56407012,-3.2720747,,,
imu,293.569752,-0.2105497856,-9.4173176832,3.2784754968,0.3963837,2.59397776,-3.46647436,,,
imu,293.578527,-0.2165313136,-9.410139849600002,3.2886440944,0.34404533,2.57154703,-3.53376655,,,
imu,293.587301,-0.2165313136,-9.422102905600001,3.277877344000001,0.29170696,2.49677793,-3.51881273,,,
imu,293.596076,-0.2237091472,-9.4173176832,3.2814662608,0.20198404,2.43696265,-3.83284295,,,
imu,293.60485,-0.2195220776,-9.401765710400001,3.2772791912,0.33656842,2.39210119,-3.98985806,,,
imu,293.613625,-0.236270356,-9.401765710400001,3.2886440944,0.35899915,2.23508608,-4.22164227,,,
imu,293.622399,-0.248233412,-9.414925072,3.298812692000001,0.45619898,2.24256299,-4.25902682,,,
imu,293.631174,-0.2643835376,-9.4346641144,3.2904385528,0.22441477,2.324809,-4.25902682,,,
imu,293.639948,-0.2763465936,-9.440645642400002,3.3024016088,0.21693786,2.29490136,-4.30388828,,,
imu,293.648723,-0.2877114968,-9.433467808800001,3.2982145392,0.11973803,2.30985518,-4.34874974,,,
imu,292.326454,,,,,,,-83.8268532,173.2506556,110.0784408
imu,292.432106,,,,,,,-86.2194644,172.96989,110.5301072
imu,292.529579,,,,,,,-84.5714924,172.6769172,108.5281264
imu,292.631111,,,,,,,-86.561266,173.7511508,110.7254224
imu,292.732704,,,,,,,-85.03536600000001,172.1642148,108.2717752
imu,292.839241,,,,,,,-86.4636084,173.0675476,110.5301072
imu,292.935799,,,,,,,-86.3293292,172.3961516,110.7376296
imu,293.037392,,,,,,,-86.5124372,173.214034,111.555512
imu,293.657399,-0.2930948720000001,-9.425691822400001,3.3012053032,0.12721494,2.46687029,-4.35622665,,,
imu,293.666173,-0.3056560808,-9.435262267200002,3.3000089976,0.20946095,2.66874686,-4.22164227,,,
imu,293.674947,-0.3152265256,-9.443038253600001,3.275484732800001,0.05992275,2.87062343,-4.11696553,,,
imu,293.683722,-0.3241988176,-9.439449336800001,3.271895816,-0.03727708,3.1472691,-4.034719519999999,,,
imu,293.692496,-0.31403022,-9.420906600000002,3.280868108,-0.05970781,3.41643786,-3.93004278,,,
imu,293.701271,-0.3128339144,-9.4322715032,3.2856533304,-0.03727708,3.6706528,-3.98985806,,,
imu,293.710045,-0.3445360128,-9.459786532,3.2671105936,-0.16438455,3.91739083,-4.34874974,,,
imu,293.71882,-0.3385544848000001,-9.4801237272,3.275484732800001,-0.17933837,4.33609779,-4.63287232,,,
imu,293.727594,-0.3421434016,-9.4621791432,3.277877344000001,-0.5307531400000001,4.48563599,-4.909517989999999,,,
imu,293.736369,-0.3457323184,-9.443636406400001,3.254549384800001,-0.8672140899999999,4.62022037,-5.477763149999999,,,
imu,293.745143,-0.3684621248000001,-9.435860420000001,3.2467733984,-0.9644139199999999,4.87443531,-6.292746339999999,,,
imu,293.753918,-0.3977716120000001,-9.4346641144,3.2150713,-1.06161375,5.21837317,-6.703976389999999,,,
imu,293.762692,-0.3953790008,-9.441841948000002,3.2019119384,-1.42798234,5.659510859999999,-7.07034498,,,
imu,293.771467,-0.3959771536000001,-9.4382530312,3.2306232728,-1.46536689,6.04083327,-7.212406269999999,,,
imu,293.779945,-0.4019586816,-9.406550932800002,3.235408495200001,-1.40555161,6.59412461,-7.52643649,,,
imu,293.788424,-0.4163143488000001,-9.4412437952,3.2348103424,-1.36816706,7.102554489999999,-7.77317452,,,
imu,293.796903,-0.4073420568000001,-9.477132963200003,3.2551475376,-1.34573633,7.59603055,-7.72831306,,,
imu,293.805382,-0.3834159448,-9.450216087200001,3.2635216768,-1.41302852,8.08950661,-7.44419048,,,
imu,293.813861,-0.3792288752000001,-9.4526086984,3.2802699552,-1.43545925,8.47830593,-7.50400576,,,
imu,293.822339,-0.3786307224000001,-9.439449336800001,3.283858872000001,-1.59247436,8.687659409999998,-7.496528849999999,,,
imu,293.830818,-0.3517138464,-9.4382530312,3.2850551776,-1.89902767,9.00168963,-7.48905194,,,
imu,293.839297,-0.3331711096,-9.425691822400001,3.279671802400001,-2.00370441,9.233473839999998,-7.361944469999999,,,
imu,293.847776,-0.3271895816000001,-9.413130613600002,3.2844570248,-2.08595042,9.39796586,-7.43671357,,,
imu,293.856255,-0.3068523864000001,-9.398774946400001,3.3024016088,-2.00370441,9.4278735,-7.28717537,,,
imu,293.864733,-0.2895059552,-9.401765710400001,3.307784984,-1.81678166,9.41291968,-7.077821889999999,,,
imu,293.873212,-0.281131816,-9.418513988800001,3.3089812896,-1.74948947,9.36805822,-6.793699309999999,,,
imu,293.881691,-0.2607946208,-9.395784182400002,3.2946256224,-1.88407385,9.31571985,-6.644161110000001,,,
imu,293.89017,-0.2542149400000001,-9.3754469872,3.313766512,-1.78687402,9.27085839,-6.25536179,,,
imu,293.898649,-0.2524204816,-9.385615584800002,3.322738804,-1.79435093,8.94935126,-6.053485220000001,,,
imu,293.907127,-0.2386629672,-9.410139849600002,3.340683388,-1.68219728,8.597936489999999,-5.95628539,,,
imu,293.915606,-0.2296906752000001,-9.398774946400001,3.332309248800001,-1.48779762,8.35867537,-5.88151629,,,
imu,293.924085,-0.2225128416,-9.364082084000001,3.3442723048,-1.61490509,8.007260599999999,-5.784316459999999,,,
imu,293.932564,-0.2410555784,-9.370063612000001,3.372983639200001,-1.71210492,7.53621527,-5.806747189999999,,,
imu,293.941043,-0.2476352592,-9.373652528800001,3.3658058056,-1.622382,7.21470814,-5.65720899,,,
imu,293.949521,-0.2404574256,-9.370661764800001,3.3628150416,-1.63733582,6.810955,-5.48524006,,,
imu,293.958,-0.2410555784,-9.361091320000002,3.374778097600001,-1.61490509,6.317478939999999,-5.34317877,,,
imu,293.966479,-0.242251884,-9.3718580704,3.3879374592,-1.48032071,6.02587945,-5.22354821,,,
imu,293.974958,-0.2578038568000001,-9.3664746952,3.3741799448,-1.36069015,5.6894185,-5.25345585,,,
imu,293.98342,-0.2500278704,-9.367671000800001,3.3711891808,-1.29339796,5.23332699,-5.13382529,,,
imu,293.991882,-0.2506260232,-9.361091320000002,3.370591028000001,-1.15881358,5.001542779999999,-4.78988743,,,
imu,294.000345,-0.2673743016,-9.338959666400001,3.3867411536,-1.07656757,4.60526655,-4.67773378,,,
imu,294.008807,-0.2781410520000001,-9.328192916,3.391526376000001,-0.9793677399999999,4.26132869,-4.80484125,,,
imu,294.017269,-0.287113344,-9.33118368,3.3699928752,-0.53823005,3.98468302,-4.61044159,,,
imu,294.025731,-0.287113344,-9.332978138400001,3.3867411536,-0.38869185,3.71551426,-4.34874974,,,
imu,294.034194,-0.2948893304,-9.3269966104,3.3927226816,-0.31392275,3.60336061,-4.29641137,,,
imu,294.042656,-0.2865151912,-9.3269966104,3.3987042096,-0.11204618,3.2968073,-4.057150249999999,,,
imu,294.051118,-0.287113344,-9.3347725968,3.395713445600001,0.13469185,3.11736146,-3.77302767,,,
imu,294.059581,-0.3026653168,-9.342548583200001,3.396311598400001,0.16459949,2.90800798,-3.63844329,,,
imu,294.068043,-0.296085636,-9.332379985600001,3.3933208344,0.2468455,2.66126995,-3.55619728,,,
imu,294.076505,-0.305057928,-9.349726416800001,3.406480196,0.45619898,2.42200883,-3.31693616,,,
imu,294.084967,-0.3194135952000001,-9.352119028,3.411863571200001,0.52349117,2.22013226,-3.18982869,,,
imu,294.09343,-0.3128339144,-9.367072848000001,3.4088728072,0.4711528,2.06311715,-3.16739796,,,
imu,294.101892,-0.3206099008000001,-9.364680236800002,3.411863571200001,0.38142988,1.94348659,-3.17487487,,,
imu,294.110354,-0.3188154424,-9.3718580704,3.4082746544,0.41881443,1.74908693,-3.10010577,,,
imu,294.118816,-0.3385544848000001,-9.364680236800002,3.4130598768,0.49358353,1.62197946,-3.10010577,,,
imu,294.127279,-0.323002512,-9.364680236800002,3.407676501600001,0.50853735,1.58459491,-3.10758268,,,
imu,294.135741,-0.3385544848000001,-9.364082084000001,3.4100691128,0.6954601,1.64441019,-3.07019813,,,
imu,294.144203,-0.3487230824000001,-9.3622876256,3.411863571200001,0.68798319,1.52477963,-3.17487487,,,
imu,294.152665,-0.3433397072,-9.3592968616,3.409470960000001,0.64312173,1.39767216,-3.17487487,,,
imu,294.161128,-0.3403489432000001,-9.3592968616,3.399900515200001,0.76275229,1.36776452,-3.15244414,,,
imu,294.16959,-0.3505175408000001,-9.353315333600001,3.397507904,0.8749059399999999,1.52477963,-3.16739796,,,
imu,294.178052,-0.3624805968,-9.3586987088,3.409470960000001,1.00949032,1.577118,-3.01038285,,,
imu,294.186513,-0.3505175408000001,-9.3652783896,3.4058820432,1.09173633,1.62945637,-3.04029049,,,
imu,294.194974,-0.3535083048,-9.3622876256,3.3927226816,1.11416706,1.61450255,-2.89075229,,,
imu,294.203435,-0.3493212352000001,-9.3586987088,3.3933208344,1.15902852,1.77151766,-2.85336774,,,
imu,294.211896,-0.3535083048,-9.3652783896,3.3993023624,1.19641307,1.80890221,-2.86832156,,,
imu,294.220357,-0.3457323184,-9.367671000800001,3.3927226816,1.21136689,1.77899457,-2.83841392,,,
imu,294.228818,-0.3487230824000001,-9.3592968616,3.3867411536,1.01696723,1.75656384,-2.91318302,,,
imu,294.237279,-0.3559009160000001,-9.361091320000002,3.3879374592,1.15902852,1.77899457,-2.90570611,,,
imu,294.24574,-0.3421434016,-9.352119028,3.385544848,1.15902852,1.67431783,-2.92065993,,,
imu,294.254201,-0.3457323184,-9.353913486400002,3.3879374592,1.25622835,1.76404075,-2.89075229,,,
imu,294.262662,-0.3289840400000001,-9.360493167200001,3.3867411536,1.34595127,1.90610204,-2.80850628,,,
imu,294.271123,-0.3265914288,-9.3658765424,3.3783670144,1.41324346,1.90610204,-2.71878336,,,
imu,294.279584,-0.331974804,-9.364082084000001,3.3813577784,1.4431511,1.68179474,-2.748691,,,
imu,294.288045,-0.3176191368,-9.3592968616,3.368198416800001,1.49548947,1.7266562,-2.50195297,,,
imu,294.296506,-0.3032634696000001,-9.355109792000002,3.367600264,1.50296638,1.50982581,-2.49447606,,,
imu,294.304967,-0.3020671640000001,-9.3479319584,3.3711891808,1.49548947,1.52477963,-2.32998404,,,
imu,294.313428,-0.3056560808,-9.347333805600002,3.363413194400001,1.6674584,1.3528107,-2.19539966,,,
imu,294.321889,-0.2691687600000001,-9.360493167200001,3.3412815408,1.87681188,1.12102649,-2.14306129,,,
imu,294.33035,-0.2500278704,-9.3718580704,3.361618736,2.01139626,1.12102649,-1.88136944,,,
imu,294.338811,-0.2518223288000001,-9.373652528800001,3.3562353608,2.05625772,0.7995193599999997,-1.7019236,,,
imu,294.347272,-0.2458408008,-9.3586987088,3.3622168888,2.19831901,0.5079198699999998,-1.64210832,,,
imu,294.355733,-0.2506260232,-9.398774946400001,3.3580298192,2.29551884,0.33595094,-1.45518557,,,
imu,294.364194,-0.2404574256,-9.415523224800001,3.346066763200001,2.33290339,-0.04537147000000008,-1.30564737,,,
imu,294.372655,-0.2320832864,-9.361091320000002,3.3508519856,2.34785721,-0.39678624,-1.27573973,,,
imu,294.381116,-0.2673743016,-9.398774946400001,3.3394870824,2.28804193,-0.5911859000000002,-1.15610917,,,
imu,294.389936,-0.251224176,-9.388606348800002,3.347263068800001,2.23570356,-0.6734319100000001,-1.29817046,,,
imu,294.398755,-0.2733558296,-9.3832229736,3.3532445968,2.01139626,-0.9126930300000002,-1.17106299,,,
imu,294.407575,-0.2787392048,-9.382026668000002,3.338290776800001,2.0413039,-1.07718505,-1.19349372,,,
imu,293.138954,,,,,,,-86.36595080000001,173.0065116,111.43344
imu,293.241555,,,,,,,-86.561266,173.0553404,111.2259176
imu,293.342079,,,,,,,-86.2194644,172.725746,111.2015032
imu,293.443642,,,,,,,-83.98554680000001,172.5670524,110.82308
imu,293.545204,,,,,,,-86.74437400000001,173.091962,111.3357824
imu,293.646767,,,,,,,-83.96113240000001,171.9566924,108.869928
imu,293.748329,,,,,,,-86.2927076,173.6046644,111.2137104
imu,293.849892,,,,,,,-85.14523080000001,172.237458,108.930964
imu,293.951377,,,,,,,-87.07396840000001,172.481602,111.2869536
imu,294.05294,,,,,,,-87.2204548,173.27507,110.7986656
imu,294.162345,,,,,,,-87.659914,173.1041692,111.0183952
imu,294.263877,,,,,,,-86.988518,173.091962,110.3714136
imu,294.36544,,,,,,,-87.2082476,173.397142,110.9207376
