Type,Timestamp,Data Accelerometer X,Data Accelerometer Y,Data Accelerometer Z,Data Gyroscope X,Data Gyroscope Y,Data Gyroscope Z,Data Magnetometer X,Data Magnetometer Y,Data Magnetometer Z
imu,431.91408,-0.2039701048,-9.657775108800001,2.2963085992,2.05625772,2.74351596,-4.169303899999999,,,
imu,431.923001,-0.1938015072,-9.669738164800002,2.290925224,2.13850373,2.80333124,-3.97490424,,,
imu,431.931923,-0.182436604,-9.6703363176,2.2885326128,2.10111918,2.90800798,-3.93751969,,,
imu,431.940845,-0.1668846312,-9.6703363176,2.2837473904,1.98148862,3.02016163,-3.93004278,,,
imu,431.949223,-0.1591086448,-9.657176956,2.264008348,1.8917657,2.91548489,-3.84031986,,,
imu,431.957602,-0.1519308112,-9.6458120528,2.2622138896,1.80951969,2.57902394,-3.69078166,,,
imu,431.96598,-0.1369769912,-9.638036066400002,2.252045292,1.64502767,2.49677793,-3.71321239,,,
imu,431.974358,-0.13458438,-9.631456385600002,2.2448674584,1.50296638,2.3995781,-3.76555076,,,
imu,431.982737,-0.128602852,-9.644615747200001,2.2418766944,1.68988913,2.27994754,-3.58610492,,,
imu,431.991115,-0.1244157824,-9.6535880392,2.22811918,1.62259694,2.12293243,-3.51881273,,,
imu,431.999493,-0.122621324,-9.667943706400001,2.2388859304,1.51044329,1.85376367,-3.5711511,,,
imu,432.007872,-0.1184342544,-9.696655040800001,2.234100708,1.39081273,1.65936401,-3.57862801,,,
imu,432.01625,-0.1130508792,-9.70502918,2.2562323616,1.27118217,1.39019525,-3.57862801,,,
imu,432.024628,-0.1172379488,-9.724768222400002,2.2502508336,0.9347212199999999,1.21074941,-3.59358183,,,
imu,432.033007,-0.1172379488,-9.7265626808,2.25802682,0.55339881,0.98644211,-3.6459202,,,
imu,432.041385,-0.1232194768,-9.7217774584,2.2705880288,0.2468455,0.8518577299999999,-3.58610492,,,
imu,432.049763,-0.1297991576,-9.7193848472,2.2687935704,0.007584380000000002,0.7696117199999999,-3.5711511,,,
imu,432.058142,-0.1399677552,-9.724170069600001,2.2747750984,-0.05970781,0.6125966099999998,-3.51881273,,,
imu,432.06652,-0.1447529776,-9.735534972800002,2.2813547792,-0.37373803,0.3658585799999998,-3.54124346,,,
imu,432.074898,-0.1591086448,-9.7163940832,2.2783640152,-0.35878421,0.3209971199999999,-3.36179762,,,
imu,432.083277,-0.1591086448,-9.7086180968,2.2885326128,-0.40364567,0.3060432999999998,-3.21225942,,,
imu,432.091655,-0.1692772424,-9.7074217912,2.2951122936,-0.34383039,0.2387511099999999,-3.11505959,,,
imu,432.100033,-0.1686790896,-9.692467971200001,2.2843455432,-0.18681528,0.4331507699999997,-3.15244414,,,
imu,432.108412,-0.1788476872,-9.6775141512,2.2951122936,0.16459949,0.47801223,-3.07767504,,,
imu,432.11679,-0.1896144376,-9.675121540000001,2.2981030576,0.26927623,0.4331507699999997,-3.14496723,,,
imu,432.125168,-0.1908107432,-9.681103068,2.2933178352,0.6281679099999999,0.62007352,-3.06272122,,,
imu,432.133547,-0.1788476872,-9.6745233872,2.2897289184,0.8375213899999999,0.80699627,-3.18235178,,,
imu,432.141925,-0.1836329096,-9.6643547896,2.2873363072,1.12912088,1.06121121,-3.26459779,,,
imu,432.150387,-0.1848292152,-9.6470083584,2.2783640152,1.31604363,1.34533379,-3.30945925,,,
imu,432.15885,-0.1818384512,-9.651793580800001,2.2951122936,1.60016621,1.67431783,-3.21973633,,,
imu,432.167312,-0.1722680064,-9.6817012208,2.28793446,1.8169966,1.67431783,-3.37675144,,,
imu,432.175774,-0.1579123392,-9.706225485600001,2.2981030576,1.8169966,1.90610204,-3.53376655,,,
imu,432.184237,-0.155519728,-9.70502918,2.2897289184,1.75718132,2.05564024,-3.86275059,,,
imu,432.192699,-0.1495382,-9.709814402400001,2.3046827384,1.6674584,2.12293243,-4.169303899999999,,,
imu,432.201161,-0.1393696024,-9.743909112,2.3220291696,1.55530475,2.40705501,-4.102011709999999,,,
imu,432.209623,-0.1208268656,-9.785779808000001,2.3244217808,1.42819728,2.57902394,-4.169303899999999,,,
imu,432.21805,-0.1142471848,-9.759461084800002,2.3196365584,1.1440747,2.60145467,-4.25154991,,,
imu,432.226512,-0.09869521200000002,-9.739722042400002,2.3280106976,0.9571519499999999,2.63883922,-4.244073,,,
imu,432.234975,-0.09390998960000001,-9.735534972800002,2.3190384056,0.9272443100000001,2.64631613,-4.244073,,,
imu,432.243437,-0.08314323920000001,-9.7606573904,2.3256180864,0.8823828499999999,2.57154703,-4.146873169999999,,,
imu,432.251899,-0.07955432240000002,-9.8013317808,2.3435626704,0.8973366700000001,2.42948574,-4.0945348,,,
imu,432.260362,-0.05981528000000001,-9.805518850400002,2.3561238792,0.9347212199999999,2.41453192,-4.20668845,,,
imu,432.268824,-0.0514411408,-9.7953502528,2.3573201848,0.9197674,2.13788625,-4.46090339,,,
imu,432.277286,-0.0592171272,-9.769629682400002,2.36270356,0.79265993,1.86124058,-4.77493361,,,
imu,432.285748,-0.062806044,-9.772620446400001,2.3633017128,0.8749059399999999,1.59954873,-5.11139456,,,
imu,432.294211,-0.09211553120000002,-9.731946056000002,2.3459552816,0.85995212,1.21074941,-5.41794787,,,
imu,432.302673,-0.1010878232,-9.693066124000001,2.3495441984,1.03939796,0.7995193599999997,-5.567486069999999,,,
imu,432.311135,-0.1214250184,-9.676317845600002,2.3321977672,1.30856672,0.5527813299999997,-5.612347529999999,,,
imu,432.319597,-0.1250139352,-9.673925234400002,2.3226273224,1.43567419,0.4929660499999997,-5.43290169,,,
imu,432.32806,-0.1321917688,-9.671532623200001,2.3154494888,1.47305874,0.2910894799999997,-5.43290169,,,
imu,432.336522,-0.1369769912,-9.673925234400002,2.3022901272,1.70484295,0.1864127399999997,-5.29831731,,,
imu,432.344984,-0.152528964,-9.675719692800001,2.2963085992,1.9665348,0.21632038,-5.18616366,,,
imu,432.353445,-0.1549215752,-9.6703363176,2.2825510848,1.88428879,-0.04537147000000008,-5.23102512,,,
imu,432.361906,-0.1722680064,-9.638634219200002,2.2628120424,1.8169966,-0.06780220000000003,-5.1413022,,,
imu,432.370367,-0.1926052016,-9.5985579816,2.263410195200001,1.88428879,-0.20986349,-5.3656095,,,
imu,432.378828,-0.2057645632,-9.594370912,2.2562323616,1.74970441,-0.5089398900000002,-5.67963972,,,
imu,432.387289,-0.2189239248,-9.593772759200002,2.2484563752,1.73475059,-0.5687551700000002,-5.94880848,,,
imu,432.39575,-0.2314851336,-9.602745051200001,2.2574286672,1.55530475,-0.86035466,-6.352561619999999,,,
imu,432.404211,-0.2554112456,-9.627269316000001,2.2592231256,1.45062801,-0.9725083100000003,-6.53948437,,,
imu,432.412672,-0.2799355104,-9.6434194416,2.2514471392,1.38333582,-1.07718505,-6.689022570000001,,,
imu,432.421133,-0.3062542336,-9.6494009696,2.2502508336,1.36090509,-1.12204651,-6.71893021,,,
imu,432.429594,-0.3247969704000001,-9.6505972752,2.2388859304,1.50296638,-1.0398005,-6.54696128,,,
imu,432.438055,-0.34393786,-9.644017594400001,2.228717332800001,1.57773548,-0.9575544899999997,-6.1880696,,,
imu,432.446516,-0.3636769024000001,-9.639830524800002,2.21316536,1.63755076,-0.8528777500000002,-5.98619303,,,
imu,432.454977,-0.3732473472,-9.618297024,2.2233339576,1.53287402,-0.53884753,-5.57496298,,,
imu,432.463438,-0.3870048616000001,-9.6326526912,2.2335025552,1.47305874,-0.2472480400000001,-5.193640569999999,,,
imu,432.471899,-0.3852104032000001,-9.648204664000001,2.2352970136,1.31604363,-0.07527911000000032,-5.0665331,,,
imu,432.48036,-0.4031549872,-9.630858232800001,2.2436711528,1.18145925,-0.02294074000000013,-5.0665331,,,
imu,432.488821,-0.4163143488000001,-9.606333968000001,2.2436711528,1.25622835,0.2013665599999999,-5.20859439,,,
imu,432.497282,-0.4318663216,-9.596763523200002,2.2412785416,1.40576655,0.6051196999999999,-5.328224949999999,,,
imu,432.505743,-0.4354552384000001,-9.610521037600002,2.2239321104,1.83195042,1.00887284,-5.11887147,,,
imu,432.514204,-0.4372496968000001,-9.61530626,2.2035949152,2.116073,1.6518871,-4.6179185,,,
imu,432.522665,-0.415716196,-9.597959828800002,2.19821154,2.29551884,2.28742445,-4.244073,,,
imu,432.531126,-0.3977716120000001,-9.579417092000002,2.192230012,2.36281103,2.84071579,-4.057150249999999,,,
imu,432.539587,-0.3576953744,-9.578220786400001,2.1838558728,2.49739541,3.18465365,-3.92256587,,,
imu,432.548048,-0.3307784984000001,-9.6290637744,2.1856503312,2.75908726,3.52859151,-3.86275059,,,
imu,432.556538,-0.3068523864000001,-9.708019944000002,2.1898374008,3.0133022,3.8949601,-3.7954584,,,
imu,432.565029,-0.2883096496000001,-9.711608860800002,2.1844540256,3.09554821,3.97720611,-3.98985806,,,
imu,432.573519,-0.2542149400000001,-9.680504915200002,2.1635186776,3.14788658,3.98468302,-4.22164227,,,
imu,432.582009,-0.2458408008,-9.655980650400002,2.1461722464,3.34228624,3.87252937,-4.18425772,,,
imu,432.590499,-0.233279592,-9.669140012000002,2.132414732,3.36471697,3.820191,-4.318842099999999,,,
imu,432.59899,-0.20935348,-9.6846919848,2.1389944128,3.26751714,3.65569898,-4.31136519,,,
imu,432.60748,-0.1860255208,-9.673925234400002,2.132414732,3.26004023,3.49120696,-4.21416536,,,
imu,432.61597,-0.1806421456,-9.641624983200002,2.1246387456,2.91610237,3.11736146,-4.17678081,,,
imu,431.946698,,,,,,,79.151474,-46.82074600000004,113.9603304
imu,432.62446,-0.1722680064,-9.614708107200002,2.1288258152,2.64693361,2.58650085,-4.21416536,,,
imu,432.632951,-0.1740624648,-9.614109954400002,2.1198535232,2.43010322,2.01077878,-4.30388828,,,
imu,432.641441,-0.191408896,-9.6326526912,2.1192553704,2.36281103,1.62945637,-4.13191935,,,
imu,432.649931,-0.2099516328,-9.667943706400001,2.1467703992,2.25813429,1.12102649,-3.95247351,,,
imu,432.658421,-0.2177276192,-9.6846919848,2.1401907184,2.17588828,0.7397040799999997,-3.80293531,,,
imu,432.666912,-0.2416537312,-9.714001472000001,2.1605279136,2.31794957,0.52287369,-3.33936689,,,
imu,432.675402,-0.2560093984,-9.743909112,2.1599297608,2.17588828,0.27613566,-2.99542903,,,
imu,432.683892,-0.2697669128,-9.7702278352,2.1718928168,2.31794957,0.05930526999999985,-2.62158353,,,
imu,432.692382,-0.305057928,-9.7989391696,2.188042942400001,2.43758013,0.09668981999999993,-2.46456842,,,
imu,432.700873,-0.3271895816000001,-9.797742864000002,2.178472497600001,2.58711833,0.11164364,-2.12810747,,,
imu,432.709363,-0.3445360128,-9.76484446,2.1569389968,2.69179507,0.3733354899999997,-1.75426197,,,
imu,432.717853,-0.361882444,-9.7151977776,2.135405496,2.66936434,0.5378275100000001,-1.64958523,,,
imu,432.726343,-0.3792288752000001,-9.648204664000001,2.102507092,2.89367164,0.9789651999999998,-1.3280781,,,
imu,432.734834,-0.3822196392,-9.609324732000001,2.0833662024,3.06564057,1.53973345,-1.1037708,,,
imu,432.743324,-0.382817792,-9.5638651192,2.054654868000001,3.0880713,2.08554788,-0.8121713099999999,,,
imu,432.751814,-0.3505175408000001,-9.507040603200002,2.0205601584,3.11050203,2.73603905,-0.3859874399999998,,,
imu,432.760604,-0.3236006648,-9.472347740800002,2.0145786304,3.17031731,3.34914567,-0.1317724999999998,,,
imu,432.769395,-0.2823281216,-9.503451686400002,2.0074007968,3.19274804,3.81271409,-0.004665029999999959,,,
imu,432.778185,-0.2398592728,-9.587193078400002,2.0235509224,3.12545585,4.388436159999999,0.05515025000000007,,,
imu,432.786976,-0.1908107432,-9.6709344704,2.0391028952,2.81142563,4.84452767,0.3168421000000001,,,
imu,432.795766,-0.1483418944,-9.7056273328,2.0570474792,2.47496468,5.12117334,0.36170356,,,
imu,432.804556,-0.1070693512,-9.727160833600001,2.0737957576,2.10111918,5.20341935,0.3392728300000001,,,
imu,432.813347,-0.0693857248,-9.7636481544,2.1048997032,1.48801256,5.12865025,0.2869344599999999,,,
imu,432.822137,-0.0215335008,-9.773218599200002,2.1132738424,1.03192105,4.99406587,0.2495499100000003,,,
imu,432.830928,-0.011963056,-9.722973764,2.1240405928,0.44124516,4.76975857,0.09253480000000014,,,
imu,432.839718,-0.002990764,-9.714001472000001,2.1449759408,-0.29896893,4.28375942,-0.11681868,,,
imu,432.848508,0.008374139200000002,-9.6775141512,2.1677057472,-0.81487572,3.65569898,-0.1317724999999998,,,
imu,432.857299,0.0191408896,-9.644017594400001,2.165313136,-1.00927538,3.13231528,-0.004665029999999959,,,
imu,432.866089,0.0233279592,-9.612913648800001,2.18325772,-1.14385976,2.56407012,-0.01961884999999985,,,
imu,432.87488,0.0221316536,-9.633250844,2.192230012,-1.06909066,2.16779389,0.18225772,,,
imu,432.88367,0.0191408896,-9.673925234400002,2.2119690544,-0.60552224,1.75656384,0.44394957,,,
imu,432.89246,0.0245242648,-9.7122070136,2.2185487352,-0.23915365,1.50982581,0.9075179900000001,,,
imu,432.901251,0.04007623760000001,-9.758862932000001,2.2388859304,0.43376825,1.39019525,1.4383786,,,
imu,432.910041,0.04486146000000001,-9.803724392000001,2.2478582224,0.9945364999999999,1.15841104,1.68511663,,,
imu,432.918831,0.06699311360000001,-9.851576616000001,2.266999112000001,1.64502767,1.02382666,1.59539371,,,
imu,432.927622,0.05562821040000001,-9.9101955904,2.290925224,1.94410407,0.8593346399999997,1.44585551,,,
imu,432.936412,0.0430670016,-9.964029342400002,2.307673502400001,2.16841137,0.62007352,1.02714855,,,
imu,432.945203,0.0442633072,-9.977786856800002,2.3142531832,2.27308811,0.50044296,0.6906876,,,
imu,432.953993,0.0233279592,-9.938308772000001,2.3094679608,2.24318047,0.52287369,0.2645037299999999,,,
imu,432.962468,0.011963056,-9.867128588800002,2.3022901272,2.29551884,0.5303505999999998,-0.4158950799999999,,,
imu,432.970943,-0.004187069600000001,-9.817481906400001,2.275971404,2.16093446,0.6051196999999999,-1.08134007,,,
imu,432.979418,-0.0101685976,-9.786377960800001,2.252045292,2.29551884,0.6724118899999998,-1.58229304,,,
imu,432.987893,-0.0161501256,-9.7403201952,2.2418766944,2.54225687,0.84438082,-2.29259949,,,
imu,432.996368,-0.0340947096,-9.722973764,2.2185487352,2.6394567,1.00887284,-3.13749032,,,
imu,433.004843,-0.0592171272,-9.721179305600002,2.2023986096,2.74413344,1.15093413,-3.63096638,,,
imu,433.013318,-0.0562263632,-9.694860582400002,2.174285428,2.81142563,1.40514907,-3.92256587,,,
imu,433.021793,-0.06041343280000001,-9.667345553600002,2.1599297608,3.02077911,1.77899457,-3.96742733,,,
imu,433.030268,-0.05861897440000001,-9.634447149600001,2.1407888712,3.14788658,2.10797861,-3.98985806,,,
imu,433.038743,-0.06998387760000001,-9.597361676,2.1108812312,3.2376095,2.43696265,-4.13191935,,,
imu,433.047218,-0.0550300576,-9.554892827200002,2.0971237168,3.20770186,2.54163939,-4.3936112,,,
imu,433.055693,-0.06579680800000001,-9.520798117600002,2.069608688,3.25256332,2.74351596,-4.3936112,,,
imu,433.064168,-0.07955432240000002,-9.502255380800001,2.0678142296,3.37967079,2.86314652,-4.52071867,,,
imu,433.072643,-0.08015247520000002,-9.520199964800002,2.0684123824,3.23013259,3.09493073,-4.602964679999999,,,
imu,433.081118,-0.07177833600000001,-9.5291722568,2.057645632,3.15536349,3.39400713,-4.51324176,,,
imu,433.089593,-0.0550300576,-9.541733465600002,2.0749920632,3.29742478,3.75289881,-4.43847266,,,
imu,433.098068,-0.0376836264,-9.5638651192,2.0821698968,3.15536349,3.80523718,-4.68521069,,,
imu,433.106543,-0.0245242648,-9.5800152448,2.0947311056,2.9385331,3.820191,-4.82727198,,,
imu,433.115018,-0.0245242648,-9.592576453600001,2.096525564,2.72917962,3.80523718,-4.991764,,,
imu,433.123493,-0.0131593616,-9.5907819952,2.0977218696,2.83385636,3.73794499,-5.350655679999999,,,
imu,433.131968,-0.0191408896,-9.610521037600002,2.106694161600001,2.90862546,3.58840679,-5.59739371,,,
imu,433.140443,-0.0215335008,-9.616502565600001,2.1001144808,3.13293276,3.39400713,-5.874039379999999,,,
imu,433.148918,-0.0125612088,-9.614109954400002,2.099516328,3.36471697,3.22951511,-5.97871612,,,
imu,433.157393,-0.0215335008,-9.624278552000002,2.0917403416,3.61893191,3.10988455,-5.94133157,,,
imu,433.165856,-0.0161501256,-9.6434194416,2.0983200224,3.72360865,2.61640849,-5.99366994,,,
imu,433.17432,-0.0233279592,-9.6703363176,2.0947311056,4.20213089,2.37714737,-5.94133157,,,
imu,433.182783,-0.026916876,-9.710412555200001,2.0851606608,4.68065313,1.92853277,-5.829177919999999,,,
imu,433.191247,-0.04187069600000001,-9.7492924872,2.0863569664,5.14422155,1.74161002,-5.70207045,,,
imu,433.19971,-0.0490485296,-9.7636481544,2.0947311056,5.42086722,1.52477963,-5.56000916,,,
imu,433.208174,-0.0675912664,-9.794752100000002,2.0857588136,5.7797589,1.19579559,-5.55253225,,,
imu,433.216637,-0.08374139200000001,-9.802528086400002,2.0821698968,5.89938946,0.8294269999999999,-5.57496298,,,
imu,433.225101,-0.1028822816,-9.821668976000002,2.072001299200001,6.0040662,0.58268897,-5.69459354,,,
imu,433.233565,-0.1184342544,-9.827650504000003,2.069608688,6.09378912,0.4107200399999997,-5.75440882,,,
imu,433.242028,-0.122621324,-9.845595088000001,2.051664104,6.16108131,0.3284740299999998,-5.69459354,,,
imu,433.250492,-0.1429585192,-9.842604324000002,2.03371952,6.09378912,0.1565051,-5.851608649999999,,,
imu,433.258955,-0.1662864784,-9.802528086400002,2.013980477600001,6.02649693,0.0368745399999999,-5.72450118,,,
imu,433.267419,-0.188418132,-9.789966877600001,2.0079989496,5.98911238,-0.01546383000000029,-5.6646859,,,
imu,433.275882,-0.1896144376,-9.813892989600001,2.0074007968,5.63769761,0.06678217999999969,-5.58243989,,,
imu,433.284346,-0.19439966,-9.8049206976,2.0062044912,5.35357503,0.1265974599999997,-5.305794219999999,,,
imu,433.292809,-0.1955959656,-9.767237071200002,1.9906525184,5.2563752,0.1041667299999998,-5.31327113,,,
imu,433.301273,-0.2045682576000001,-9.722375611200002,1.9751005456,4.83766824,-0.0005100100000001717,-5.4403786,,,
imu,433.309797,-0.2177276192,-9.701440263200002,1.9631374896,4.68065313,0.01444380999999995,-5.32074804,,,
imu,433.31826,-0.2350740504,-9.672728928800002,1.9362206136,4.56849948,0.04435144999999974,-5.08148692,,,
imu,433.326724,-0.233279592,-9.671532623200001,1.9302390856,4.57597639,0.1191205499999999,-4.64034923,,,
imu,433.335187,-0.2225128416,-9.675121540000001,1.9224630992,4.56849948,0.2088434699999997,-4.15435008,,,
imu,433.343651,-0.1997830352,-9.683495679200002,1.9254538632,4.56849948,0.4032431299999999,-3.71321239,,,
imu,433.352114,-0.188418132,-9.676915998400002,1.9224630992,4.5834533,0.56025824,-3.42908981,,,
imu,433.360578,-0.170473548,-9.663158484000002,1.9087055848,4.516161110000001,0.4630584099999999,-3.20478251,,,
imu,433.369063,-0.1692772424,-9.6505972752,1.9105000432,4.52363802,0.2237972899999998,-3.21225942,,,
imu,433.377548,-0.1722680064,-9.647606511200001,1.9009295984,4.63579167,0.21632038,-3.43656672,,,
imu,433.386034,-0.1740624648,-9.6505972752,1.905116668,4.76289914,0.1191205499999999,-3.68330475,,,
imu,433.394519,-0.1758569232,-9.654784344800001,1.8895646952,4.71056077,-0.23229422,-3.95247351,,,
imu,433.403004,-0.1770532288,-9.66016772,1.8877702368,5.12179082,-0.2023865800000002,-4.079580979999999,,,
imu,433.411489,-0.182436604,-9.6667474008,1.8764053336,5.39095958,-0.3369709599999999,-4.146873169999999,,,
imu,433.419974,-0.188418132,-9.6709344704,1.8674330416,5.52554396,-0.39678624,-4.32631901,,,
imu,433.428459,-0.1997830352,-9.679308609600001,1.8494884576,5.72742053,-0.5164168,-4.43847266,,,
imu,433.436944,-0.2129423968,-9.696056888000001,1.8435069296,5.99658929,-0.53884753,-4.48333412,,,
imu,432.04823,,,,,,,78.98057320000001,-46.79633160000001,116.6215
imu,432.149793,,,,,,,79.45665399999999,-46.3446652,116.4139776
imu,432.251355,,,,,,,79.39561799999998,-46.32025080000002,116.4505992
imu,432.352918,,,,,,,79.45665399999999,-46.66205240000001,116.255284
imu,432.454511,,,,,,,79.3589964,-47.16254760000002,116.4261848
imu,432.556012,,,,,,,79.4078252,-47.4677276,116.6703288
imu,432.657636,,,,,,,81.3609772,-48.15133080000003,115.0833928
imu,432.759198,,,,,,,79.0660236,-47.05268280000001,116.2430768
imu,433.44543,-0.2255036056,-9.690075360000002,1.8309457208,6.51249608,-0.5911859000000002,-4.44594957,,,
imu,433.453915,-0.2314851336,-9.702636568800001,1.8159919008,6.78914175,-0.5837089900000003,-4.37118047,,,
imu,433.4624,-0.242251884,-9.708019944000002,1.7878787192,7.03587978,-0.6136166300000001,-4.408565019999999,,,
imu,433.470885,-0.2560093984,-9.7074217912,1.770532288,7.70880168,-0.4416477000000003,-4.50576485,,,
imu,433.47937,-0.2739539824000001,-9.699047652,1.7573729264,8.187323919999999,-0.37435551,-4.4683803,,,
imu,433.487855,-0.2787392048,-9.702038416,1.7310542032,8.59855397,-0.1201405700000002,-4.49081103,,,
imu,433.496341,-0.2877114968,-9.713403319200001,1.7190911472,9.024737839999998,0.0368745399999999,-4.44594957,,,
imu,433.504826,-0.2972819416,-9.7056273328,1.6909779656,9.40606025,0.1565051,-4.363703559999999,,,
imu,433.513311,-0.2895059552,-9.708019944000002,1.6724352288,9.64532137,0.3658585799999998,-4.408565019999999,,,
imu,433.521796,-0.2984782472,-9.7295534448,1.650901728,10.13132052,0.56025824,-4.32631901,,,
imu,433.530281,-0.2948893304,-9.746899876,1.632957144,10.33319709,0.78456554,-4.32631901,,,
imu,433.538766,-0.290104108,-9.7606573904,1.6174051712,10.37805855,1.03130357,-4.169303899999999,,,
imu,433.547252,-0.2835244272,-9.789368724800001,1.6084328792,10.40796619,1.31542615,-4.11696553,,,
imu,433.555737,-0.2769447464000001,-9.803126239200001,1.5904882952,10.54255057,1.64441019,-4.034719519999999,,,
imu,433.564222,-0.2655798432,-9.802528086400002,1.573141864,10.49768911,2.01077878,-4.102011709999999,,,
imu,433.573019,-0.245242648,-9.797742864000002,1.5605806552,10.43787383,2.1005017,-4.04219643,,,
imu,433.581816,-0.2470371064,-9.776209363200001,1.5420379184,10.28085872,2.26499372,-4.04219643,,,
imu,433.590613,-0.2476352592,-9.766040765600001,1.5228970288,10.35562782,2.40705501,-3.92256587,,,
imu,433.59941,-0.245242648,-9.748694334400001,1.5085413616,10.42292001,2.45191647,-3.93751969,,,
imu,433.608207,-0.2338777448,-9.752283251200002,1.4911949304,10.43039692,2.53416248,-3.87770441,,,
imu,433.617004,-0.2296906752000001,-9.752283251200002,1.48042818,10.42292001,2.66874686,-3.82536604,,,
imu,433.625801,-0.2111479384,-9.7534795568,1.4523149984,10.40048928,2.67622377,-3.80293531,,,
imu,433.634598,-0.2141387024,-9.759461084800002,1.4331741088,10.38553546,2.74351596,-3.61601256,,,
imu,433.643395,-0.2027737992,-9.7815927384,1.432575956,10.43039692,2.85566961,-3.53376655,,,
imu,433.652192,-0.19439966,-9.802528086400002,1.4200147472,10.47525838,2.71360832,-3.35432071,,,
imu,433.660989,-0.1890162848,-9.8270523512,1.4218092056,10.46030456,2.72856214,-3.30198234,,,
imu,433.669786,-0.1985867296,-9.859950755200002,1.4128369136,10.37058164,2.78090051,-3.20478251,,,
imu,433.678583,-0.2009793408,-9.870717505600002,1.402668316,10.05655142,2.58650085,-3.30198234,,,
imu,433.68738,-0.185427368,-9.880886103200002,1.3865181904,9.869628669999999,2.56407012,-3.21973633,,,
imu,433.696177,-0.1872218264,-9.899428840000002,1.3721625232,9.705136649999998,2.43696265,-3.25712088,,,
imu,433.704974,-0.1932033544,-9.898830687200002,1.363788384,9.368675699999999,2.28742445,-3.37675144,,,
imu,433.713771,-0.1961941184,-9.886269478400003,1.3506290224,9.18922986,2.35471664,-3.39918217,,,
imu,433.722568,-0.1896144376,-9.870717505600002,1.33088998,8.912584189999999,2.34723973,-3.31693616,,,
imu,433.731365,-0.1920070488,-9.853969227200002,1.3081601736,8.9200611,2.39210119,-3.18982869,,,
imu,433.740162,-0.1926052016,-9.8210708232,1.2908137424,8.733138349999999,2.25751681,-3.41413599,,,
imu,433.748959,-0.2045682576000001,-9.8228652816,1.2704765472,8.740615259999998,2.30985518,-3.35432071,,,
imu,433.757756,-0.1932033544,-9.843800629600002,1.259111644,8.66584616,2.49677793,-3.20478251,,,
imu,433.766553,-0.1997830352,-9.8467913936,1.2465504352,8.606030879999999,2.57902394,-3.10010577,,,
imu,433.775088,-0.2009793408,-9.845595088000001,1.2327929208,8.606030879999999,2.64631613,-3.02533667,,,
imu,433.783623,-0.2051664104,-9.844398782400003,1.205277892,8.456492679999998,2.70613141,-3.13749032,,,
imu,433.792158,-0.1967922712,-9.836622796,1.1915203776,8.55369251,2.89305416,-3.14496723,,,
imu,433.800692,-0.1818384512,-9.8629415192,1.1777628632,8.30695448,2.75846978,-3.14496723,,,
imu,433.809227,-0.1638938672,-9.868923047200001,1.1442663064,8.194800829999998,2.75846978,-3.24216706,,,
imu,433.817762,-0.182436604,-9.8880639368,1.1412755424,7.98544735,2.75846978,-3.37675144,,,
imu,433.826297,-0.1908107432,-9.891054700800002,1.1293124864,7.53683275,2.72856214,-3.3468438,,,
imu,433.834831,-0.1866236736,-9.9048122152,1.1197420416,7.17046416,2.72108523,-3.33936689,,,
imu,433.843366,-0.1776513816,-9.908401132000002,1.1191438888,6.81904939,2.63136231,-3.29450543,,,
imu,433.851901,-0.1662864784,-9.9012232984,1.0904325544,6.4526808,2.66126995,-3.33188998,,,
imu,433.860436,-0.1776513816,-9.899428840000002,1.0790676512,6.17603513,2.64631613,-3.30945925,,,
imu,433.86897,-0.185427368,-9.891054700800002,1.055739692,5.86200491,2.60145467,-3.13001341,,,
imu,433.877505,-0.1722680064,-9.897634381600001,1.0419821776,5.78723581,2.68370068,-2.91318302,,,
imu,433.88604,-0.1692772424,-9.902419604000002,1.0342061912,5.72742053,2.74351596,-2.77859864,,,
imu,433.894575,-0.1626975616,-9.912588201600002,1.0216449824,5.60031306,2.81080815,-2.57672207,,,
imu,433.903109,-0.1477437416,-9.908401132000002,1.0132708432,5.29375975,2.69117759,-2.73373718,,,
imu,433.911644,-0.1471455888,-9.9048122152,1.0007096344,5.00216026,2.61640849,-2.76364482,,,
imu,433.920179,-0.1393696024,-9.900625145600001,1.0013077872,4.8077606,2.57902394,-2.92813684,,,
imu,433.928714,-0.1489400472,-9.882680561600003,0.9941299536000001,4.78532987,2.51920866,-3.10758268,,,
imu,433.937248,-0.1549215752,-9.868923047200001,0.9797742864000001,4.54606875,2.28742445,-3.36179762,,,
imu,433.945783,-0.1567160336,-9.859950755200002,0.9666149248000001,4.516161110000001,2.1752708,-3.48890509,,,
imu,433.954318,-0.1620994088,-9.8629415192,0.9666149248000001,4.516161110000001,2.27994754,-3.60105874,,,
imu,433.962853,-0.1591086448,-9.8563618384,0.9552500216000002,4.50120729,2.30237827,-3.45152054,,,
imu,433.971387,-0.1710717008,-9.853371074400002,0.9385017432000002,4.41896128,2.29490136,-3.36179762,,,
imu,433.979791,-0.158510492,-9.865932283200001,0.9385017432000002,4.23951544,2.324809,-3.14496723,,,
imu,433.988195,-0.152528964,-9.877297186400002,0.9379035904000002,4.04511578,2.3995781,-2.95056757,,,
imu,433.996599,-0.1477437416,-9.897634381600001,0.9522592576000002,3.91800831,2.3995781,-2.87579847,,,
imu,434.005002,-0.1531271168,-9.892251006400002,0.9361091320000001,3.5366859,2.29490136,-2.92813684,,,
imu,434.013406,-0.1429585192,-9.9000269928,0.9349128264000002,3.59650118,2.44443956,-2.91318302,,,
imu,434.02181,-0.143556672,-9.9066066736,0.9307257568000001,3.25256332,2.40705501,-3.01785976,,,
imu,434.030214,-0.143556672,-9.924551257600003,0.9379035904000002,3.11797894,2.43696265,-2.95804448,,,
imu,434.038618,-0.1363788384,-9.926345716,0.9420906600000001,2.66188743,2.52668557,-3.06272122,,,
imu,434.047021,-0.1441548248,-9.935318008000001,0.9396980488000001,2.40019558,2.52668557,-3.13001341,,,
imu,434.055425,-0.1411640608,-9.9239531048,0.9552500216000002,2.116073,2.60893158,-3.16739796,,,
imu,434.063829,-0.1321917688,-9.917373424,0.9510629520000001,1.74970441,2.53416248,-3.20478251,,,
imu,434.072233,-0.1327899216,-9.906008520800002,0.9504647992000002,1.37585891,2.49677793,-3.22721324,,,
imu,434.080636,-0.1250139352,-9.9066066736,0.9546518688000002,1.2188438,2.61640849,-3.1225365,,,
imu,434.08904,-0.1100601152,-9.873110116800001,0.9504647992000002,1.01696723,2.56407012,-3.20478251,,,
imu,434.097444,-0.1172379488,-9.865932283200001,0.9588389384,0.77770611,2.52668557,-3.23469015,,,
imu,434.105848,-0.1232194768,-9.900625145600001,0.9821668976000001,0.40386061,2.40705501,-3.3468438,,,
imu,434.114252,-0.1112564208,-9.907204826400001,0.9905410368000002,0.23189168,2.40705501,-3.25712088,,,
imu,434.122655,-0.1010878232,-9.901821451200002,1.0102800792,0.03001510999999998,2.31733209,-3.29450543,,,
imu,434.131059,-0.09510629520000001,-9.874306422400002,1.0210468296,-0.15690764,2.14536316,-3.31693616,,,
imu,434.139463,-0.1118545736,-9.843800629600002,1.0234394408,-0.29149202,2.07059406,-3.38422835,,,
imu,434.147867,-0.1232194768,-9.824061587200001,1.0336080384,-0.34383039,2.03320951,-3.3468438,,,
imu,434.15627,-0.1333880744,-9.807313308800001,1.0234394408,-0.28401511,2.07807097,-3.07019813,,,
imu,434.164674,-0.1148453376,-9.801929933600002,1.0246357464,-0.20924601,1.95844041,-3.01038285,,,
imu,434.173078,-0.1058730456,-9.797144711200001,1.0156634544,-0.007369440000000005,2.06311715,-2.8982292,,,
imu,434.181542,-0.10467674,-9.789368724800001,1.01685976,0.35152224,2.11545552,-2.86084465,,,
imu,434.190005,-0.101685976,-9.794752100000002,1.0066911624,0.49358353,2.07807097,-2.86084465,,,
imu,434.198469,-0.09929336480000002,-9.783985349600002,1.0084856208,0.38142988,1.92853277,-2.98795212,,,
imu,434.206932,-0.1154434904,-9.787574266400002,1.0084856208,0.43376825,1.8761944,-3.21225942,,,
imu,434.215396,-0.116639796,-9.779200127200001,1.0090837736,0.4861066199999999,1.74908693,-3.55619728,,,
imu,434.223859,-0.122621324,-9.7953502528,0.9995133288000001,0.71789083,1.8761944,-3.57862801,,,
imu,434.232323,-0.1172379488,-9.7923594888,0.9899428840000002,0.97958268,1.94348659,-3.66835093,,,
imu,434.240786,-0.1214250184,-9.797742864000002,0.9935318008000001,1.07678251,1.9509635,-3.69078166,,,
imu,434.24925,-0.1142471848,-9.803126239200001,0.9893447312000001,1.16650543,1.91357895,-3.67582784,,,
imu,434.257713,-0.1118545736,-9.80970592,0.9965225648000002,1.12912088,1.84628676,-3.88518132,,,
imu,432.860774,,,,,,,81.53187799999999,-47.44331320000001,114.1434384
imu,432.962336,,,,,,,79.39561799999998,-46.32025080000002,116.5116352
imu,433.063868,,,,,,,79.39561799999998,-46.64984520000002,113.7039792
imu,433.165461,,,,,,,79.3589964,-46.7352956,116.4505992
imu,433.267024,,,,,,,80.1036356,-46.60101640000001,116.2186624
imu,433.368586,,,,,,,79.8350772,-47.1991692,116.4628064
imu,433.470149,,,,,,,80.189086,-46.33245800000001,116.6337072
imu,433.571711,,,,,,,80.32336520000001,-46.9306108,115.7547888
imu,434.266177,-0.1100601152,-9.8300431152,0.9959244120000001,1.27118217,1.99582496,-3.69825857,,,
imu,434.274641,-0.1184342544,-9.8294449624,0.9857558144000002,1.24127453,2.15284007,-3.69078166,,,
imu,434.283104,-0.1160416432,-9.830641268,0.9905410368000002,1.19641307,2.04068642,-3.67582784,,,
imu,434.291568,-0.1130508792,-9.83961356,0.9887465784000001,1.09173633,2.00330187,-3.68330475,,,
imu,434.300031,-0.110658268,-9.842006171200001,0.9833632032,1.12912088,2.03320951,-3.60853565,,,
imu,434.308495,-0.122621324,-9.831837573600001,0.9821668976000001,1.00949032,1.92853277,-3.7206893,,,
imu,434.316958,-0.1220231712,-9.834828337600001,0.9803724392000001,0.9571519499999999,1.90610204,-3.56367419,,,
imu,434.325422,-0.122621324,-9.8264541984,0.9678112304000002,0.8749059399999999,1.90610204,-3.66835093,,,
imu,434.333885,-0.1190324072,-9.840809865600002,0.9696056888000001,1.15155161,1.92853277,-3.61601256,,,
imu,434.342349,-0.125612088,-9.8432024768,0.9749890640000002,1.06182869,1.98834805,-3.67582784,,,
imu,434.350812,-0.1178361016,-9.8467913936,0.9785779808,0.9571519499999999,1.89114822,-3.82536604,,,
imu,434.359276,-0.1232194768,-9.861147060800002,0.9731946056000002,0.85995212,1.88367131,-3.81041222,,,
imu,434.367739,-0.1339862272,-9.862343366400001,0.9791761336000001,0.74779847,1.85376367,-3.69078166,,,
imu,434.376203,-0.131593616,-9.8593526024,0.9839613560000001,0.50853735,1.91357895,-3.69825857,,,
imu,434.384665,-0.1190324072,-9.864137824800002,0.9947281064000002,0.30666078,2.06311715,-3.62348947,,,
imu,434.393128,-0.1088638096,-9.876699033600001,0.9923354952000002,0.29918387,2.03320951,-3.52628964,,,
imu,434.401624,-0.1070693512,-9.880287950400001,1.0162616072,0.09730729999999999,1.93600968,-3.5711511,,,
imu,434.410086,-0.1100601152,-9.876100880800003,1.0060930096,-0.04475399000000001,1.92105586,-3.66835093,,,
imu,434.418549,-0.09510629520000001,-9.88447502,0.9923354952000002,-0.13447691,1.98834805,-3.63844329,,,
imu,434.427011,-0.08314323920000001,-9.875502728,1.00190594,-0.3513073,1.80890221,-3.69825857,,,
imu,434.435473,-0.09989151760000002,-9.8527729216,1.00190594,-0.40364567,1.73413311,-3.7954584,,,
imu,434.443935,-0.09749890640000002,-9.8563618384,1.0126726904,-0.59056842,1.58459491,-3.87770441,,,
imu,434.452398,-0.09510629520000001,-9.8497821576,1.01685976,-0.61299915,1.37524143,-3.95995042,,,
imu,434.46086,-0.09450814240000002,-9.819276364800002,1.0120745376,-0.59056842,1.28551851,-3.89265823,,,
imu,434.469322,-0.09989151760000002,-9.8049206976,1.0192523712,-0.68029134,1.15093413,-3.88518132,,,
imu,434.477785,-0.1088638096,-9.805518850400002,1.0132708432,-0.59056842,1.08364194,-3.85527368,,,
imu,434.486247,-0.1094619624,-9.803724392000001,1.0090837736,-0.54570696,0.9565344699999998,-3.8702275,,,
imu,434.494709,-0.1148453376,-9.803126239200001,1.0096819264,-0.61299915,0.8742884599999998,-3.85527368,,,
imu,434.503171,-0.1232194768,-9.8043225448,1.0090837736,-0.40364567,0.7397040799999997,-3.81041222,,,
imu,434.511634,-0.13458438,-9.803724392000001,1.0096819264,-0.26158438,0.6499811599999998,-3.86275059,,,
imu,434.520096,-0.1357806856,-9.808509614400002,1.013868996,-0.30644584,0.5752120599999997,-3.81788913,,,
imu,434.528558,-0.1411640608,-9.8049206976,1.0144671488,-0.30644584,0.5677351499999999,-3.84031986,,,
imu,434.53702,-0.1429585192,-9.8061170032,1.0001114816,-0.30644584,0.5079198699999998,-3.90013514,,,
imu,434.545483,-0.155519728,-9.803724392000001,1.0114763848,-0.24663056,0.5153967799999997,-3.98985806,,,
imu,434.553945,-0.1656883256,-9.8043225448,1.007887468,-0.17933837,0.6724118899999998,-4.06462716,,,
imu,434.562407,-0.16449202,-9.834828337600001,1.01685976,-0.15690764,0.7920424499999998,-4.02724261,,,
imu,434.570869,-0.1680809368,-9.850978463200002,1.0240375936,-0.21672292,0.8294269999999999,-4.04219643,,,
imu,434.579332,-0.1591086448,-9.861147060800002,1.0222431352,-0.2017691,1.08364194,-4.012288789999999,,,
imu,434.588151,-0.1549215752,-9.843800629600002,1.0240375936,-0.23167674,0.98644211,-3.99733497,,,
imu,434.596971,-0.1632957144,-9.830641268,1.01685976,-0.41859949,1.0537343,-4.08705789,,,
imu,434.60579,-0.1692772424,-9.820472670400001,1.01685976,-0.3513073,1.09859576,-3.99733497,,,
imu,434.61461,-0.1662864784,-9.824061587200001,1.0162616072,-0.61299915,1.11354958,-4.04219643,,,
imu,434.62343,-0.1573141864,-9.825856045600002,1.0282246632,-0.71019898,1.15841104,-4.124442439999999,,,
imu,434.632249,-0.1668846312,-9.8132948368,1.0365988024,-0.7251528,1.22570323,-4.17678081,,,
imu,434.641069,-0.1818384512,-9.803724392000001,1.0276265104,-0.68029134,1.29299542,-4.15435008,,,
imu,434.649888,-0.1955959656,-9.802528086400002,1.0156634544,-0.5681376899999999,1.24065705,-4.0945348,,,
imu,434.658708,-0.197390424,-9.810304072800001,1.0246357464,-0.38869185,1.40514907,-4.08705789,,,
imu,434.667528,-0.1979885768,-9.824659740000001,1.0312154272,-0.47841477,1.45001053,-4.32631901,,,
imu,434.676347,-0.2045682576000001,-9.8300431152,1.0312154272,-0.46346095,1.47244126,-4.40108811,,,
imu,434.685167,-0.2117460912,-9.847389546400002,1.0312154272,-0.19429219,1.74908693,-4.15435008,,,
imu,434.693986,-0.2255036056,-9.882680561600003,1.0389914136,-0.26158438,1.93600968,-3.86275059,,,
imu,434.702806,-0.2386629672,-9.910793743200001,1.0503563168,-0.3513073,2.14536316,-3.66835093,,,
imu,434.711625,-0.2219146888,-9.914382660000001,1.0563378448,-0.37373803,2.58650085,-3.47395127,,,
imu,434.720445,-0.2015774936,-9.917971576800003,1.058730456,-0.44850713,2.93043871,-3.44404363,,,
imu,434.729265,-0.1920070488,-9.903615909600001,1.0605249144,-0.45598404,3.31923803,-3.66835093,,,
imu,434.738084,-0.1985867296,-9.870119352800002,1.055739692,-0.5980453299999999,3.55849915,-3.81788913,,,
imu,434.746904,-0.197390424,-9.8581562968,1.0593286088,-0.7251528,3.73046808,-4.102011709999999,,,
imu,434.755723,-0.1997830352,-9.8294449624,1.0395895664,-0.64290679,3.94729847,-4.37865738,,,
imu,434.764543,-0.1938015072,-9.801929933600002,1.0150653016,-0.53823005,4.20899032,-4.70764142,,,
imu,434.773363,-0.1932033544,-9.776807516000002,0.9995133288000001,-0.32887657,4.62769728,-4.9169949,,,
imu,434.782182,-0.1800439928,-9.780396432800002,1.0186542184,-0.05970781,4.98658896,-4.909517989999999,,,
imu,434.790662,-0.155519728,-9.801929933600002,1.0072893152,0.02253820000000001,5.23332699,-4.87213344,,,
imu,434.799142,-0.1274065464,-9.803724392000001,1.0150653016,0.07487657,5.47258811,-4.75250288,,,
imu,434.807622,-0.1190324072,-9.815687448000002,1.0330098856,0.12721494,5.64455704,-4.64034923,,,
imu,434.816102,-0.09091922560000001,-9.838417254400001,1.0300191216,0.10478421,5.67446468,-4.70764142,,,
imu,434.824582,-0.06998387760000001,-9.861147060800002,1.0533470808,-0.16438455,5.71184923,-4.65530305,,,
imu,434.833063,-0.0526374464,-9.873110116800001,1.0718898176,-0.49336859,5.47258811,-4.625395409999999,,,
imu,434.841543,-0.04605776560000001,-9.876699033600001,1.0862454848,-0.63542988,5.29314227,-4.68521069,,,
imu,434.850023,-0.04366515440000001,-9.885671325600002,1.082656568,-1.03918302,4.88938913,-4.692687599999999,,,
imu,434.858503,-0.02990764000000001,-9.902419604000002,1.0952177768,-1.52518217,4.567882,-4.670256869999999,,,
imu,434.866983,-0.0323002512,-9.890456548000001,1.1346958616,-1.83173548,4.15665195,-4.61044159,,,
imu,434.875463,-0.04725407120000001,-9.885671325600002,1.130508792,-2.30278081,3.78280645,-4.55062631,,,
imu,434.883943,-0.05203929360000001,-9.9000269928,1.1269198752,-2.4448421,3.4463455,-4.48333412,,,
imu,434.892423,-0.03648732080000001,-9.886269478400003,1.1466589176,-2.76634923,3.28933039,-4.26650373,,,
imu,434.900903,-0.08015247520000002,-9.895241770400002,1.1675942656,-3.22991765,3.07997691,-4.29641137,,,
imu,434.909383,-0.11963056,-9.886269478400003,1.16639796,-3.42431731,2.90800798,-4.33379592,,,
imu,434.917863,-0.1632957144,-9.873708269600002,1.169388724,-3.7906859,3.02016163,-4.31136519,,,
imu,434.926343,-0.1920070488,-9.859950755200002,1.2046797392,-4.276685049999999,3.31923803,-4.25902682,,,
imu,434.934823,-0.2159331608,-9.876100880800003,1.2274095456,-4.71034583,3.52859151,-4.49828794,,,
imu,434.943303,-0.2434481896,-9.863539672000002,1.2298021568,-5.01689914,3.76037572,-4.86465653,,,
imu,434.951784,-0.2542149400000001,-9.855763685600001,1.244157824,-5.34588318,4.25385178,-5.14877911,,,
imu,434.960264,-0.263187232,-9.8264541984,1.2609061024,-5.42812919,4.717420199999999,-5.283363489999999,,,
imu,434.968744,-0.2727576768,-9.815687448000002,1.262102408,-5.45055992,5.24828081,-5.1413022,,,
imu,434.977224,-0.3044597752,-9.811500378400002,1.274065464,-5.57019048,5.8389567,-4.954379449999999,,,
imu,434.985704,-0.2942911776,-9.8168837536,1.2973934232,-5.48794447,6.30252512,-4.715118329999999,,,
imu,434.994167,-0.2703650656,-9.818678212000002,1.327899216,-5.63000576,6.65393989,-4.32631901,,,
imu,435.002631,-0.2733558296,-9.8144911424,1.3332825912,-5.63748267,6.930585559999999,-4.16182699,,,
imu,435.011094,-0.2817299688000001,-9.801929933600002,1.3356752024,-5.51785211,7.34929252,-4.012288789999999,,,
imu,435.019558,-0.2685706072,-9.783387196800001,1.3422548832,-5.42065228,7.693230379999999,-3.85527368,,,
imu,435.028022,-0.2578038568000001,-9.7492924872,1.348834564,-5.390744639999999,7.865199309999999,-3.78050458,,,
imu,435.036485,-0.2889078024000001,-9.748694334400001,1.3512271752,-5.293544809999999,7.77547639,-3.84031986,,,
imu,435.044949,-0.2739539824000001,-9.724170069600001,1.3344788968,-5.129052789999999,8.007260599999999,-3.84779677,,,
imu,435.053412,-0.2105497856,-9.678112304,1.3404604248,-5.173914249999999,8.24652172,-3.93751969,,,
imu,435.061876,-0.176455076,-9.658971414400002,1.3362733552,-4.7626842,8.44839829,-3.81788913,,,
imu,435.070339,-0.1339862272,-9.668541859200001,1.3572087032,-4.38136179,8.26147554,-3.91508896,,,
imu,435.078803,-0.122621324,-9.697851346400002,1.3572087032,-4.09723921,7.790430209999999,-3.81788913,,,
imu,433.673243,,,,,,,80.67737399999999,-47.56538520000002,114.9613208
imu,433.774836,,,,,,,82.78921960000001,-47.9926372,115.2909152
imu,433.878321,,,,,,,80.860482,-47.43110600000002,115.8402392
imu,433.977961,,,,,,,82.996742,-48.26119559999999,113.0447904
imu,434.079524,,,,,,,80.7262028,-46.71088120000002,115.7425816
imu,434.181117,,,,,,,80.9947612,-47.3944844,113.0936192
imu,434.282649,,,,,,,80.2257076,-46.77191720000003,115.9256896
imu,434.384181,,,,,,,80.75061720000001,-47.27241239999999,115.3275368
imu,435.087266,-0.1058730456,-9.721179305600002,1.3703680648,-3.70843989,7.267046509999999,-3.76555076,,,
imu,435.09573,-0.080750628,-9.745703570400002,1.36079762,-3.48413259,6.74366281,-3.51133582,,,
imu,435.104193,-0.06579680800000001,-9.709814402400001,1.369769912,-3.20748692,6.19784838,-3.35432071,,,
imu,435.112657,-0.0430670016,-9.7265626808,1.3751532872,-3.09533327,5.47258811,-3.29450543,,,
imu,435.12112,-0.0376836264,-9.7193848472,1.3763495928,-2.90093361,4.74732784,-3.27955161,,,
imu,435.129584,-0.0017944584,-9.777405668800002,1.381732968,-2.82616451,3.92486774,-3.10010577,,,
imu,435.138048,0.0215335008,-9.800135475200001,1.3960886352,-2.66167249,3.12483837,-2.93561375,,,
imu,435.146511,0.0340947096,-9.8013317808,1.4074535384,-2.64671867,2.12293243,-3.07767504,,,
imu,435.154975,0.008374139200000002,-9.817481906400001,1.4044627744,-2.69905704,1.14345722,-3.24964397,,,
imu,435.163438,-0.007177833600000002,-9.825257892800002,1.4433427064,-2.78877996,0.1789358299999999,-3.45899745,,,
imu,435.171902,-0.009570444800000001,-9.899428840000002,1.4576983736,-2.90841052,-0.7108164600000002,-3.58610492,,,
imu,435.180365,-0.04545961280000001,-9.9095974376,1.456502068,-2.79625687,-1.3388769,-3.60105874,,,
imu,435.188829,-0.0592171272,-9.956253356,1.483418944,-2.95327198,-2.04170644,-3.77302767,,,
imu,435.197289,-0.08433954480000001,-9.944290300000002,1.4882041664,-3.05794872,-2.69219761,-4.06462716,,,
imu,435.205748,-0.1297991576,-9.947879216800002,1.4840170968,-2.98317962,-2.93893564,-4.28145755,,,
imu,435.214208,-0.1776513816,-9.931729091200001,1.4888023192,-3.13271782,-3.19315058,-4.47585721,,,
imu,435.222668,-0.2069608688,-9.917971576800003,1.4935875416,-3.17757928,-3.37259642,-4.65530305,,,
imu,435.231127,-0.2326814392,-9.908999284800002,1.4798300272,-2.87102597,-3.24548895,-4.53567249,,,
imu,435.239587,-0.2536167872,-9.8886620896,1.4941856944,-2.97570271,-3.06604311,-4.58801086,,,
imu,435.248047,-0.2685706072,-9.88447502,1.4876060136,-3.10281018,-2.72210525,-4.70016451,,,
imu,435.256507,-0.2787392048,-9.853969227200002,1.498372764,-3.17010237,-2.37816739,-4.625395409999999,,,
imu,435.264966,-0.2715613712,-9.834230184800003,1.5019616808,-3.32711748,-2.15386009,-4.80484125,,,
imu,435.273426,-0.275150288,-9.817481906400001,1.5091395144,-3.18505619,-1.72019931,-4.73007215,,,
imu,435.281886,-0.2757484408,-9.803126239200001,1.5199062648,-3.22991765,-1.39869218,-4.85717962,,,
imu,435.290346,-0.2607946208,-9.803724392000001,1.528280404,-3.02056417,-1.10709269,-4.81979507,,,
imu,435.298805,-0.2566075512,-9.783985349600002,1.534261932,-2.99065653,-0.8753084800000002,-4.78241052,,,
imu,435.307265,-0.2548130928,-9.7576666264,1.5408416128,-3.01308726,-0.6883857300000003,-4.85717962,,,
imu,435.315725,-0.2464389536,-9.7492924872,1.5438323768,-3.02056417,-0.5463244400000002,-4.931948719999999,,,
imu,435.324184,-0.251224176,-9.743310959200002,1.5414397656,-2.98317962,-0.45660152,-5.08148692,,,
imu,435.332644,-0.2320832864,-9.718786694400002,1.5504120576,-3.02056417,-0.2472480400000001,-5.00671782,,,
imu,435.341104,-0.2350740504,-9.717590388800001,1.561178808,-3.00561035,-0.17247894,-4.909517989999999,,,
imu,435.349564,-0.2398592728,-9.718786694400002,1.5785252392,-2.95327198,-0.2023865800000002,-4.83474889,,,
imu,435.358023,-0.2320832864,-9.742114653600002,1.5988624344,-2.8934567,-0.1051867500000001,-4.70764142,,,
imu,435.366483,-0.2320832864,-9.751685098400001,1.6024513512,-2.82616451,-0.01546383000000029,-4.61044159,,,
imu,435.374943,-0.2219146888,-9.755872168000002,1.6138162544,-2.84859524,-0.17247894,-4.52071867,,,
imu,435.383403,-0.2255036056,-9.734936820000001,1.6317608384,-2.885979789999999,-0.2622018600000002,-4.55062631,,,
imu,435.391862,-0.2255036056,-9.723571916800001,1.6431257416,-2.97570271,-0.3220171400000003,-4.453426479999999,,,
imu,435.400326,-0.2314851336,-9.718786694400002,1.6580795616,-2.92336434,-0.3294940500000001,-4.33379592,,,
imu,435.408789,-0.2219146888,-9.727160833600001,1.6706407704,-2.93831816,-0.3444478700000002,-4.31136519,,,
imu,435.417253,-0.2201202304,-9.737329431200001,1.6915761184,-2.82616451,-0.4192169699999999,-4.48333412,,,
imu,435.425716,-0.2368685088,-9.7504887928,1.695763188,-2.84111833,-0.4715553400000001,-4.49081103,,,
imu,435.43418,-0.2434481896,-9.766040765600001,1.7095207024,-3.00561035,-0.53884753,-4.43847266,,,
imu,435.442644,-0.2404574256,-9.792957641600001,1.7214837584,-2.95327198,-0.43417079,-4.22911918,,,
imu,435.451107,-0.2326814392,-9.7923594888,1.728661592,-3.02056417,-0.43417079,-4.17678081,,,
imu,435.459571,-0.2398592728,-9.785779808000001,1.7442135648,-2.84859524,-0.4042631500000002,-4.13191935,,,
imu,435.468034,-0.2404574256,-9.769031529600001,1.7340449672,-2.7439185,-0.3444478700000002,-4.16182699,,,
imu,435.476498,-0.2434481896,-9.7612555432,1.7382320368,-2.57194957,-0.4117400600000001,-4.18425772,,,
imu,435.484961,-0.2518223288000001,-9.7576666264,1.7322505088,-2.34764227,-0.3818324200000003,-4.124442439999999,,,
imu,435.493382,-0.2560093984,-9.7540777096,1.7430172592,-2.10838115,-0.3668786000000002,-4.079580979999999,,,
imu,435.501845,-0.2494297176,-9.751685098400001,1.7501950928,-1.81678166,-0.17247894,-4.13191935,,,
imu,435.510309,-0.2488315648,-9.7570684736,1.7472043288,-1.40555161,-0.08275602000000015,-4.16182699,,,
imu,435.518772,-0.2428500368,-9.741516500800001,1.7448117176,-1.28592105,-0.1650020300000001,-4.40108811,,,
imu,435.527236,-0.2619909264,-9.725964528,1.737633884,-1.12142903,-0.1276174800000001,-4.49828794,,,
imu,435.5357,-0.2655798432,-9.711010708000002,1.7430172592,-0.84478336,-0.20986349,-4.6179185,,,
imu,435.544163,-0.2769447464000001,-9.703832874400002,1.737633884,-0.67281443,-0.2622018600000002,-4.72259524,,,
imu,435.552627,-0.2859170384,-9.690673512800002,1.7388301896,-0.46346095,-0.2622018600000002,-4.715118329999999,,,
imu,435.56109,-0.2942911776,-9.6775141512,1.7280634392,-0.22419983,-0.1201405700000002,-4.57305704,,,
imu,435.569554,-0.2954874832,-9.655382497600002,1.7244745224,-0.007369440000000005,-0.08275602000000015,-4.430995749999999,,,
imu,435.578017,-0.3092449976000001,-9.651793580800001,1.7184929944,0.13469185,-0.08275602000000015,-4.28893446,,,
imu,435.586481,-0.3074505392,-9.6535880392,1.707726244,0.34404533,0.07425908999999997,-4.0945348,,,
imu,435.594944,-0.3188154424,-9.666149248000002,1.6993521048,0.73284465,0.1490281899999997,-3.82536604,,,
imu,435.603768,-0.3265914288,-9.672130776000001,1.6885853544,0.94219813,0.3209971199999999,-3.59358183,,,
imu,435.612591,-0.3283858872000001,-9.6733270816,1.692772424,1.13659779,0.4107200399999997,-3.33936689,,,
imu,435.621415,-0.3307784984000001,-9.7086180968,1.6843982848,1.28613599,0.5378275100000001,-3.15244414,,,
imu,435.630239,-0.3265914288,-9.7265626808,1.6855945904,1.40576655,0.7322271699999998,-3.21973633,,,
imu,435.639062,-0.323002512,-9.7576666264,1.6742296872,1.57773548,0.9191499199999997,-3.24964397,,,
imu,435.647886,-0.3295821928000001,-9.767237071200002,1.6736315344,1.65250458,1.11354958,-3.17487487,,,
imu,435.656709,-0.3265914288,-9.780396432800002,1.6802112152,1.56278166,1.39019525,-3.1973056,,,
imu,435.665533,-0.3277877344,-9.7845835024,1.677818604,1.38333582,1.66684092,-3.33936689,,,
imu,435.674356,-0.331974804,-9.793555794400001,1.6676500064,1.42819728,1.77899457,-3.4216129,,,
imu,435.68318,-0.3146283728000001,-9.7815927384,1.6562851032,1.39828964,2.18274771,-3.27955161,,,
imu,435.692003,-0.3176191368,-9.793555794400001,1.662864784,1.19641307,2.36219355,-3.24964397,,,
imu,435.700827,-0.3032634696000001,-9.8270523512,1.6676500064,1.10669015,2.80333124,-3.22721324,,,
imu,435.709651,-0.2823281216,-9.860548908000002,1.6903798128,0.60573718,2.82576197,-3.30198234,,,
imu,435.718474,-0.2643835376,-9.864137824800002,1.6873890488,0.42629134,3.05754618,-3.43656672,,,
imu,435.727298,-0.2590001624000001,-9.833632032,1.7053336328,0.10478421,3.02763854,-3.45899745,,,
imu,435.736121,-0.257205704,-9.812696684000002,1.6873890488,-0.04475399000000001,3.01268472,-3.3468438,,,
imu,435.744945,-0.2428500368,-9.824061587200001,1.6814075208,-0.23167674,3.0725,-3.29450543,,,
imu,435.753768,-0.2278962168,-9.8198745176,1.6849964376,-0.26158438,2.9977309,-3.05524431,,,
imu,435.762592,-0.2177276192,-9.800733628000001,1.6742296872,-0.23167674,3.04259236,-2.71878336,,,
imu,435.771416,-0.1991848824,-9.796546558400001,1.6802112152,-0.32887657,2.9229618,-2.64401426,,,
imu,435.780239,-0.2015774936,-9.7911631832,1.6766222984,-0.28401511,2.72856214,-2.58419898,,,
imu,435.789063,-0.1890162848,-9.779798280000001,1.6790149096,-0.30644584,2.52668557,-2.62158353,,,
imu,435.797886,-0.1896144376,-9.786377960800001,1.6760241456,-0.2017691,2.34723973,-2.79355246,,,
imu,435.80636,-0.1979885768,-9.788172419200002,1.6706407704,0.07487657,2.03320951,-3.15244414,,,
imu,435.814834,-0.2081571744,-9.7959484056,1.6670518536,0.05992275,1.95844041,-3.40665908,,,
imu,435.823307,-0.2135405496,-9.783985349600002,1.6730333816,0.10478421,2.03320951,-3.69825857,,,
imu,435.831781,-0.2219146888,-9.786377960800001,1.6754259928,0.2468455,1.80890221,-4.02724261,,,
imu,435.840255,-0.2308869808,-9.779200127200001,1.6730333816,0.3739529699999999,1.74908693,-4.10948862,,,
imu,435.848728,-0.2225128416,-9.779200127200001,1.6724352288,0.28423005,1.67431783,-4.19921154,,,
imu,435.857202,-0.2207183832,-9.7780038216,1.6664537008,0.31413769,1.90610204,-4.10948862,,,
imu,435.865676,-0.2326814392,-9.767835224,1.6700426176,0.35152224,1.84628676,-4.19173463,,,
imu,435.87415,-0.2296906752000001,-9.766040765600001,1.6736315344,0.23189168,1.82385603,-4.169303899999999,,,
imu,435.882623,-0.2284943696,-9.7821908912,1.6843982848,0.21693786,1.82385603,-4.25902682,,,
imu,435.891097,-0.2308869808,-9.788172419200002,1.6790149096,0.21693786,1.60702564,-4.22911918,,,
imu,435.899571,-0.23926112,-9.773218599200002,1.677818604,0.13469185,1.6518871,-4.04219643,,,
imu,434.485717,,,,,,,80.8726892,-47.1991692,115.1322216
imu,434.58731,,,,,,,80.49426600000001,-47.1991692,114.8392488
imu,434.688872,,,,,,,80.61633800000001,-47.3944844,115.3763656
imu,434.790435,,,,,,,83.11881400000001,-47.5287636,115.583888
imu,434.891967,,,,,,,80.5675092,-47.0770972,114.9613208
imu,434.99356,,,,,,,82.48403959999999,-47.1991692,113.0569976
imu,435.095092,,,,,,,80.54309479999999,-46.74750279999999,115.7547888
imu,435.196685,,,,,,,79.78624839999999,-47.16254760000002,112.95934
imu,435.908044,-0.2338777448,-9.802528086400002,1.6849964376,0.05992275,1.56964109,-3.97490424,,,
imu,435.916518,-0.2380648144,-9.8043225448,1.6963613408,-0.10456927,1.59954873,-3.92256587,,,
imu,435.924992,-0.2374666616,-9.824061587200001,1.7149040776,-0.28401511,1.50982581,-3.87770441,,,
imu,435.933466,-0.2476352592,-9.835426490400001,1.7155022304,-0.41112258,1.45001053,-3.74312003,,,
imu,435.941939,-0.2500278704,-9.830641268,1.7262689808,-0.61299915,1.30794924,-3.84031986,,,
imu,435.950413,-0.2506260232,-9.8228652816,1.743615412,-0.874691,1.1285034,-3.76555076,,,
imu,435.958887,-0.2613927736,-9.8234634344,1.7561766208,-1.06161375,1.12102649,-3.63844329,,,
imu,435.96736,-0.2578038568000001,-9.8228652816,1.7513913984,-1.18124431,1.06868812,-3.58610492,,,
imu,435.975834,-0.2643835376,-9.805518850400002,1.7573729264,-1.31582869,1.07616503,-3.56367419,,,
imu,435.984308,-0.2655798432,-9.803126239200001,1.7639526072,-1.38312088,1.21822632,-3.3468438,,,
imu,435.992782,-0.2733558296,-9.779798280000001,1.7627563016,-1.43545925,1.26308778,-3.18235178,,,
imu,436.001255,-0.2673743016,-9.758862932000001,1.7657470656,-1.57752054,1.09859576,-3.29450543,,,
imu,436.009828,-0.2739539824000001,-9.7492924872,1.7687378296,-1.48032071,1.14345722,-3.35432071,,,
imu,436.018401,-0.2703650656,-9.745105417600001,1.7651489128,-1.53265908,1.18084177,-3.47395127,,,
imu,436.026974,-0.2685706072,-9.738525736800002,1.7789064272,-1.40555161,1.16588795,-3.45899745,,,
imu,436.035547,-0.263187232,-9.749890640000002,1.7741212048,-1.2485365,1.29299542,-3.45152054,,,
imu,436.04412,-0.2554112456,-9.758862932000001,1.7830934968,-1.22610577,1.29299542,-3.54124346,,,
imu,436.052693,-0.2536167872,-9.766040765600001,1.7986454696,-1.21115195,1.23318014,-3.43656672,,,
imu,436.061266,-0.2548130928,-9.765442612800001,1.8177863592,-1.30835178,1.21074941,-3.55619728,,,
imu,436.069839,-0.2458408008,-9.776807516000002,1.8135992896,-1.29339796,1.16588795,-3.50385891,,,
imu,436.078411,-0.2446444952,-9.7744149048,1.836329096,-1.37564397,1.03130357,-3.55619728,,,
imu,436.086984,-0.2470371064,-9.788172419200002,1.8375254016,-1.4728438,0.9415806499999997,-3.5711511,,,
imu,436.095557,-0.2536167872,-9.7821908912,1.8177863592,-1.4728438,0.9939190199999999,-3.496382,,,
imu,436.10413,-0.248233412,-9.751685098400001,1.8219734288,-1.5476129,0.9640113799999996,-3.45152054,,,
imu,436.112703,-0.248233412,-9.7325442088,1.8201789704,-1.45041307,0.9041961000000001,-3.29450543,,,
imu,436.121276,-0.2518223288000001,-9.713403319200001,1.8219734288,-1.52518217,0.92662683,-3.33188998,,,
imu,436.129849,-0.251224176,-9.7008421104,1.8231697344,-1.46536689,0.7322271699999998,-3.45899745,,,
imu,436.138422,-0.2518223288000001,-9.7074217912,1.8231697344,-1.33078251,0.6125966099999998,-3.68330475,,,
imu,436.146995,-0.2667761488000001,-9.700243957600001,1.8177863592,-1.21862886,0.5976427899999996,-3.77302767,,,
imu,436.155567,-0.2524204816,-9.709216249600003,1.8297494152,-1.18872122,0.4929660499999997,-3.61601256,,,
imu,436.16414,-0.2548130928,-9.745105417600001,1.83931986,-1.11395212,0.4705353199999998,-3.55619728,,,
imu,436.172713,-0.2715613712,-9.7540777096,1.8596570552,-1.24105959,0.3135202100000001,-3.5711511,,,
imu,436.181286,-0.2649816904,-9.763050001600002,1.8578625968,-1.27096723,0.4331507699999997,-3.45152054,,,
imu,436.189859,-0.2649816904,-9.766638918400002,1.8638441248,-1.27096723,0.3209971199999999,-3.33936689,,,
imu,436.198432,-0.2727576768,-9.7786019744,1.8644422776,-1.05413684,0.3509047599999997,-3.25712088,,,
imu,436.207005,-0.2847207328,-9.7744149048,1.8620496664,-0.9793677399999999,0.3733354899999997,-3.18235178,,,
imu,436.215444,-0.2829262744000001,-9.786377960800001,1.8716201112,-1.05413684,0.47801223,-3.03281358,,,
imu,436.223884,-0.2877114968,-9.788770572,1.8638441248,-1.07656757,0.4929660499999997,-3.02533667,,,
imu,436.232323,-0.2913004136,-9.773816752000002,1.8656385832,-1.03170611,0.5752120599999997,-3.04029049,,,
imu,436.240762,-0.2984782472,-9.754675862400001,1.8728164168,-0.82235263,0.6948426199999997,-3.15992105,,,
imu,436.249202,-0.2966837888,-9.746899876,1.860255208,-0.7401066199999999,0.7920424499999998,-3.30198234,,,
imu,436.257641,-0.3074505392,-9.731347903200001,1.8590589024,-0.61299915,1.00139593,-3.33188998,,,
imu,436.266081,-0.3080486920000001,-9.724170069600001,1.8530773744,-0.39616876,1.12102649,-3.54124346,,,
imu,436.27452,-0.3086468448,-9.708019944000002,1.8387217072,-0.2765382,1.17336486,-3.6459202,,,
imu,436.282959,-0.3044597752,-9.689477207200001,1.8321420264,0.02253820000000001,1.38271834,-3.69825857,,,
imu,436.291399,-0.305057928,-9.678710456800001,1.8171882064,0.29170696,1.56216418,-3.51881273,,,
imu,436.299838,-0.2954874832,-9.693066124000001,1.8082159144,0.6281679099999999,1.76404075,-3.46647436,,,
imu,436.308277,-0.2883096496000001,-9.678112304,1.8118048312,0.76275229,1.97339423,-3.2720747,,,
imu,436.316717,-0.2775428992,-9.702636568800001,1.8189826648,0.85995212,2.28742445,-3.01038285,,,
imu,436.325156,-0.2649816904,-9.7295534448,1.8255623456,0.82256757,2.33976282,-3.01038285,,,
imu,436.333596,-0.2607946208,-9.766638918400002,1.836329096,0.9347212199999999,2.48930102,-2.95056757,,,
imu,436.342035,-0.2428500368,-9.779200127200001,1.8411143184,0.8524752099999999,2.51920866,-3.02533667,,,
imu,436.350474,-0.236270356,-9.800135475200001,1.8435069296,0.65807555,2.53416248,-3.04029049,,,
imu,436.358914,-0.2314851336,-9.801929933600002,1.8590589024,0.34404533,2.42948574,-3.10010577,,,
imu,436.367353,-0.2350740504,-9.802528086400002,1.8764053336,0.10478421,2.43696265,-3.31693616,,,
imu,436.375792,-0.2201202304,-9.8234634344,1.8865739312,-0.05970781,2.44443956,-3.27955161,,,
imu,436.384232,-0.212344244,-9.809107767200002,1.8907610008,-0.44103022,2.51173175,-3.26459779,,,
imu,436.392671,-0.2129423968,-9.8061170032,1.890162848,-0.6279529699999999,2.48182411,-3.29450543,,,
imu,436.401111,-0.206362716,-9.802528086400002,1.8943499176,-0.7401066199999999,2.4743472,-3.18235178,,,
imu,436.40955,-0.1949978128,-9.7923594888,1.8889665424,-0.94198319,2.33228591,-3.18235178,,,
imu,436.417941,-0.1991848824,-9.783985349600002,1.8937517648,-1.08404448,2.19022462,-3.15244414,,,
imu,436.426332,-0.1991848824,-9.7911631832,1.9122945016,-1.19619813,2.1005017,-3.10010577,,,
imu,436.434723,-0.1926052016,-9.797144711200001,1.9176778768,-1.29339796,2.1005017,-3.13749032,,,
imu,436.443114,-0.1908107432,-9.785181655200002,1.9158834184,-1.44293616,1.8761944,-3.15992105,,,
imu,436.451506,-0.19439966,-9.754675862400001,1.920070488,-1.48779762,1.78647148,-3.20478251,,,
imu,436.459897,-0.1932033544,-9.746301723200002,1.9362206136,-1.51770526,1.65936401,-3.24964397,,,
imu,436.468288,-0.2039701048,-9.7283571392,1.926052016,-1.56256672,1.48739508,-3.2720747,,,
imu,436.476679,-0.2081571744,-9.718188541600002,1.91408896,-1.42050543,1.40514907,-3.14496723,,,
imu,436.48507,-0.212344244,-9.708019944000002,1.9266501688,-1.33825942,1.49487199,-3.0477674,,,
imu,436.493461,-0.2069608688,-9.709814402400001,1.9218649464,-1.10647521,1.56964109,-2.91318302,,,
imu,436.501852,-0.2039701048,-9.709216249600003,1.9362206136,-0.7550604399999999,1.69674856,-2.83093701,,,
imu,436.510243,-0.2075590216,-9.692467971200001,1.935024308,-0.83730645,1.62197946,-2.83841392,,,
imu,436.518634,-0.212344244,-9.6846919848,1.9451929056,-0.5980453299999999,1.47991817,-3.01785976,,,
imu,436.527026,-0.2105497856,-9.699047652,1.935024308,-0.44850713,1.46496435,-3.15244414,,,
imu,436.535417,-0.2225128416,-9.693066124000001,1.9386132248,-0.29149202,1.56964109,-3.24216706,,,
imu,436.543808,-0.2266999112,-9.692467971200001,1.9374169192,-0.127,1.51730272,-3.40665908,,,
imu,436.552199,-0.2320832864,-9.688280901600002,1.9404076832,0.06739966,1.71170238,-3.45152054,,,
imu,436.56059,-0.2141387024,-9.6984494992,1.9332298496,0.26179932,1.7266562,-3.54124346,,,
imu,436.568981,-0.2255036056,-9.706823638400001,1.941005836,0.43376825,1.81637912,-3.71321239,,,
imu,436.577372,-0.2261017584,-9.724170069600001,1.9314353912,0.3739529699999999,1.73413311,-3.62348947,,,
imu,436.585682,-0.2231109944,-9.728955292000002,1.9338280024,0.30666078,1.78647148,-3.60853565,,,
imu,436.594073,-0.2171294664,-9.7337405144,1.9511744336,0.3739529699999999,1.9509635,-3.47395127,,,
imu,436.602464,-0.212344244,-9.7403201952,1.9398095304,0.44872207,1.92105586,-3.42908981,,,
imu,436.610855,-0.2111479384,-9.728955292000002,1.9523707392,0.35152224,1.92853277,-3.45152054,,,
imu,436.619247,-0.212344244,-9.7295534448,1.9457910584,0.3739529699999999,2.07059406,-3.496382,,,
imu,436.628055,-0.212344244,-9.7283571392,1.9523707392,0.21693786,1.96591732,-3.60105874,,,
imu,436.636864,-0.1979885768,-9.7301515976,1.9457910584,0.25432241,2.07807097,-3.48890509,,,
imu,436.645672,-0.1967922712,-9.7265626808,1.946987364,0.25432241,2.04068642,-3.60105874,,,
imu,436.654481,-0.1878199792,-9.7337405144,1.9553615032,0.28423005,2.04816333,-3.69078166,,,
imu,436.663289,-0.1836329096,-9.7492924872,1.9505762808,0.32909151,1.96591732,-3.73564312,,,
imu,436.672098,-0.176455076,-9.752283251200002,1.9481836696,0.23189168,1.83133294,-3.84031986,,,
imu,436.680906,-0.1722680064,-9.748096181600001,1.9655301008,0.29170696,1.75656384,-3.90761205,,,
imu,436.689714,-0.1680809368,-9.7427128064,1.9637356424,0.28423005,1.64441019,-3.84031986,,,
imu,436.698523,-0.173464312,-9.743909112,1.9487818224,0.10478421,1.51730272,-3.86275059,,,
imu,436.707331,-0.1728661592,-9.744507264800001,1.9613430312,0.19450713,1.33785688,-3.72816621,,,
imu,436.71614,-0.16449202,-9.737329431200001,1.9523707392,0.08983038999999998,1.24813396,-3.74312003,,,
imu,435.298217,,,,,,,79.99377080000001,-46.79633160000001,115.3275368
imu,435.399779,,,,,,,80.07922119999999,-46.78412440000002,115.5594736
imu,435.501342,,,,,,,79.98156359999999,-46.84516040000002,116.3529416
imu,435.602904,,,,,,,80.5797164,-47.21137639999999,116.438392
imu,435.704467,,,,,,,80.2379148,-47.05268280000001,115.8158248
imu,435.806029,,,,,,,80.9337252,-47.0770972,116.1820408
imu,435.907592,,,,,,,83.13102119999999,-47.05268280000001,116.0843832
imu,436.009337,,,,,,,80.28674360000001,-46.82074600000004,116.3651488
imu,436.724948,-0.1752587704,-9.736731278400002,1.9511744336,0.21693786,1.02382666,-3.76555076,,,
imu,436.733757,-0.1752587704,-9.738525736800002,1.9487818224,0.21693786,0.84438082,-3.63096638,,,
imu,436.742565,-0.1716698536,-9.725366375200002,1.9416039888,0.14216876,0.6798887999999996,-3.54124346,,,
imu,436.751374,-0.1920070488,-9.718786694400002,1.9386132248,0.14216876,0.5153967799999997,-3.55619728,,,
imu,436.760182,-0.2027737992,-9.721179305600002,1.9517725864,0.26179932,0.4032431299999999,-3.53376655,,,
imu,436.768991,-0.1949978128,-9.731347903200001,1.9475855168,0.18703022,0.1714589200000001,-3.53376655,,,
imu,436.777799,-0.1997830352,-9.730749750400001,1.9577541144,0.23189168,0.2312741999999997,-3.36927453,,,
imu,436.786608,-0.2087553272,-9.734936820000001,1.9553615032,0.35899915,0.1864127399999997,-3.36179762,,,
imu,436.795416,-0.212344244,-9.746899876,1.952968892,0.20198404,0.05930526999999985,-3.30945925,,,
imu,436.804225,-0.2320832864,-9.745105417600001,1.9535670448,0.26927623,-0.1051867500000001,-3.33188998,,,
imu,436.813033,-0.2338777448,-9.7301515976,1.9416039888,0.41133752,-0.007986920000000008,-3.43656672,,,
imu,436.821522,-0.2464389536,-9.716992236000001,1.949978128,0.21693786,-0.03789456000000024,-3.4216129,,,
imu,436.830011,-0.2566075512,-9.722375611200002,1.9541651976,0.2468455,0.07425908999999997,-3.39918217,,,
imu,436.8385,-0.2542149400000001,-9.7325442088,1.9517725864,0.13469185,0.0368745399999999,-3.54872037,,,
imu,436.846989,-0.2578038568000001,-9.751685098400001,1.9637356424,0.11226112,0.1041667299999998,-3.59358183,,,
imu,436.855478,-0.2590001624000001,-9.755274015200001,1.9655301008,0.14216876,0.2237972899999998,-3.39170526,,,
imu,436.863967,-0.2518223288000001,-9.7504887928,1.9493799752,0.21693786,0.3658585799999998,-3.3468438,,,
imu,436.872456,-0.2560093984,-9.746301723200002,1.9577541144,0.16459949,0.4854891399999999,-3.30198234,,,
imu,436.880945,-0.2649816904,-9.741516500800001,1.9505762808,-0.02232326000000001,0.6051196999999999,-3.23469015,,,
imu,436.889434,-0.2542149400000001,-9.736731278400002,1.9547633504,-0.05970781,0.52287369,-3.28702852,,,
imu,436.897923,-0.257205704,-9.7265626808,1.955959656,0.0001074699999999984,0.6499811599999998,-3.27955161,,,
imu,436.906412,-0.263187232,-9.725964528,1.9565578088,-0.0522309,0.80699627,-3.38422835,,,
imu,436.110592,,,,,,,82.96012040000001,-47.87056520000004,113.508664
imu,436.212185,,,,,,,80.55530200000001,-47.28461960000003,116.438392
imu,436.313748,,,,,,,81.66615720000001,-48.09029480000002,113.3011416
imu,436.41531,,,,,,,80.25012199999999,-46.6132236,116.2674912
imu,436.516873,,,,,,,80.32336520000001,-46.79633160000001,115.4374016
imu,436.618435,,,,,,,80.01818519999999,-46.90619640000002,116.4750136
imu,436.719998,,,,,,,79.84728439999999,-46.78412440000002,116.2796984
imu,436.821591,,,,,,,80.0425996,-47.12592600000001,117.4882112
