Type,Timestamp,Data Accelerometer X,Data Accelerometer Y,Data Accelerometer Z,Data Gyroscope X,Data Gyroscope Y,Data Gyroscope Z,Data Magnetometer X,Data Magnetometer Y,Data Magnetometer Z
imu,274.59092,-0.0562263632,-9.706225485600001,2.2484563752,0.94967504,1.12102649,-3.29450543,,,
imu,274.599402,-0.06460050240000001,-9.709814402400001,2.2514471392,0.8823828499999999,1.03878048,-3.21225942,,,
imu,274.607883,-0.06160973840000001,-9.7193848472,2.2556342088,0.70293701,1.23318014,-3.30945925,,,
imu,274.616364,-0.0663949608,-9.716992236000001,2.2514471392,0.5982602699999999,1.26308778,-3.36927453,,,
imu,274.624846,-0.06041343280000001,-9.727160833600001,2.25802682,0.3889067899999999,1.28551851,-3.39918217,,,
imu,274.633327,-0.0634041968,-9.7331423616,2.266999112000001,0.23189168,1.34533379,-3.38422835,,,
imu,274.641808,-0.05981528000000001,-9.737927584000001,2.2652046536,0.09730729999999999,1.70422547,-3.45152054,,,
imu,274.65029,-0.05443190480000001,-9.723571916800001,2.2592231256,-0.127,1.8014253,-3.39918217,,,
imu,274.658771,-0.04486146000000001,-9.7086180968,2.2622138896,-0.14943073,1.86124058,-3.37675144,,,
imu,274.667252,-0.04007623760000001,-9.702636568800001,2.281952932,-0.37373803,1.97339423,-3.3468438,,,
imu,274.675734,-0.0251224176,-9.728955292000002,2.2921215296,-0.51579932,1.98087114,-3.43656672,,,
imu,274.684215,-0.017944584,-9.7217774584,2.293915988,-0.6279529699999999,1.97339423,-3.45899745,,,
imu,274.692696,-0.0185427368,-9.682299373600001,2.2957104464,-0.74758353,1.98834805,-3.63096638,,,
imu,274.701178,-0.0173464312,-9.659569567200002,2.3052808912,-0.78496808,1.98087114,-3.63844329,,,
imu,274.709659,-0.0221316536,-9.648802816800002,2.2897289184,-0.83730645,1.92105586,-3.59358183,,,
imu,274.718141,-0.0257205704,-9.631456385600002,2.2885326128,-0.71767589,1.91357895,-3.43656672,,,
imu,274.726622,-0.0281131816,-9.624278552000002,2.2855418488,-0.59056842,1.89114822,-3.15992105,,,
imu,274.735103,0.0023926112,-9.616502565600001,2.2831492376,-0.4260764,2.0257326,-3.03281358,,,
imu,274.743585,-0.004785222400000001,-9.617100718400001,2.2843455432,-0.19429219,2.01825569,-2.92813684,,,
imu,274.752066,0.011963056,-9.617100718400001,2.2813547792,0.09730729999999999,2.04068642,-2.89075229,,,
imu,274.760532,0.007775986400000001,-9.617100718400001,2.290327071200001,0.29170696,2.03320951,-2.9729983,,,
imu,274.768998,0.004187069600000001,-9.610521037600002,2.2783640152,0.38142988,1.78647148,-3.21225942,,,
imu,274.777464,-0.0005981528000000001,-9.608128426400002,2.281952932,0.40386061,1.56216418,-3.37675144,,,
imu,274.78593,-0.002990764,-9.610521037600002,2.2825510848,0.78518302,1.51730272,-3.63844329,,,
imu,274.794396,0.0,-9.602146898400001,2.2813547792,0.8973366700000001,1.45001053,-3.77302767,,,
imu,274.802862,-0.005981528000000001,-9.61530626,2.281952932,1.03192105,1.54721036,-3.87770441,,,
imu,274.811328,-0.002990764,-9.6290637744,2.2927196824,1.27865908,1.41262598,-3.75059694,,,
imu,274.819795,-0.0053833752,-9.6434194416,2.2992993632,1.18145925,1.45748744,-3.63096638,,,
imu,274.828261,-0.011963056,-9.6494009696,2.3064771968,1.20388998,1.40514907,-3.4216129,,,
imu,274.836727,-0.0143556672,-9.657176956,2.307673502400001,1.16650543,1.09859576,-3.29450543,,,
imu,274.845193,-0.0221316536,-9.655980650400002,2.3160476416,0.8375213899999999,0.8742884599999998,-3.10758268,,,
imu,274.853659,-0.0281131816,-9.658971414400002,2.308869808,0.77770611,0.8369039099999998,-2.92813684,,,
imu,274.862125,-0.0346928624,-9.6458120528,2.2951122936,0.85995212,0.5752120599999997,-2.74121409,,,
imu,274.870591,-0.0502448352,-9.632054538400002,2.2885326128,0.9646288599999999,0.6125966099999998,-2.62158353,,,
imu,274.879057,-0.06041343280000001,-9.646410205600002,2.2891307656,1.25622835,0.6350273399999997,-2.48699915,,,
imu,274.887431,-0.06160973840000001,-9.657176956,2.281952932,1.33099745,0.7920424499999998,-2.3000764,,,
imu,274.895897,-0.06519865520000001,-9.6745233872,2.286738154400001,1.39081273,0.86681155,-2.24773803,,,
imu,274.904363,-0.0723764888,-9.6912716656,2.284943696,1.42819728,1.06121121,-2.30755331,,,
imu,274.912829,-0.0681894192,-9.701440263200002,2.2855418488,1.4431511,1.16588795,-2.45709151,,,
imu,274.921295,-0.0675912664,-9.701440263200002,2.2813547792,1.42072037,1.45001053,-2.68139881,,,
imu,274.929761,-0.07656355840000001,-9.709216249600003,2.28793446,1.32352054,1.62197946,-2.85336774,,,
imu,274.938227,-0.06998387760000001,-9.709216249600003,2.2951122936,1.43567419,1.76404075,-2.98795212,,,
imu,274.946693,-0.06220789120000001,-9.7128051664,2.2801584736,1.41324346,2.08554788,-3.10010577,,,
imu,274.95516,-0.062806044,-9.7128051664,2.2801584736,1.33099745,2.30985518,-3.21973633,,,
imu,274.963715,-0.03887993200000001,-9.706823638400001,2.2753732512,1.23379762,2.57154703,-3.23469015,,,
imu,274.97227,-0.0346928624,-9.6918698184,2.2646065008,1.11416706,2.56407012,-3.36927453,,,
imu,274.980825,-0.0221316536,-9.687084596000002,2.266999112000001,0.8823828499999999,2.73603905,-3.45899745,,,
imu,274.98938,-0.0173464312,-9.682299373600001,2.255036056,0.8674290299999999,2.87062343,-3.29450543,,,
imu,274.997935,0.0005981528000000001,-9.688280901600002,2.2622138896,0.9571519499999999,2.75846978,-3.33936689,,,
imu,275.00649,0.0011963056,-9.676915998400002,2.2544379032,0.9646288599999999,2.86314652,-3.36927453,,,
imu,275.015045,0.0053833752,-9.675719692800001,2.2514471392,0.83004448,2.75099287,-3.43656672,,,
imu,275.0236,0.0113649032,-9.673925234400002,2.2592231256,0.94219813,2.72856214,-3.32441307,,,
imu,275.032155,0.0197390424,-9.669738164800002,2.2556342088,0.8375213899999999,2.59397776,-3.30945925,,,
imu,275.040711,0.0185427368,-9.678112304,2.246063764000001,0.8823828499999999,2.51173175,-3.24216706,,,
imu,275.049266,0.01495382,-9.675719692800001,2.2436711528,0.88985976,2.36219355,-3.15992105,,,
imu,275.057821,0.0221316536,-9.675121540000001,2.2454656112,0.8449983,2.06311715,-3.11505959,,,
imu,275.066376,0.0203371952,-9.6942624296,2.243073,0.9646288599999999,2.04816333,-3.07767504,,,
imu,275.074931,0.0293094872,-9.690673512800002,2.252045292,0.9571519499999999,2.24256299,-3.00290594,,,
imu,275.083486,0.023926112,-9.6846919848,2.2478582224,0.82256757,1.98834805,-2.9729983,,,
imu,275.092041,0.02990764000000001,-9.683495679200002,2.2454656112,0.91229049,2.01077878,-2.95804448,,,
imu,275.100596,0.03289840400000001,-9.678710456800001,2.237091472,0.68798319,1.92105586,-2.95056757,,,
imu,275.109151,0.0203371952,-9.676317845600002,2.2335025552,0.71789083,1.8761944,-3.0477674,,,
imu,275.117706,0.0305057928,-9.675121540000001,2.234100708,0.68798319,1.99582496,-2.99542903,,,
imu,275.126261,0.0275150288,-9.6912716656,2.2317080968,0.7104139199999999,2.11545552,-3.06272122,,,
imu,275.134817,0.0293094872,-9.688280901600002,2.228717332800001,0.79265993,2.2500399,-3.09262886,,,
imu,275.143372,0.03588916800000001,-9.697851346400002,2.2358951664,0.8375213899999999,2.27247063,-3.24216706,,,
imu,275.151927,0.03887993200000001,-9.699645804800001,2.2364933192,0.6954601,2.37714737,-3.23469015,,,
imu,275.160482,0.05084298800000001,-9.709216249600003,2.2269228744,0.7104139199999999,2.33976282,-3.21973633,,,
imu,275.168846,0.05742266880000001,-9.699047652,2.2406803888,0.6954601,2.45191647,-3.25712088,,,
imu,275.177211,0.05443190480000001,-9.70502918,2.2388859304,0.47862971,2.42948574,-3.33936689,,,
imu,275.185575,0.05802082160000001,-9.709216249600003,2.2346988608,0.34404533,2.324809,-3.27955161,,,
imu,275.193939,0.07118018320000001,-9.7128051664,2.2394840832,0.3216146,2.40705501,-3.22721324,,,
imu,275.202304,0.0747691,-9.725366375200002,2.2508489864,0.07487657,2.30985518,-3.15244414,,,
imu,275.210668,0.07775986400000001,-9.728955292000002,2.253839750400001,0.01506129,2.34723973,-3.09262886,,,
imu,275.219032,0.0783580168,-9.714599624800002,2.2592231256,-0.127,2.324809,-2.98047521,,,
imu,275.227397,0.09869521200000002,-9.697851346400002,2.2622138896,-0.3513073,2.13788625,-2.90570611,,,
imu,275.235761,0.1112564208,-9.678112304,2.2568305144,-0.38869185,2.18274771,-2.83093701,,,
imu,275.244125,0.1154434904,-9.6703363176,2.2616157368,-0.47841477,2.0257326,-2.86832156,,,
imu,275.25249,0.1214250184,-9.66016772,2.2747750984,-0.65786061,1.83133294,-2.98047521,,,
imu,275.260854,0.1208268656,-9.666149248000002,2.278962168,-0.83730645,1.71170238,-3.10758268,,,
imu,275.269219,0.1178361016,-9.676915998400002,2.3010938216,-0.91207555,1.33785688,-3.09262886,,,
imu,275.277583,0.1082656568,-9.704431027200002,2.311860572000001,-1.15133667,1.15093413,-3.1973056,,,
imu,275.285947,0.1184342544,-9.699047652,2.3393756008,-1.44293616,1.02382666,-3.27955161,,,
imu,275.294312,0.101685976,-9.668541859200001,2.3399737536,-1.6971511,0.7097964399999999,-3.38422835,,,
imu,275.302676,0.09869521200000002,-9.633250844,2.33279592,-1.7719202,0.3808123999999999,-3.33936689,,,
imu,275.31104,0.06699311360000001,-9.6039413568,2.3315996144,-1.66724346,0.3957662200000001,-3.26459779,,,
imu,275.319405,0.068787572,-9.606333968000001,2.33279592,-1.39059779,0.50044296,-3.07767504,,,
imu,275.327769,0.06041343280000001,-9.614708107200002,2.3351885312,-1.10647521,0.41819695,-3.04029049,,,
imu,275.336133,0.06579680800000001,-9.623082246400001,2.3333940728,-0.88964482,0.35838167,-3.08515195,,,
imu,275.344498,0.0592171272,-9.627867468800002,2.3363848368,-0.64290679,0.4481045899999998,-3.26459779,,,
imu,275.352862,0.06460050240000001,-9.619493329600001,2.3405719064,-0.43355331,0.4107200399999997,-3.31693616,,,
imu,275.361226,0.04964668240000001,-9.600352440000002,2.3405719064,-0.007369440000000005,0.41819695,-3.61601256,,,
imu,275.370043,0.0317020984,-9.580613397600002,2.3393756008,0.23936859,0.3209971199999999,-4.124442439999999,,,
imu,275.37886,0.0227298064,-9.585996772800002,2.348347892800001,0.4861066199999999,0.2537049300000001,-4.647826139999999,,,
imu,275.387677,0.008374139200000002,-9.572837411200002,2.3333940728,0.82256757,0.2013665599999999,-4.96933327,,,
imu,275.396494,0.005981528000000001,-9.562070660800002,2.3292070032,1.10669015,0.11164364,-5.1413022,,,
imu,275.405311,-0.0023926112,-9.559678049600002,2.325019933600001,1.39081273,0.09668981999999993,-5.13382529,,,
imu,275.414128,-0.0143556672,-9.5698466472,2.325019933600001,1.60016621,0.3733354899999997,-5.05905619,,,
imu,275.422945,-0.0305057928,-9.5985579816,2.3166457944,1.8169966,0.5453044199999999,-4.991764,,,
imu,274.611341,,,,,,,80.90931080000001,-47.28461960000003,115.40078
imu,274.712782,,,,,,,80.32336520000001,-47.18696200000001,115.8524464
imu,274.814344,,,,,,,81.4220132,-47.56538520000002,115.3641584
imu,275.431762,-0.0442633072,-9.630858232800001,2.3046827384,2.19831901,0.7097964399999999,-4.81231816,,,
imu,275.440579,-0.04845037680000001,-9.652989886400002,2.2927196824,2.60954906,0.92662683,-4.87213344,,,
imu,275.449396,-0.04725407120000001,-9.6745233872,2.290925224,2.77404108,1.13598031,-5.021671639999999,,,
imu,275.458213,-0.0693857248,-9.685290137600001,2.2705880288,3.12545585,1.36776452,-5.24597894,,,
imu,275.46703,-0.05682451600000001,-9.718188541600002,2.2681954176,3.25256332,1.56964109,-5.68711663,,,
imu,275.475847,-0.0693857248,-9.752881404000002,2.2747750984,3.28994787,1.78647148,-6.01610067,,,
imu,275.484663,-0.05742266880000001,-9.787574266400002,2.2616157368,3.26751714,2.1752708,-6.06096213,,,
imu,275.49348,-0.0442633072,-9.805518850400002,2.2741769456,3.02077911,2.61640849,-6.02357758,,,
imu,275.502297,-0.0317020984,-9.817481906400001,2.2801584736,2.63197979,3.05006927,-5.90394702,,,
imu,275.511114,-0.017944584,-9.815687448000002,2.2795603208,2.06373463,3.18465365,-5.82170101,,,
imu,275.519931,-0.0017944584,-9.792957641600001,2.278962168,1.48801256,3.26689966,-5.79179337,,,
imu,275.528748,0.0,-9.748096181600001,2.2717843344,0.97210577,3.33419185,-5.8889932,,,
imu,275.537565,0.0023926112,-9.755274015200001,2.2837473904,0.53096808,3.25194584,-6.068439039999999,,,
imu,275.546382,0.011963056,-9.7534795568,2.2675972648,-0.13447691,3.18465365,-6.031054489999999,,,
imu,275.555199,0.0131593616,-9.722375611200002,2.278962168,-0.5756146,2.91548489,-6.12825432,,,
imu,275.564016,0.0167482784,-9.6775141512,2.2795603208,-0.94198319,2.58650085,-6.203023419999999,,,
imu,275.572492,0.003588916800000001,-9.646410205600002,2.2795603208,-1.29339796,2.11545552,-6.28526943,,,
imu,275.580968,-0.01495382,-9.6290637744,2.2795603208,-1.34573633,1.75656384,-6.19554651,,,
imu,275.589445,-0.0275150288,-9.61530626,2.290327071200001,-1.43545925,1.53973345,-5.92637775,,,
imu,275.597921,-0.0245242648,-9.5949690648,2.296906752,-1.57004363,1.25561087,-5.42542478,,,
imu,275.606397,-0.0263187232,-9.579417092000002,2.3046827384,-1.30835178,1.1285034,-4.83474889,,,
imu,275.614873,-0.0281131816,-9.575828175200002,2.3184402528,-1.12890594,0.8817653699999997,-4.40108811,,,
imu,275.62335,-0.0340947096,-9.593772759200002,2.3196365584,-0.82235263,0.6499811599999998,-4.13191935,,,
imu,275.631826,-0.0466559184,-9.596165370400001,2.3202347112,-0.69524516,0.3209971199999999,-3.96742733,,,
imu,275.640302,-0.04964668240000001,-9.630858232800001,2.3573201848,-0.56066078,0.13407437,-3.74312003,,,
imu,275.648778,-0.0592171272,-9.645213900000002,2.3680869352,-0.46346095,-0.1874327600000001,-3.78050458,,,
imu,275.657255,-0.09091922560000001,-9.6296619272,2.3782555328,-0.62047606,-0.3668786000000002,-3.80293531,,,
imu,275.665731,-0.1028822816,-9.606333968000001,2.371675852,-0.3513073,-0.37435551,-3.55619728,,,
imu,275.674207,-0.1010878232,-9.602146898400001,2.3812462968,-0.14943073,-0.3444478700000002,-3.06272122,,,
imu,275.682683,-0.09570444800000001,-9.61530626,2.386629672,-0.127,-0.3294940500000001,-2.89075229,,,
imu,275.69116,-0.1004896704,-9.623680399200001,2.3878259776,-0.127,-0.2921095,-2.6739219,,,
imu,275.699636,-0.1004896704,-9.614109954400002,2.3932093528,0.03749201999999999,0.01444380999999995,-2.48699915,,,
imu,275.708112,-0.09450814240000002,-9.6248767048,2.395601964,0.15712258,0.06678217999999969,-2.21783039,,,
imu,275.716588,-0.09390998960000001,-9.619493329600001,2.4009853392,0.27675314,0.1714589200000001,-2.20287657,,,
imu,275.725065,-0.0903210728,-9.627269316000001,2.3991908808,0.31413769,0.44062768,-1.97109236,,,
imu,275.733541,-0.07955432240000002,-9.630858232800001,2.3950038112,0.20946095,0.44062768,-2.21035348,,,
imu,275.742017,-0.0681894192,-9.638634219200002,2.396798269600001,0.31413769,0.56025824,-2.03838455,,,
imu,275.750493,-0.06101158560000001,-9.6296619272,2.4003871864,0.40386061,0.80699627,-2.16549202,,,
imu,275.75897,-0.05981528000000001,-9.6260730104,2.3884241304,0.52349117,1.0537343,-2.20287657,,,
imu,275.767446,-0.04246884880000001,-9.6296619272,2.4003871864,0.5982602699999999,1.12102649,-2.30755331,,,
imu,275.775949,-0.0340947096,-9.625474857600002,2.398592728,0.5982602699999999,1.32290306,-2.45709151,,,
imu,275.784452,-0.0185427368,-9.623082246400001,2.4003871864,0.50853735,1.26308778,-2.66644499,,,
imu,275.792955,-0.0197390424,-9.610521037600002,2.4087613256,0.76275229,1.40514907,-2.5991528,,,
imu,275.801458,0.0,-9.5985579816,2.3926112,0.73284465,1.43505671,-2.85336774,,,
imu,275.809961,-0.0011963056,-9.592576453600001,2.3991908808,0.8524752099999999,1.39019525,-2.8234601,,,
imu,275.818464,0.002990764,-9.584800467200001,2.3962001168,0.88985976,1.2780416,-2.85336774,,,
imu,275.826967,0.0011963056,-9.5907819952,2.3812462968,1.0693056,1.2032725,-2.91318302,,,
imu,275.83547,0.007775986400000001,-9.590183842400002,2.3782555328,1.27118217,1.10607267,-2.95804448,,,
imu,275.843973,0.0161501256,-9.578818939200001,2.3573201848,1.368382,1.14345722,-2.9729983,,,
imu,275.852476,0.0131593616,-9.5877912312,2.3531331152,1.72727368,1.12102649,-3.0477674,,,
imu,275.860979,0.0161501256,-9.589585689600002,2.348347892800001,1.95158098,1.06121121,-3.01038285,,,
imu,275.869481,0.0107667504,-9.5949690648,2.3375811424,2.30299575,1.18831868,-3.05524431,,,
imu,275.877984,0.003588916800000001,-9.6015487456,2.3321977672,2.67684125,1.15093413,-3.05524431,,,
imu,275.886487,0.003588916800000001,-9.612315496,2.3280106976,2.96096383,1.18831868,-3.09262886,,,
imu,275.89499,0.009570444800000001,-9.630260080000001,2.3100661136,3.0880713,1.06121121,-3.13001341,,,
imu,275.903493,0.0005981528000000001,-9.6494009696,2.2987012104,3.26751714,0.9789651999999998,-3.29450543,,,
imu,275.911996,-0.005981528000000001,-9.658971414400002,2.296906752,3.51425517,1.00887284,-3.38422835,,,
imu,275.920499,-0.0107667504,-9.6703363176,2.28793446,3.56659354,1.08364194,-3.48142818,,,
imu,275.929002,-0.009570444800000001,-9.690673512800002,2.2843455432,3.64883955,1.2032725,-3.59358183,,,
imu,275.937505,-0.0137575144,-9.702636568800001,2.2741769456,3.69370101,1.36028761,-3.54872037,,,
imu,275.946008,-0.0197390424,-9.7151977776,2.2675972648,3.56659354,1.45001053,-3.66087402,,,
imu,275.954511,-0.020935348,-9.716992236000001,2.2592231256,3.44696298,1.47991817,-3.85527368,,,
imu,275.963014,-0.0137575144,-9.722973764,2.2478582224,3.05068675,1.59207182,-3.89265823,,,
imu,275.971517,-0.0191408896,-9.725964528,2.2293154856,2.93105619,1.77151766,-3.93004278,,,
imu,275.979894,-0.0101685976,-9.727160833600001,2.2394840832,2.7142258,1.85376367,-3.93751969,,,
imu,275.988327,-0.002990764,-9.7295534448,2.2329044024,2.34785721,1.94348659,-3.95247351,,,
imu,275.99676,-0.0137575144,-9.725366375200002,2.2358951664,2.12354991,2.07059406,-4.04219643,,,
imu,276.005193,-0.011963056,-9.7122070136,2.2335025552,1.9665348,2.0257326,-4.02724261,,,
imu,276.013626,-0.0023926112,-9.737329431200001,2.2299136384,1.84690424,2.11545552,-4.012288789999999,,,
imu,276.022059,0.0,-9.746899876,2.222137652,1.72727368,2.16779389,-4.012288789999999,,,
imu,276.030492,0.0,-9.745105417600001,2.2317080968,1.5179202,2.09302479,-3.98238115,,,
imu,276.038925,-0.002990764,-9.731347903200001,2.2179505824,1.45062801,2.1752708,-3.88518132,,,
imu,276.047358,-0.007775986400000001,-9.7128051664,2.216156124,1.26370526,2.16779389,-3.75059694,,,
imu,276.055791,0.007775986400000001,-9.709216249600003,2.2143616656,1.24127453,2.11545552,-3.6459202,,,
imu,276.064224,0.007177833600000002,-9.70502918,2.2233339576,1.09921324,1.98087114,-3.73564312,,,
imu,276.072657,0.0113649032,-9.689477207200001,2.2263247216,0.9870595899999999,1.85376367,-3.93004278,,,
imu,276.08109,-0.0017944584,-9.699645804800001,2.231109944,0.80761375,1.60702564,-3.98985806,,,
imu,276.089523,-0.0011963056,-9.724768222400002,2.2514471392,0.7403215599999999,1.53973345,-3.81788913,,,
imu,276.097956,0.0023926112,-9.751685098400001,2.2544379032,0.33656842,1.43505671,-3.95247351,,,
imu,276.106389,-0.004187069600000001,-9.7325442088,2.2658028064,0.18703022,1.30794924,-3.83284295,,,
imu,276.114822,-0.007177833600000002,-9.70502918,2.263410195200001,0.02253820000000001,1.19579559,-3.90013514,,,
imu,276.123255,-0.0155519728,-9.667943706400001,2.2508489864,0.02253820000000001,1.28551851,-3.69825857,,,
imu,276.131688,-0.0340947096,-9.638036066400002,2.237091472,0.11973803,1.30794924,-3.496382,,,
imu,276.140121,-0.04127254320000001,-9.659569567200002,2.2418766944,0.3889067899999999,1.30794924,-3.3468438,,,
imu,276.148554,-0.04127254320000001,-9.675121540000001,2.2394840832,0.4711528,1.37524143,-3.30945925,,,
imu,276.156987,-0.0352910152,-9.689477207200001,2.2424748472,0.56087572,1.52477963,-3.32441307,,,
imu,276.16542,-0.03588916800000001,-9.679308609600001,2.2382877776,0.58330645,1.53225654,-3.36927453,,,
imu,276.173853,-0.026916876,-9.6709344704,2.252045292,0.7552753799999999,1.4275798,-3.496382,,,
imu,276.18231,-0.0323002512,-9.669140012000002,2.2592231256,0.81509066,1.40514907,-3.69825857,,,
imu,276.190768,-0.03588916800000001,-9.669738164800002,2.249054528,0.97958268,1.38271834,-3.77302767,,,
imu,276.199225,-0.03588916800000001,-9.664952942400001,2.2502508336,0.82256757,1.31542615,-4.08705789,,,
imu,276.207682,-0.03588916800000001,-9.6535880392,2.2472600696,1.01696723,1.27056469,-4.17678081,,,
imu,276.216139,-0.03588916800000001,-9.659569567200002,2.2454656112,1.11416706,1.21822632,-4.244073,,,
imu,276.224596,-0.0442633072,-9.657775108800001,2.2424748472,1.15902852,1.32290306,-4.18425772,,,
imu,276.233054,-0.04964668240000001,-9.668541859200001,2.2382877776,1.12912088,1.30794924,-4.0197657,,,
imu,276.241511,-0.0406743904,-9.686486443200002,2.246063764000001,1.25622835,1.21822632,-3.78798149,,,
imu,274.923688,,,,,,,81.20228359999999,-47.17475480000002,115.6815456
imu,275.02522,,,,,,,83.13102119999999,-48.13912360000003,114.9491136
imu,275.126783,,,,,,,81.0557972,-47.30903400000002,115.3885728
imu,275.228345,,,,,,,82.9112916,-48.21236680000003,112.8860968
imu,275.329908,,,,,,,80.9947612,-47.38227720000001,115.6571312
imu,275.43147,,,,,,,81.34877,-47.90718680000001,113.630736
imu,275.533246,,,,,,,80.5308876,-47.80952920000004,116.4139776
imu,275.642408,,,,,,,80.2012932,-47.4555204,116.2308696
imu,276.249968,-0.04486146000000001,-9.699047652,2.2412785416,1.06182869,1.02382666,-3.73564312,,,
imu,276.258425,-0.05084298800000001,-9.706823638400001,2.2436711528,0.9272443100000001,1.1285034,-3.46647436,,,
imu,276.266882,-0.05682451600000001,-9.709814402400001,2.2514471392,0.71789083,1.0537343,-3.30945925,,,
imu,276.275339,-0.062806044,-9.711608860800002,2.2574286672,0.63564482,1.1285034,-3.15992105,,,
imu,276.283797,-0.0663949608,-9.7122070136,2.2532415976,0.6281679099999999,1.19579559,-3.1225365,,,
imu,276.292254,-0.0693857248,-9.7086180968,2.2592231256,0.29918387,1.30047233,-3.13749032,,,
imu,276.300711,-0.068787572,-9.716992236000001,2.2693917232,-0.01484635000000001,1.32290306,-3.18982869,,,
imu,276.309168,-0.07895616960000001,-9.714001472000001,2.2681954176,-0.08961545,1.3528107,-3.21225942,,,
imu,276.317625,-0.068787572,-9.724768222400002,2.2813547792,-0.25410747,1.59207182,-3.24216706,,,
imu,276.326083,-0.06699311360000001,-9.720581152800001,2.2801584736,-0.36626112,1.8761944,-3.09262886,,,
imu,276.33454,-0.0526374464,-9.704431027200002,2.2831492376,-0.46346095,2.00330187,-3.1973056,,,
imu,276.342997,-0.0514411408,-9.709216249600003,2.307673502400001,-0.6503837,2.15284007,-3.18982869,,,
imu,276.351454,-0.0406743904,-9.719983000000001,2.311860572000001,-0.8522602699999999,2.28742445,-3.18982869,,,
imu,276.359911,-0.03349655680000001,-9.7128051664,2.321431016800001,-1.12142903,2.19022462,-3.30198234,,,
imu,276.368369,-0.0281131816,-9.682299373600001,2.3280106976,-1.06161375,2.28742445,-3.33188998,,,
imu,276.376826,-0.0131593616,-9.652989886400002,2.3202347112,-1.18124431,2.31733209,-3.47395127,,,
imu,276.385685,-0.023926112,-9.6428212888,2.3274125448,-1.29339796,2.26499372,-3.51881273,,,
imu,276.394544,-0.02990764000000001,-9.633848996800001,2.3220291696,-1.06909066,2.39210119,-3.36179762,,,
imu,276.403404,-0.0131593616,-9.631456385600002,2.331001461600001,-1.06909066,2.29490136,-3.27955161,,,
imu,276.412263,-0.002990764,-9.624278552000002,2.3375811424,-0.78496808,2.39210119,-2.9729983,,,
imu,276.421123,0.007775986400000001,-9.6290637744,2.3286088504,-0.66533752,2.40705501,-2.83093701,,,
imu,276.429982,0.0155519728,-9.6260730104,2.3345903784,-0.59056842,2.2500399,-2.70382954,,,
imu,276.438841,0.0346928624,-9.614109954400002,2.326814392,-0.38869185,2.12293243,-2.54681443,,,
imu,276.447701,0.0263187232,-9.600352440000002,2.3333940728,-0.16438455,2.16779389,-2.59167589,,,
imu,276.45656,0.0233279592,-9.605735815200001,2.3292070032,0.04496892999999999,1.92853277,-2.77112173,,,
imu,276.46542,0.0221316536,-9.594370912,2.326814392,0.34404533,1.82385603,-2.87579847,,,
imu,276.474279,0.0227298064,-9.591978300800001,2.3393756008,0.56835263,1.74161002,-2.98795212,,,
imu,276.483138,0.007775986400000001,-9.589585689600002,2.323823628,0.77770611,1.577118,-3.16739796,,,
imu,276.491998,0.008374139200000002,-9.599156134400001,2.3286088504,1.00201341,1.59207182,-3.18982869,,,
imu,276.500857,0.0203371952,-9.6087265792,2.3262162392,1.0693056,1.47244126,-3.16739796,,,
imu,276.509716,0.0293094872,-9.620091482400001,2.3262162392,1.09173633,1.40514907,-3.26459779,,,
imu,276.518576,0.0167482784,-9.6290637744,2.3220291696,1.27118217,1.45001053,-3.17487487,,,
imu,276.527435,0.0221316536,-9.632054538400002,2.326814392,1.42072037,1.51730272,-3.1225365,,,
imu,276.536295,0.0197390424,-9.641624983200002,2.3256180864,1.54035093,1.46496435,-3.03281358,,,
imu,276.545154,0.0221316536,-9.659569567200002,2.3172439472,1.47305874,1.5023489,-3.24964397,,,
imu,276.554013,0.0233279592,-9.665551095200001,2.323823628,1.58521239,1.39767216,-3.13001341,,,
imu,276.562873,0.0263187232,-9.668541859200001,2.3160476416,1.54782784,1.26308778,-3.18235178,,,
imu,276.571732,0.020935348,-9.667943706400001,2.3142531832,1.43567419,1.44253362,-3.23469015,,,
imu,276.580592,0.023926112,-9.671532623200001,2.314851336,1.45062801,1.33037997,-3.21973633,,,
imu,276.589031,0.020935348,-9.6709344704,2.314851336,1.46558183,1.3528107,-3.2720747,,,
imu,276.59747,0.0227298064,-9.6745233872,2.3070753496,1.58521239,1.33785688,-3.36179762,,,
imu,276.60591,0.0173464312,-9.6918698184,2.308869808,1.49548947,1.40514907,-3.40665908,,,
imu,276.614349,0.0221316536,-9.685290137600001,2.3016919744,1.45810492,1.40514907,-3.54872037,,,
imu,276.622788,0.0167482784,-9.685290137600001,2.2992993632,1.45062801,1.51730272,-3.4216129,,,
imu,276.631228,0.0215335008,-9.6876827488,2.2957104464,1.31604363,1.56216418,-3.50385891,,,
imu,276.639667,0.0215335008,-9.700243957600001,2.2975049048,1.12164397,1.48739508,-3.54872037,,,
imu,276.648107,0.0185427368,-9.699047652,2.3022901272,1.27118217,1.45001053,-3.41413599,,,
imu,276.656546,0.0173464312,-9.687084596000002,2.2963085992,1.15155161,1.577118,-3.37675144,,,
imu,276.664985,0.023926112,-9.681103068,2.290925224,1.03192105,1.56216418,-3.47395127,,,
imu,276.673425,0.0245242648,-9.682299373600001,2.2771677096,0.9571519499999999,1.58459491,-3.51881273,,,
imu,276.681864,0.0203371952,-9.672130776000001,2.2771677096,0.8973366700000001,1.47991817,-3.56367419,,,
imu,276.690304,0.0281131816,-9.672130776000001,2.2777658624,0.83004448,1.53225654,-3.81041222,,,
imu,276.698743,0.0221316536,-9.675121540000001,2.2801584736,0.82256757,1.50982581,-3.93751969,,,
imu,276.707182,0.020935348,-9.673925234400002,2.266999112000001,0.81509066,1.45748744,-3.96742733,,,
imu,276.715622,0.0191408896,-9.676915998400002,2.2687935704,0.9945364999999999,1.53973345,-3.97490424,,,
imu,276.724061,0.0245242648,-9.6745233872,2.2646065008,0.79265993,1.52477963,-4.06462716,,,
imu,276.7325,0.0215335008,-9.682299373600001,2.269989876,0.9048135799999999,1.47991817,-4.012288789999999,,,
imu,276.74094,0.0251224176,-9.6799067624,2.2681954176,0.94967504,1.40514907,-3.90761205,,,
imu,276.749379,0.0221316536,-9.6745233872,2.266999112000001,0.80013684,1.31542615,-3.90013514,,,
imu,276.757819,0.0191408896,-9.688280901600002,2.2664009592,0.88985976,1.21822632,-3.81041222,,,
imu,276.766258,0.01495382,-9.690075360000002,2.269989876,0.71789083,1.15093413,-3.76555076,,,
imu,276.774697,0.011963056,-9.690075360000002,2.2705880288,0.65059864,1.0537343,-3.76555076,,,
imu,276.783137,0.0053833752,-9.681103068,2.2741769456,0.50853735,1.06121121,-3.83284295,,,
imu,276.791595,0.007775986400000001,-9.6799067624,2.264008348,0.4711528,1.02382666,-3.81041222,,,
imu,276.800054,-0.004187069600000001,-9.683495679200002,2.2664009592,0.51601426,0.9714882899999999,-3.74312003,,,
imu,276.808512,-0.007775986400000001,-9.685888290400001,2.2687935704,0.65059864,0.9191499199999997,-3.67582784,,,
imu,276.816971,-0.0113649032,-9.682897526400001,2.266999112000001,0.65059864,1.02382666,-3.69825857,,,
imu,276.825429,-0.0131593616,-9.681103068,2.2687935704,0.52349117,1.10607267,-3.73564312,,,
imu,276.833887,-0.0173464312,-9.687084596000002,2.2687935704,0.41133752,1.16588795,-3.72816621,,,
imu,276.842346,-0.023926112,-9.692467971200001,2.2765695568,0.49358353,1.28551851,-3.69825857,,,
imu,276.850804,-0.0215335008,-9.70502918,2.2855418488,0.40386061,1.31542615,-3.68330475,,,
imu,276.859263,-0.0203371952,-9.710412555200001,2.284943696,0.2468455,1.39019525,-3.73564312,,,
imu,276.867721,-0.017944584,-9.690673512800002,2.284943696,0.20198404,1.52477963,-3.78798149,,,
imu,276.87618,-0.009570444800000001,-9.690673512800002,2.281952932,0.2468455,1.68179474,-3.73564312,,,
imu,276.884638,-0.011963056,-9.688280901600002,2.2963085992,0.10478421,1.73413311,-3.74312003,,,
imu,276.893097,-0.007177833600000002,-9.6912716656,2.2981030576,-0.007369440000000005,1.7266562,-3.75807385,,,
imu,276.901555,0.0011963056,-9.6799067624,2.3034864328,-0.09709236,1.85376367,-3.90761205,,,
imu,276.910014,0.004785222400000001,-9.660765872800003,2.3220291696,-0.16438455,1.68927165,-4.012288789999999,,,
imu,276.918472,0.0,-9.671532623200001,2.323823628,-0.29896893,1.53973345,-4.04219643,,,
imu,276.92693,0.0011963056,-9.6912716656,2.3345903784,-0.44103022,1.51730272,-3.92256587,,,
imu,276.935389,0.0005981528000000001,-9.6918698184,2.3405719064,-0.5980453299999999,1.4275798,-3.90013514,,,
imu,276.943847,-0.0053833752,-9.685290137600001,2.3531331152,-0.7251528,1.49487199,-3.8702275,,,
imu,276.952306,-0.0113649032,-9.6428212888,2.338777448000001,-0.63542988,1.37524143,-3.69078166,,,
imu,276.960764,-0.0191408896,-9.6326526912,2.3333940728,-0.43355331,1.42010289,-3.44404363,,,
imu,276.969223,-0.0281131816,-9.6290637744,2.3333940728,-0.40364567,1.42010289,-3.3468438,,,
imu,276.977681,-0.0197390424,-9.624278552000002,2.3351885312,-0.2765382,1.59954873,-3.00290594,,,
imu,276.98614,-0.004187069600000001,-9.641624983200002,2.3393756008,-0.11952309,1.59207182,-2.91318302,,,
imu,276.994648,0.0053833752,-9.6434194416,2.3369829896,0.20198404,1.70422547,-2.94309066,,,
imu,277.003156,0.0137575144,-9.636839760800001,2.3369829896,0.36647606,1.65936401,-3.09262886,,,
imu,277.011664,0.0107667504,-9.630260080000001,2.34774974,0.5982602699999999,1.62197946,-3.21225942,,,
imu,277.020172,0.0101685976,-9.612315496,2.34774974,0.7253677399999999,1.52477963,-3.36927453,,,
imu,277.02868,0.008374139200000002,-9.606932120800002,2.3345903784,0.8375213899999999,1.50982581,-3.65339711,,,
imu,277.037188,0.002990764,-9.6117173432,2.3375811424,0.9048135799999999,1.47991817,-3.95995042,,,
imu,277.045696,0.0137575144,-9.612315496,2.325019933600001,1.02444414,1.42010289,-4.057150249999999,,,
imu,277.054204,0.011963056,-9.635045302400002,2.335786684,1.10669015,1.24813396,-3.98985806,,,
imu,277.062712,0.03289840400000001,-9.648204664000001,2.3292070032,1.16650543,1.30794924,-3.69078166,,,
imu,275.744001,,,,,,,80.6285452,-47.44331320000001,115.828032
imu,275.845533,,,,,,,80.43323,-47.6020068,116.3041128
imu,275.947217,,,,,,,80.6651668,-47.57759240000001,115.7792032
imu,276.048658,,,,,,,81.3975988,-47.5409708,115.8402392
imu,276.15022,,,,,,,83.13102119999999,-48.3954748,115.7547888
imu,276.251783,,,,,,,80.3355724,-47.0770972,116.7313648
imu,276.354047,,,,,,,83.0943996,-48.40768200000003,113.8016368
imu,276.454938,,,,,,,80.8238604,-47.41889880000003,115.8768608
imu,277.071162,0.03289840400000001,-9.672728928800002,2.3292070032,1.2188438,1.21822632,-3.54872037,,,
imu,277.07967,0.03588916800000001,-9.693664276800002,2.3375811424,1.41324346,1.30794924,-3.26459779,,,
imu,277.088178,0.04187069600000001,-9.706225485600001,2.34774974,1.12912088,1.06868812,-3.22721324,,,
imu,277.096686,0.03947808480000001,-9.7008421104,2.3489460456,0.78518302,0.92662683,-3.0477674,,,
imu,277.105194,0.04845037680000001,-9.703234721600001,2.348347892800001,0.55339881,0.8892422799999999,-2.9729983,,,
imu,277.113702,0.05203929360000001,-9.692467971200001,2.3644980184,0.1720764,0.66493498,-2.98795212,,,
imu,277.12221,0.04007623760000001,-9.693066124000001,2.3609091016,-0.08961545,0.50044296,-3.13001341,,,
imu,277.130718,0.0352910152,-9.6876827488,2.371675852,-0.24663056,0.3135202100000001,-3.33188998,,,
imu,277.139226,0.03947808480000001,-9.681103068,2.3728721576,-0.47841477,0.1789358299999999,-3.496382,,,
imu,277.147734,0.03289840400000001,-9.669140012000002,2.368685088,-0.53823005,0.08921290999999965,-3.55619728,,,
imu,277.156242,0.0281131816,-9.657176956,2.36270356,-0.73262971,0.04435144999999974,-3.54124346,,,
imu,277.16475,0.0197390424,-9.6523917336,2.3650961712,-0.67281443,-0.07527911000000032,-3.68330475,,,
imu,277.173258,0.0161501256,-9.6290637744,2.3549275736,-0.48589168,0.07425908999999997,-3.78798149,,,
imu,277.181766,0.0101685976,-9.596763523200002,2.36270356,-0.39616876,0.13407437,-3.7954584,,,
imu,277.190274,0.004785222400000001,-9.618297024,2.379451838400001,-0.32887657,0.04435144999999974,-3.84779677,,,
imu,277.198704,0.008972292000000002,-9.637437913600001,2.3728721576,-0.24663056,0.1041667299999998,-3.90761205,,,
imu,277.207133,0.009570444800000001,-9.633250844,2.3698813936,-0.20924601,0.07425908999999997,-4.11696553,,,
imu,277.215562,0.0065796808,-9.606932120800002,2.3764610744,-0.2017691,-0.07527911000000032,-4.19921154,,,
imu,277.223991,-0.0167482784,-9.5949690648,2.3770592272,-0.04475399000000001,-0.2472480400000001,-4.244073,,,
imu,277.23242,-0.03648732080000001,-9.577024480800002,2.3680869352,0.1720764,-0.04537147000000008,-4.08705789,,,
imu,277.24085,-0.0430670016,-9.576426328,2.3573201848,0.44124516,0.02192071999999978,-4.00481188,,,
imu,277.249279,-0.03648732080000001,-9.5907819952,2.3579183376,0.77770611,0.2088434699999997,-3.78798149,,,
imu,277.257708,-0.03588916800000001,-9.617100718400001,2.3579183376,0.9347212199999999,0.3733354899999997,-3.68330475,,,
imu,277.266137,-0.03648732080000001,-9.613511801600001,2.3585164904,1.00201341,0.4256738599999998,-3.68330475,,,
imu,277.274567,-0.0490485296,-9.621287788000002,2.3555257264,1.27865908,0.4032431299999999,-3.59358183,,,
imu,277.282996,-0.04246884880000001,-9.610521037600002,2.3369829896,1.39081273,0.5079198699999998,-3.60105874,,,
imu,277.291425,-0.06041343280000001,-9.608128426400002,2.3345903784,1.73475059,0.6948426199999997,-3.60105874,,,
imu,277.299854,-0.0723764888,-9.625474857600002,2.323823628,1.8917657,0.7995193599999997,-3.81788913,,,
imu,277.308283,-0.06579680800000001,-9.633848996800001,2.3130568776,2.12354991,0.9415806499999997,-3.98985806,,,
imu,277.316713,-0.0693857248,-9.6434194416,2.3244217808,2.15345755,1.23318014,-4.124442439999999,,,
imu,277.325142,-0.062806044,-9.6458120528,2.30288828,2.22822665,1.56216418,-4.012288789999999,,,
imu,277.333571,-0.05742266880000001,-9.669140012000002,2.3106642664,2.37776485,1.6518871,-3.9449966,,,
imu,277.342,-0.04605776560000001,-9.682897526400001,2.3022901272,2.25065738,1.90610204,-3.89265823,,,
imu,277.350429,-0.04725407120000001,-9.706225485600001,2.3016919744,2.2656112,2.10797861,-3.70573548,,,
imu,277.358859,-0.0293094872,-9.709216249600003,2.307673502400001,2.28056502,2.33976282,-3.71321239,,,
imu,277.367288,-0.03289840400000001,-9.708019944000002,2.3016919744,2.01139626,2.30985518,-3.75807385,,,
imu,277.375717,-0.0215335008,-9.724768222400002,2.293915988,1.8169966,2.324809,-3.69078166,,,
imu,277.384146,-0.0215335008,-9.725964528,2.2992993632,1.68241222,2.40705501,-3.7206893,,,
imu,277.392575,-0.01495382,-9.727758986400001,2.2945141408,1.48053565,2.4743472,-3.70573548,,,
imu,277.401383,-0.0017944584,-9.719983000000001,2.284943696,1.27865908,2.35471664,-3.7206893,,,
imu,277.410191,-0.004785222400000001,-9.718786694400002,2.2975049048,0.9945364999999999,2.33228591,-3.81788913,,,
imu,277.418998,0.0005981528000000001,-9.724170069600001,2.28793446,0.8375213899999999,2.27247063,-3.83284295,,,
imu,277.427806,-0.0023926112,-9.7295534448,2.2975049048,0.65807555,2.1752708,-3.9449966,,,
imu,277.436614,-0.0005981528000000001,-9.719983000000001,2.296906752,0.36647606,2.03320951,-4.012288789999999,,,
imu,277.445421,0.0,-9.709216249600003,2.3010938216,0.11226112,1.9509635,-4.04219643,,,
imu,277.454229,0.0,-9.709216249600003,2.307673502400001,0.08983038999999998,1.83880985,-3.98985806,,,
imu,277.463037,-0.0101685976,-9.7056273328,2.3070753496,0.08983038999999998,1.75656384,-3.76555076,,,
imu,277.471844,-0.0053833752,-9.681103068,2.3016919744,-0.06718472,1.71917929,-3.81788913,,,
imu,277.480652,-0.008374139200000002,-9.675719692800001,2.3100661136,-0.01484635000000001,1.71170238,-3.60105874,,,
imu,277.489459,-0.007177833600000002,-9.667345553600002,2.3196365584,-0.17186146,1.61450255,-3.63096638,,,
imu,277.498267,-0.017944584,-9.669140012000002,2.314851336,0.01506129,1.54721036,-3.496382,,,
imu,277.507075,-0.0185427368,-9.663158484000002,2.320832864,-0.127,1.577118,-3.43656672,,,
imu,277.515882,-0.0191408896,-9.6643547896,2.3232254752,-0.24663056,1.60702564,-3.41413599,,,
imu,277.52469,-0.007775986400000001,-9.661364025600001,2.331001461600001,-0.28401511,1.53225654,-3.41413599,,,
imu,277.533498,-0.0233279592,-9.659569567200002,2.3429645176,-0.15690764,1.48739508,-3.39170526,,,
imu,277.542305,-0.0167482784,-9.655980650400002,2.3381792952,-0.15690764,1.48739508,-3.496382,,,
imu,277.551113,-0.026916876,-9.651195428000001,2.353731268,-0.25410747,1.28551851,-3.62348947,,,
imu,277.559921,-0.023926112,-9.654784344800001,2.34774974,-0.13447691,1.39019525,-3.58610492,,,
imu,277.568728,-0.0191408896,-9.654784344800001,2.3495441984,-0.13447691,1.39767216,-3.60105874,,,
imu,277.577536,-0.026916876,-9.6494009696,2.3519368096,-0.14195382,1.4275798,-3.59358183,,,
imu,277.586343,-0.0203371952,-9.651195428000001,2.3615072544,-0.127,1.62197946,-3.51881273,,,
imu,277.595151,-0.01495382,-9.6434194416,2.3555257264,-0.10456927,1.67431783,-3.60853565,,,
imu,277.603641,-0.01495382,-9.646410205600002,2.368685088,-0.03727708,1.60702564,-3.56367419,,,
imu,277.612132,-0.0137575144,-9.644615747200001,2.3734703104,0.12721494,1.63693328,-3.36927453,,,
imu,277.620622,-0.0161501256,-9.638036066400002,2.37765738,0.11973803,1.68179474,-3.41413599,,,
imu,277.629112,-0.0161501256,-9.647606511200001,2.3662924768,0.17955331,1.73413311,-3.38422835,,,
imu,277.637602,-0.002990764,-9.6505972752,2.3734703104,0.26927623,1.74908693,-3.33188998,,,
imu,277.646093,-0.003588916800000001,-9.645213900000002,2.3770592272,0.25432241,1.8014253,-3.22721324,,,
imu,277.654583,-0.004785222400000001,-9.642223136000002,2.380648144,0.13469185,1.75656384,-3.24216706,,,
imu,277.663073,0.0017944584,-9.641026830400001,2.3722740048,0.08235347999999998,1.73413311,-3.25712088,,,
imu,277.671563,0.0,-9.639830524800002,2.3812462968,0.18703022,1.7266562,-3.31693616,,,
imu,277.680054,0.004187069600000001,-9.640428677600001,2.389022283200001,0.34404533,1.67431783,-3.28702852,,,
imu,277.688544,0.0053833752,-9.641624983200002,2.3860315192,0.25432241,1.74161002,-3.25712088,,,
imu,277.697034,0.007177833600000002,-9.637437913600001,2.3926112,0.15712258,1.62945637,-3.22721324,,,
imu,277.705524,0.0023926112,-9.648802816800002,2.3962001168,0.11973803,1.66684092,-3.22721324,,,
imu,277.714015,0.0185427368,-9.6523917336,2.3997890336,0.29170696,1.66684092,-3.2720747,,,
imu,277.722505,0.0203371952,-9.635643455200002,2.3914148944,0.28423005,1.67431783,-3.40665908,,,
imu,277.730995,0.0173464312,-9.632054538400002,2.3800499912,0.20946095,1.63693328,-3.41413599,,,
imu,277.739485,0.0143556672,-9.631456385600002,2.383040755200001,0.28423005,1.65936401,-3.38422835,,,
imu,277.747976,0.0251224176,-9.633250844,2.3860315192,0.4711528,1.68179474,-3.38422835,,,
imu,277.756466,0.0323002512,-9.636839760800001,2.3950038112,0.35152224,1.577118,-3.59358183,,,
imu,277.764956,0.0257205704,-9.6218859408,2.3979945752,0.44124516,1.47244126,-3.72816621,,,
imu,277.773446,0.0161501256,-9.620689635200002,2.398592728,0.6132140899999999,1.37524143,-3.7954584,,,
imu,277.781936,0.0185427368,-9.639232372,2.4021816448,0.43376825,1.10607267,-4.08705789,,,
imu,277.790427,0.0131593616,-9.655980650400002,2.4081631728,0.3963837,1.04625739,-4.11696553,,,
imu,277.798917,0.0143556672,-9.655980650400002,2.410555784,0.34404533,1.09859576,-4.04967334,,,
imu,277.807377,0.0101685976,-9.638036066400002,2.4117520896,0.3963837,1.00139593,-3.93751969,,,
imu,277.815836,0.004785222400000001,-9.612913648800001,2.3950038112,0.66555246,1.01634975,-3.66087402,,,
imu,277.824296,-0.0125612088,-9.603343204000002,2.371675852,0.94967504,1.21822632,-3.50385891,,,
imu,277.832756,-0.0173464312,-9.614109954400002,2.369283240800001,1.05435178,1.21074941,-3.37675144,,,
imu,277.841216,-0.003588916800000001,-9.623680399200001,2.3662924768,1.1440747,1.3528107,-3.16739796,,,
imu,277.849675,0.0053833752,-9.642223136000002,2.3662924768,1.42819728,1.4275798,-3.07767504,,,
imu,277.858135,0.011963056,-9.6499991224,2.3758629216,1.62259694,1.46496435,-3.17487487,,,
imu,277.866595,0.0161501256,-9.647606511200001,2.3609091016,1.65998149,1.38271834,-3.3468438,,,
imu,277.875055,0.0107667504,-9.635643455200002,2.353731268,1.77961205,1.30794924,-3.5711511,,,
imu,277.883514,0.008374139200000002,-9.630858232800001,2.3555257264,1.7422275,1.18831868,-4.04219643,,,
imu,276.556407,,,,,,,80.5797164,-47.55317800000003,113.4720424
imu,276.657969,,,,,,,80.28674360000001,-47.6020068,115.4862304
imu,276.759501,,,,,,,80.5797164,-47.32124120000001,115.644924
imu,276.861125,,,,,,,80.75061720000001,-47.5409708,115.9256896
imu,276.962657,,,,,,,80.83606759999999,-46.942818,115.8768608
imu,277.064219,,,,,,,81.29994119999999,-47.50434920000002,115.4251944
imu,277.165782,,,,,,,80.7628244,-47.68745720000003,115.6205096
imu,277.267436,,,,,,,83.11881400000001,-48.05367320000001,115.7914104
imu,277.891974,0.0023926112,-9.632054538400002,2.3489460456,1.8169966,1.15841104,-4.32631901,,,
imu,277.900434,-0.0017944584,-9.632054538400002,2.3399737536,1.72727368,1.02382666,-4.63287232,,,
imu,277.908893,-0.009570444800000001,-9.638036066400002,2.3244217808,1.83195042,1.01634975,-4.65530305,,,
imu,277.917353,-0.0113649032,-9.6523917336,2.3315996144,1.89924261,1.11354958,-4.34874974,,,
imu,277.925813,-0.0125612088,-9.664952942400001,2.3256180864,1.84690424,1.1285034,-4.124442439999999,,,
imu,277.934273,-0.008972292000000002,-9.684093832000002,2.3286088504,1.7422275,1.10607267,-3.97490424,,,
imu,277.942732,-0.0137575144,-9.688280901600002,2.3262162392,1.6674584,1.18084177,-3.70573548,,,
imu,277.951192,-0.0101685976,-9.690075360000002,2.3274125448,1.53287402,1.08364194,-3.63096638,,,
imu,277.959652,-0.0185427368,-9.703234721600001,2.3280106976,1.31604363,1.06868812,-3.40665908,,,
imu,277.968112,-0.020935348,-9.700243957600001,2.3280106976,1.18893616,1.17336486,-3.29450543,,,
imu,277.976571,-0.0203371952,-9.708019944000002,2.3351885312,0.85995212,1.16588795,-3.30945925,,,
imu,277.985031,-0.0233279592,-9.709814402400001,2.331001461600001,0.63564482,1.18084177,-3.42908981,,,
imu,277.993491,-0.0251224176,-9.722375611200002,2.3423663648,0.58330645,1.24813396,-3.54872037,,,
imu,278.00195,-0.0251224176,-9.727160833600001,2.3345903784,0.30666078,1.38271834,-3.65339711,,,
imu,278.010409,-0.0245242648,-9.7283571392,2.3471515872,0.19450713,1.52477963,-3.63844329,,,
imu,278.018867,-0.020935348,-9.722973764,2.3489460456,0.10478421,1.69674856,-3.62348947,,,
imu,278.027326,-0.0125612088,-9.711010708000002,2.3429645176,0.0001074699999999984,1.78647148,-3.48890509,,,
imu,278.035784,-0.0155519728,-9.685290137600001,2.3513386568,-0.17933837,1.78647148,-3.52628964,,,
imu,278.044243,-0.008972292000000002,-9.70502918,2.3603109488,-0.26158438,1.84628676,-3.63096638,,,
imu,278.052701,0.0023926112,-9.727160833600001,2.374666616,-0.41859949,1.81637912,-3.63096638,,,
imu,278.06116,0.0107667504,-9.711010708000002,2.3680869352,-0.68029134,1.74161002,-3.61601256,,,
imu,278.069618,0.0131593616,-9.675121540000001,2.3800499912,-0.77749117,1.59207182,-3.76555076,,,
imu,278.078077,0.008374139200000002,-9.654784344800001,2.3752647688,-0.8522602699999999,1.45748744,-3.90013514,,,
imu,278.086535,0.0023926112,-9.642223136000002,2.3824426024,-0.874691,1.3528107,-3.92256587,,,
imu,278.094993,-0.003588916800000001,-9.6296619272,2.3902185888,-0.81487572,1.34533379,-3.57862801,,,
imu,278.103452,0.0053833752,-9.6290637744,2.389620436,-0.70272207,1.43505671,-3.37675144,,,
imu,278.11191,0.020935348,-9.623680399200001,2.3842370608,-0.56066078,1.42010289,-3.13001341,,,
imu,278.120369,0.023926112,-9.631456385600002,2.3944056584,-0.44103022,1.36776452,-3.11505959,,,
imu,278.128827,0.020935348,-9.6290637744,2.3944056584,-0.29896893,1.36028761,-3.13749032,,,
imu,278.137286,0.023926112,-9.632054538400002,2.3926112,-0.32887657,1.23318014,-3.13749032,,,
imu,278.145744,0.03110394560000001,-9.633250844,2.413546548,-0.36626112,1.11354958,-3.01785976,,,
imu,278.154203,0.0340947096,-9.630260080000001,2.416537312,-0.32887657,0.8294269999999999,-3.25712088,,,
imu,278.162639,0.02990764000000001,-9.6248767048,2.4243132984,-0.37373803,0.8219500899999996,-3.31693616,,,
imu,278.171098,0.0305057928,-9.630858232800001,2.4177336176,-0.24663056,0.8593346399999997,-3.30198234,,,
imu,278.179556,0.04725407120000001,-9.630260080000001,2.4386689656,-0.15690764,0.7097964399999999,-3.39170526,,,
imu,278.188015,0.0526374464,-9.627269316000001,2.4147428536,-0.08961545,0.5079198699999998,-3.3468438,,,
imu,278.196473,0.04246884880000001,-9.6224840936,2.4183317704,-0.06718472,0.4256738599999998,-3.3468438,,,
imu,278.204932,0.03349655680000001,-9.617100718400001,2.4213225344,-0.14943073,0.2237972899999998,-3.43656672,,,
imu,278.213577,0.0323002512,-9.610521037600002,2.431491132,-0.08961545,0.006966899999999665,-3.496382,,,
imu,278.222222,0.0221316536,-9.605735815200001,2.428500368,-0.06718472,0.02939763000000006,-3.46647436,,,
imu,278.230868,0.0185427368,-9.593174606400002,2.423715145600001,-0.14943073,-0.09770984000000027,-3.43656672,,,
imu,278.239513,-0.0005981528000000001,-9.5985579816,2.4189299232,0.17955331,-0.09770984000000027,-3.43656672,,,
imu,278.248159,0.007775986400000001,-9.595567217600001,2.420126228800001,0.43376825,-0.05284837999999992,-3.36179762,,,
imu,278.256804,-0.0005981528000000001,-9.606333968000001,2.4123502424,0.50853735,0.01444380999999995,-3.40665908,,,
imu,278.265449,-0.004785222400000001,-9.6117173432,2.4129483952,0.63564482,0.02192071999999978,-3.55619728,,,
imu,278.274095,-0.0173464312,-9.620091482400001,2.4207243816,0.67302937,-0.03041764999999996,-3.62348947,,,
imu,278.28274,-0.007177833600000002,-9.6470083584,2.4159391592,0.9197674,0.0368745399999999,-3.73564312,,,
imu,278.291385,-0.0137575144,-9.657775108800001,2.4147428536,1.04687487,0.1565051,-3.84779677,,,
imu,278.300031,-0.03349655680000001,-9.6643547896,2.4177336176,1.05435178,0.2537049300000001,-3.87770441,,,
imu,278.308676,-0.0340947096,-9.661962178400001,2.4051724088,0.9646288599999999,0.3060432999999998,-4.057150249999999,,,
imu,278.317322,-0.0340947096,-9.654784344800001,2.40756502,0.9272443100000001,0.35838167,-4.012288789999999,,,
imu,278.325967,-0.02990764000000001,-9.639232372,2.4093594784,0.8749059399999999,0.4032431299999999,-3.95995042,,,
imu,278.334612,-0.04127254320000001,-9.633848996800001,2.4021816448,1.04687487,0.4929660499999997,-4.0197657,,,
imu,278.343258,-0.03887993200000001,-9.6326526912,2.4027797976,1.15155161,0.6275504299999999,-4.034719519999999,,,
imu,278.351903,-0.03349655680000001,-9.636839760800001,2.4051724088,1.09921324,0.72475026,-4.0197657,,,
imu,278.360548,-0.0215335008,-9.630260080000001,2.3973964224,1.21136689,0.8369039099999998,-3.95247351,,,
imu,278.369194,-0.0257205704,-9.631456385600002,2.3991908808,1.30108981,1.03130357,-3.84031986,,,
imu,278.377839,-0.0275150288,-9.6296619272,2.3938075056,1.54782784,1.09859576,-3.80293531,,,
imu,278.386485,-0.0323002512,-9.641624983200002,2.3991908808,1.49548947,1.03130357,-3.90761205,,,
imu,278.39513,-0.020935348,-9.636241608,2.389022283200001,1.42819728,0.98644211,-3.9449966,,,
imu,278.403775,-0.0215335008,-9.652989886400002,2.3908167416,1.62259694,1.06868812,-3.89265823,,,
imu,278.412421,-0.0155519728,-9.668541859200001,2.3950038112,1.50296638,1.08364194,-3.90761205,,,
imu,278.421055,-0.0155519728,-9.673925234400002,2.3979945752,1.53287402,1.18084177,-3.8702275,,,
imu,278.429688,-0.0161501256,-9.6733270816,2.3908167416,1.34595127,1.07616503,-3.93751969,,,
imu,278.438322,-0.008374139200000002,-9.678112304,2.3944056584,1.20388998,1.01634975,-4.034719519999999,,,
imu,278.446956,-0.007775986400000001,-9.6745233872,2.3914148944,1.27865908,1.0537343,-3.95247351,,,
imu,278.45559,-0.0227298064,-9.669738164800002,2.3944056584,1.00949032,1.08364194,-3.90761205,,,
imu,278.464224,-0.0173464312,-9.667943706400001,2.3902185888,0.97210577,0.9415806499999997,-3.9449966,,,
imu,278.472858,-0.011963056,-9.669140012000002,2.3842370608,0.97210577,0.8294269999999999,-3.98238115,,,
imu,278.481491,-0.01495382,-9.676915998400002,2.379451838400001,0.9646288599999999,0.8593346399999997,-3.87770441,,,
imu,278.490125,-0.011963056,-9.681103068,2.3824426024,0.9048135799999999,0.76213481,-3.95247351,,,
imu,278.498759,-0.0185427368,-9.662560331200002,2.389022283200001,0.77770611,0.8518577299999999,-3.93004278,,,
imu,278.507393,-0.0203371952,-9.654186192000001,2.3926112,0.70293701,0.76213481,-3.87770441,,,
imu,278.516027,-0.0191408896,-9.657775108800001,2.3812462968,0.7403215599999999,0.6275504299999999,-3.96742733,,,
imu,278.52466,-0.0233279592,-9.6523917336,2.3812462968,0.80013684,0.6350273399999997,-3.92256587,,,
imu,278.533294,-0.0406743904,-9.6535880392,2.3908167416,0.8375213899999999,0.64250425,-3.85527368,,,
imu,278.541928,-0.0370854736,-9.651793580800001,2.3842370608,0.80013684,0.62007352,-3.8702275,,,
imu,278.550562,-0.04545961280000001,-9.651195428000001,2.3770592272,0.81509066,0.6125966099999998,-3.81788913,,,
imu,278.559196,-0.0382817792,-9.638036066400002,2.386629672,0.94967504,0.6275504299999999,-3.74312003,,,
imu,278.56783,-0.04845037680000001,-9.646410205600002,2.3848352136,0.79265993,0.7397040799999997,-3.73564312,,,
imu,278.576463,-0.0490485296,-9.6643547896,2.3938075056,0.82256757,0.76213481,-3.6459202,,,
imu,278.585097,-0.0442633072,-9.672728928800002,2.3860315192,0.81509066,0.70231953,-3.81788913,,,
imu,278.593731,-0.03588916800000001,-9.675719692800001,2.386629672,0.9272443100000001,0.9041961000000001,-3.56367419,,,
imu,278.602365,-0.0352910152,-9.667943706400001,2.3812462968,0.74779847,0.8518577299999999,-3.57862801,,,
imu,278.610999,-0.03110394560000001,-9.6709344704,2.389620436,0.620691,0.8518577299999999,-3.60853565,,,
imu,278.619466,-0.0293094872,-9.6523917336,2.389022283200001,0.60573718,0.9789651999999998,-3.4216129,,,
imu,278.627933,-0.0317020984,-9.6499991224,2.389620436,0.7253677399999999,0.94905756,-3.43656672,,,
imu,278.636401,-0.0376836264,-9.641026830400001,2.3926112,0.63564482,0.78456554,-3.60105874,,,
imu,278.644868,-0.04545961280000001,-9.645213900000002,2.3884241304,0.4711528,0.6350273399999997,-3.72816621,,,
imu,278.653335,-0.04845037680000001,-9.6703363176,2.4003871864,0.5459219,0.7920424499999998,-3.71321239,,,
imu,278.661803,-0.04725407120000001,-9.684093832000002,2.4171354648,0.34404533,0.7397040799999997,-3.76555076,,,
imu,278.67027,-0.0592171272,-9.688280901600002,2.4302948264,0.22441477,0.8742884599999998,-3.66087402,,,
imu,278.678737,-0.06041343280000001,-9.671532623200001,2.4123502424,0.26179932,1.00139593,-3.54872037,,,
imu,278.687205,-0.05682451600000001,-9.651793580800001,2.4051724088,0.30666078,1.10607267,-3.42908981,,,
imu,278.695672,-0.0783580168,-9.636839760800001,2.3973964224,0.33656842,1.04625739,-3.38422835,,,
imu,278.70414,-0.07955432240000002,-9.633250844,2.3973964224,0.6132140899999999,1.32290306,-3.33936689,,,
imu,277.37675,,,,,,,83.5704804,-48.1269164,113.3743848
imu,277.478282,,,,,,,80.8726892,-47.3944844,116.3407344
imu,277.579844,,,,,,,81.01917560000001,-47.71187160000001,112.898304
imu,277.681376,,,,,,,80.25012199999999,-47.51655640000001,116.0233472
imu,277.782969,,,,,,,80.6407524,-47.44331320000001,115.6815456
imu,277.892344,,,,,,,81.14124760000001,-47.6020068,115.5594736
imu,277.987407,,,,,,,81.01917560000001,-46.8085388,115.7303744
imu,278.087687,,,,,,,80.7628244,-47.1381332,116.4750136
imu,278.712607,-0.06160973840000001,-9.665551095200001,2.4027797976,0.74779847,1.49487199,-3.17487487,,,
imu,278.721074,-0.0562263632,-9.669738164800002,2.3872278248,0.74779847,1.77151766,-2.91318302,,,
imu,278.729542,-0.0382817792,-9.66016772,2.3800499912,0.73284465,1.83133294,-2.93561375,,,
imu,278.738009,-0.026916876,-9.644615747200001,2.383040755200001,0.9048135799999999,1.95844041,-3.17487487,,,
imu,278.746476,-0.0305057928,-9.651793580800001,2.3758629216,1.18893616,1.95844041,-3.39170526,,,
imu,278.754944,-0.0275150288,-9.6499991224,2.3842370608,1.22632071,1.85376367,-3.63096638,,,
imu,278.763411,-0.0221316536,-9.638634219200002,2.37765738,1.16650543,1.79394839,-3.93004278,,,
imu,278.771878,-0.03289840400000001,-9.639232372,2.3788536856,1.2188438,1.75656384,-3.95995042,,,
imu,278.780346,-0.03349655680000001,-9.631456385600002,2.3680869352,1.27118217,1.86124058,-4.057150249999999,,,
imu,278.788813,-0.0221316536,-9.648204664000001,2.3662924768,1.33099745,1.80890221,-4.0197657,,,
imu,278.79728,-0.0167482784,-9.657176956,2.3525349624,1.26370526,1.73413311,-3.93751969,,,
imu,278.805748,-0.0233279592,-9.6709344704,2.3633017128,1.07678251,1.62945637,-3.7954584,,,
imu,278.814215,-0.023926112,-9.668541859200001,2.362105407200001,0.9571519499999999,1.53973345,-3.54124346,,,
imu,278.822679,-0.0191408896,-9.668541859200001,2.3615072544,0.80013684,1.53973345,-3.38422835,,,
imu,278.831142,-0.017944584,-9.671532623200001,2.365694324000001,0.64312173,1.29299542,-3.36927453,,,
imu,278.839606,-0.020935348,-9.669140012000002,2.371675852,0.47862971,1.36776452,-3.27955161,,,
imu,278.848069,-0.0275150288,-9.675121540000001,2.3812462968,0.3216146,1.2780416,-3.10758268,,,
imu,278.856533,-0.0376836264,-9.684093832000002,2.3848352136,0.1720764,1.19579559,-3.10010577,,,
imu,278.864996,-0.03947808480000001,-9.681103068,2.3770592272,-0.14195382,1.15841104,-3.14496723,,,
imu,278.87346,-0.0430670016,-9.6846919848,2.3914148944,-0.11952309,1.21074941,-3.1973056,,,
imu,278.881924,-0.03648732080000001,-9.701440263200002,2.3926112,-0.22419983,1.36028761,-3.15244414,,,
imu,278.890387,-0.0442633072,-9.702636568800001,2.386629672,-0.23167674,1.4275798,-3.18982869,,,
imu,278.898851,-0.0406743904,-9.6912716656,2.3938075056,-0.31392275,1.53973345,-3.18982869,,,
imu,278.907314,-0.0263187232,-9.672728928800002,2.4087613256,-0.24663056,1.73413311,-3.07019813,,,
imu,278.915778,-0.0245242648,-9.682897526400001,2.4081631728,-0.61299915,1.85376367,-3.18982869,,,
imu,278.924241,-0.023926112,-9.703832874400002,2.4320892848,-0.79244499,1.95844041,-3.15992105,,,
imu,278.932705,-0.0221316536,-9.682897526400001,2.4338837432,-0.94198319,1.97339423,-3.35432071,,,
imu,278.941168,-0.0107667504,-9.654784344800001,2.4356782016,-1.12142903,1.97339423,-3.53376655,,,
imu,278.949632,-0.0203371952,-9.630260080000001,2.446444952,-1.14385976,1.76404075,-3.67582784,,,
imu,278.958095,-0.0251224176,-9.612913648800001,2.4362763544,-1.1737674,1.86124058,-3.69078166,,,
imu,278.966559,-0.0406743904,-9.5949690648,2.4320892848,-1.13638285,1.91357895,-3.51133582,,,
imu,278.975022,-0.0340947096,-9.585996772800002,2.434481896,-0.95693701,2.04068642,-3.25712088,,,
imu,278.983486,-0.0101685976,-9.591978300800001,2.4428560352,-0.63542988,2.27994754,-3.04029049,,,
imu,278.99195,-0.0023926112,-9.606932120800002,2.4428560352,-0.59056842,2.25751681,-2.8982292,,,
imu,279.000413,0.004785222400000001,-9.596165370400001,2.4482394104,-0.5008455,2.22013226,-2.95804448,,,
imu,279.008877,0.0101685976,-9.599754287200001,2.449435716,-0.37373803,2.20517844,-3.03281358,,,
imu,279.01734,0.002990764,-9.603343204000002,2.4518283272,-0.23915365,2.03320951,-3.20478251,,,
imu,279.025802,0.0011963056,-9.5985579816,2.450632021600001,-0.03727708,2.11545552,-3.29450543,,,
imu,279.034265,-0.0011963056,-9.593174606400002,2.4488375632,0.05992275,1.89862513,-3.43656672,,,
imu,279.042727,0.0005981528000000001,-9.593772759200002,2.45242648,0.10478421,1.82385603,-3.61601256,,,
imu,279.051189,-0.0011963056,-9.5877912312,2.4530246328,-0.03727708,1.83133294,-3.62348947,,,
imu,279.059652,0.0005981528000000001,-9.594370912,2.454819091200001,0.18703022,1.75656384,-3.5711511,,,
imu,279.068114,0.0011963056,-9.595567217600001,2.4512301744,0.19450713,1.83880985,-3.39170526,,,
imu,279.076576,-0.008972292000000002,-9.593772759200002,2.471567369600001,0.30666078,1.81637912,-3.3468438,,,
imu,279.085038,-0.004187069600000001,-9.597361676,2.4685766056,0.29918387,1.91357895,-3.28702852,,,
imu,279.093501,0.0005981528000000001,-9.599156134400001,2.476352592,0.32909151,2.04068642,-3.24964397,,,
imu,279.101963,-0.0023926112,-9.597361676,2.4841285784,0.28423005,2.01077878,-3.18982869,,,
imu,279.110425,0.003588916800000001,-9.599754287200001,2.4919045648,0.53844499,1.96591732,-3.10758268,,,
imu,279.118887,-0.0005981528000000001,-9.597959828800002,2.4907082592,0.57582954,2.0257326,-3.18982869,,,
imu,279.12735,-0.0005981528000000001,-9.590183842400002,2.4966897872,0.51601426,2.1005017,-3.42908981,,,
imu,279.135812,0.0065796808,-9.592576453600001,2.494297176,0.73284465,2.1752708,-3.53376655,,,
imu,279.144274,0.01495382,-9.600352440000002,2.4865211896,0.7702292,2.16031698,-3.5711511,,,
imu,279.152737,0.0113649032,-9.599156134400001,2.4978860928,1.08425942,2.30985518,-3.50385891,,,
imu,279.161199,0.0137575144,-9.588389384000001,2.5014750096,1.23379762,2.36967046,-3.60105874,,,
imu,279.169661,0.0107667504,-9.591978300800001,2.499082398400001,1.39081273,2.30237827,-3.76555076,,,
imu,279.178123,0.0281131816,-9.5985579816,2.485324884000001,1.39828964,2.13040934,-3.7954584,,,
imu,279.186586,0.0245242648,-9.596763523200002,2.48233412,1.43567419,2.09302479,-3.63096638,,,
imu,279.195048,0.0173464312,-9.593174606400002,2.4751562864,1.62259694,2.09302479,-3.72816621,,,
imu,279.20351,0.0281131816,-9.599156134400001,2.481137814400001,1.73475059,2.16031698,-3.66087402,,,
imu,279.211972,0.0197390424,-9.608128426400002,2.464389536000001,1.84690424,2.06311715,-3.6459202,,,
imu,279.220435,0.023926112,-9.612315496,2.4596043136,1.87681188,2.07807097,-3.58610492,,,
imu,279.229254,0.0275150288,-9.611119190400002,2.458408008,1.83195042,1.89862513,-3.70573548,,,
imu,279.238074,0.0137575144,-9.604539509600002,2.4530246328,1.97401171,1.77151766,-3.67582784,,,
imu,279.246893,0.017944584,-9.618895176800002,2.4476412576,1.97401171,1.63693328,-3.72816621,,,
imu,279.255769,0.0185427368,-9.617100718400001,2.4452486464,2.01887317,1.61450255,-3.83284295,,,
imu,279.264589,0.0131593616,-9.625474857600002,2.4428560352,2.13850373,1.70422547,-3.85527368,,,
imu,279.273408,0.0185427368,-9.634447149600001,2.4267059096,2.18336519,1.69674856,-3.84779677,,,
imu,279.282228,0.0161501256,-9.6458120528,2.4279022152,2.25065738,1.68179474,-3.81041222,,,
imu,279.291047,0.0167482784,-9.635045302400002,2.429696673600001,2.13850373,1.63693328,-3.80293531,,,
imu,279.299867,0.007775986400000001,-9.641026830400001,2.4183317704,2.10111918,1.60702564,-3.78798149,,,
imu,279.308686,0.0125612088,-9.648802816800002,2.404574256,2.22822665,1.53973345,-3.77302767,,,
imu,279.317506,0.009570444800000001,-9.655382497600002,2.4027797976,2.08616536,1.5023489,-3.88518132,,,
imu,279.326326,0.0053833752,-9.661364025600001,2.401583492,1.95905789,1.43505671,-3.96742733,,,
imu,279.335145,0.004785222400000001,-9.658971414400002,2.389022283200001,2.01887317,1.36028761,-3.83284295,,,
imu,279.343965,0.0005981528000000001,-9.661364025600001,2.383638908,1.94410407,1.32290306,-3.73564312,,,
imu,279.352784,0.003588916800000001,-9.6703363176,2.386629672,1.92167334,1.28551851,-3.84031986,,,
imu,279.361604,-0.0011963056,-9.668541859200001,2.3926112,1.88428879,1.21822632,-3.92256587,,,
imu,279.370424,-0.005981528000000001,-9.668541859200001,2.3758629216,1.91419643,1.15841104,-3.92256587,,,
imu,279.379243,-0.007177833600000002,-9.669738164800002,2.37765738,1.71231986,1.17336486,-3.90013514,,,
imu,279.388063,-0.008374139200000002,-9.663158484000002,2.3662924768,1.68241222,1.21074941,-3.92256587,,,
imu,279.396882,-0.0107667504,-9.672130776000001,2.3698813936,1.50296638,1.25561087,-3.8702275,,,
imu,279.405702,-0.0161501256,-9.6733270816,2.3740684632,1.61512003,1.23318014,-3.75059694,,,
imu,279.414521,-0.0161501256,-9.672728928800002,2.3674887824,1.45062801,1.23318014,-3.69825857,,,
imu,279.423341,-0.0137575144,-9.690673512800002,2.3770592272,1.46558183,1.2780416,-3.69825857,,,
imu,279.43183,-0.0167482784,-9.699645804800001,2.3764610744,1.38333582,1.23318014,-3.82536604,,,
imu,279.440319,-0.009570444800000001,-9.693066124000001,2.3704795464,1.4431511,1.2780416,-3.75059694,,,
imu,279.448808,-0.005981528000000001,-9.673925234400002,2.3633017128,1.41324346,1.36028761,-3.63096638,,,
imu,279.457297,-0.0125612088,-9.6703363176,2.3561238792,1.13659779,1.42010289,-3.58610492,,,
imu,279.465786,-0.011963056,-9.678710456800001,2.36270356,1.15902852,1.55468727,-3.54124346,,,
imu,279.474275,0.0,-9.6745233872,2.3644980184,1.1440747,1.62197946,-3.52628964,,,
imu,279.482764,-0.0023926112,-9.678710456800001,2.369283240800001,1.09921324,1.4275798,-3.83284295,,,
imu,279.491253,-0.0197390424,-9.673925234400002,2.3710776992,0.85995212,1.31542615,-4.08705789,,,
imu,279.499742,-0.0155519728,-9.6799067624,2.383040755200001,0.91229049,1.4275798,-3.98238115,,,
imu,279.508231,-0.0167482784,-9.7008421104,2.3842370608,0.79265993,1.4275798,-3.97490424,,,
imu,279.51672,-0.0197390424,-9.706225485600001,2.3962001168,0.620691,1.49487199,-3.90761205,,,
imu,279.525209,-0.0215335008,-9.6876827488,2.3938075056,0.36647606,1.39019525,-3.90013514,,,
imu,278.189269,,,,,,,80.51868040000001,-47.08930440000003,115.8646536
imu,278.290862,,,,,,,83.11881400000001,-47.7851148,115.8402392
imu,278.392394,,,,,,,80.98255400000001,-47.16254760000002,115.9134824
imu,278.493957,,,,,,,83.057778,-48.1879524,114.0457808
imu,278.595519,,,,,,,80.5308876,-47.69966440000002,116.5482568
imu,278.697082,,,,,,,81.1168332,-47.858358,113.5208712
imu,278.798644,,,,,,,80.7262028,-47.02826840000003,116.6092928
imu,278.900207,,,,,,,81.08021160000001,-47.1991692,115.339744
imu,279.533698,-0.0191408896,-9.657176956,2.3818444496,0.27675314,1.60702564,-3.84779677,,,
imu,279.542187,-0.0227298064,-9.631456385600002,2.389022283200001,0.31413769,1.56964109,-3.72816621,,,
imu,279.550676,-0.03648732080000001,-9.633250844,2.380648144,0.57582954,1.68179474,-3.42908981,,,
imu,279.559165,-0.0245242648,-9.638634219200002,2.369283240800001,0.64312173,1.8761944,-3.35432071,,,
imu,279.567654,-0.0185427368,-9.656578803200002,2.3800499912,0.65059864,1.81637912,-3.39170526,,,
imu,279.576143,-0.0191408896,-9.6667474008,2.374666616,0.8973366700000001,1.91357895,-3.31693616,,,
imu,279.001769,,,,,,,80.9581396,-47.34565560000004,116.560464
imu,279.103332,,,,,,,80.90931080000001,-47.05268280000001,116.3041128
imu,279.204955,,,,,,,80.8726892,-47.37007000000002,116.4017704
imu,279.306426,,,,,,,80.9337252,-47.3944844,116.194248
imu,279.408019,,,,,,,83.79021,-47.89497960000002,115.7425816
imu,279.509612,,,,,,,81.470842,-46.78412440000002,116.2064552
