Type,Timestamp,Data Accelerometer X,Data Accelerometer Y,Data Accelerometer Z,Data Gyroscope X,Data Gyroscope Y,Data Gyroscope Z,Data Magnetometer X,Data Magnetometer Y,Data Magnetometer Z
imu,304.74666,0.2536167872,-9.612315496,1.9786894624,-0.77001426,16.05241576,-9.462956179999999,,,
imu,304.755123,0.2805336632,-9.664952942400001,1.9966340464,-0.30644584,15.37201695,-8.730219,,,
imu,304.763587,0.2883096496000001,-9.675719692800001,1.9822783792,-0.0522309,14.61684904,-8.22178912,,,
imu,304.77205,0.2942911776,-9.662560331200002,1.9715116288,0.20946095,13.86915804,-7.76569761,,,
imu,304.780514,0.2918985664000001,-9.634447149600001,1.985867296,0.40386061,12.97192884,-7.189975539999999,,,
imu,304.788977,0.2936930248,-9.596763523200002,1.979885768,0.52349117,11.88029998,-6.950714420000001,,,
imu,304.797441,0.2990764,-9.591978300800001,1.9727079344,1.04687487,10.81857876,-6.65163802,,,
imu,304.805905,0.2703650656,-9.5949690648,1.976895004,1.37585891,9.913872649999998,-6.337607799999999,,,
imu,304.814368,0.2548130928,-9.630260080000001,1.9607448784,1.41324346,8.88205907,-6.27779252,,,
imu,304.822832,0.2356722032,-9.648204664000001,1.9691190176,1.56278166,8.044645150000001,-5.99366994,,,
imu,304.831295,0.2308869808,-9.652989886400002,1.976895004,1.80951969,7.21470814,-5.65720899,,,
imu,304.839759,0.2171294664,-9.6494009696,1.9577541144,2.01887317,6.39224804,-5.238502029999999,,,
imu,304.848222,0.1997830352,-9.6470083584,1.9601467256,1.93662716,5.50249575,-5.14877911,,,
imu,304.856686,0.1902125904,-9.637437913600001,1.9517725864,2.13102682,4.807143119999999,-4.78241052,,,
imu,304.865149,0.1860255208,-9.644615747200001,1.95895042,2.52730305,4.126744309999999,-4.670256869999999,,,
imu,304.873613,0.1489400472,-9.667345553600002,1.9721097816,2.46001086,3.3715764,-4.61044159,,,
imu,304.882076,0.1292010048,-9.699047652,1.9673245592,2.58711833,2.82576197,-4.430995749999999,,,
imu,304.89054,0.107667504,-9.711608860800002,1.9822783792,2.51234923,2.23508608,-4.0945348,,,
imu,304.899003,0.0813487808,-9.748096181600001,1.9936432824,2.59459524,1.75656384,-3.85527368,,,
imu,304.907467,0.04725407120000001,-9.761853696000001,1.9864654488,2.4151494,1.37524143,-3.55619728,,,
imu,304.915931,0.04007623760000001,-9.767237071200002,1.9733060872,2.27308811,1.21822632,-3.25712088,,,
imu,304.924394,0.0191408896,-9.754675862400001,1.9661282536,1.93662716,1.03130357,-3.15992105,,,
imu,304.932858,0.0215335008,-9.749890640000002,1.9571559616,1.8169966,0.8518577299999999,-3.15244414,,,
imu,304.941321,0.004187069600000001,-9.745105417600001,1.9374169192,1.77961205,0.72475026,-3.16739796,,,
imu,304.949785,0.0053833752,-9.738525736800002,1.9236594048,1.73475059,0.6724118899999998,-3.32441307,,,
imu,304.958248,0.004187069600000001,-9.7283571392,1.9212667936,1.65250458,0.7097964399999999,-3.46647436,,,
imu,304.966712,-0.007775986400000001,-9.709814402400001,1.9152852656,1.6674584,0.7696117199999999,-3.62348947,,,
imu,304.975178,0.0017944584,-9.706823638400001,1.9266501688,1.87681188,0.9041961000000001,-3.68330475,,,
imu,304.983644,-0.0137575144,-9.703234721600001,1.9146871128,1.77961205,0.9714882899999999,-3.69825857,,,
imu,304.99211,0.008374139200000002,-9.676317845600002,1.8943499176,1.92915025,1.07616503,-3.81788913,,,
imu,305.000576,0.0161501256,-9.6535880392,1.8937517648,2.01887317,1.16588795,-4.00481188,,,
imu,305.009042,0.03289840400000001,-9.6260730104,1.8913591536,1.9665348,1.09859576,-4.102011709999999,,,
imu,305.017508,0.0592171272,-9.632054538400002,1.8883683896,2.46748777,0.98644211,-4.04219643,,,
imu,305.025974,0.06160973840000001,-9.644017594400001,1.89913514,2.77404108,0.76213481,-4.37118047,,,
imu,305.03444,0.07955432240000002,-9.66016772,1.8817887088,2.94601001,0.3808123999999999,-4.48333412,,,
imu,305.042907,0.0813487808,-9.640428677600001,1.8764053336,3.06564057,0.02192071999999978,-4.49081103,,,
imu,305.051373,0.08972292000000001,-9.631456385600002,1.8943499176,3.2376095,-0.2995864100000003,-4.37865738,,,
imu,305.059839,0.08314323920000001,-9.6470083584,1.8680311944,3.34976315,-0.7332471900000002,-4.23659609,,,
imu,305.068305,0.07895616960000001,-9.7193848472,1.860255208,3.51425517,-1.1145696,-4.102011709999999,,,
imu,305.076771,0.062806044,-9.7337405144,1.8823868616,3.65631646,-1.57813802,-3.84031986,,,
imu,305.085237,0.0317020984,-9.749890640000002,1.8925554592,3.41705534,-1.92207588,-3.62348947,,,
imu,305.093703,-0.003588916800000001,-9.8144911424,1.8704238056,3.25256332,-2.161337000000001,-3.37675144,,,
imu,305.102169,-0.0161501256,-9.870119352800002,1.8530773744,3.12545585,-2.37069048,-3.09262886,,,
imu,305.110635,-0.008972292000000002,-9.870717505600002,1.8560681384,2.69179507,-2.41555194,-3.01038285,,,
imu,305.119101,-0.0376836264,-9.831837573600001,1.8638441248,2.2656112,-2.34825975,-3.00290594,,,
imu,305.127567,-0.06041343280000001,-9.801929933600002,1.8680311944,1.84690424,-2.25105992,-2.86084465,,,
imu,305.136033,-0.06101158560000001,-9.803126239200001,1.851282916,1.67493531,-2.13890627,-2.71130645,,,
imu,305.1445,-0.0693857248,-9.7995373224,1.8554699856,1.42819728,-1.97441425,-2.96552139,,,
imu,305.152966,-0.05682451600000001,-9.775611210400001,1.8865739312,1.18145925,-1.84730678,-2.91318302,,,
imu,305.161432,-0.07775986400000001,-9.7128051664,1.8746108752,0.91229049,-1.58561493,-2.92065993,,,
imu,305.169898,-0.07118018320000001,-9.675121540000001,1.860255208,1.17398234,-1.428599820000001,-3.00290594,,,
imu,305.178366,-0.08733030880000002,-9.66016772,1.8506847632,1.06182869,-1.40616909,-3.21225942,,,
imu,305.186835,-0.08972292000000001,-9.652989886400002,1.8740127224,1.18145925,-1.15195415,-3.4216129,,,
imu,305.195304,-0.116639796,-9.6799067624,1.8823868616,1.49548947,-0.8977392100000001,-3.44404363,,,
imu,305.203772,-0.1130508792,-9.7606573904,1.8895646952,1.39081273,-0.68090882,-3.75807385,,,
imu,305.212241,-0.1303973104,-9.746899876,1.887172084,1.38333582,-0.4192169699999999,-3.97490424,,,
imu,305.22071,-0.1579123392,-9.6912716656,1.9116963488,1.39081273,-0.23229422,-4.012288789999999,,,
imu,305.229178,-0.173464312,-9.700243957600001,1.9272483216,1.64502767,0.3957662200000001,-3.71321239,,,
imu,305.237647,-0.1812402984,-9.736731278400002,1.9505762808,1.77213514,0.98644211,-3.27955161,,,
imu,305.246115,-0.1866236736,-9.8210708232,1.9756986984,1.80204278,1.39767216,-3.18235178,,,
imu,305.254584,-0.1626975616,-9.803126239200001,1.9404076832,1.58521239,1.86124058,-3.44404363,,,
imu,305.263053,-0.1369769912,-9.723571916800001,1.9302390856,1.15155161,2.16031698,-3.85527368,,,
imu,305.271521,-0.128602852,-9.6248767048,1.893153612,1.32352054,2.52668557,-4.33379592,,,
imu,305.27999,-0.1274065464,-9.5184055064,1.8500866104,1.71979677,2.96782326,-4.70764142,,,
imu,305.288459,-0.1309954632,-9.479525574400002,1.8441050824,2.46748777,3.38653022,-4.909517989999999,,,
imu,305.296927,-0.09989151760000002,-9.511227672800002,1.851282916,3.23013259,3.76785263,-4.887087259999999,,,
imu,305.305396,-0.07656355840000001,-9.6075302736,1.8560681384,3.8357623,4.16412886,-4.90204108,,,
imu,305.313865,-0.0532355992,-9.724170069600001,1.8614515136,3.99277741,4.51554363,-4.83474889,,,
imu,305.322333,-0.020935348,-9.7845835024,1.8405161656,3.73856247,4.56040509,-4.49081103,,,
imu,305.330802,0.0017944584,-9.7995373224,1.8267586512,3.3871477,4.567882,-4.26650373,,,
imu,305.33927,0.0101685976,-9.802528086400002,1.8165900536,2.99087147,4.46320526,-4.19173463,,,
imu,305.347739,0.0317020984,-9.801929933600002,1.800439928,2.57216451,4.2688056,-4.034719519999999,,,
imu,305.356208,0.0430670016,-9.769031529600001,1.7842898024,2.24318047,3.797760269999999,-3.93751969,,,
imu,305.364676,0.05981528000000001,-9.752283251200002,1.7699341352,1.89924261,3.51363769,-3.8702275,,,
imu,305.373145,0.0735727944,-9.773218599200002,1.791467636,1.8169966,3.13231528,-3.66835093,,,
imu,305.381961,0.0532355992,-9.789966877600001,1.803430692,1.35342818,2.64631613,-3.69825857,,,
imu,305.390776,0.06460050240000001,-9.8132948368,1.7968510112,1.00201341,2.13788625,-3.52628964,,,
imu,305.399592,0.06579680800000001,-9.813892989600001,1.8147955952,0.66555246,1.74908693,-3.25712088,,,
imu,305.408407,0.03887993200000001,-9.819276364800002,1.821375276,0.06739966,1.24065705,-3.15244414,,,
imu,305.417223,0.0275150288,-9.825257892800002,1.8130011368,-0.44103022,0.84438082,-2.96552139,,,
imu,305.426039,0.0167482784,-9.801929933600002,1.800439928,-0.68029134,0.6574580699999997,-2.49447606,,,
imu,305.434854,0.005981528000000001,-9.7492924872,1.7872805664,-0.88964482,0.4032431299999999,-2.03838455,,,
imu,305.44367,0.0023926112,-9.699047652,1.7783082744,-0.8522602699999999,0.2387511099999999,-1.73930815,,,
imu,305.452485,0.002990764,-9.647606511200001,1.7753175104,-0.41859949,0.1490281899999997,-1.43275484,,,
imu,304.755323,,,,,,,78.9927804,-37.51885960000001,130.0738344
imu,304.857069,,,,,,,78.0284116,-37.18926520000001,130.4278432
imu,305.461196,0.003588916800000001,-9.631456385600002,1.7747193576,0.08983038999999998,-0.03789456000000024,-1.35050883,,,
imu,305.470012,0.0053833752,-9.6799067624,1.7729248992,0.5982602699999999,-0.25472495,-1.58229304,,,
imu,305.478827,-0.009570444800000001,-9.7325442088,1.797449164,0.8749059399999999,-0.4640784300000003,-1.86641562,,,
imu,305.487643,-0.026916876,-9.6918698184,1.7998417752,0.88985976,-0.5089398900000002,-2.001,,,
imu,305.496459,-0.0340947096,-9.6709344704,1.82436604,0.97958268,-0.6958626400000001,-2.28512258,,,
imu,305.505274,-0.03110394560000001,-9.721179305600002,1.833338332,1.0693056,-0.6285704500000002,-2.2253073,,,
imu,305.51409,-0.06519865520000001,-9.7403201952,1.82436604,1.12164397,-0.43417079,-2.05333837,,,
imu,305.522905,-0.0753672528,-9.7504887928,1.8321420264,1.08425942,-0.25472495,-1.82155416,,,
imu,305.531721,-0.068787572,-9.752283251200002,1.8315438736,0.8973366700000001,0.06678217999999969,-1.82903107,,,
imu,305.540537,-0.0735727944,-9.734936820000001,1.8351327904,0.8674290299999999,0.1639820099999998,-1.73183124,,,
imu,305.549352,-0.0681894192,-9.741516500800001,1.842310624,0.8375213899999999,0.41819695,-1.69444669,,,
imu,305.558168,-0.07177833600000001,-9.722375611200002,1.8207771232,0.73284465,0.4854891399999999,-1.84398489,,,
imu,305.566983,-0.08194693360000001,-9.679308609600001,1.818384512,0.6132140899999999,0.64250425,-2.00847691,,,
imu,305.575799,-0.07656355840000001,-9.655980650400002,1.8010380808,0.620691,0.9041961000000001,-2.13558438,,,
imu,305.584272,-0.0747691,-9.662560331200002,1.8285531096,0.88985976,1.06868812,-2.12810747,,,
imu,305.592744,-0.06400234960000001,-9.681103068,1.8399180128,1.02444414,1.2780416,-2.18044584,,,
imu,305.601216,-0.0514411408,-9.682299373600001,1.83931986,0.97210577,1.55468727,-2.32250713,,,
imu,305.609689,-0.04605776560000001,-9.6918698184,1.8464976936,1.13659779,1.89862513,-2.17296893,,,
imu,305.618161,-0.04246884880000001,-9.706823638400001,1.8680311944,1.11416706,2.11545552,-2.12810747,,,
imu,305.626634,-0.0245242648,-9.709216249600003,1.8704238056,1.17398234,2.41453192,-1.91127708,,,
imu,305.635106,-0.0131593616,-9.6912716656,1.863245972,1.22632071,2.64631613,-1.79164652,,,
imu,305.643579,-0.004187069600000001,-9.671532623200001,1.8668348888,1.21136689,2.72856214,-1.80660034,,,
imu,305.652051,0.008374139200000002,-9.683495679200002,1.8674330416,1.27118217,2.81828506,-1.68696978,,,
imu,305.660523,0.0203371952,-9.706823638400001,1.8668348888,1.46558183,2.93791562,-1.69444669,,,
imu,305.668996,0.04366515440000001,-9.715795930400002,1.8644422776,1.63007385,3.19213056,-1.63463141,,,
imu,305.677468,0.0442633072,-9.706823638400001,1.8476939992,1.87681188,3.28185348,-1.6271545,,,
imu,305.685941,0.06998387760000001,-9.7008421104,1.8441050824,1.94410407,3.2220382,-1.71687742,,,
imu,305.694413,0.080750628,-9.709814402400001,1.848292152,2.01887317,3.18465365,-1.76173888,,,
imu,305.702886,0.09630260080000001,-9.716992236000001,1.8417124712,1.92167334,3.01268472,-1.76173888,,,
imu,305.711358,0.1190324072,-9.690075360000002,1.8351327904,1.93662716,2.85566961,-1.76921579,,,
imu,305.719831,0.1309954632,-9.682897526400001,1.8405161656,2.06373463,2.75099287,-1.7019236,,,
imu,305.728303,0.1417622136,-9.66016772,1.836329096,2.0413039,2.52668557,-1.53743158,,,
imu,305.736775,0.1501363528,-9.6470083584,1.8405161656,2.28056502,2.35471664,-1.61220068,,,
imu,305.745248,0.155519728,-9.655980650400002,1.845301388,2.36281103,2.1005017,-1.65706214,,,
imu,305.75372,0.1507345056,-9.652989886400002,1.8345346376,2.37028794,1.68179474,-1.7019236,,,
imu,305.762193,0.1339862272,-9.635643455200002,1.8447032352,2.4899185,1.31542615,-1.85893871,,,
imu,305.770665,0.1202287128,-9.665551095200001,1.8578625968,2.53477996,1.00887284,-1.68696978,,,
imu,305.779138,0.107667504,-9.697253193600002,1.8500866104,2.74413344,0.7696117199999999,-1.61967759,,,
imu,305.7876,0.10467674,-9.6817012208,1.8488903048,2.77404108,0.4929660499999997,-1.43275484,,,
imu,305.796062,0.1202287128,-9.644615747200001,1.8387217072,2.81890254,0.3135202100000001,-1.31312428,,,
imu,305.804525,0.1214250184,-9.618297024,1.8339364848,2.9385331,0.2312741999999997,-1.09629389,,,
imu,305.812987,0.1160416432,-9.6494009696,1.8052251504,3.31985551,-0.0005100100000001717,-0.88694041,,,
imu,305.821449,0.1262102408,-9.6637566368,1.788476872,3.589024269999999,-0.1650020300000001,-0.8046943999999998,,,
imu,305.829911,0.1214250184,-9.6494009696,1.8040288448,3.82828539,-0.3818324200000003,-0.79721749,,,
imu,305.838374,0.1369769912,-9.665551095200001,1.7986454696,4.25446926,-0.5164168,-0.8121713099999999,,,
imu,305.846836,0.1142471848,-9.6637566368,1.7812990384,4.71056077,-0.68090882,-0.7299252999999999,,,
imu,305.855298,0.1160416432,-9.688280901600002,1.7753175104,4.97972953,-0.7781086500000001,-0.5654332799999999,,,
imu,305.86376,0.1040785872,-9.7301515976,1.7681396768,5.22646756,-0.80053938,-0.57291019,,,
imu,305.872223,0.092713684,-9.752881404000002,1.7591673848,5.17412919,-0.94260067,-0.6925407499999998,,,
imu,305.880685,0.09510629520000001,-9.766638918400002,1.7609618432,5.24142138,-0.9276468500000004,-0.57291019,,,
imu,305.889147,0.08433954480000001,-9.7821908912,1.7370357312,5.07692936,-0.9500775800000003,-0.43832581,,,
imu,305.897609,0.08673215600000002,-9.8061170032,1.7178948416,4.72551459,-0.9725083100000003,-0.3859874399999998,,,
imu,305.906072,0.107667504,-9.8228652816,1.7035391744,4.41896128,-0.76315483,-0.4233719899999999,,,
imu,305.914534,0.10467674,-9.800733628000001,1.6832019792,4.32176145,-0.5687551700000002,-0.32617216,,,
imu,305.922996,0.11963056,-9.792957641600001,1.6646592424,4.11988488,-0.4117400600000001,-0.4458027199999999,,,
imu,305.931459,0.128602852,-9.815687448000002,1.6449202,3.94043904,-0.2622018600000002,-0.6402023799999998,,,
imu,305.939921,0.1351825328,-9.8198745176,1.6514998808,3.55911663,-0.1575251200000003,-0.93927878,,,
imu,305.948383,0.1274065464,-9.819276364800002,1.6646592424,3.12545585,-0.02294074000000013,-1.3280781,,,
imu,305.956845,0.1244157824,-9.853371074400002,1.6712389232,2.863764,0.1191205499999999,-1.5523854,,,
imu,305.965308,0.1022841288,-9.859950755200002,1.6634629368,2.49739541,0.2537049300000001,-1.67201596,,,
imu,305.97377,0.09989151760000002,-9.818678212000002,1.6520980336,1.93662716,0.4854891399999999,-1.93370781,,,
imu,305.982232,0.1178361016,-9.769629682400002,1.6413312832,1.53287402,0.7397040799999997,-2.35989168,,,
imu,305.9907,0.1130508792,-9.7403201952,1.647910964,1.368382,0.9041961000000001,-2.68139881,,,
imu,305.999167,0.1154434904,-9.772620446400001,1.650901728,1.31604363,1.18831868,-2.77859864,,,
imu,306.007634,0.1130508792,-9.801929933600002,1.6431257416,1.33847436,1.39767216,-3.01038285,,,
imu,306.016102,0.1130508792,-9.7786019744,1.6556869504,1.13659779,1.5023489,-3.18982869,,,
imu,306.024569,0.1064711984,-9.7474980288,1.6706407704,1.03192105,1.77151766,-3.36927453,,,
imu,306.033036,0.1124527264,-9.759461084800002,1.680809368,1.01696723,2.07059406,-3.26459779,,,
imu,306.041504,0.1238176296,-9.797144711200001,1.6849964376,1.00949032,2.22013226,-3.21973633,,,
imu,306.049971,0.1297991576,-9.821668976000002,1.6616684784,0.9197674,2.41453192,-3.21225942,,,
imu,306.058438,0.1549215752,-9.8013317808,1.6562851032,0.7104139199999999,2.48182411,-3.33936689,,,
imu,306.066906,0.1710717008,-9.758264779200001,1.6730333816,0.63564482,2.55659321,-3.48890509,,,
imu,306.075373,0.188418132,-9.7331423616,1.6652573952,0.59078336,2.64631613,-3.65339711,,,
imu,306.08384,0.182436604,-9.736731278400002,1.6700426176,0.64312173,2.50425484,-3.78050458,,,
imu,306.092308,0.1812402984,-9.746301723200002,1.6580795616,0.78518302,2.50425484,-3.78798149,,,
imu,306.100775,0.1788476872,-9.769031529600001,1.6562851032,0.6281679099999999,2.49677793,-3.7954584,,,
imu,306.109243,0.1776513816,-9.7809945856,1.6712389232,0.32909151,2.42200883,-3.87770441,,,
imu,306.11771,0.1836329096,-9.7809945856,1.668846312,0.3216146,2.27247063,-3.98985806,,,
imu,306.126177,0.182436604,-9.798341016800002,1.6766222984,0.16459949,2.1752708,-4.13191935,,,
imu,306.134645,0.16449202,-9.776209363200001,1.677818604,-0.06718472,2.15284007,-4.00481188,,,
imu,306.143112,0.1686790896,-9.7504887928,1.6670518536,-0.3513073,1.92853277,-3.95995042,,,
imu,306.151579,0.1710717008,-9.741516500800001,1.6843982848,-0.45598404,1.71170238,-3.96742733,,,
imu,306.160047,0.1531271168,-9.737927584000001,1.6885853544,-0.59056842,1.74161002,-3.88518132,,,
imu,306.168514,0.1489400472,-9.748694334400001,1.6981557992,-0.65786061,1.68927165,-3.87770441,,,
imu,306.176981,0.1495382,-9.767835224,1.7065299384,-0.47841477,1.56216418,-3.76555076,,,
imu,306.185449,0.152528964,-9.7606573904,1.7196893,-0.6279529699999999,1.37524143,-3.75807385,,,
imu,306.193921,0.1477437416,-9.743909112,1.7214837584,-0.68029134,1.30047233,-3.78798149,,,
imu,306.202394,0.1321917688,-9.727160833600001,1.7304560504,-0.63542988,1.2780416,-3.6459202,,,
imu,306.210866,0.1184342544,-9.7163940832,1.7352412728,-0.58309151,1.13598031,-3.51133582,,,
imu,306.219339,0.1022841288,-9.7361331256,1.7358394256,-0.5756146,1.02382666,-3.45152054,,,
imu,306.227811,0.0903210728,-9.759461084800002,1.7364375784,-0.5681376899999999,1.18831868,-3.45899745,,,
imu,306.236283,0.07955432240000002,-9.764246307200002,1.7328486616,-0.50832241,1.36028761,-3.29450543,,,
imu,306.244756,0.07656355840000001,-9.764246307200002,1.7418209536,-0.5307531400000001,1.47244126,-3.20478251,,,
imu,306.253228,0.0675912664,-9.756470320800002,1.7328486616,-0.51579932,1.36776452,-3.18982869,,,
imu,306.261701,0.08015247520000002,-9.738525736800002,1.740624648,-0.68776825,1.68927165,-3.24216706,,,
imu,306.270173,0.06400234960000001,-9.751685098400001,1.7567747736,-0.85973718,2.01825569,-3.18982869,,,
imu,304.958353,,,,,,,78.3213844,-37.50665240000002,129.1460872
imu,305.061472,,,,,,,78.3213844,-37.15264360000001,129.4268528
imu,305.161508,,,,,,,78.6509788,-37.54327400000002,129.2071232
imu,305.265329,,,,,,,80.8238604,-37.65313880000001,128.9873936
imu,305.364603,,,,,,,79.1758884,-37.27471560000002,128.8409072
imu,305.466165,,,,,,,81.4220132,-38.34894920000001,126.8389264
imu,305.567789,,,,,,,79.21251000000001,-37.83624680000002,129.43906
imu,305.66929,,,,,,,81.6417428,-38.43439960000001,126.7046472
imu,306.278646,0.08673215600000002,-9.793555794400001,1.7609618432,-0.85973718,2.1752708,-3.18982869,,,
imu,306.287118,0.113649032,-9.772022293600001,1.7531858568,-0.9644139199999999,2.42200883,-3.23469015,,,
imu,306.29559,0.1238176296,-9.685290137600001,1.7412228008,-1.03918302,2.63883922,-3.26459779,,,
imu,306.304063,0.1411640608,-9.6260730104,1.7519895512,-1.06161375,2.61640849,-3.45152054,,,
imu,306.312535,0.1417622136,-9.6260730104,1.770532288,-0.88964482,2.66126995,-3.51133582,,,
imu,306.321008,0.1507345056,-9.673925234400002,1.7842898024,-0.6279529699999999,2.51920866,-3.59358183,,,
imu,306.32948,0.1680809368,-9.700243957600001,1.7777101216,-0.33635348,2.59397776,-3.45152054,,,
imu,306.337953,0.155519728,-9.6954587352,1.7944584,-0.20924601,2.60893158,-3.48890509,,,
imu,306.346425,0.1567160336,-9.699645804800001,1.7902713304,-0.25410747,2.6238854,-3.47395127,,,
imu,306.354898,0.1597067976,-9.693066124000001,1.785486108,-0.17933837,2.57154703,-3.46647436,,,
imu,306.36337,0.167482784,-9.6733270816,1.7807008856,-0.11204618,2.38462428,-3.32441307,,,
imu,306.371842,0.1692772424,-9.655980650400002,1.776513816,-0.09709236,2.24256299,-3.39918217,,,
imu,306.380315,0.1710717008,-9.644615747200001,1.76455076,0.10478421,2.15284007,-3.33936689,,,
imu,306.388787,0.1740624648,-9.6643547896,1.7633544544,0.51601426,2.04816333,-3.43656672,,,
imu,306.397604,0.1842310624,-9.669140012000002,1.7633544544,0.6281679099999999,1.62945637,-3.48142818,,,
imu,306.406421,0.1668846312,-9.6775141512,1.7693359824,0.7702292,1.4275798,-3.42908981,,,
imu,306.415238,0.1561178808,-9.696056888000001,1.7711304408,0.74779847,1.30047233,-3.33188998,,,
imu,306.424055,0.1303973104,-9.731946056000002,1.7723267464,0.82256757,1.23318014,-3.33936689,,,
imu,306.432872,0.1064711984,-9.7283571392,1.7699341352,0.7403215599999999,1.21822632,-3.26459779,,,
imu,306.441689,0.08194693360000001,-9.7283571392,1.7651489128,0.66555246,1.17336486,-3.1225365,,,
imu,306.450506,0.0663949608,-9.731347903200001,1.74959694,0.620691,1.31542615,-2.99542903,,,
imu,306.459323,0.0514411408,-9.7265626808,1.7507932456,0.6132140899999999,1.45748744,-2.85336774,,,
imu,306.46814,0.0466559184,-9.7283571392,1.7478024816,0.3739529699999999,1.70422547,-2.83093701,,,
imu,306.476957,0.0592171272,-9.736731278400002,1.7621581488,0.53844499,2.00330187,-2.53186061,,,
imu,306.485774,0.06460050240000001,-9.748694334400001,1.7681396768,0.52349117,2.28742445,-2.24026112,,,
imu,306.49459,0.0747691,-9.767237071200002,1.7759156632,0.29170696,2.5491163,-2.31503022,,,
imu,306.503407,0.1112564208,-9.783985349600002,1.785486108,0.14216876,2.78090051,-2.14306129,,,
imu,306.512224,0.1477437416,-9.805518850400002,1.7866824136,-0.01484635000000001,2.87062343,-2.09072292,,,
imu,306.521041,0.155519728,-9.803126239200001,1.7872805664,-0.4260764,2.96034635,-2.24026112,,,
imu,306.529858,0.1776513816,-9.8043225448,1.8016362336,-0.73262971,3.05754618,-2.31503022,,,
imu,306.538675,0.197390424,-9.824659740000001,1.7908694832,-1.01675229,3.00520781,-2.25521494,,,
imu,306.547492,0.2099516328,-9.855165532800001,1.7962528584,-1.24105959,3.05006927,-2.30755331,,,
imu,306.556232,0.2189239248,-9.858754449600001,1.7968510112,-1.65976655,3.19960747,-2.2253073,,,
imu,306.565049,0.221316536,-9.858754449600001,1.797449164,-2.39250373,3.02763854,-2.17296893,,,
imu,306.573866,0.2308869808,-9.825856045600002,1.7747193576,-2.77382614,2.93043871,-2.21035348,,,
imu,306.582683,0.2320832864,-9.776807516000002,1.7777101216,-3.25982529,2.90053107,-2.23278421,,,
imu,306.5915,0.2494297176,-9.7337405144,1.7836916496,-3.51404023,2.79585433,-2.02343073,,,
imu,306.599969,0.2380648144,-9.725366375200002,1.7759156632,-3.55890169,2.68370068,-2.11315365,,,
imu,306.608437,0.233279592,-9.7403201952,1.8141974424,-3.73834753,2.51920866,-2.18044584,,,
imu,306.616906,0.2356722032,-9.7122070136,1.8106085256,-3.88040882,2.36219355,-2.33746095,,,
imu,306.625375,0.2255036056,-9.675719692800001,1.8082159144,-3.760778259999999,2.27247063,-2.33746095,,,
imu,306.633843,0.2105497856,-9.665551095200001,1.8261604984,-3.58880933,2.23508608,-2.49447606,,,
imu,306.642312,0.1985867296,-9.639830524800002,1.8321420264,-3.4168404,2.27994754,-2.57672207,,,
imu,306.65078,0.1806421456,-9.648204664000001,1.8399180128,-3.13271782,2.30237827,-2.62906044,,,
imu,306.659249,0.1537252696,-9.6535880392,1.8626478192,-2.93084125,2.43696265,-2.79355246,,,
imu,306.667718,0.1429585192,-9.633848996800001,1.8877702368,-2.68410322,2.56407012,-2.69635263,,,
imu,306.676186,0.1202287128,-9.636241608,1.8829850144,-2.370073,2.96782326,-2.71878336,,,
imu,306.684655,0.1040785872,-9.626671163200001,1.8979388344,-2.16819643,3.15474601,-2.74121409,,,
imu,306.693124,0.09749890640000002,-9.635643455200002,1.905116668,-2.01865823,3.45382241,-2.76364482,,,
imu,306.701592,0.1022841288,-9.648802816800002,1.9218649464,-1.622382,3.8949601,-2.74121409,,,
imu,306.710061,0.1190324072,-9.664952942400001,1.9122945016,-1.37564397,4.08935976,-2.62158353,,,
imu,306.71853,0.1501363528,-9.667345553600002,1.9242575576,-1.13638285,4.35105161,-2.65896808,,,
imu,306.726998,0.167482784,-9.694860582400002,1.9302390856,-0.94198319,4.62022037,-2.95056757,,,
imu,306.735467,0.1686790896,-9.743909112,1.9439966,-0.9494601,4.82209694,-3.11505959,,,
imu,306.743935,0.19439966,-9.769031529600001,1.9344261552,-1.23358268,4.7921893,-3.14496723,,,
imu,306.752404,0.1890162848,-9.745703570400002,1.9338280024,-1.39059779,4.739850929999999,-3.18235178,,,
imu,306.760873,0.1830347568,-9.7337405144,1.932033544,-1.53265908,4.70246638,-3.24964397,,,
imu,306.769341,0.185427368,-9.7534795568,1.9439966,-1.75696638,4.76975857,-3.21973633,,,
imu,306.77781,0.176455076,-9.766040765600001,1.9505762808,-1.78687402,4.68751256,-3.07019813,,,
imu,306.786279,0.1698753952,-9.7845835024,1.9457910584,-2.01118132,4.739850929999999,-3.18235178,,,
imu,306.794747,0.1710717008,-9.7995373224,1.9583522672,-2.30278081,4.68751256,-3.22721324,,,
imu,306.803207,0.167482784,-9.776209363200001,1.967922712,-2.7439185,4.717420199999999,-3.10758268,,,
imu,306.811667,0.1507345056,-9.7702278352,1.95895042,-2.93084125,4.837050759999999,-3.02533667,,,
imu,306.820126,0.1603049504,-9.746301723200002,1.952968892,-3.22991765,4.70246638,-3.01038285,,,
imu,306.828586,0.1591086448,-9.685290137600001,1.9404076832,-3.40936349,4.8669584,-2.8234601,,,
imu,306.837046,0.161501256,-9.613511801600001,1.9404076832,-3.43179422,5.091265699999999,-2.77859864,,,
imu,306.845506,0.1662864784,-9.6087265792,1.9475855168,-3.476655679999999,5.18846553,-2.83093701,,,
imu,306.853965,0.1579123392,-9.657775108800001,1.9697171704,-3.29720984,5.18846553,-2.92813684,,,
imu,306.862425,0.13458438,-9.711010708000002,1.9900543656,-3.31216366,5.21837317,-2.99542903,,,
imu,306.870885,0.09929336480000002,-9.793555794400001,2.0444862704,-3.34954821,5.20341935,-3.21973633,,,
imu,306.879344,0.06101158560000001,-9.834828337600001,2.07858098,-3.6411477,5.58474176,-3.21225942,,,
imu,306.887804,0.03648732080000001,-9.8264541984,2.0827680496,-3.91031646,6.14551001,-3.13749032,,,
imu,306.896264,0.011963056,-9.803126239200001,2.0803754384,-4.560807629999999,6.751139719999999,-3.16739796,,,
imu,306.904724,0.0023926112,-9.796546558400001,2.0947311056,-4.82997639,7.51378454,-3.39918217,,,
imu,306.913183,-0.0155519728,-9.7474980288,2.07858098,-5.129052789999999,8.2315679,-3.54872037,,,
imu,306.921643,-0.068787572,-9.701440263200002,2.069608688,-5.16643734,9.09141255,-3.85527368,,,
imu,306.930103,-0.1573141864,-9.681103068,2.1150683008,-5.27859099,10.18304141,-3.99733497,,,
imu,306.938563,-0.2099516328,-9.697851346400002,2.1395925656,-5.56271357,11.60365431,-4.22911918,,,
imu,306.947022,-0.2763465936,-9.752881404000002,2.126433204,-5.884220699999999,13.23362069,-4.74502597,,,
imu,306.955482,-0.3014690112,-9.746899876,2.111479384,-6.41508131,15.27481712,-5.48524006,,,
imu,306.963942,-0.2853188856,-9.666149248000002,2.0809735912,-6.96089574,17.51789012,-6.34508471,,,
imu,306.972401,-0.2296906752000001,-9.657176956,2.096525564,-7.327264329999999,19.69367093,-7.10772953,,,
imu,306.980861,-0.1908107432,-9.667943706400001,2.0809735912,-7.59643309,21.72739045,-8.042343279999999,,,
imu,306.989321,-0.1303973104,-9.632054538400002,2.0522622568,-7.798309659999999,23.61157177,-9.35827944,,,
imu,306.997781,-0.101685976,-9.562070660800002,2.042691812,-7.843171119999999,25.31630725,-10.7489847,,,
imu,307.006243,-0.06220789120000001,-9.5237888816,2.072599452,-7.753448199999999,26.6995356,-11.88547502,,,
imu,307.014705,-0.0263187232,-9.547116840800001,2.0923384944,-7.304833599999999,27.88088738,-12.77522731,,,
imu,307.023167,0.0065796808,-9.565061424800001,2.0971237168,-6.93846501,28.89027023,-13.67993342,,,
imu,307.03163,0.05084298800000001,-9.544126076800001,2.10848862,-6.572096419999999,29.6902996,-14.56968571,,,
imu,307.040092,0.0933118368,-9.485507102400002,2.1258350512,-6.2580662,30.39312914,-14.80146992,,,
imu,307.048554,0.1597067976,-9.4831144912,2.1659112888,-5.77954396,30.84922065,-14.8612852,,,
imu,307.057017,0.2147368552,-9.499264616800001,2.1641168304,-5.196344979999999,30.93146666,-15.0108234,,,
imu,307.065479,0.23926112,-9.4944793944,2.1497611632,-4.560807629999999,30.78940537,-15.16783851,,,
imu,307.073941,0.2428500368,-9.5010590752,2.186248484,-3.96265483,30.61743644,-14.91362357,,,
imu,307.082403,0.257205704,-9.5357519376,2.2155579712,-3.32711748,30.20620639,-14.40519369,,,
imu,307.090866,0.2578038568000001,-9.561472508000001,2.2077819848,-2.46727283,29.83236089,-13.58273359,,,
imu,305.770883,,,,,,,79.21251000000001,-37.59210280000001,130.04942
imu,305.872446,,,,,,,79.2369244,-37.2258868,129.4146456
imu,305.973978,,,,,,,79.4078252,-37.82403960000001,129.9761768
imu,306.075693,,,,,,,79.7496268,-37.93390440000002,130.232528
imu,306.177103,,,,,,,80.189086,-37.82403960000001,129.2925736
imu,306.278696,,,,,,,79.92052759999999,-37.89728280000002,129.4268528
imu,306.380258,,,,,,,79.92052759999999,-37.18926520000001,130.3668072
imu,306.481882,,,,,,,81.9347156,-38.47102120000001,127.4737008
imu,307.099328,0.2398592728,-9.609922884800001,2.219146888,-1.77939711,29.30897719,-12.90981169,,,
imu,307.10779,0.2237091472,-9.565061424800001,2.208978290400001,-1.59995127,28.83793186,-12.41633563,,,
imu,307.116252,0.245242648,-9.5082369088,2.204193068,-1.36069015,28.46408636,-11.77332137,,,
imu,307.124715,0.2560093984,-9.496872005600002,2.2107727488,-0.84478336,27.94817957,-11.08544565,,,
imu,307.133177,0.2763465936,-9.513022131200001,2.19821154,-0.35878421,27.24535003,-10.5994465,,,
imu,307.141639,0.2835244272,-9.5004609224,2.1898374008,0.25432241,26.5499974,-10.20317027,,,
imu,307.150101,0.281131816,-9.505246144800001,2.1898374008,0.80013684,25.88455241,-9.87418623,,,
imu,307.158564,0.2775428992,-9.499264616800001,2.195220776,1.368382,25.16676905,-9.38818708,,,
imu,307.167026,0.2733558296,-9.519601812000001,2.1910337064,2.01139626,24.61347771,-8.8049881,,,
imu,307.175488,0.2853188856,-9.552500216,2.22811918,2.57964142,24.03775564,-8.23674294,,,
imu,307.183951,0.3068523864000001,-9.6159044128,2.2448674584,3.0133022,23.35735683,-7.6834516,,,
imu,307.192413,0.3481249296000001,-9.699645804800001,2.2442693056,3.10302512,22.69191184,-7.18249863,,,
imu,307.200875,0.382817792,-9.7265626808,2.2305117912,2.85628709,21.70495972,-6.726407119999999,,,
imu,307.209695,0.4222958768,-9.734338667200001,2.243073,2.67684125,20.77034597,-6.21797724,,,
imu,307.218514,0.4456238360000001,-9.754675862400001,2.2442693056,2.28804193,19.31982543,-6.17311578,,,
imu,307.227334,0.4450256832000001,-9.7474980288,2.222735804800001,1.85438115,17.79453579,-6.031054489999999,,,
imu,307.236153,0.43366078,-9.7122070136,2.19821154,1.57773548,16.36644598,-5.57496298,,,
imu,307.244973,0.4252866408000001,-9.669140012000002,2.1689020528,1.34595127,14.92340235,-5.216071299999999,,,
imu,307.253793,0.4001642232,-9.611119190400002,2.1497611632,1.49548947,13.54765091,-4.887087259999999,,,
imu,307.262612,0.3714528888,-9.575230022400001,2.150359316,1.57773548,12.46349896,-4.430995749999999,,,
imu,307.271432,0.3337692624,-9.5590798968,2.1844540256,1.92915025,11.4466392,-4.00481188,,,
imu,307.280251,0.3002727056,-9.588987536800001,2.1928281648,2.43010322,10.34005652,-3.54124346,,,
imu,307.289071,0.266177996,-9.635045302400002,2.188042942400001,2.66188743,9.323196759999998,-3.2720747,,,
imu,307.29789,0.2105497856,-9.662560331200002,2.1724909696,2.54225687,8.56055194,-3.18235178,,,
imu,307.30671,0.1638938672,-9.6637566368,2.1718928168,2.53477996,7.999783689999999,-2.90570611,,,
imu,307.31553,0.1656883256,-9.715795930400002,2.195220776,2.6394567,7.68575347,-2.51690679,,,
imu,307.324349,0.1638938672,-9.727758986400001,2.1724909696,2.60207215,7.32686179,-2.3000764,,,
imu,307.333169,0.1513326584,-9.706823638400001,2.1521537744,2.2656112,7.13993904,-2.21035348,,,
imu,307.341988,0.1567160336,-9.6912716656,2.1467703992,2.18336519,6.885724099999999,-2.09819983,,,
imu,307.350808,0.16449202,-9.693664276800002,2.1371999544,2.10859609,6.564216969999999,-2.16549202,,,
imu,307.359628,0.1513326584,-9.6918698184,2.126433204,2.27308811,6.41467877,-2.03838455,,,
imu,307.368447,0.1561178808,-9.703832874400002,2.1360036488,2.35533412,6.138033099999999,-2.05333837,,,
imu,307.377267,0.170473548,-9.723571916800001,2.1240405928,2.22822665,5.99597181,-2.01595382,,,
imu,307.386086,0.1531271168,-9.722375611200002,2.1156664536,2.116073,5.7641876,-1.97856927,,,
imu,307.394906,0.1638938672,-9.715795930400002,2.1096849256,1.9665348,5.681941589999999,-1.88884635,,,
imu,307.403725,0.1800439928,-9.688879054400001,2.0761883688,1.71979677,5.49501884,-1.91875399,,,
imu,307.412207,0.1902125904,-9.682897526400001,2.0791791328,1.69736604,5.18846553,-1.81407725,,,
imu,307.420688,0.203371952,-9.664952942400001,2.0821698968,1.82447351,4.77723548,-1.66453905,,,
imu,307.429169,0.2195220776,-9.6505972752,2.0797772856,1.73475059,4.40338998,-1.65706214,,,
imu,307.437651,0.2237091472,-9.657176956,2.0779828272,1.77213514,4.02954448,-1.53743158,,,
imu,307.446132,0.2290925224000001,-9.672130776000001,2.0702068408,1.85438115,3.49120696,-1.41780102,,,
imu,307.454613,0.2308869808,-9.651793580800001,2.060636396,1.80204278,3.08745382,-1.41780102,,,
imu,307.463095,0.2290925224000001,-9.6326526912,2.0558511736,1.93662716,2.66126995,-1.41032411,,,
imu,307.471576,0.2326814392,-9.638634219200002,2.0642253128,2.32542648,2.3995781,-1.14115535,,,
imu,307.480058,0.2284943696,-9.6733270816,2.0618327016,2.39271867,2.13788625,-1.05890934,,,
imu,307.488539,0.2129423968,-9.751685098400001,2.0959274112,2.28804193,1.91357895,-1.1037708,,,
imu,307.49702,0.1926052016,-9.8264541984,2.1330128848,2.20579592,1.71170238,-1.06638625,,,
imu,307.505502,0.1609031032,-9.878493492,2.1330128848,1.64502767,1.56216418,-1.1785399,,,
imu,307.513983,0.1303973104,-9.878493492,2.1156664536,0.83004448,1.70422547,-1.33555501,,,
imu,307.522464,0.1178361016,-9.832435726400002,2.0923384944,-0.01484635000000001,1.92105586,-1.48509321,,,
imu,307.530946,0.1100601152,-9.801929933600002,2.0582437848,-0.76253735,2.19770153,-1.72435433,,,
imu,307.539427,0.09390998960000001,-9.758862932000001,2.0737957576,-1.26349032,2.51920866,-2.05333837,,,
imu,307.547908,0.0933118368,-9.694860582400002,2.0821698968,-1.48779762,3.03511545,-2.19539966,,,
imu,307.55639,0.1052748928,-9.621287788000002,2.0959274112,-1.46536689,3.56597606,-2.25521494,,,
imu,307.564871,0.1268083936,-9.595567217600001,2.111479384,-1.3233056,4.11179049,-2.43466078,,,
imu,307.573352,0.1220231712,-9.6117173432,2.13839626,-1.19619813,4.42582071,-2.71878336,,,
imu,307.581834,0.1321917688,-9.630260080000001,2.130022120800001,-0.91955246,4.837050759999999,-2.88327538,,,
imu,307.590315,0.1369769912,-9.596763523200002,2.1659112888,-0.79244499,5.19594244,-2.98047521,,,
imu,307.598796,0.1489400472,-9.5842023144,2.1838558728,-0.73262971,5.45763429,-3.24964397,,,
imu,307.607278,0.155519728,-9.594370912,2.2059875264,-0.65786061,5.57726485,-3.26459779,,,
imu,307.615739,0.173464312,-9.609324732000001,2.2329044024,-0.40364567,5.80157215,-3.07019813,,,
imu,307.6242,0.2015774936,-9.6224840936,2.2293154856,-0.52327623,5.92867962,-2.80102937,,,
imu,307.632661,0.2524204816,-9.6290637744,2.2095764432,-0.48589168,6.16794074,-2.50942988,,,
imu,307.641122,0.2733558296,-9.6075302736,2.2000059984,-0.3513073,6.07074091,-2.28512258,,,
imu,307.649515,0.3026653168,-9.590183842400002,2.1976133872,-0.17186146,5.7641876,-2.2253073,,,
imu,307.657976,0.3247969704000001,-9.5842023144,2.19821154,0.17955331,5.592218669999999,-2.28512258,,,
imu,307.666437,0.3277877344,-9.5812115504,2.1868466368,0.31413769,5.285665359999999,-2.39727623,,,
imu,307.674898,0.3182172896000001,-9.626671163200001,2.2155579712,0.50853735,4.807143119999999,-2.62906044,,,
imu,307.683359,0.281131816,-9.6745233872,2.2155579712,0.7702292,4.523020539999999,-2.68139881,,,
imu,307.69182,0.2404574256,-9.673925234400002,2.2065856792,0.81509066,4.22394414,-2.86832156,,,
imu,307.700281,0.1860255208,-9.630858232800001,2.2107727488,0.73284465,4.22394414,-2.8982292,,,
imu,307.708742,0.1519308112,-9.596763523200002,2.2125672072,0.6954601,4.523020539999999,-2.54681443,,,
imu,307.717203,0.1393696024,-9.599156134400001,2.2125672072,0.68798319,4.85948149,-2.09819983,,,
imu,307.725664,0.1184342544,-9.647606511200001,2.1946226232,0.79265993,5.136127159999999,-1.96361545,,,
imu,307.734125,0.1172379488,-9.636241608,2.1826595672,0.8823828499999999,5.48754193,-2.14306129,,,
imu,307.742586,0.11963056,-9.6224840936,2.1718928168,1.09173633,5.921202709999999,-2.20287657,,,
imu,307.751047,0.1274065464,-9.638036066400002,2.15335008,1.15155161,6.272617479999999,-2.50942988,,,
imu,307.759508,0.1381732968,-9.631456385600002,2.1395925656,1.41324346,6.85581646,-2.6739219,,,
imu,307.767969,0.161501256,-9.618895176800002,2.1366018016,1.57025857,7.13993904,-2.83841392,,,
imu,307.77643,0.19439966,-9.609922884800001,2.1377981072,1.72727368,7.439015439999999,-2.99542903,,,
imu,307.784891,0.2081571744,-9.637437913600001,2.1407888712,1.88428879,7.57359982,-3.09262886,,,
imu,307.793352,0.200381188,-9.6709344704,2.1395925656,1.8169966,7.61098437,-3.13749032,,,
imu,307.801813,0.137575144,-9.6876827488,2.1276295096,1.63007385,7.76052257,-2.96552139,,,
imu,307.810274,0.11963056,-9.7074217912,2.1330128848,1.48053565,8.08950661,-2.9729983,,,
imu,307.818737,0.17944584,-9.685888290400001,2.106694161600001,0.97958268,8.74747469,-2.98047521,,,
imu,307.827201,0.1985867296,-9.682897526400001,2.111479384,0.7702292,9.278335299999998,-3.21225942,,,
imu,307.835664,0.2410555784,-9.678710456800001,2.105497856,0.44872207,9.51759642,-3.37675144,,,
imu,307.844128,0.2799355104,-9.671532623200001,2.0923384944,0.4861066199999999,9.5026426,-3.53376655,,,
imu,307.852591,0.3236006648,-9.651793580800001,2.0953292584,0.46367589,9.46525805,-3.93751969,,,
imu,307.861055,0.3541064576,-9.631456385600002,2.1001144808,0.5010604399999999,9.37553513,-4.08705789,,,
imu,307.869519,0.3882011672000001,-9.630858232800001,2.1138719952,0.77770611,9.21852002,-4.02724261,,,
imu,307.877982,0.3983697648000001,-9.630260080000001,2.1306202736,0.85995212,8.7549516,-4.04967334,,,
imu,307.886446,0.400762376,-9.6494009696,2.1371999544,0.91229049,8.396059919999999,-3.96742733,,,
imu,307.894909,0.3941826952,-9.664952942400001,2.1431814824,0.9272443100000001,7.90258386,-3.83284295,,,
imu,307.903373,0.3989679176000001,-9.6703363176,2.147368552000001,0.94219813,7.61098437,-3.74312003,,,
imu,307.911836,0.3953790008,-9.688280901600002,2.1419851768,0.80761375,7.1848005,-3.43656672,,,
imu,306.583319,,,,,,,79.79845560000001,-37.71417480000001,129.3902312
imu,306.684912,,,,,,,82.508454,-38.33674200000002,127.485908
imu,306.786414,,,,,,,79.2857532,-37.28692280000001,130.1592848
imu,306.887976,,,,,,,79.6641764,-36.932914,129.194916
imu,306.989508,,,,,,,77.9429612,-36.51786920000002,129.4268528
imu,307.091071,,,,,,,77.4302588,-36.02958120000002,127.3516288
imu,307.192633,,,,,,,75.48931400000001,-35.40701400000002,126.8511336
imu,307.294318,,,,,,,75.0864764,-35.73660840000002,125.9355936
imu,307.9203,0.400762376,-9.6643547896,2.105497856,0.91229049,6.71375517,-3.24964397,,,
imu,307.928763,0.4360533912000001,-9.632054538400002,2.1090867728,0.88985976,6.24270984,-2.96552139,,,
imu,307.937227,0.4384460024000001,-9.636839760800001,2.10848862,0.94219813,5.71932614,-3.11505959,,,
imu,307.94569,0.4145198904,-9.709216249600003,2.1037033976,1.24875144,5.08378879,-3.11505959,,,
imu,307.954154,0.3953790008,-9.710412555200001,2.106694161600001,1.26370526,4.6426511,-3.10010577,,,
imu,307.962618,0.3594898328000001,-9.6745233872,2.1156664536,1.05435178,4.3435747,-3.07019813,,,
imu,307.971081,0.3080486920000001,-9.714599624800002,2.130022120800001,1.09921324,4.26132869,-2.77859864,,,
imu,307.979545,0.2099516328,-9.7911631832,2.1162646064,0.8749059399999999,4.37348234,-2.29259949,,,
imu,307.988008,0.1447529776,-9.8043225448,2.1078904672,0.41133752,4.75480475,-1.85893871,,,
imu,307.996472,0.113649032,-9.789966877600001,2.1096849256,-0.13447691,5.614649399999999,-1.76173888,,,
imu,308.004935,0.062806044,-9.737927584000001,2.099516328,-0.5008455,6.72123208,-1.69444669,,,
imu,308.013399,0.0227298064,-9.7074217912,2.0899458832,-0.64290679,7.71566111,-1.76173888,,,
imu,308.021861,-0.002990764,-9.6733270816,2.0684123824,-0.7550604399999999,8.91196671,-2.03090764,,,
imu,308.030323,-0.06400234960000001,-9.623082246400001,2.0642253128,-0.874691,10.12322613,-2.36736859,,,
imu,308.038786,-0.08493769760000001,-9.609324732000001,2.0749920632,-0.8672140899999999,11.70085414,-2.55429134,,,
imu,308.047248,-0.1022841288,-9.612315496,2.0731976048,-0.89712173,13.4654049,-2.94309066,,,
imu,308.05571,-0.1507345056,-9.635643455200002,2.0708049936,-0.91955246,15.30472476,-3.33936689,,,
imu,308.064172,-0.2087553272,-9.644017594400001,2.0743939104,-0.84478336,17.33844428,-3.59358183,,,
imu,308.072635,-0.2829262744000001,-9.637437913600001,2.0702068408,-0.874691,19.521702,-3.69078166,,,
imu,308.081097,-0.3726491944000001,-9.664952942400001,2.0690105352,-0.80739881,22.33302016,-3.76555076,,,
imu,308.089559,-0.3923882368,-9.654784344800001,2.0558511736,-1.00927538,25.36116871,-3.70573548,,,
imu,308.098021,-0.3559009160000001,-9.645213900000002,2.0522622568,-1.07656757,28.43417872,-3.60105874,,,
imu,308.106484,-0.3277877344,-9.6296619272,2.0462807288,-1.12142903,31.6342962,-3.87770441,,,
imu,308.114946,-0.2930948720000001,-9.5949690648,2.0373084368,-1.16629049,34.61010638,-4.15435008,,,
imu,308.123408,-0.1776513816,-9.583604161600002,2.027737992,-1.03918302,37.10739432,-4.33379592,,,
imu,308.131871,-0.0526374464,-9.639232372,2.060636396,-0.77001426,39.45514405999999,-4.72259524,,,
imu,308.140333,0.04845037680000001,-9.679308609600001,2.0654216184,-0.95693701,41.18231027,-5.57496298,,,
imu,308.148795,0.1387714496,-9.684093832000002,2.0420936592,-1.13638285,42.46833879,-6.32265398,,,
imu,308.157257,0.2350740504,-9.710412555200001,2.045682576,-1.15881358,43.60482911,-6.404899990000001,,,
imu,308.16572,0.3098431504,-9.708019944000002,2.0564493264,-1.45788998,44.07587444,-6.45723836,,,
imu,308.174182,0.3816214864,-9.706225485600001,2.0552530208,-1.61490509,44.24784337,-6.24040797,,,
imu,308.182644,0.4839056152000001,-9.711010708000002,2.0714031464,-1.92893531,44.23288955,-6.16563887,,,
imu,308.191106,0.5586747152,-9.706225485600001,2.0684123824,-2.16819643,43.92633624,-6.247884879999999,,,
imu,308.199569,0.6017417168000001,-9.686486443200002,2.0660197712,-2.11585806,43.32070653,-6.0385314,,,
imu,308.208031,0.666940372,-9.665551095200001,2.0761883688,-2.39250373,42.45338496999999,-5.77683955,,,
imu,308.216493,0.7201759712000001,-9.621287788000002,2.084562508,-2.31773463,41.39914066,-5.72450118,,,
imu,308.225339,0.744700236,-9.6009505928,2.0767865216,-2.21305789,40.14301978,-5.75440882,,,
imu,308.234186,0.7925524600000001,-9.597361676,2.0911421888,-1.92893531,38.87942199,-5.477763149999999,,,
imu,308.243032,0.8505732816000001,-9.569248494400002,2.0887495776,-1.68967419,37.32422471,-5.41047096,,,
imu,308.251878,0.8589474208000002,-9.550705757600001,2.0923384944,-1.45041307,35.54472012999999,-5.500193879999999,,,
imu,308.260724,0.8697141712000002,-9.531564868,2.1078904672,-1.21862886,33.82503083,-5.567486069999999,,,
imu,308.26957,0.8996218112000001,-9.541733465600002,2.1096849256,-0.874691,32.18011063,-5.23102512,,,
imu,308.278416,0.9402962016,-9.564463272000001,2.120451676000001,-0.3513073,30.35574459,-5.05157928,,,
imu,308.287262,0.9642223136000001,-9.595567217600001,2.12344244,-0.16438455,28.44165563,-5.10391765,,,
imu,308.296108,0.9827650504000001,-9.6499991224,2.1371999544,-0.04475399000000001,26.49018212,-4.954379449999999,,,
imu,308.304954,0.9893447312000001,-9.6458120528,2.144377788,-0.02232326000000001,24.46393951,-4.84970271,,,
imu,308.313801,0.9743909112000002,-9.636839760800001,2.1455740936,0.03749201999999999,22.5872351,-4.49828794,,,
imu,308.322647,0.9462777296000001,-9.623680399200001,2.1306202736,-0.007369440000000005,20.56099249,-4.26650373,,,
imu,308.331493,0.9283331456000001,-9.630260080000001,2.1072923144,0.26927623,18.78148791,-3.71321239,,,
imu,308.340339,0.9241460760000001,-9.605735815200001,2.1132738424,0.25432241,17.14404462,-3.17487487,,,
imu,308.349185,0.8888550608000001,-9.582407856000001,2.1120775368,0.34404533,15.64118571,-2.58419898,,,
imu,308.358031,0.8727049352000001,-9.579417092000002,2.0977218696,0.76275229,14.16075753,-1.97856927,,,
imu,308.366877,0.8457880592000001,-9.595567217600001,2.0929366472,0.9197674,12.79995991,-1.51500085,,,
imu,308.375723,0.8362176144000002,-9.592576453600001,2.1013107864,1.22632071,11.58122358,-1.06638625,,,
imu,308.384569,0.8362176144000002,-9.599156134400001,2.1162646064,1.54035093,10.35501034,-0.76730985,,,
imu,308.393416,0.8284416280000001,-9.594370912,2.117460912,1.75718132,9.33815058,-0.54300255,,,
imu,308.402262,0.8410028368000001,-9.611119190400002,2.1031052448,1.99644244,8.21661408,-0.4158950799999999,,,
imu,308.411108,0.8469843648000001,-9.611119190400002,2.0911421888,2.15345755,7.1100314,-0.3336490699999999,,,
imu,308.419954,0.8463862120000001,-9.6117173432,2.0923384944,2.407672489999999,6.22027911,-0.1691570499999999,,,
imu,308.428405,0.8398065312,-9.617100718400001,2.0797772856,2.407672489999999,5.18846553,-0.02709575999999991,,,
imu,308.436856,0.8356194616000001,-9.597361676,2.0582437848,2.6394567,4.36600543,0.1448731699999999,,,
imu,308.445306,0.8439936008000001,-9.568650341600001,2.0414955064,2.89367164,3.64074516,0.1673038999999998,,,
imu,308.453757,0.8601437264,-9.549509452,2.039701048,3.05816366,2.66874686,0.1299193500000002,,,
imu,308.462208,0.86732156,-9.5291722568,2.0193638528,3.56659354,1.97339423,0.10001171,,,
imu,308.470659,0.8918458248000001,-9.556089132800002,2.0205601584,3.925485220000001,1.10607267,0.07010407000000018,,,
imu,308.47911,0.9289312984000001,-9.589585689600002,2.0193638528,4.32923836,0.2387511099999999,-0.02709575999999991,,,
imu,308.487561,0.9779798280000002,-9.61530626,2.0169712416,4.59840712,-0.71829337,-0.31869525,,,
imu,308.496011,1.0132708432,-9.648802816800002,2.024747228,4.89748352,-1.84730678,-0.5803870999999998,,,
imu,308.504462,1.0425803304,-9.66016772,2.0271398392,4.85262206,-3.07352002,-0.66263311,,,
imu,308.512913,1.0623193728,-9.6458120528,2.0181675472,4.90496043,-4.38197927,-0.76730985,,,
imu,308.521364,1.0742824288,-9.627867468800002,2.0103915608,4.98720644,-5.86988436,-0.8420789499999999,,,
imu,308.529815,1.0832547208,-9.606932120800002,1.9870636016,5.20403683,-7.245635800000001,-0.7523560299999998,,,
imu,308.538266,1.1317050976,-9.593772759200002,1.9607448784,5.26385211,-8.92794055,-0.82712513,,,
imu,308.546716,1.1490515288,-9.578220786400001,1.9535670448,5.56292851,-10.58781457,-0.7224483899999998,,,
imu,308.555167,1.1711831824,-9.602146898400001,1.9733060872,5.83209727,-12.24768859,-0.55047946,,,
imu,308.563618,1.1765665576,-9.647606511200001,1.9751005456,5.80218963,-14.10196227,-0.2214954199999999,,,
imu,308.572069,1.1616127376,-9.703832874400002,1.964931948,5.71994362,-16.10577415,-0.03457266999999997,,,
imu,308.58052,1.130508792,-9.719983000000001,1.9691190176,5.36852885,-17.91518637,0.2645037299999999,,,
imu,308.58897,1.1131623608,-9.724768222400002,1.9936432824,5.28628284,-19.57506039,0.7355490599999999,,,
imu,308.597421,1.082656568,-9.783387196800001,2.0151767832,5.06197554,-21.18259604,1.18416366,,,
imu,308.605872,1.0419821776,-9.8043225448,1.997830352,4.8077606,-22.54339366,1.55800916,,,
imu,308.614323,1.0222431352,-9.812696684000002,1.9924469768,4.17222325,-23.95652965,1.64025517,,,
imu,308.622774,0.9857558144000002,-9.8228652816,1.9631374896,3.74603938,-25.14535834,1.5879168,,,
imu,308.63125,0.9636241608000001,-9.802528086400002,1.9481836696,3.26004023,-26.16969501,1.50567079,,,
imu,308.639726,0.9367072848000002,-9.7714241408,1.9547633504,2.65441052,-27.02206275,1.19164057,,,
imu,308.648203,0.8948365888000002,-9.719983000000001,1.9224630992,2.14598064,-27.94919959,1.02714855,,,
imu,308.656679,0.8750975464000001,-9.699645804800001,1.9105000432,1.71231986,-28.87633643,0.9000410799999998,,,
imu,308.665155,0.8416009896000001,-9.669140012000002,1.902125904,1.65250458,-29.46701232,0.87013344,,,
imu,308.673631,0.8098988912000001,-9.630260080000001,1.9176778768,1.41324346,-29.92310383,0.66825687,,,
imu,308.682108,0.7746078760000001,-9.599156134400001,1.9128926544,1.73475059,-30.2745186,0.7729336099999999,,,
imu,308.690584,0.7464946944,-9.591978300800001,1.9039203624,1.79456587,-30.66331792,0.9000410799999998,,,
imu,308.69906,0.7207741240000002,-9.597959828800002,1.9158834184,1.80951969,-30.79042539,1.11687147,,,
imu,308.707536,0.6962498592000002,-9.5985579816,1.9535670448,1.92167334,-30.82033303,1.2140713,,,
imu,308.716013,0.6812960392000001,-9.616502565600001,1.9667264064,2.05625772,-30.84276376,1.26640967,,,
imu,308.724489,0.6800997336000001,-9.6428212888,1.9804839208,2.05625772,-30.81285612,1.09444074,,,
imu,308.732965,0.6771089696000001,-9.658971414400002,1.9972321992,1.8169966,-30.65584101,0.9075179900000001,,,
imu,307.395758,,,,,,,76.6734124,-35.34597800000001,123.94582
imu,307.497382,,,,,,,74.9033684,-35.48025720000001,125.1299184
imu,307.598944,,,,,,,77.7964748,-35.77323000000001,122.175776
imu,307.700537,,,,,,,75.0742692,-34.72341080000001,125.0566752
imu,307.802069,,,,,,,77.16170040000002,-35.63895080000001,122.4687488
imu,307.903601,,,,,,,74.512738,-34.61354600000001,125.0688824
imu,308.005225,,,,,,,75.02544040000001,-34.49147400000001,124.2632072
imu,308.106726,,,,,,,74.6226028,-34.46705960000001,123.64064
imu,308.741335,0.684884956,-9.683495679200002,1.9972321992,1.5926893,-30.67827174,0.7654567000000001,,,
imu,308.749811,0.6735200528,-9.669738164800002,1.9942414352,1.47305874,-30.64088719,0.6607799600000002,,,
imu,308.758288,0.6591643856000001,-9.635045302400002,1.9774931568,1.42072037,-30.63341028,0.5336724899999998,,,
imu,308.766764,0.6549773160000001,-9.591380148,2.0109897136,1.17398234,-30.58107191,0.4888110299999999,,,
imu,308.77524,0.646005024,-9.589585689600002,2.006802644,1.17398234,-30.48387208,0.4289957499999999,,,
imu,308.783716,0.6202844536000002,-9.6075302736,2.0062044912,1.47305874,-30.38667225,0.4065650199999999,,,
imu,308.792193,0.5975546472000001,-9.6290637744,2.0175693944,1.5926893,-30.1997495,0.2645037299999999,,,
imu,308.800669,0.5514968816000001,-9.635643455200002,2.0193638528,1.85438115,-29.825904,0.3542266500000002,,,
imu,308.809145,0.5473098120000001,-9.657775108800001,2.0253453808,2.12354991,-29.29504339,0.5710570399999999,,,
imu,308.817621,0.5485061176,-9.685290137600001,2.0349158256,2.16093446,-28.80156733,0.4589033900000001,,,
imu,308.826098,0.5544876456000001,-9.687084596000002,2.0361121312,2.05625772,-28.18846071,0.2495499100000003,,,
imu,308.834555,0.5580765624000001,-9.6918698184,2.0355139784,1.88428879,-27.78470757,-0.1317724999999998,,,
imu,308.843012,0.5359449088000001,-9.721179305600002,2.0480751872,1.5926893,-27.22393932,-0.6102947399999998,,,
imu,308.851469,0.5221873944000001,-9.699047652,2.0343176728,1.39828964,-26.77532472,-1.08881698,,,
imu,308.859926,0.5030465048,-9.663158484000002,2.036710284,1.15155161,-26.34914085,-1.45518557,,,
imu,308.868384,0.4839056152000001,-9.667943706400001,2.0648234656,0.97210577,-25.92295698,-1.97109236,,,
imu,308.876841,0.46356842,-9.671532623200001,2.0612345488,0.97210577,-25.25003508,-2.32998404,,,
imu,308.885298,0.4300718632,-9.678710456800001,2.072001299200001,0.9571519499999999,-24.54720554,-2.62906044,,,
imu,308.893755,0.3995660704000001,-9.6643547896,2.0702068408,0.80761375,-23.77708381,-2.79355246,,,
imu,308.902212,0.3923882368,-9.630260080000001,2.0881514248,0.58330645,-22.96210062,-3.15992105,,,
imu,308.91067,0.3714528888,-9.599156134400001,2.0971237168,0.76275229,-22.10973288,-3.61601256,,,
imu,308.919127,0.3343674152,-9.579417092000002,2.1192553704,0.8524752099999999,-21.3022266,-4.19173463,,,
imu,308.927584,0.2972819416,-9.5447242296,2.1306202736,0.8524752099999999,-20.36761285,-4.56558013,,,
imu,308.936041,0.272159524,-9.505844297600001,2.1820614144,0.76275229,-19.5077682,-5.193640569999999,,,
imu,308.944498,0.2446444952,-9.4962738528,2.2418766944,0.620691,-18.92456922,-6.19554651,,,
imu,308.952955,0.2195220776,-9.477132963200003,2.2747750984,0.4711528,-18.26660114,-7.384375199999999,,,
imu,308.961413,0.1812402984,-9.419710294400002,2.2963085992,0.3963837,-17.42918722,-8.42366569,,,
imu,308.96987,0.13458438,-9.3694654592,2.299897516,0.68050628,-16.5170042,-9.27603343,,,
imu,308.978327,0.1124527264,-9.3694654592,2.2873363072,1.47305874,-15.36556006,-9.61997129,,,
imu,308.986784,0.1022841288,-9.379035904000002,2.280756626400001,2.48244159,-14.00476244,-9.35080253,,,
imu,308.995241,0.08852661440000001,-9.422102905600001,2.2801584736,3.40210152,-12.71125701,-8.86480338,,,
imu,309.003699,0.09869521200000002,-9.487899713600001,2.252045292,4.27689999,-11.38784394,-8.22926603,,,
imu,309.012156,0.1130508792,-9.549509452,2.231109944,4.94982189,-10.05695396,-7.533913399999999,,,
imu,309.020613,0.146547436,-9.6218859408,2.192230012,5.22646756,-8.64381797,-6.838560769999999,,,
imu,309.02907,0.1920070488,-9.672130776000001,2.170696511200001,5.43582104,-7.57461984,-6.2628387,,,
imu,309.037638,0.2219146888,-9.70502918,2.150359316,5.24142138,-6.72972901,-5.806747189999999,,,
imu,309.046206,0.2470371064,-9.727160833600001,2.132414732,5.11431391,-6.07176093,-5.57496298,,,
imu,309.054774,0.2715613712,-9.734338667200001,2.117460912,5.03954481,-5.533423409999999,-5.328224949999999,,,
imu,309.063341,0.2853188856,-9.721179305600002,2.0851606608,4.83019133,-5.054901170000001,-4.96185636,,,
imu,309.071909,0.2877114968,-9.696655040800001,2.0504677984,4.47877656,-4.71844022,-4.87213344,,,
imu,309.080477,0.3259932760000001,-9.6458120528,2.024747228,4.44886892,-4.44179455,-4.87961035,,,
imu,309.089045,0.3176191368,-9.618297024,2.004410032800001,4.54606875,-4.20253343,-4.81979507,,,
imu,309.097613,0.3421434016,-9.610521037600002,1.9822783792,4.63579167,-4.11281051,-4.93942563,,,
imu,309.10618,0.3517138464,-9.610521037600002,1.967922712,4.83019133,-4.00813377,-5.11887147,,,
imu,309.114748,0.3648732080000001,-9.627867468800002,1.9643337952,5.13674464,-3.81373411,-5.328224949999999,,,
imu,309.123316,0.3660695136000001,-9.631456385600002,1.9487818224,5.27880593,-3.656719,-5.567486069999999,,,
imu,309.131884,0.3642750552,-9.640428677600001,1.9368187664,5.63769761,-3.69410355,-5.69459354,,,
imu,309.140452,0.361882444,-9.682299373600001,1.9158834184,5.78723581,-3.61933445,-5.88151629,,,
imu,309.149019,0.3499193880000001,-9.711608860800002,1.8997332928,5.80218963,-3.46979625,-6.14320814,,,
imu,309.157587,0.3666676664,-9.743909112,1.8883683896,5.83209727,-3.32773496,-6.27779252,,,
imu,309.166155,0.3624805968,-9.7995373224,1.8704238056,5.7797589,-3.25296586,-6.397423079999999,,,
imu,309.174723,0.3361618736,-9.819276364800002,1.8614515136,5.5554516,-3.19315058,-6.419853809999999,,,
imu,309.183291,0.3373581792000001,-9.825257892800002,1.8429087768,5.22646756,-2.97632019,-6.30022325,,,
imu,309.191859,0.3307784984000001,-9.828846809600002,1.8219734288,4.89748352,-2.60247469,-6.17311578,,,
imu,309.200426,0.3253951232,-9.824061587200001,1.8118048312,4.516161110000001,-2.3856443,-6.14320814,,,
imu,309.208994,0.3176191368,-9.803724392000001,1.7986454696,4.19465398,-2.34078284,-6.113300499999999,,,
imu,309.217562,0.3032634696000001,-9.7923594888,1.7866824136,3.79090084,-2.06413717,-6.158161959999999,,,
imu,309.22613,0.2847207328,-9.768433376800001,1.7729248992,3.731085559999999,-1.80244532,-6.19554651,,,
imu,309.234698,0.2769447464000001,-9.746899876,1.7830934968,3.64136264,-1.45103055,-6.15068505,,,
imu,309.243495,0.266177996,-9.76484446,1.8070196088,3.37967079,-1.32392308,-6.33013089,,,
imu,309.252292,0.2667761488000001,-9.787574266400002,1.8165900536,3.30490169,-1.0398005,-6.180592689999999,,,
imu,309.261089,0.2595983152,-9.782789044000001,1.8219734288,2.93105619,-0.7706317400000002,-6.247884879999999,,,
imu,309.269886,0.251224176,-9.7821908912,1.827356804,2.61702597,-0.4939860700000001,-6.075915950000001,,,
imu,309.278683,0.2643835376,-9.788172419200002,1.83931986,2.31047266,-0.3594016900000003,-5.70207045,,,
imu,309.28748,0.2530186344000001,-9.800135475200001,1.848292152,1.92167334,-0.1201405700000002,-5.328224949999999,,,
imu,309.296277,0.2518223288000001,-9.8013317808,1.8770034864,1.55530475,0.19388965,-5.09644074,,,
imu,309.305074,0.2691687600000001,-9.785779808000001,1.863245972,1.2936129,0.3209971199999999,-4.57305704,,,
imu,309.313871,0.290104108,-9.7576666264,1.8608533608,0.68798319,0.4929660499999997,-4.20668845,,,
imu,309.322668,0.31403022,-9.713403319200001,1.8704238056,0.53844499,0.6724118899999998,-3.82536604,,,
imu,309.331465,0.3355637208,-9.6876827488,1.8692275,0.53096808,0.6798887999999996,-3.6459202,,,
imu,309.340262,0.3684621248000001,-9.688879054400001,1.9039203624,0.60573718,0.5677351499999999,-3.51133582,,,
imu,309.349059,0.4019586816,-9.703832874400002,1.9296409328,0.80761375,0.4481045899999998,-3.32441307,,,
imu,309.357856,0.415716196,-9.740918348000001,1.9607448784,0.63564482,-0.07527911000000032,-3.2720747,,,
imu,309.366653,0.4258847936,-9.734338667200001,1.955959656,0.57582954,-0.3070633200000001,-3.22721324,,,
imu,309.37545,0.4372496968000001,-9.714001472000001,1.98885806,0.44872207,-0.7706317400000002,-3.2720747,,,
imu,309.384247,0.4414367664,-9.725366375200002,2.0109897136,0.31413769,-1.18186179,-3.10758268,,,
imu,309.393044,0.4270810992000001,-9.699645804800001,2.0169712416,0.3216146,-1.60804566,-3.07019813,,,
imu,309.401841,0.4324644744,-9.627867468800002,2.0032137272,0.18703022,-2.019275710000001,-2.98047521,,,
imu,309.410638,0.4522035168,-9.576426328,2.006802644,0.35899915,-2.57256705,-3.0477674,,,
imu,309.419435,0.4486146000000001,-9.571641105600001,2.013980477600001,0.58330645,-3.0585662,-2.94309066,,,
imu,309.428232,0.439642308,-9.592576453600001,2.031326908800001,0.58330645,-3.60438063,-3.10758268,,,
imu,309.437029,0.4318663216,-9.6159044128,2.0522622568,0.67302937,-4.12776433,-3.08515195,,,
imu,309.445419,0.4103328208,-9.706225485600001,2.0761883688,0.8823828499999999,-4.74834786,-3.15244414,,,
imu,309.453809,0.4025568344,-9.793555794400001,2.0839643552,0.77770611,-5.473608130000001,-3.30198234,,,
imu,309.462198,0.376836264,-9.801929933600002,2.06362716,0.50853735,-5.884838179999999,-3.28702852,,,
imu,309.470588,0.3636769024000001,-9.737927584000001,2.0618327016,0.16459949,-6.430652609999999,-3.10758268,,,
imu,309.478978,0.3403489432000001,-9.6846919848,2.066617924,-0.02232326000000001,-6.69982137,-2.77859864,,,
imu,309.487368,0.3224043592,-9.699047652,2.0743939104,0.18703022,-6.81945193,-2.27764567,,,
imu,309.495758,0.305057928,-9.725964528,2.07858098,0.19450713,-6.84188266,-2.08324601,,,
imu,309.504147,0.287113344,-9.715795930400002,2.0552530208,0.42629134,-6.96899013,-2.0757691,,,
imu,309.512537,0.266177996,-9.6745233872,2.045682576,0.26179932,-7.193297429999999,-2.41970696,,,
imu,309.520927,0.2434481896,-9.619493329600001,2.0468788816,0.21693786,-7.16338979,-2.80102937,,,
imu,309.529317,0.2195220776,-9.603343204000002,2.042691812,0.46367589,-7.23068198,-3.15992105,,,
imu,309.537707,0.2159331608,-9.613511801600001,2.03371952,0.65059864,-7.12600524,-3.54872037,,,
imu,309.546096,0.19439966,-9.6159044128,2.03371952,0.66555246,-6.954036309999999,-4.034719519999999,,,
imu,309.554486,0.1776513816,-9.599156134400001,2.0199620056,0.53844499,-6.976467039999999,-4.37118047,,,
imu,308.208217,,,,,,,73.7314772,-34.07642920000002,122.0170824
imu,308.309779,,,,,,,73.01125239999999,-32.69701560000002,120.2592456
imu,308.411433,,,,,,,72.43751400000001,-32.33079960000001,118.8920392
imu,308.512843,,,,,,,73.4629188,-31.61057480000002,117.903256
imu,308.614467,,,,,,,73.1577388,-31.7692684,119.246048
imu,308.716151,,,,,,,76.0630524,-33.0510244,117.8910488
imu,308.817897,,,,,,,74.5005308,-32.90453800000002,122.5541992
imu,308.919063,,,,,,,77.58895240000001,-34.16187960000001,121.1747856
imu,309.562876,0.1620994088,-9.605735815200001,2.0103915608,0.73284465,-6.74468283,-4.47585721,,,
imu,309.571266,0.1567160336,-9.614708107200002,1.997830352,0.60573718,-6.565236990000001,-4.52819558,,,
imu,309.579656,0.1597067976,-9.627867468800002,1.9960358936,0.59078336,-6.041853290000001,-4.53567249,,,
imu,309.588045,0.1477437416,-9.647606511200001,1.994839588,0.65059864,-5.6754847,-4.625395409999999,,,
imu,309.596435,0.1357806856,-9.634447149600001,2.000821116,0.63564482,-5.50351577,-4.625395409999999,,,
imu,309.604825,0.1154434904,-9.6494009696,2.0283361448,0.7104139199999999,-5.25677774,-4.670256869999999,,,
imu,309.613215,0.1100601152,-9.671532623200001,2.0462807288,0.8749059399999999,-4.84554769,-4.66277996,,,
imu,309.621605,0.09929336480000002,-9.696056888000001,2.0510659512,0.83004448,-4.51656365,-4.6179185,,,
imu,309.629994,0.09989151760000002,-9.727758986400001,2.060636396,0.71789083,-4.08290287,-4.6179185,,,
imu,309.638384,0.09749890640000002,-9.752881404000002,2.054654868000001,0.5010604399999999,-3.61933445,-4.58801086,,,
imu,309.646868,0.101685976,-9.745105417600001,2.045682576,0.26179932,-3.49222698,-4.64034923,,,
imu,309.655352,0.1148453376,-9.714599624800002,2.030728756,0.14216876,-3.23801204,-4.55810322,,,
imu,309.663836,0.1190324072,-9.70502918,2.0319250616,0.05244583999999999,-2.89407418,-4.59548777,,,
imu,309.67232,0.1339862272,-9.668541859200001,2.0259435336,0.13469185,-2.66976688,-4.6179185,,,
imu,309.680804,0.140565908,-9.638036066400002,2.0235509224,0.33656842,-2.47536722,-4.59548777,,,
imu,309.689287,0.1411640608,-9.617698871200002,2.0121860192,0.6132140899999999,-2.45293649,-4.57305704,,,
imu,309.697771,0.137575144,-9.589585689600002,2.0181675472,0.8973366700000001,-2.3856443,-4.64034923,,,
imu,309.706255,0.1369769912,-9.627867468800002,2.0265416864,1.17398234,-2.36321357,-4.70764142,,,
imu,309.714739,0.1274065464,-9.660765872800003,2.0319250616,1.31604363,-2.5351825,-4.86465653,,,
imu,309.723223,0.1327899216,-9.617100718400001,2.0050081856,1.5179202,-2.57256705,-4.78241052,,,
imu,309.731707,0.1214250184,-9.593772759200002,2.0187657,1.80204278,-2.48284413,-4.70016451,,,
imu,309.740191,0.1070693512,-9.616502565600001,2.0181675472,2.21327283,-2.40059812,-4.58053395,,,
imu,309.020686,,,,,,,75.58697160000001,-34.45485240000001,125.5449632
imu,309.122432,,,,,,,76.7344484,-35.04079800000002,125.6426208
imu,309.226344,,,,,,,76.83210600000001,-35.07741960000001,126.5215392
imu,309.325709,,,,,,,76.954178,-35.21169880000001,126.3750528
imu,309.426906,,,,,,,77.05183559999999,-35.76102280000002,125.8745576
imu,309.528499,,,,,,,77.58895240000001,-35.89530200000002,126.7900976
imu,309.630061,,,,,,,77.69881720000001,-36.06620280000001,128.340412
imu,309.731807,,,,,,,80.50647319999999,-37.3967876,124.9590176
