Type,Timestamp,Data Accelerometer X,Data Accelerometer Y,Data Accelerometer Z,Data Gyroscope X,Data Gyroscope Y,Data Gyroscope Z,Data Magnetometer X,Data Magnetometer Y,Data Magnetometer Z
imu,408.634732,0.5580765624000001,-9.7474980288,1.4726521936,-1.5476129,13.23362069,-7.4591443,,,
imu,408.643194,0.5622636320000001,-9.725964528,1.474446652,-1.51022835,12.65789862,-7.00305279,,,
imu,408.651657,0.5664507016000001,-9.7283571392,1.5079432088,-1.71958183,12.08217655,-6.51705364,,,
imu,408.660119,0.55329134,-9.7331423616,1.4995690696,-1.62985891,11.37934701,-5.94880848,,,
imu,408.668581,0.5604691736,-9.741516500800001,1.4929893888,-1.34573633,10.78867112,-5.38804023,,,
imu,408.677043,0.5748248408000001,-9.720581152800001,1.474446652,-1.3980747,10.03350321,-4.86465653,,,
imu,408.685506,0.5772174520000001,-9.6775141512,1.462483596,-1.10647521,9.323196759999998,-4.341272829999999,,,
imu,408.693973,0.5909749664,-9.6643547896,1.4702595824,-0.97189083,8.620367219999999,-3.9449966,,,
imu,408.70244,0.56824516,-9.661364025600001,1.447529776,-0.7401066199999999,7.865199309999999,-3.52628964,,,
imu,408.710908,0.5706377712,-9.657775108800001,1.4349685672,-0.51579932,7.177323589999999,-3.26459779,,,
imu,408.719375,0.5814045216000001,-9.6523917336,1.4283888864,-0.10456927,6.51935551,-3.13749032,,,
imu,408.727842,0.5748248408000001,-9.651793580800001,1.408649844,0.19450713,5.71932614,-3.01038285,,,
imu,408.73631,0.5867878968000001,-9.682897526400001,1.4194165944,0.41133752,5.1660348,-2.8234601,,,
imu,408.744777,0.6005454112,-9.720581152800001,1.4206129,0.49358353,4.59031273,-2.76364482,,,
imu,408.753245,0.6005454112,-9.766638918400002,1.4247999696,0.620691,3.96225229,-2.81598319,,,
imu,408.761712,0.5808063688,-9.752283251200002,1.4188184416,0.57582954,3.32671494,-3.07767504,,,
imu,408.770179,0.5616654792000001,-9.743909112,1.414631372,0.66555246,2.78837742,-3.01785976,,,
imu,408.778647,0.5485061176,-9.765442612800001,1.43556672,0.59078336,2.3995781,-3.15992105,,,
imu,408.787114,0.4928779072000001,-9.785779808000001,1.4343704144,0.56087572,2.06311715,-3.48890509,,,
imu,408.795581,0.46356842,-9.803126239200001,1.4397537896,0.41133752,2.00330187,-3.62348947,,,
imu,408.804049,0.4318663216,-9.797742864000002,1.4559039152,0.35152224,1.9509635,-3.69825857,,,
imu,408.812516,0.4252866408000001,-9.765442612800001,1.453511304,0.03749201999999999,2.04816333,-3.88518132,,,
imu,408.820983,0.4216977240000001,-9.752283251200002,1.441548248,0.18703022,2.23508608,-4.11696553,,,
imu,408.829451,0.4228940296000001,-9.739722042400002,1.4319778032,0.08983038999999998,2.23508608,-4.7674567,,,
imu,408.837918,0.4276792520000001,-9.724768222400002,1.4283888864,0.03001510999999998,2.44443956,-5.26840967,,,
imu,408.846385,0.4288755576000001,-9.730749750400001,1.432575956,0.23936859,2.49677793,-5.61982444,,,
imu,408.854853,0.4210995712,-9.769031529600001,1.4224073584,0.2468455,2.46687029,-5.9637623,,,
imu,408.86332,0.4037531400000001,-9.786976113600002,1.4319778032,0.16459949,2.33976282,-6.315177069999999,,,
imu,408.871788,0.3977716120000001,-9.787574266400002,1.4080516912,0.22441477,2.35471664,-6.51705364,,,
imu,408.880255,0.3846122504,-9.743909112,1.4098461496,0.20946095,2.22013226,-6.838560769999999,,,
imu,408.888722,0.3517138464,-9.706225485600001,1.4218092056,0.3889067899999999,2.16779389,-6.89837605,,,
imu,408.897551,0.2984782472,-9.721179305600002,1.4188184416,0.64312173,2.11545552,-7.06286807,,,
imu,408.90638,0.2500278704,-9.7612555432,1.4307814976,0.85995212,2.14536316,-7.26474464,,,
imu,408.915209,0.2703650656,-9.7510869456,1.4433427064,0.9347212199999999,2.33976282,-7.57129795,,,
imu,408.924038,0.2745521352,-9.7325442088,1.4529131512,0.9571519499999999,2.63883922,-7.76569761,,,
imu,408.932867,0.2219146888,-9.748096181600001,1.4576983736,0.9272443100000001,2.75099287,-7.997481819999999,,,
imu,408.941695,0.1836329096,-9.765442612800001,1.43556672,0.78518302,2.9229618,-8.07225092,,,
imu,408.950524,0.2069608688,-9.7911631832,1.4451371648,0.6281679099999999,3.31176112,-8.064774009999999,,,
imu,408.959353,0.1872218264,-9.773816752000002,1.4331741088,0.76275229,3.64822207,-8.16197384,,,
imu,408.968182,0.1752587704,-9.76484446,1.429585192,0.68050628,3.77532954,-8.371327319999999,,,
imu,408.977011,0.1632957144,-9.772620446400001,1.432575956,0.70293701,4.22394414,-8.19935839,,,
imu,408.98584,0.1423603664,-9.800733628000001,1.4559039152,0.9347212199999999,4.530497449999999,-8.019912549999999,,,
imu,408.994669,0.1154434904,-9.810902225600001,1.4636799016,0.81509066,4.82957385,-8.07972783,,,
imu,409.003498,0.07596540560000001,-9.834828337600001,1.4612872904,0.45619898,5.18098862,-8.26665058,,,
imu,409.012326,0.05861897440000001,-9.868923047200001,1.4678669712,0.03749201999999999,5.5398803,-8.304035129999999,,,
imu,409.021155,0.02990764000000001,-9.853371074400002,1.4612872904,-0.20924601,6.160463829999999,-8.304035129999999,,,
imu,409.029984,0.002990764,-9.831239420800001,1.4427445536,-0.6279529699999999,6.94553938,-8.53581934,,,
imu,409.038813,-0.0281131816,-9.824659740000001,1.4523149984,-0.90459864,7.648368919999999,-8.43861951,,,
imu,409.047642,-0.04545961280000001,-9.803126239200001,1.4648762072,-1.12142903,8.6054134,-8.1320662,,,
imu,409.056471,-0.06220789120000001,-9.7786019744,1.4678669712,-1.31582869,9.56245788,-7.96009727,,,
imu,409.0653,-0.09630260080000001,-9.8210708232,1.4905967776,-1.53265908,10.54193309,-7.847943620000001,,,
imu,409.074128,-0.1495382,-9.863539672000002,1.5019616808,-1.6971511,11.80553088,-7.94514345,,,
imu,409.082957,-0.1902125904,-9.8820824088,1.5139247368,-2.22801171,12.9420212,-8.18440457,,,
imu,409.091786,-0.2057645632,-9.8647359776,1.489400472,-2.80373378,14.49721848,-8.19935839,,,
imu,409.100251,-0.1872218264,-9.837819101600003,1.4612872904,-3.46170186,16.05989267,-8.4311426,,,
imu,409.108716,-0.1417622136,-9.763050001600002,1.4648762072,-4.02994702,17.48050557,-8.60311153,,,
imu,409.117181,-0.09211553120000002,-9.710412555200001,1.4582965264,-4.26173123,18.38521168,-9.2536027,,,
imu,409.125645,-0.0634041968,-9.678112304,1.4313796504,-3.93274719,19.40207144,-9.75455567,,,
imu,409.13411,-0.0203371952,-9.667943706400001,1.43556672,-3.81311663,20.11237789,-10.24803173,,,
imu,409.142575,0.004785222400000001,-9.696056888000001,1.4588946792,-3.37197894,20.59090013,-10.66673869,,,
imu,409.15104,0.0065796808,-9.765442612800001,1.492391236,-2.99065653,21.00960709,-11.03310728,,,
imu,409.159505,0.0215335008,-9.7612555432,1.5091395144,-2.91588743,21.18157602,-11.5714448,,,
imu,409.16797,0.04007623760000001,-9.693066124000001,1.5181118064,-2.81121069,21.4656986,-12.13221305,,,
imu,409.176434,0.06400234960000001,-9.638036066400002,1.5169155008,-2.69905704,21.71991354,-12.46119709,,,
imu,409.184899,0.08673215600000002,-9.625474857600002,1.5019616808,-2.37754991,21.89188247,-12.28922816,,,
imu,409.193364,0.1262102408,-9.610521037600002,1.4989709168,-1.98875059,21.89935938,-11.98267485,,,
imu,409.201829,0.1632957144,-9.654784344800001,1.4852134024,-1.73453565,21.4656986,-11.97519794,,,
imu,409.210294,0.173464312,-9.694860582400002,1.5007653752,-1.30087487,20.99465327,-11.99762867,,,
imu,409.218758,0.19439966,-9.672728928800002,1.5181118064,-0.82235263,20.31425446,-12.08735159,,,
imu,409.227223,0.2021756464,-9.664952942400001,1.5217007232,-0.61299915,19.49179436,-12.15464378,,,
imu,409.235688,0.1979885768,-9.703234721600001,1.558188044,-0.21672292,18.69176499,-12.14716687,,,
imu,409.244153,0.1746606176,-9.727758986400001,1.5629732664,-0.08213854000000001,17.75715124,-12.27427434,,,
imu,409.252618,0.1531271168,-9.848585852000001,1.6221903936,-0.05970781,16.91226041,-12.35652035,,,
imu,409.261082,0.08912476720000001,-10.0035074272,1.6604721728,-0.45598404,16.32906143,-12.33408962,,,
imu,409.269511,0.0592171272,-10.0441818176,1.6293682272,-1.54013599,15.61875498,-12.36399726,,,
imu,409.277975,0.03349655680000001,-10.0166667888,1.609031032,-2.63176485,15.05050982,-12.28922816,,,
imu,409.28644,-0.007177833600000002,-9.947879216800002,1.5982642816,-3.7906859,14.81872561,-12.06492086,,,
imu,409.294905,-0.020935348,-9.850978463200002,1.5916846008,-4.65053055,14.63927977,-11.69107536,,,
imu,409.303407,-0.004785222400000001,-9.802528086400002,1.6012550456,-4.90474549,14.34020337,-11.29479913,,,
imu,409.311908,-0.02871133440000001,-9.8168837536,1.5982642816,-4.9122224,14.03365006,-11.24246076,,,
imu,409.32041,-0.0263187232,-9.8198745176,1.6078347264,-5.129052789999999,13.75700439,-11.09292256,,,
imu,409.328912,-0.0251224176,-9.785779808000001,1.603049504,-5.25616026,13.25605142,-10.92843054,,,
imu,409.337413,-0.0442633072,-9.783985349600002,1.6532943392,-5.315975539999999,12.79995991,-10.79384616,,,
imu,409.345915,-0.09570444800000001,-9.8234634344,1.6700426176,-5.42812919,12.31396076,-10.55458504,,,
imu,409.354417,-0.1130508792,-9.830641268,1.6550887976,-5.59262121,11.90273071,-10.25550864,,,
imu,409.362918,-0.1238176296,-9.777405668800002,1.6544906448,-5.86926688,11.55879285,-10.06110898,,,
imu,409.37142,-0.1381732968,-9.6709344704,1.6616684784,-5.906651429999999,11.41673156,-9.73212494,,,
imu,409.379922,-0.1513326584,-9.594370912,1.6706407704,-5.674867219999999,11.34196246,-9.13397214,,,
imu,409.388424,-0.1597067976,-9.593772759200002,1.6766222984,-5.129052789999999,11.08774752,-8.53581934,,,
imu,409.396925,-0.1501363528,-9.592576453600001,1.6586777144,-4.47856162,10.9980246,-8.04982019,,,
imu,409.405427,-0.1387714496,-9.568650341600001,1.647910964,-3.95517792,10.76624039,-7.59372868,,,
imu,409.413929,-0.1112564208,-9.527975951200002,1.6371442136,-3.32711748,10.56436382,-7.34699065,,,
imu,409.42243,-0.09450814240000002,-9.5184055064,1.6550887976,-2.54951884,10.18304141,-7.1600679,,,
imu,409.430932,-0.07118018320000001,-9.5429297712,1.6682481592,-1.50275144,9.89891883,-7.09277571,,,
imu,409.439434,-0.05383375200000001,-9.567454036,1.6772204512,-0.90459864,9.26338148,-7.100252619999999,,,
imu,409.447935,-0.062806044,-9.635045302400002,1.7071280912,-0.37373803,8.612890310000001,-7.3096061,,,
imu,409.456437,-0.06699311360000001,-9.697253193600002,1.7065299384,0.28423005,8.13436807,-7.15259099,,,
imu,409.464939,-0.0723764888,-9.7217774584,1.6999502576,0.33656842,7.528738359999999,-7.21988318,,,
imu,409.47344,-0.09929336480000002,-9.7492924872,1.7119133136,0.30666078,6.97544702,-7.11520644,,,
imu,409.481942,-0.1148453376,-9.7576666264,1.6969594936,0.19450713,6.339909669999999,-6.838560769999999,,,
imu,409.490444,-0.125612088,-9.758264779200001,1.6879872016,0.11226112,5.84643361,-6.659114929999999,,,
imu,409.498946,-0.1531271168,-9.7283571392,1.6832019792,0.2468455,5.375388279999999,-6.42733072,,,
imu,409.507385,-0.1417622136,-9.672728928800002,1.665855548,0.41881443,4.9417275,-6.046008309999999,,,
imu,409.515824,-0.1292010048,-9.641624983200002,1.6544906448,0.65059864,4.552928179999999,-5.65720899,,,
imu,409.524264,-0.1387714496,-9.6643547896,1.6742296872,1.02444414,4.03702139,-5.55253225,,,
imu,409.532703,-0.1357806856,-9.725964528,1.695763188,1.50296638,3.4463455,-5.11887147,,,
imu,409.541142,-0.1423603664,-9.7821908912,1.6951650352,1.86185806,2.8481927,-4.67773378,,,
imu,409.549582,-0.1453511304,-9.801929933600002,1.701744716,2.116073,2.28742445,-4.33379592,,,
imu,409.558021,-0.1650901728,-9.809107767200002,1.7023428688,2.08616536,1.67431783,-3.97490424,,,
imu,409.566461,-0.1728661592,-9.802528086400002,1.6730333816,1.88428879,1.1285034,-3.5711511,,,
imu,409.5749,-0.188418132,-9.769629682400002,1.6592758672,1.80204278,0.76213481,-3.20478251,,,
imu,409.583339,-0.1878199792,-9.7504887928,1.6437238944,1.60764312,0.2013665599999999,-3.10758268,,,
imu,409.591779,-0.1926052016,-9.742114653600002,1.6323589912,1.6674584,-0.09770984000000027,-2.95804448,,,
imu,409.600218,-0.203371952,-9.723571916800001,1.6287700744,1.74970441,-0.5687551700000002,-2.96552139,,,
imu,409.608657,-0.218325772,-9.713403319200001,1.626975616,1.80204278,-0.90521612,-2.92065993,,,
imu,409.617097,-0.2356722032,-9.766040765600001,1.6263774632,1.98896553,-1.144477240000001,-2.78607555,,,
imu,409.625536,-0.2733558296,-9.802528086400002,1.623984852,1.85438115,-1.45103055,-2.8234601,,,
imu,409.633976,-0.2913004136,-9.779200127200001,1.6287700744,1.40576655,-1.44355364,-2.86832156,,,
imu,409.642415,-0.3044597752,-9.7809945856,1.620994088,1.24127453,-1.39121527,-2.8234601,,,
imu,409.650854,-0.3020671640000001,-9.790565030400002,1.6066384208,1.11416706,-1.32392308,-2.77859864,,,
imu,409.659294,-0.2733558296,-9.785181655200002,1.6072365736,0.9347212199999999,-1.17438488,-2.77859864,,,
imu,409.667733,-0.275150288,-9.780396432800002,1.6012550456,0.97210577,-1.06970814,-2.89075229,,,
imu,408.677439,,,,,,,82.142238,-38.76399400000001,131.0137888
imu,408.779032,,,,,,,80.9947612,-38.59309320000002,130.4400504
imu,408.880594,,,,,,,83.00894919999999,-38.27570600000001,129.316988
imu,408.982157,,,,,,,82.9723276,-39.61849800000002,127.6934304
imu,409.676173,-0.2739539824000001,-9.766638918400002,1.5994605872,0.68798319,-1.18186179,-2.92813684,,,
imu,409.684612,-0.2458408008,-9.743310959200002,1.5952735176,0.7104139199999999,-1.10709269,-2.93561375,,,
imu,409.693051,-0.2278962168,-9.715795930400002,1.6066384208,0.94967504,-1.10709269,-2.89075229,,,
imu,409.701491,-0.227298064,-9.6954587352,1.6096291848,0.9945364999999999,-1.21924634,-2.74121409,,,
imu,409.710292,-0.2129423968,-9.700243957600001,1.618003324,1.35342818,-1.413646,-2.47204533,,,
imu,409.719093,-0.1979885768,-9.710412555200001,1.6323589912,1.78708896,-1.53327656,-2.16549202,,,
imu,409.727894,-0.1770532288,-9.737329431200001,1.6616684784,1.87681188,-1.83235296,-1.83650798,,,
imu,409.736695,-0.1597067976,-9.760059237600002,1.67482784,2.12354991,-2.19124464,-1.47013939,,,
imu,409.745496,-0.1423603664,-9.788770572,1.6550887976,2.2656112,-2.58004396,-1.26826282,,,
imu,409.754297,-0.1303973104,-9.793555794400001,1.6485091168,2.37776485,-2.86416654,-0.96918642,,,
imu,409.763098,-0.09570444800000001,-9.751685098400001,1.6514998808,2.28804193,-3.37259642,-0.7523560299999998,,,
imu,409.771899,-0.05562821040000001,-9.7786019744,1.6514998808,2.32542648,-3.98570304,-0.5654332799999999,,,
imu,409.7807,-0.0514411408,-9.803126239200001,1.6425275888,2.31794957,-4.59880966,-0.3560797999999998,,,
imu,409.789501,-0.0340947096,-9.783985349600002,1.6168070184,2.1908421,-5.26425465,-0.2439261499999998,,,
imu,409.798302,-0.020935348,-9.697253193600002,1.609031032,2.25813429,-5.929699640000001,-0.2514030599999999,,,
imu,409.807103,-0.020935348,-9.635045302400002,1.6132181016,2.49739541,-6.610098450000001,0.02524261000000028,,,
imu,409.815904,-0.017944584,-9.646410205600002,1.6162088656,2.6394567,-7.38769709,0.2570268200000001,,,
imu,409.824705,-0.004785222400000001,-9.658971414400002,1.6138162544,3.12545585,-8.00080371,0.5934877699999999,,,
imu,409.833506,-0.0305057928,-9.679308609600001,1.6365460608,3.59650118,-8.58400269,0.87013344,,,
imu,409.842307,-0.03588916800000001,-9.735534972800002,1.6604721728,3.90305449,-9.28683223,1.26640967,,,
imu,409.851108,-0.04785222400000001,-9.7995373224,1.677818604,3.925485220000001,-9.92236958,1.49071697,,,
imu,409.859909,-0.07297464160000001,-9.8300431152,1.6855945904,3.589024269999999,-10.49061474,1.4383786,,,
imu,409.86871,-0.0933118368,-9.838417254400001,1.7035391744,3.15536349,-11.08129063,1.42342478,,,
imu,409.877511,-0.1154434904,-9.805518850400002,1.680809368,2.57964142,-11.58972051,1.23650203,,,
imu,409.886312,-0.1280046992,-9.766040765600001,1.6652573952,2.31047266,-11.90375073,1.08696383,,,
imu,409.895113,-0.1393696024,-9.715795930400002,1.6467146584,2.14598064,-12.07571966,0.8177950699999998,,,
imu,409.903914,-0.1710717008,-9.686486443200002,1.606040268,2.31047266,-12.09815039,0.4888110299999999,,,
imu,409.912396,-0.1920070488,-9.6703363176,1.6114236432,2.68431816,-12.03833511,0.4663803,,,
imu,409.920879,-0.1955959656,-9.656578803200002,1.5952735176,3.09554821,-11.94861219,0.58601086,,,
imu,409.929362,-0.2111479384,-9.6505972752,1.6054421152,3.3871477,-11.55981287,0.78788743,,,
imu,409.937844,-0.2338777448,-9.690673512800002,1.6245830048,3.97782359,-11.26073647,1.16173293,,,
imu,409.946327,-0.2548130928,-9.783387196800001,1.6311626856,4.18717707,-10.82707569,1.42342478,,,
imu,409.95481,-0.2895059552,-9.817481906400001,1.6437238944,4.09745415,-10.46818401,1.5131477,,,
imu,409.963292,-0.3074505392,-9.83961356,1.6383405192,3.88062376,-9.94480031,1.62530135,,,
imu,409.971775,-0.305057928,-9.8210708232,1.6168070184,3.59650118,-9.24944768,1.72997809,,,
imu,409.980258,-0.2972819416,-9.7995373224,1.60005874,3.33480933,-8.554095049999999,1.737455,,,
imu,409.98874,-0.2877114968,-9.760059237600002,1.564169572,3.282470959999999,-7.93351152,1.67016281,,,
imu,409.997223,-0.281131816,-9.7163940832,1.5528046688,3.51425517,-7.133482150000001,1.60287062,,,
imu,410.005706,-0.2847207328,-9.661962178400001,1.522298876,3.85819303,-6.4231757,1.54305534,,,
imu,410.014188,-0.2823281216,-9.620689635200002,1.4917930832,4.33671527,-5.76520762,1.31127113,,,
imu,410.022671,-0.2817299688000001,-9.551902063200002,1.4768392632,5.12926773,-4.89788606,1.25893276,,,
imu,410.031154,-0.2877114968,-9.471749588000002,1.4708577352,6.13865058,-4.08290287,1.48324006,,,
imu,410.039636,-0.272159524,-9.429280739200001,1.4636799016,7.08074124,-3.29035041,1.81970101,,,
imu,410.048119,-0.2805336632,-9.447823476,1.4636799016,8.277046839999999,-2.4604134,2.32065398,,,
imu,410.056602,-0.2566075512,-9.517807353600002,1.4971764584,9.47335244,-1.55570729,3.07582189,,,
imu,410.065084,-0.2584020096,-9.633250844,1.5444305296,10.33319709,-0.5538013500000001,3.88332817,,,
imu,410.073567,-0.2440463424,-9.762451848800001,1.5779270864,10.67713495,0.11164364,4.54129625,,,
imu,410.08205,-0.212344244,-9.870119352800002,1.579123392,10.35562782,0.6125966099999998,4.660926809999999,,,
imu,410.090532,-0.146547436,-9.937710619200002,1.5516083632,9.592982999999998,1.33037997,4.39175805,,,
imu,410.099015,-0.09690075360000001,-9.922756799200002,1.5091395144,8.740615259999998,1.68927165,3.59920559,,,
imu,410.107498,-0.04545961280000001,-9.88447502,1.4750448048,7.90320134,1.96591732,2.57486892,,,
imu,410.11598,0.0,-9.8294449624,1.4618854432,7.53683275,2.24256299,1.46080933,,,
imu,410.124415,0.0203371952,-9.803126239200001,1.4421464008,7.2751409,2.21265535,0.2345960900000001,,,
imu,410.132851,0.05802082160000001,-9.7786019744,1.417622136,7.21532562,2.16779389,-0.6476792899999999,,,
imu,410.141286,0.08493769760000001,-9.761853696000001,1.4152295248,7.17046416,2.01077878,-1.53743158,,,
imu,410.149721,0.09749890640000002,-9.7702278352,1.396686788,7.20784871,1.77151766,-1.94118472,,,
imu,410.158156,0.11963056,-9.777405668800002,1.3805366624,6.96858759,1.66684092,-2.03090764,,,
imu,410.166591,0.152528964,-9.7959484056,1.357806856,6.87886467,1.26308778,-1.79912343,,,
imu,410.175026,0.1800439928,-9.802528086400002,1.3458438,6.9760645,1.07616503,-1.27573973,,,
imu,410.183461,0.1896144376,-9.8049206976,1.3416567304,6.96858759,0.6873657099999999,-0.6925407499999998,,,
imu,410.191896,0.218325772,-9.7815927384,1.3207213824,6.89381849,0.2910894799999997,0.002811879999999878,,,
imu,410.200331,0.2410555784,-9.742114653600002,1.3051694096,7.17794107,-0.1799558500000003,0.6607799600000002,,,
imu,410.208766,0.2434481896,-9.7128051664,1.2878229784,7.11812579,-0.7855855599999999,1.07201001,,,
imu,410.217201,0.260196468,-9.672728928800002,1.2728691584,7.40972528,-1.54823038,1.58043989,,,
imu,410.225636,0.2566075512,-9.675121540000001,1.2961971176,7.85833988,-2.34078284,1.91690084,,,
imu,410.234071,0.2530186344000001,-9.721179305600002,1.2788506864,8.060216449999999,-3.11838148,1.96923921,,,
imu,410.242506,0.2129423968,-9.812098531200002,1.292010048,8.29200066,-4.04551832,2.02905449,,,
imu,410.250941,0.1812402984,-9.896438076,1.2872248256,8.217231559999998,-4.66610185,2.22345415,,,
imu,410.259376,0.1591086448,-9.928738327200001,1.259111644,7.9480628,-5.249300829999999,2.38046926,,,
imu,410.267811,0.1232194768,-9.911391896000003,1.24116706,7.52187893,-5.74277689,2.31317707,,,
imu,410.276247,0.09989151760000002,-9.8982325344,1.2010908224,6.95363377,-6.064284020000001,2.43280763,,,
imu,410.284682,0.08374139200000001,-9.866530436000001,1.1939129888,6.64708046,-6.09419166,2.60477656,,,
imu,410.293117,0.09390998960000001,-9.835426490400001,1.1747720992,6.49006535,-6.086714750000001,2.73188403,,,
imu,410.301552,0.0861340032,-9.845595088000001,1.16639796,6.24332732,-5.94465346,2.82908386,,,
imu,410.309987,0.09749890640000002,-9.850978463200002,1.1496496816,5.75732817,-5.952130370000001,2.84403768,,,
imu,410.318422,0.1172379488,-9.834230184800003,1.1329014032,5.5554516,-5.6754847,2.85151459,,,
imu,410.326857,0.1501363528,-9.806715156000001,1.1179475832,5.18908301,-5.41379285,2.73936094,,,
imu,410.33535,0.16449202,-9.782789044000001,1.1257235696,5.07692936,-5.34650066,2.53748437,,,
imu,410.343842,0.1770532288,-9.7821908912,1.130508792,4.93486807,-5.443700489999999,2.06643904,,,
imu,410.352335,0.2039701048,-9.805518850400002,1.1083771384,4.80028369,-5.488561949999999,1.78979337,,,
imu,410.360914,0.2207183832,-9.881484256,1.124527264,4.54606875,-5.600715599999999,1.40847096,,,
imu,410.369407,0.2201202304,-9.922158646400002,1.1340977088,4.30680763,-5.51846959,1.22902512,,,
imu,410.3779,0.2117460912,-9.910793743200001,1.1263217224,4.08250033,-5.578284869999999,1.20659439,,,
imu,410.386392,0.2105497856,-9.880886103200002,1.1287143336,3.76847011,-5.43622358,1.57296298,,,
imu,410.394885,0.2296906752000001,-9.8563618384,1.1352940144,3.3871477,-5.21939319,2.15616196,,,
imu,410.403378,0.2386629672,-9.8228652816,1.1000029992,3.20022495,-4.95022443,2.51505364,,,
imu,410.411871,0.2524204816,-9.808509614400002,1.0844510264,3.34976315,-4.47170219,2.82908386,,,
imu,410.420363,0.2769447464000001,-9.802528086400002,1.0934233184,3.45443989,-4.06794905,3.06086807,,,
imu,410.428856,0.2865151912,-9.8013317808,1.0994048464,3.28994787,-3.92588776,3.34499065,,,
imu,410.437349,0.3032634696000001,-9.801929933600002,1.0922270128,3.15536349,-3.61933445,3.31508301,,,
imu,410.445842,0.3116376088,-9.813892989600001,1.1011993048,3.282470959999999,-3.20062749,3.21788318,,,
imu,410.454335,0.3074505392,-9.818678212000002,1.094619624,3.14788658,-2.96884328,2.8589915,,,
imu,410.462827,0.3224043592,-9.803724392000001,1.0850491792,2.96096383,-2.7594898,2.32065398,,,
imu,410.47132,0.3206099008000001,-9.796546558400001,1.0802639568,2.47496468,-2.50527486,1.85708556,,,
imu,410.479813,0.3337692624,-9.7845835024,1.082656568,2.37776485,-2.04170644,1.53557843,,,
imu,410.488306,0.3427415544,-9.787574266400002,1.0784694984,2.18336519,-1.6379533,1.19164057,,,
imu,409.083922,,,,,,,80.15246439999999,-39.15462440000002,130.0738344
imu,409.185362,,,,,,,80.44543719999999,-39.55746200000001,126.5215392
imu,409.286894,,,,,,,77.9063396,-38.87385880000001,128.8653216
imu,409.388487,,,,,,,77.6377812,-38.64192200000001,128.6822136
imu,409.489958,,,,,,,76.86872760000001,-39.02034520000002,128.035232
imu,409.591612,,,,,,,76.86872760000001,-39.17903880000002,127.1318992
imu,409.693175,,,,,,,77.1861148,-39.008138,128.401448
imu,409.794829,,,,,,,77.4790876,-38.88606600000002,128.1084752
imu,410.496799,0.3570972216000001,-9.749890640000002,1.0700953592,2.07121154,-1.1893387,1.00471782,,,
imu,410.505291,0.3726491944000001,-9.738525736800002,1.0730861232,2.05625772,-0.8753084800000002,0.66825687,,,
imu,410.513784,0.3690602776000001,-9.725964528,1.0611230672,2.09364227,-0.35192478,0.44394957,,,
imu,410.522277,0.3720510416,-9.714001472000001,1.0611230672,2.24318047,0.08173599999999981,0.4514264799999999,,,
imu,410.53077,0.3953790008,-9.693066124000001,1.0671045952,2.49739541,0.5527813299999997,0.5187186700000002,,,
imu,410.539634,0.3989679176000001,-9.7056273328,1.0754787344,2.6394567,0.80699627,0.242073,,,
imu,410.548499,0.3989679176000001,-9.7301515976,1.0898344016,2.69927198,1.18831868,-0.09438795,,,
imu,410.557364,0.4055475984,-9.759461084800002,1.0898344016,2.94601001,1.55468727,-0.25887997,,,
imu,410.566228,0.4073420568000001,-9.800733628000001,1.085647332,3.04320984,1.77151766,-0.3411259799999999,,,
imu,410.575093,0.424688488,-9.8264541984,1.0904325544,3.03573293,2.04068642,-0.5355256399999999,,,
imu,410.583958,0.430670016,-9.867128588800002,1.0958159296,3.04320984,2.30985518,-0.5579563699999999,,,
imu,410.592823,0.4438293776000001,-9.881484256,1.0814602624,2.73665653,2.30985518,-0.71497148,,,
imu,410.601687,0.439642308,-9.876699033600001,1.0772731928,2.58711833,2.46687029,-0.8794635,,,
imu,410.610552,0.4384460024000001,-9.8563618384,1.0814602624,2.46001086,2.6238854,-0.90937114,,,
imu,410.619417,0.442633072,-9.803126239200001,1.0683009008,2.15345755,2.63136231,-1.00657097,,,
imu,410.628281,0.4402404608,-9.800135475200001,1.0563378448,2.02635008,2.67622377,-1.33555501,,,
imu,410.637146,0.4498109056,-9.815687448000002,1.0431784832,2.25065738,2.78090051,-1.54490849,,,
imu,410.646011,0.4689517952000001,-9.8043225448,1.0401877192,2.13102682,2.81080815,-1.94118472,,,
imu,410.654875,0.4910834488,-9.783387196800001,1.0371969552,1.90671952,2.63136231,-2.21783039,,,
imu,410.66374,0.5257763112000001,-9.7714241408,1.028822816,1.78708896,2.54163939,-2.63653735,,,
imu,410.672605,0.5491042704000001,-9.8013317808,1.0222431352,1.92167334,2.48182411,-2.78607555,,,
imu,410.68147,0.55329134,-9.8294449624,1.0144671488,2.01139626,2.23508608,-3.11505959,,,
imu,410.690334,0.5538894928000001,-9.859950755200002,1.007887468,1.91419643,1.94348659,-3.39170526,,,
imu,410.699199,0.5437208952000001,-9.8653341304,1.0252338992,1.68241222,1.56216418,-3.83284295,,,
imu,410.708064,0.5389356728,-9.872511964000001,1.0312154272,1.37585891,1.27056469,-4.169303899999999,,,
imu,410.716928,0.5185984776000001,-9.8647359776,1.0383932608,1.11416706,1.02382666,-4.34874974,,,
imu,410.725793,0.4892889904,-9.845595088000001,1.0431784832,0.67302937,0.84438082,-4.64034923,,,
imu,410.734658,0.4599795032,-9.825856045600002,1.0174579128,0.19450713,0.5303505999999998,-4.759979789999999,,,
imu,410.743028,0.4330626272,-9.8043225448,1.0252338992,-0.09709236,0.4331507699999997,-4.92447181,,,
imu,410.751399,0.4264829464000001,-9.798341016800002,1.0276265104,-0.43355331,0.4630584099999999,-5.12634838,,,
imu,410.75977,0.4199032656,-9.772022293600001,1.0282246632,-0.73262971,0.4854891399999999,-5.33570186,,,
imu,410.768141,0.4037531400000001,-9.76484446,1.0306172744,-0.77001426,0.4854891399999999,-5.44785551,,,
imu,410.776511,0.3887993200000001,-9.772022293600001,1.0324117328,-0.97189083,0.41819695,-5.545055339999999,,,
imu,410.784882,0.3714528888,-9.788770572,1.0210468296,-1.08404448,0.4630584099999999,-5.68711663,,,
imu,410.793253,0.3654713608,-9.783387196800001,1.0312154272,-1.24105959,0.4032431299999999,-5.634778259999999,,,
imu,410.801623,0.361882444,-9.7510869456,1.0455710944,-1.27844414,0.4555814999999996,-5.53010152,,,
imu,410.809994,0.3307784984000001,-9.752283251200002,1.0449729416,-1.3233056,0.66493498,-5.32074804,,,
imu,410.818365,0.3086468448,-9.828846809600002,1.0467674,-1.23358268,0.70231953,-4.93942563,,,
imu,410.826736,0.3236006648,-9.88447502,1.0665064424,-1.45041307,0.9640113799999996,-4.68521069,,,
imu,410.835106,0.3469286240000001,-9.880886103200002,1.0814602624,-1.90650458,1.30047233,-4.26650373,,,
imu,410.843477,0.3505175408000001,-9.910793743200001,1.0898344016,-2.34764227,1.50982581,-4.07210407,,,
imu,410.851848,0.3738455000000001,-9.957449661600002,1.0958159296,-2.48970356,1.70422547,-3.90761205,,,
imu,410.860218,0.3941826952,-9.9616367312,1.1047882216,-2.99813344,1.84628676,-3.8702275,,,
imu,410.868589,0.4049494456000001,-9.9718053288,1.1263217224,-3.62619388,1.96591732,-3.80293531,,,
imu,410.87696,0.3995660704000001,-9.964029342400002,1.139481084,-4.254254319999999,2.18274771,-3.48142818,,,
imu,410.885331,0.4025568344,-9.885671325600002,1.1257235696,-4.64305364,2.11545552,-3.30198234,,,
imu,410.893701,0.4228940296000001,-9.8049206976,1.10658268,-4.94960695,2.07807097,-3.35432071,,,
imu,410.902072,0.4252866408000001,-9.7636481544,1.1059845272,-5.06923751,2.08554788,-3.24216706,,,
imu,410.910443,0.4414367664,-9.7283571392,1.1167512776,-4.99446841,2.01077878,-3.06272122,,,
imu,410.918813,0.4498109056,-9.702038416,1.1412755424,-4.99446841,1.98834805,-3.08515195,,,
imu,410.927184,0.4599795032,-9.696056888000001,1.145462612,-4.9122224,1.74908693,-3.04029049,,,
imu,410.935555,0.4737370176,-9.709814402400001,1.1466589176,-4.613146,1.46496435,-3.01038285,,,
imu,410.944074,0.4755314760000001,-9.7122070136,1.1550330568,-4.605669089999999,1.18084177,-3.18982869,,,
imu,410.952594,0.4785222400000001,-9.6876827488,1.1657998072,-4.36640797,1.06121121,-3.23469015,,,
imu,410.961113,0.4898871432,-9.667943706400001,1.1837443912,-4.35893106,0.7920424499999998,-3.2720747,,,
imu,410.969633,0.4797185456,-9.667345553600002,1.1777628632,-4.08228539,0.5453044199999999,-3.36179762,,,
imu,410.978152,0.4797185456,-9.669738164800002,1.202287128,-3.97013174,0.08921290999999965,-3.56367419,,,
imu,410.986672,0.4809148512,-9.666149248000002,1.2010908224,-3.55142478,-0.007986920000000008,-3.43656672,,,
imu,410.995191,0.4719425592000001,-9.654784344800001,1.2178391008,-3.05794872,-0.09770984000000027,-3.25712088,,,
imu,411.003711,0.4240903352000001,-9.648204664000001,1.2148483368,-2.75887232,-0.3594016900000003,-3.04029049,,,
imu,411.01223,0.4181088072000001,-9.648204664000001,1.2178391008,-2.42241137,-0.2921095,-2.79355246,,,
imu,411.02075,0.4264829464000001,-9.6643547896,1.2399707544,-1.92893531,-0.2696787700000001,-2.62906044,,,
imu,411.029269,0.4073420568000001,-9.669738164800002,1.2549245744,-1.37564397,-0.06780220000000003,-2.27764567,,,
imu,411.037789,0.4031549872,-9.682299373600001,1.2686820888,-1.12142903,0.08921290999999965,-1.76173888,,,
imu,411.046308,0.3899956256000001,-9.687084596000002,1.2896174368,-0.82235263,0.1789358299999999,-1.31312428,,,
imu,411.054828,0.4121272792,-9.697253193600002,1.3027767984,-0.71019898,0.3434278499999999,-1.05143243,,,
imu,411.063347,0.4282774048000001,-9.697851346400002,1.297991576,-0.36626112,0.4331507699999997,-0.82712513,,,
imu,411.071867,0.4097346680000001,-9.668541859200001,1.2985897288,-0.22419983,0.6873657099999999,-0.71497148,,,
imu,411.080386,0.43366078,-9.669140012000002,1.2973934232,0.13469185,0.9191499199999997,-0.4682334499999998,,,
imu,411.088906,0.4468201416000001,-9.671532623200001,1.3063657152,0.32909151,1.02382666,-0.4981410899999998,,,
imu,411.097425,0.4366515440000001,-9.685290137600001,1.3135435488,0.4711528,0.98644211,-0.74487912,,,
imu,411.105945,0.442633072,-9.7283571392,1.312945396,0.620691,0.9041961000000001,-1.0290017,,,
imu,411.114464,0.4599795032,-9.779200127200001,1.3243102992,0.9646288599999999,1.07616503,-1.28321664,,,
imu,411.122984,0.4504090584,-9.793555794400001,1.3153380072,1.15155161,1.18831868,-1.44023175,,,
imu,411.131503,0.4551942808000001,-9.7714241408,1.3147398544,1.12912088,1.17336486,-1.50752394,,,
imu,411.140023,0.4695499480000001,-9.730749750400001,1.3165343128,1.09173633,1.37524143,-1.39537029,,,
imu,411.148448,0.4761296288000001,-9.709216249600003,1.3201232296,1.12164397,1.69674856,-1.02152479,,,
imu,411.156873,0.4707462536000001,-9.727758986400001,1.3153380072,1.39828964,1.98087114,-0.6102947399999998,,,
imu,411.165299,0.4629702672000001,-9.743310959200002,1.2985897288,1.46558183,2.18274771,-0.37103362,,,
imu,411.173724,0.4970649768000001,-9.739722042400002,1.2854303672,1.60764312,2.51920866,-0.31869525,,,
imu,411.18215,0.5042428104000001,-9.702038416,1.274065464,1.76465823,2.57902394,-0.55047946,,,
imu,411.190575,0.5084298800000001,-9.679308609600001,1.2788506864,2.07121154,2.75846978,-0.7299252999999999,,,
imu,411.199,0.4952705184000001,-9.6709344704,1.2668876304,2.20579592,2.6986545,-0.9243249599999999,,,
imu,411.207426,0.4851019208000001,-9.696655040800001,1.274065464,2.38524176,2.56407012,-1.23087827,,,
imu,411.215851,0.4797185456,-9.702038416,1.2668876304,2.46748777,2.4743472,-1.70940051,,,
imu,411.224277,0.4779240872000001,-9.703234721600001,1.2543264216,2.43010322,2.48930102,-1.99352309,,,
imu,411.232702,0.4958686712000001,-9.696655040800001,1.2603079496,2.54973378,2.59397776,-2.13558438,,,
imu,411.241127,0.4803166984,-9.7086180968,1.2495411992,2.64693361,2.63136231,-2.15801511,,,
imu,411.249553,0.4892889904,-9.706225485600001,1.2405689072,2.84133327,2.61640849,-2.09072292,,,
imu,411.257978,0.4803166984,-9.684093832000002,1.229204004,2.81890254,2.66126995,-1.86641562,,,
imu,411.266404,0.4839056152000001,-9.687084596000002,1.2333910736,3.0133022,2.60145467,-1.56733922,,,
imu,411.274829,0.4677554896000001,-9.701440263200002,1.223222476,3.27499405,2.69117759,-1.47013939,,,
imu,411.283254,0.4833074624000001,-9.7331423616,1.2130538784,3.29742478,2.88557725,-1.49257012,,,
imu,411.29168,0.4988594352000001,-9.731946056000002,1.2094649616,3.23013259,2.96782326,-1.49257012,,,
imu,411.300105,0.5305615336,-9.743310959200002,1.217240948,3.34976315,3.00520781,-1.6271545,,,
imu,411.308531,0.5317578392000001,-9.7702278352,1.2226243232,3.43200916,3.0725,-1.7019236,,,
imu,409.896269,,,,,,,80.28674360000001,-39.09358840000002,127.5713584
imu,410.005675,,,,,,,78.7608436,-39.11800280000002,129.3536096
imu,410.107237,,,,,,,81.9347156,-40.289894,127.1685208
imu,410.216582,,,,,,,79.8716988,-38.91048040000003,128.9996008
imu,410.318144,,,,,,,83.11881400000001,-39.83822760000002,127.2295568
imu,410.419737,,,,,,,81.1778692,-39.49642600000001,130.1226632
imu,410.5213,,,,,,,81.60512120000001,-39.26448920000001,130.4034288
imu,410.622832,,,,,,,81.78822919999999,-39.42318280000001,130.3546
imu,411.316956,0.5389356728,-9.800135475200001,1.2208298648,3.37967079,3.08745382,-1.7019236,,,
imu,411.325381,0.5556839512000001,-9.8132948368,1.2166427952,3.11797894,3.19960747,-1.87389253,,,
imu,411.333807,0.5473098120000001,-9.806715156000001,1.223222476,2.94601001,3.24446893,-2.03090764,,,
imu,411.342232,0.5514968816000001,-9.802528086400002,1.2166427952,2.83385636,3.36409949,-2.10567674,,,
imu,411.350724,0.5437208952000001,-9.783985349600002,1.2076705032,2.69927198,3.33419185,-2.35241477,,,
imu,411.359215,0.5407301312,-9.7612555432,1.2118575728,2.54973378,3.3715764,-2.48699915,,,
imu,411.367707,0.5389356728,-9.730749750400001,1.190324072,2.51234923,3.53606842,-2.75616791,,,
imu,411.376198,0.5425245896,-9.727160833600001,1.199296364,2.84881018,3.58840679,-2.83093701,,,
imu,411.38469,0.5449172008000001,-9.758862932000001,1.1939129888,3.17779422,3.55849915,-3.03281358,,,
imu,411.393181,0.5574784096000001,-9.7474980288,1.1765665576,3.3123786,3.52859151,-3.24216706,,,
imu,411.401673,0.5598710208000001,-9.697253193600002,1.1867351552,3.60397809,3.58092988,-3.27955161,,,
imu,411.410164,0.5586747152,-9.6954587352,1.1998945168,3.61893191,3.55849915,-3.07767504,,,
imu,411.418656,0.5610673264,-9.739123889600002,1.1969037528,3.94043904,3.56597606,-2.78607555,,,
imu,411.427147,0.5604691736,-9.770825988000002,1.1927166832,4.06754651,3.65569898,-2.3748455,,,
imu,411.435639,0.5808063688,-9.783387196800001,1.1849406968,3.93296213,3.5958837,-2.38232241,,,
imu,411.44413,0.5939657304000001,-9.769629682400002,1.1921185304,3.73856247,3.20708438,-2.53186061,,,
imu,411.452544,0.6017417168000001,-9.7821908912,1.1801554744,3.77594702,3.09493073,-2.49447606,,,
imu,411.461036,0.5981528,-9.767835224,1.1580238208,3.74603938,2.9977309,-2.50942988,,,
imu,411.469527,0.6005454112,-9.727160833600001,1.145462612,3.611455,2.81080815,-2.57672207,,,
imu,411.478019,0.5909749664,-9.689477207200001,1.1329014032,3.7609932,2.75099287,-2.44213769,,,
imu,411.48651,0.5927694248,-9.671532623200001,1.1299106392,3.78342393,2.60893158,-2.43466078,,,
imu,411.495002,0.6029380224,-9.6733270816,1.1221346528,3.90305449,2.49677793,-2.30755331,,,
imu,411.503493,0.601143564,-9.675719692800001,1.1227328056,4.29185381,2.56407012,-2.06829219,,,
imu,411.511985,0.5999472584000001,-9.692467971200001,1.1257235696,4.516161110000001,2.54163939,-1.70940051,,,
imu,411.520476,0.6041343280000001,-9.70502918,1.1203401944,4.62831476,2.51920866,-1.54490849,,,
imu,411.528968,0.61310662,-9.7086180968,1.0958159296,4.7329915,2.42200883,-1.50752394,,,
imu,411.537459,0.6238733704,-9.7193848472,1.109573444,4.70308386,2.49677793,-1.44023175,,,
imu,411.545951,0.6388271904000001,-9.727160833600001,1.109573444,4.84514515,2.31733209,-1.35050883,,,
imu,411.554796,0.6513883992,-9.745703570400002,1.0982085408,4.8077606,2.22760917,-1.41032411,,,
imu,411.563641,0.6693329832000001,-9.763050001600002,1.0970122352,4.86757588,2.21265535,-1.54490849,,,
imu,411.572485,0.6735200528,-9.789368724800001,1.07667504,4.87505279,2.15284007,-1.60472377,,,
imu,411.58133,0.6806978864000002,-9.8049206976,1.0718898176,4.79280678,2.01825569,-1.68696978,,,
imu,411.590175,0.6735200528,-9.8049206976,1.0688990536,4.78532987,2.01825569,-1.57481613,,,
imu,411.59902,0.6645477608,-9.801929933600002,1.049758164,4.49373038,1.93600968,-1.61220068,,,
imu,411.607865,0.6501920936000001,-9.773816752000002,1.0425803304,4.4339151,1.92853277,-1.47013939,,,
imu,411.616709,0.6507902464,-9.7492924872,1.0312154272,4.5086842,2.14536316,-1.48509321,,,
imu,411.625554,0.6382290376000002,-9.725964528,1.0234394408,4.56102257,2.29490136,-1.68696978,,,
imu,411.634399,0.6292567456000001,-9.706823638400001,1.0222431352,4.69560695,2.38462428,-1.75426197,,,
imu,411.643244,0.6119103144000001,-9.680504915200002,1.0234394408,4.79280678,2.63136231,-1.96361545,,,
imu,411.652088,0.6107140088,-9.684093832000002,1.0072893152,4.86009897,2.96034635,-2.20287657,,,
imu,411.660933,0.6023398696000001,-9.702038416,1.0204486768,5.09936009,3.33419185,-2.41223005,,,
imu,411.669778,0.5837971328000001,-9.7217774584,0.9947281064000002,5.08440627,3.82766791,-2.47952224,,,
imu,411.678623,0.6029380224,-9.745703570400002,0.9606333968,4.964775710000001,4.08935976,-2.78607555,,,
imu,411.687468,0.6388271904000001,-9.752881404000002,0.9456795768000001,4.92739116,4.50806672,-2.90570611,,,
imu,411.696312,0.6579680800000002,-9.737927584000001,0.9265386872000001,5.106837000000001,4.77723548,-3.03281358,,,
imu,411.705157,0.6783052752000002,-9.7128051664,0.9157719368000001,5.27880593,4.99406587,-3.13749032,,,
imu,411.714002,0.6896701784000001,-9.701440263200002,0.8912476720000001,5.33862121,5.07631188,-3.44404363,,,
imu,411.722847,0.7022313872,-9.723571916800001,0.9008181168,5.62274379,5.046404239999999,-3.60853565,,,
imu,411.731692,0.726755652,-9.749890640000002,0.8960328944000001,5.80966654,4.77723548,-4.10948862,,,
imu,411.740536,0.7315408744,-9.769031529600001,0.8780883104000001,5.81714345,4.68751256,-4.408565019999999,,,
imu,411.749381,0.7387187080000002,-9.788770572,0.8876587552000001,6.0788353,4.410866889999999,-4.715118329999999,,,
imu,411.757786,0.7339334856000002,-9.837220948800002,0.9121830200000002,5.98911238,3.93234465,-5.021671639999999,,,
imu,411.766191,0.723764888,-9.9030177568,0.9079959504000001,5.49563632,3.52859151,-5.350655679999999,,,
imu,411.774596,0.7207741240000002,-9.928140174400001,0.88227538,5.17412919,3.2968073,-5.37308641,,,
imu,411.783001,0.7243630408,-9.889858395200001,0.8595455736000001,4.5834533,2.91548489,-5.35813259,,,
imu,411.791406,0.744700236,-9.8749045752,0.8517695872000001,4.20213089,2.59397776,-5.53757843,,,
imu,411.799811,0.7369242496000001,-9.8653341304,0.8152822664000001,3.99277741,2.18274771,-5.739455,,,
imu,411.808217,0.7219704296,-9.845595088000001,0.8033192104000001,3.82080848,1.67431783,-6.00114685,,,
imu,411.816622,0.7183815128000002,-9.844996935200001,0.7973376824000001,3.40957843,1.11354958,-6.292746339999999,,,
imu,411.825027,0.708811068,-9.8593526024,0.8176748776000001,3.42453225,0.7546578999999998,-6.51705364,,,
imu,411.833432,0.684884956,-9.8778953392,0.8278434752000001,3.08059439,0.3658585799999998,-6.883422229999999,,,
imu,411.841837,0.6771089696000001,-9.897634381600001,0.8188711832000002,2.863764,0.07425908999999997,-7.07034498,,,
imu,411.850242,0.6268641344,-9.879091644800003,0.8158804192000001,2.4899185,-0.1425713000000002,-7.249790819999999,,,
imu,411.858647,0.5969564944000001,-9.836024643200002,0.8146841136000001,2.14598064,-0.2771556799999999,-7.01800661,,,
imu,411.867052,0.5873860496000001,-9.803724392000001,0.8170767248000002,1.83942733,-0.2173404000000003,-7.032960429999999,,,
imu,411.875457,0.580208216,-9.800733628000001,0.8164785720000002,1.6674584,-0.2622018600000002,-7.145114079999999,,,
imu,411.883862,0.5658525488000001,-9.811500378400002,0.8164785720000002,1.54782784,-0.3070633200000001,-7.077821889999999,,,
imu,411.892267,0.5431227424,-9.837819101600003,0.8248527112,1.40576655,-0.25472495,-6.928283689999999,,,
imu,411.900672,0.5215892416000001,-9.861147060800002,0.8308342392000001,1.28613599,-0.2696787700000001,-6.771268579999999,,,
imu,411.909077,0.5090280328000001,-9.850380310400002,0.8230582528,0.80761375,-0.2696787700000001,-6.689022570000001,,,
imu,411.917482,0.4922797544,-9.8198745176,0.8332268504000001,0.47862971,-0.08275602000000015,-6.442284539999999,,,
imu,411.925887,0.4868963792000001,-9.8043225448,0.8284416280000001,0.1720764,0.1041667299999998,-6.068439039999999,,,
imu,411.934292,0.4605776560000001,-9.808509614400002,0.8248527112,0.10478421,0.4107200399999997,-5.79179337,,,
imu,411.942697,0.4731388648000001,-9.803126239200001,0.8170767248000002,0.11226112,0.7546578999999998,-5.305794219999999,,,
imu,411.951102,0.4821111568000001,-9.7780038216,0.8182730304000002,0.05992275,1.12102649,-4.89456417,,,
imu,411.959408,0.4982612824000001,-9.7337405144,0.8188711832000002,0.09730729999999999,1.36028761,-4.51324176,,,
imu,411.967714,0.4970649768000001,-9.689477207200001,0.8140859608000002,0.22441477,1.61450255,-4.20668845,,,
imu,411.976019,0.4982612824000001,-9.6499991224,0.8182730304000002,0.53844499,1.76404075,-4.02724261,,,
imu,411.984325,0.4898871432,-9.619493329600001,0.8110951968000001,0.85995212,1.9509635,-3.88518132,,,
imu,411.992631,0.5096261856000001,-9.6284656216,0.8170767248000002,1.18893616,2.07807097,-4.00481188,,,
imu,412.000936,0.5048409632,-9.654784344800001,0.8242545584000001,1.77213514,2.40705501,-4.21416536,,,
imu,412.009242,0.5180003248000001,-9.6984494992,0.8308342392000001,2.10859609,2.45939338,-4.35622665,,,
imu,412.017548,0.5275707696,-9.7337405144,0.8463862120000001,2.35533412,2.41453192,-4.61044159,,,
imu,412.025853,0.5371412144000001,-9.7959484056,0.8553585040000001,2.32542648,2.51173175,-4.887087259999999,,,
imu,412.034159,0.520392936,-9.825257892800002,0.8589474208000002,1.94410407,2.35471664,-5.11139456,,,
imu,412.042465,0.5060372688000001,-9.857558144000002,0.8583492680000002,1.7422275,2.40705501,-5.216071299999999,,,
imu,412.05077,0.5239818528000001,-9.863539672000002,0.8577511152000001,1.24875144,2.42948574,-5.50767079,,,
imu,412.059076,0.5365430616000001,-9.8593526024,0.8511714344000001,1.03192105,2.40705501,-5.76936264,,,
imu,412.067382,0.5371412144000001,-9.8132948368,0.840404684,0.77770611,2.41453192,-6.0385314,,,
imu,412.075687,0.5251781584,-9.775611210400001,0.8380120728000001,0.70293701,2.36219355,-6.270315609999999,,,
imu,412.083993,0.5221873944000001,-9.754675862400001,0.8451899064,0.65807555,2.42948574,-6.487145999999999,,,
imu,412.092299,0.5000557408,-9.769031529600001,0.8451899064,0.80013684,2.40705501,-6.61425347,,,
imu,412.100604,0.4868963792000001,-9.783985349600002,0.8511714344000001,0.80013684,2.36967046,-6.59182274,,,
imu,412.10891,0.4677554896000001,-9.7911631832,0.8655271016000001,0.91229049,2.63136231,-6.50209982,,,
imu,412.117216,0.4456238360000001,-9.803126239200001,0.8613400320000001,0.83004448,2.67622377,-6.59182274,,,
imu,412.125521,0.4324644744,-9.8132948368,0.8685178656000001,0.9646288599999999,2.73603905,-6.360038530000001,,,
imu,410.724403,,,,,,,81.80043640000001,-39.38656120000002,131.0015816
imu,410.826027,,,,,,,82.28872439999999,-39.42318280000001,130.9527528
imu,410.927406,,,,,,,82.3375532,-39.25228200000002,130.1959064
imu,411.02903,,,,,,,83.37516519999998,-39.43539000000001,129.43906
imu,411.131477,,,,,,,81.8248508,-39.17903880000002,130.598744
imu,411.232155,,,,,,,84.53484920000001,-39.63070520000001,128.0230248
imu,411.333717,,,,,,,82.49624680000001,-38.82503000000001,131.1358608
imu,411.435249,,,,,,,85.05975880000001,-39.65511960000001,128.4258624
imu,412.133827,0.4240903352000001,-9.825257892800002,0.8577511152000001,0.81509066,2.7734236,-6.292746339999999,,,
imu,412.142133,0.4205014184,-9.8228652816,0.8523677400000002,0.7403215599999999,2.96782326,-6.42733072,,,
imu,412.150438,0.43366078,-9.773816752000002,0.8374139200000001,0.51601426,2.98277708,-6.374992349999999,,,
imu,412.158744,0.442633072,-9.769629682400002,0.840404684,0.5459219,2.94539253,-6.42733072,,,
imu,412.167378,0.43366078,-9.802528086400002,0.8398065312,0.6281679099999999,2.97530017,-6.47219218,,,
imu,412.176012,0.4252866408000001,-9.800135475200001,0.8242545584000001,0.65807555,2.96034635,-6.45723836,,,
imu,412.184645,0.43366078,-9.772620446400001,0.8374139200000001,0.53096808,2.99025399,-6.419853809999999,,,
imu,412.193279,0.4551942808000001,-9.755872168000002,0.8421991424,0.5982602699999999,2.76594669,-6.382469260000001,,,
imu,412.201913,0.4205014184,-9.7702278352,0.8416009896000001,0.70293701,2.79585433,-6.4123769,,,
imu,412.210547,0.3971734592000001,-9.783985349600002,0.8326286976000001,0.65059864,2.72856214,-6.120777410000001,,,
imu,412.219181,0.3935845424,-9.798341016800002,0.8134878080000001,0.56835263,2.81828506,-5.74693191,,,
imu,412.227815,0.4121272792,-9.800733628000001,0.8194693360000002,0.49358353,2.90800798,-5.522624609999999,,,
imu,412.236448,0.3959771536000001,-9.8013317808,0.8116933496000001,0.35899915,2.82576197,-5.55253225,,,
imu,412.245082,0.3899956256000001,-9.7809945856,0.7997302936000001,0.32909151,2.72108523,-5.545055339999999,,,
imu,412.253716,0.4127254320000001,-9.769031529600001,0.7931506128000001,0.41881443,2.66126995,-5.49271697,,,
imu,412.26235,0.4097346680000001,-9.764246307200002,0.7967395296000002,0.47862971,2.65379304,-5.43290169,,,
imu,412.270984,0.4115291264,-9.762451848800001,0.7865709320000001,0.52349117,2.49677793,-5.3656095,,,
imu,412.279617,0.4121272792,-9.772022293600001,0.7973376824000001,0.6132140899999999,2.45939338,-5.41047096,,,
imu,412.288251,0.4402404608,-9.796546558400001,0.7895616960000001,0.7403215599999999,2.25751681,-5.328224949999999,,,
imu,412.296885,0.4378478496000001,-9.809107767200002,0.7979358352000001,0.80761375,1.89114822,-5.40299405,,,
imu,412.305519,0.4205014184,-9.828846809600002,0.8039173632000001,0.74779847,1.55468727,-5.500193879999999,,,
imu,412.314153,0.400762376,-9.8294449624,0.8075062800000001,0.66555246,1.4275798,-5.45533242,,,
imu,412.322787,0.3947808480000001,-9.858754449600001,0.8218619472,0.58330645,1.36028761,-5.283363489999999,,,
imu,412.33142,0.3846122504,-9.882680561600003,0.8392083784000002,0.2468455,1.41262598,-5.11887147,,,
imu,412.340054,0.3744436528,-9.8946436176,0.8368157672000002,-0.07466163,1.59207182,-4.954379449999999,,,
imu,412.348688,0.3780325696000001,-9.873708269600002,0.840404684,-0.41859949,1.47991817,-4.692687599999999,,,
imu,412.357322,0.3876030144000001,-9.853969227200002,0.8571529624000002,-0.7550604399999999,1.53973345,-4.625395409999999,,,
imu,412.36579,0.3840140976,-9.842006171200001,0.8559566568000001,-1.05413684,1.70422547,-4.647826139999999,,,
imu,412.374259,0.3905937784,-9.8563618384,0.8583492680000002,-1.27096723,1.63693328,-4.78241052,,,
imu,412.382728,0.3899956256000001,-9.8629415192,0.8589474208000002,-1.5476129,1.52477963,-5.216071299999999,,,
imu,412.391196,0.3720510416,-9.8479876992,0.8445917536,-1.59995127,1.33037997,-5.567486069999999,,,
imu,412.399665,0.3582935272000001,-9.812098531200002,0.8547603512000002,-1.65228964,1.24065705,-5.64973208,,,
imu,412.408134,0.3487230824000001,-9.7786019744,0.8571529624000002,-1.71958183,1.18084177,-5.69459354,,,
imu,412.416602,0.3463304712,-9.739722042400002,0.8535640456000001,-1.71210492,1.15841104,-5.73197809,,,
imu,412.425071,0.3212080536,-9.721179305600002,0.8535640456000001,-1.59247436,1.28551851,-5.57496298,,,
imu,412.433539,0.3014690112,-9.7295534448,0.8625363376,-1.48032071,1.38271834,-5.34317877,,,
imu,412.442008,0.3002727056,-9.736731278400002,0.8709104768000001,-1.15133667,1.49487199,-5.02914855,,,
imu,412.450477,0.2781410520000001,-9.719983000000001,0.8727049352000001,-0.89712173,1.63693328,-4.87961035,,,
imu,412.458945,0.2853188856,-9.6817012208,0.8727049352000001,-0.82235263,1.78647148,-4.647826139999999,,,
imu,412.467414,0.2847207328,-9.686486443200002,0.8846679912000001,-0.60552224,1.81637912,-4.52819558,,,
imu,412.475883,0.2990764,-9.689477207200001,0.8828735328,-0.17186146,1.89114822,-4.46090339,,,
imu,412.484351,0.2883096496000001,-9.690075360000002,0.8798827688,0.08235347999999998,2.05564024,-4.52819558,,,
imu,412.49282,0.2907022608000001,-9.680504915200002,0.8816772272000001,0.60573718,2.14536316,-4.602964679999999,,,
imu,412.501288,0.3080486920000001,-9.696655040800001,0.8804809216,0.9571519499999999,2.13040934,-4.74502597,,,
imu,412.509757,0.3104413032000001,-9.721179305600002,0.8750975464000001,1.35342818,2.08554788,-4.81231816,,,
imu,412.518226,0.2913004136,-9.746301723200002,0.8858642968000001,1.54035093,2.07059406,-4.66277996,,,
imu,412.526694,0.2853188856,-9.7809945856,0.9085941032000001,1.79456587,2.29490136,-4.386134289999999,,,
imu,412.535163,0.2972819416,-9.817481906400001,0.9062014920000001,1.90671952,2.25751681,-4.15435008,,,
imu,412.543561,0.2895059552,-9.842006171200001,0.9014162696000001,1.86185806,2.10797861,-3.93751969,,,
imu,412.55203,0.2769447464000001,-9.832435726400002,0.9056033392000001,1.83942733,2.10797861,-3.65339711,,,
imu,412.560499,0.2823281216,-9.834230184800003,0.9079959504000001,1.68988913,1.93600968,-3.36927453,,,
imu,412.569329,0.2877114968,-9.825856045600002,0.9050051864,1.45810492,1.96591732,-3.24216706,,,
imu,412.578159,0.2829262744000001,-9.80970592,0.9103885616000001,1.39828964,2.09302479,-3.06272122,,,
imu,412.586989,0.2835244272,-9.797144711200001,0.8990236584000001,1.2936129,1.94348659,-2.90570611,,,
imu,412.595819,0.296085636,-9.761853696000001,0.8978273528000001,1.23379762,1.92853277,-2.62906044,,,
imu,412.60465,0.2895059552,-9.7427128064,0.8828735328,1.22632071,2.11545552,-2.33746095,,,
imu,412.61348,0.2739539824000001,-9.744507264800001,0.8906495192000001,1.46558183,2.19770153,-2.09819983,,,
imu,412.62231,0.2590001624000001,-9.742114653600002,0.8978273528000001,1.5926893,2.27247063,-2.001,,,
imu,412.63114,0.2637853848,-9.748096181600001,0.8984255056000002,1.64502767,2.41453192,-2.12063056,,,
imu,412.63997,0.2727576768,-9.735534972800002,0.8936402832000001,1.8917657,2.55659321,-2.30755331,,,
imu,412.6488,0.2655798432,-9.790565030400002,0.9145756312000002,1.8917657,2.72856214,-2.40475314,,,
imu,412.657631,0.2847207328,-9.8234634344,0.9163700896000002,1.99644244,2.81828506,-2.43466078,,,
imu,412.666461,0.3044597752,-9.8461932408,0.9115848672000001,1.95158098,2.85566961,-2.56924516,,,
imu,412.675291,0.3206099008000001,-9.8270523512,0.9079959504000001,1.71979677,2.88557725,-2.68887572,,,
imu,412.684121,0.3475267768,-9.803126239200001,0.9073977976000001,1.77961205,3.00520781,-2.51690679,,,
imu,412.692951,0.3463304712,-9.797742864000002,0.8918458248000001,1.82447351,3.10240764,-2.39727623,,,
imu,412.701782,0.3570972216000001,-9.792957641600001,0.8727049352000001,1.82447351,3.01268472,-2.32998404,,,
imu,412.710612,0.3672658192000001,-9.776209363200001,0.8565548096000002,1.8169966,2.87810034,-2.56176825,,,
imu,412.719442,0.3762381112000001,-9.7474980288,0.8314323920000001,1.95158098,2.64631613,-2.78607555,,,
imu,412.728272,0.376836264,-9.710412555200001,0.8296379336000002,2.31047266,2.72108523,-2.91318302,,,
imu,412.737102,0.3493212352000001,-9.7151977776,0.8302360864000001,2.36281103,2.4743472,-3.00290594,,,
imu,412.745933,0.3271895816000001,-9.742114653600002,0.8200674888,2.66936434,2.48182411,-3.0477674,,,
imu,412.754763,0.3134320672,-9.777405668800002,0.8182730304000002,2.75161035,2.42948574,-3.15244414,,,
imu,412.763593,0.3176191368,-9.8013317808,0.8158804192000001,2.65441052,2.58650085,-3.13001341,,,
imu,412.772059,0.320011748,-9.819276364800002,0.8140859608000002,2.42262631,2.6238854,-3.29450543,,,
imu,412.780525,0.3241988176,-9.828248656800001,0.8069081272,2.19831901,2.6238854,-3.29450543,,,
imu,412.788991,0.3343674152,-9.832435726400002,0.8033192104000001,2.05625772,2.78090051,-3.14496723,,,
imu,412.797457,0.3505175408000001,-9.8270523512,0.8015247520000001,1.92915025,2.8481927,-3.13749032,,,
imu,412.805923,0.3564990688,-9.841408018400001,0.8087025856000001,1.69736604,2.9229618,-3.17487487,,,
imu,412.81439,0.3624805968,-9.849184004800001,0.8128896552000001,1.55530475,2.84071579,-3.26459779,,,
imu,412.822856,0.3648732080000001,-9.836622796,0.8057118216000001,1.39828964,2.74351596,-3.45899745,,,
imu,412.831322,0.3702565832000001,-9.819276364800002,0.8087025856000001,1.31604363,2.6238854,-3.62348947,,,
imu,412.839788,0.3594898328000001,-9.809107767200002,0.8266471696000001,1.20388998,2.53416248,-3.69825857,,,
imu,412.848254,0.3487230824000001,-9.8228652816,0.8260490168000001,1.08425942,2.36967046,-3.76555076,,,
imu,412.85672,0.3367600264,-9.8330338792,0.8170767248000002,1.12164397,2.23508608,-3.7206893,,,
imu,412.865186,0.3325729568,-9.824659740000001,0.8188711832000002,1.03939796,2.3995781,-3.65339711,,,
imu,412.873652,0.3475267768,-9.820472670400001,0.8057118216000001,0.97210577,2.49677793,-3.51881273,,,
imu,412.882118,0.3822196392,-9.830641268,0.8230582528,0.88985976,2.56407012,-3.21225942,,,
imu,412.890584,0.4354552384000001,-9.8719138112,0.8481806704000001,0.9272443100000001,2.88557725,-2.77859864,,,
imu,412.89905,0.4737370176,-9.902419604000002,0.8571529624000002,0.9347212199999999,2.91548489,-2.23278421,,,
imu,412.907516,0.517402172,-9.88447502,0.8625363376,0.55339881,2.44443956,-1.79164652,,,
imu,412.915983,0.5544876456000001,-9.820472670400001,0.8601437264,0.25432241,1.83880985,-1.57481613,,,
imu,412.924449,0.5676470072,-9.7815927384,0.8535640456000001,0.29170696,1.03130357,-1.35050883,,,
imu,412.932915,0.5443190480000001,-9.7492924872,0.8356194616000001,0.3216146,-0.02294074000000013,-1.20844754,,,
imu,412.941381,0.5042428104000001,-9.744507264800001,0.8559566568000001,0.53844499,-0.9351237599999997,-1.19349372,,,
imu,412.949847,0.4557924336,-9.743310959200002,0.8493769760000001,0.71789083,-1.53327656,-1.21592445,,,
imu,411.536812,,,,,,,82.9723276,-39.10579560000001,130.3301856
imu,411.638588,,,,,,,82.77701239999999,-39.33773240000002,130.8184736
imu,411.739937,,,,,,,82.55728280000001,-39.47201160000002,130.2569424
imu,411.841499,,,,,,,83.2042644,-39.66732680000003,130.2691496
imu,411.943031,,,,,,,83.08219240000001,-39.63070520000001,130.5132936
imu,412.044716,,,,,,,83.48503000000001,-39.74057000000002,129.7686544
imu,412.150429,,,,,,,82.32534600000001,-40.49741640000002,130.9405456
imu,412.24778,,,,,,,84.46160600000002,-40.85142520000002,127.5225296
imu,412.958313,0.4109309736,-9.7427128064,0.8553585040000001,0.9048135799999999,-2.25853683,-1.41032411,,,
imu,412.966779,0.3307784984000001,-9.7540777096,0.8505732816000001,1.16650543,-2.48284413,-1.54490849,,,
imu,412.975241,0.2859170384,-9.7809945856,0.840404684,1.33099745,-2.58004396,-1.48509321,,,
imu,412.983704,0.2536167872,-9.767835224,0.8427972952,1.38333582,-2.39312121,-1.52247776,,,
imu,412.992166,0.2326814392,-9.7809945856,0.8344231560000002,1.25622835,-2.06413717,-1.61967759,,,
imu,413.000628,0.2249054528,-9.7821908912,0.8350213088000001,1.39081273,-1.67533785,-1.44023175,,,
imu,413.00909,0.206362716,-9.782789044000001,0.8457880592000001,1.2936129,-0.9725083100000003,-1.58976995,,,
imu,413.017553,0.2117460912,-9.788770572,0.8535640456000001,1.16650543,-0.1276174800000001,-1.5523854,,,
imu,413.026015,0.2464389536,-9.798341016800002,0.8571529624000002,1.26370526,0.44062768,-1.49257012,,,
imu,413.034477,0.2518223288000001,-9.8013317808,0.8565548096000002,1.09173633,1.01634975,-1.5523854,,,
imu,413.042939,0.2410555784,-9.803126239200001,0.8571529624000002,1.01696723,1.68927165,-1.29069355,,,
imu,413.051402,0.2697669128,-9.8079114616,0.8541621984000002,0.97210577,2.48930102,-1.29069355,,,
imu,413.059864,0.3158246784000001,-9.788770572,0.8451899064,0.9347212199999999,3.02763854,-1.36546265,,,
imu,413.068326,0.3253951232,-9.746899876,0.8535640456000001,0.9347212199999999,3.62579134,-1.61220068,,,
imu,413.076789,0.3236006648,-9.7193848472,0.8511714344000001,0.97210577,4.02206757,-1.98604618,,,
imu,413.085251,0.3020671640000001,-9.789368724800001,0.8744993936000002,1.09921324,4.51554363,-2.11315365,,,
imu,413.093713,0.3056560808,-9.8330338792,0.8697141712000002,1.10669015,5.15108098,-2.14306129,,,
imu,413.102175,0.3212080536,-9.824659740000001,0.8529658928000001,0.94219813,5.898771979999999,-2.32998404,,,
imu,413.110638,0.3427415544,-9.7911631832,0.8445917536,0.68798319,6.30252512,-2.53933752,,,
imu,413.1191,0.3732473472,-9.798341016800002,0.8368157672000002,0.66555246,6.69132444,-2.72626027,,,
imu,413.127562,0.4187069600000001,-9.812098531200002,0.8075062800000001,0.65059864,7.1100314,-2.71130645,,,
imu,413.136024,0.4611758088,-9.8432024768,0.8009265992000001,0.56835263,7.30443106,-2.8234601,,,
imu,413.144487,0.4898871432,-9.844996935200001,0.7979358352000001,0.41133752,7.341815609999999,-3.09262886,,,
imu,413.152949,0.5257763112000001,-9.813892989600001,0.7925524600000001,0.20946095,7.25209269,-3.21225942,,,
imu,413.161411,0.5568802568000001,-9.818678212000002,0.7913561544000001,0.20946095,7.1100314,-3.22721324,,,
imu,413.169874,0.5766192992000001,-9.8228652816,0.7889635432000001,0.03001510999999998,6.67637062,-3.22721324,,,
imu,413.178333,0.5790119104,-9.807313308800001,0.7859727792000001,-0.21672292,6.063264,-3.40665908,,,
imu,413.186793,0.5861897440000001,-9.7959484056,0.8015247520000001,-0.2765382,5.4651112,-3.46647436,,,
imu,413.195253,0.5903768136,-9.7744149048,0.8057118216000001,-0.30644584,4.807143119999999,-3.66835093,,,
imu,413.203712,0.5736285352000001,-9.7636481544,0.8027210576,-0.2017691,4.246374869999999,-3.83284295,,,
imu,413.212172,0.5562821040000001,-9.762451848800001,0.8206656416,0.0001074699999999984,3.64074516,-4.11696553,,,
imu,413.220632,0.5293652280000001,-9.769031529600001,0.8236564056000001,-0.03727708,3.16969983,-4.3936112,,,
imu,413.229092,0.5090280328000001,-9.7474980288,0.8242545584000001,0.0001074699999999984,2.80333124,-4.625395409999999,,,
imu,413.237551,0.4731388648000001,-9.714599624800002,0.8218619472,0.16459949,2.56407012,-4.57305704,,,
imu,413.246011,0.4450256832000001,-9.696655040800001,0.8140859608000002,0.30666078,2.19022462,-4.647826139999999,,,
imu,413.254471,0.4121272792,-9.702636568800001,0.8116933496000001,0.71789083,2.03320951,-4.72259524,,,
imu,413.262931,0.3893974728000001,-9.708019944000002,0.8093007384,0.9945364999999999,1.98834805,-4.909517989999999,,,
imu,413.27139,0.3780325696000001,-9.7295534448,0.8152822664000001,1.39081273,1.9509635,-5.14877911,,,
imu,413.27985,0.3433397072,-9.770825988000002,0.8254508640000001,1.72727368,2.15284007,-5.47028624,,,
imu,413.28831,0.3212080536,-9.787574266400002,0.8314323920000001,1.93662716,2.28742445,-5.41047096,,,
imu,413.296769,0.3176191368,-9.800135475200001,0.8338250032000001,1.98148862,2.42948574,-5.38056332,,,
imu,413.305229,0.3062542336,-9.8043225448,0.8380120728000001,1.98148862,2.50425484,-5.16373293,,,
imu,413.313689,0.3337692624,-9.7989391696,0.8469843648000001,1.7422275,2.58650085,-4.78241052,,,
imu,413.322149,0.3559009160000001,-9.7714241408,0.8212637944000001,1.71979677,2.78837742,-4.44594957,,,
imu,413.330608,0.35889168,-9.7606573904,0.8356194616000001,1.73475059,2.75099287,-4.30388828,,,
imu,413.339068,0.370854736,-9.76484446,0.8457880592000001,1.73475059,2.51920866,-4.34874974,,,
imu,413.347528,0.382817792,-9.7821908912,0.8344231560000002,1.76465823,2.324809,-4.29641137,,,
imu,413.355988,0.3870048616000001,-9.802528086400002,0.8386102256000002,1.83942733,2.01825569,-4.22164227,,,
imu,413.364447,0.3672658192000001,-9.844996935200001,0.8433954480000001,2.01887317,1.81637912,-4.102011709999999,,,
imu,413.372907,0.3463304712,-9.874306422400002,0.8631344904,1.95158098,1.62197946,-3.91508896,,,
imu,413.381373,0.320011748,-9.834230184800003,0.8601437264,1.80951969,1.52477963,-3.50385891,,,
imu,413.389839,0.2984782472,-9.7750130576,0.8523677400000002,1.49548947,1.71917929,-2.80102937,,,
imu,413.398305,0.2918985664000001,-9.7636481544,0.840404684,1.48053565,1.83880985,-2.23278421,,,
imu,413.406771,0.3056560808,-9.785181655200002,0.8457880592000001,1.56278166,2.19022462,-1.93370781,,,
imu,413.415237,0.3499193880000001,-9.779200127200001,0.8164785720000002,1.53287402,2.41453192,-1.58976995,,,
imu,413.423703,0.3977716120000001,-9.7474980288,0.8063099744000001,1.77213514,2.43696265,-1.45518557,,,
imu,413.43217,0.4121272792,-9.714001472000001,0.7889635432000001,2.01887317,2.49677793,-1.61220068,,,
imu,413.440636,0.4330626272,-9.679308609600001,0.7722152648000001,2.30299575,2.3995781,-1.83650798,,,
imu,413.449102,0.415716196,-9.669738164800002,0.7578595976000001,2.65441052,2.30237827,-2.08324601,,,
imu,413.457568,0.391790084,-9.651793580800001,0.7488873056,3.14788658,2.46687029,-2.21035348,,,
imu,413.466034,0.3899956256000001,-9.639232372,0.7393168608000001,3.57407045,2.4743472,-2.38232241,,,
imu,413.4745,0.3929863896,-9.657775108800001,0.7285501104000001,3.947915950000001,2.45191647,-2.47952224,,,
imu,413.482966,0.3600879856,-9.6799067624,0.7351297912000001,4.47129965,2.67622377,-2.30755331,,,
imu,413.491432,0.3648732080000001,-9.752283251200002,0.7566632920000002,4.80028369,2.93791562,-2.35989168,,,
imu,413.499898,0.3935845424,-9.806715156000001,0.7584577504000002,4.85262206,3.20708438,-2.36736859,,,
imu,413.508364,0.4097346680000001,-9.853969227200002,0.7500836112000001,4.67317622,3.25194584,-2.3000764,,,
imu,413.51683,0.3451341656,-9.863539672000002,0.7542706808000001,4.359146,3.31176112,-2.17296893,,,
imu,413.525297,0.3445360128,-9.867726741600002,0.7686263480000001,4.06754651,3.68560662,-2.16549202,,,
imu,413.533763,0.3564990688,-9.903615909600001,0.7710189592000001,3.54416281,3.76037572,-2.21783039,,,
imu,413.542229,0.3684621248000001,-9.932327244000001,0.7734115704000001,3.13293276,4.14169813,-2.31503022,,,
imu,413.550695,0.3630787496,-9.922158646400002,0.7524762224000001,2.54225687,4.29123633,-2.55429134,,,
imu,413.559161,0.3660695136000001,-9.9131863544,0.7321390272000001,2.03382699,4.4183438,-2.80850628,,,
imu,413.567627,0.3923882368,-9.890456548000001,0.744700236,1.70484295,4.7921893,-2.73373718,,,
imu,413.576093,0.385808556,-9.8461932408,0.7303445688000001,1.50296638,5.19594244,-2.53933752,,,
imu,413.584915,0.3870048616000001,-9.838417254400001,0.7243630408,1.20388998,5.29314227,-2.64401426,,,
imu,413.593737,0.4097346680000001,-9.806715156000001,0.7171852072000001,1.07678251,5.65203395,-2.68887572,,,
imu,413.60256,0.4408386136,-9.7953502528,0.7171852072000001,1.07678251,5.79409524,-2.78607555,,,
imu,413.611382,0.4671573368000001,-9.7702278352,0.7363260968000002,1.00201341,5.75671069,-2.86084465,,,
imu,413.620204,0.505439116,-9.786377960800001,0.7482891528000001,1.25622835,5.66698777,-2.96552139,,,
imu,412.34928,,,,,,,82.3009316,-40.31430840000001,131.0504104
imu,412.450812,,,,,,,84.3151196,-40.54624520000001,128.1084752
imu,412.552375,,,,,,,82.142238,-40.11899320000001,130.8917168
imu,412.653937,,,,,,,82.31313879999999,-40.35093000000001,131.087032
imu,412.755561,,,,,,,82.49624680000001,-39.88705640000001,130.5621224
imu,412.857062,,,,,,,81.9835444,-40.33872280000001,130.9771672
imu,412.958808,,,,,,,82.447418,-40.09457880000002,131.0504104
imu,413.060187,,,,,,,82.4718324,-40.08237160000001,130.5132936
imu,413.16175,,,,,,,83.93669640000002,-40.15561480000001,129.683204
imu,413.263496,,,,,,,82.28872439999999,-40.18002920000001,130.6109512
imu,413.364875,,,,,,,84.79120040000001,-41.15660520000002,127.5225296
imu,413.466468,,,,,,,82.3009316,-40.30210120000002,130.5010864
imu,413.568,,,,,,,84.5104348,-41.22984840000002,127.9375744
