Type,Timestamp,Data Accelerometer X,Data Accelerometer Y,Data Accelerometer Z,Data Gyroscope X,Data Gyroscope Y,Data Gyroscope Z,Data Magnetometer X,Data Magnetometer Y,Data Magnetometer Z
imu,574.774971,0.2554112456,-9.783387196800001,0.9654186192,0.94967504,1.98087114,-3.18982869,,,
imu,574.783943,0.2703650656,-9.787574266400002,0.9684093832000001,1.12164397,2.07807097,-3.18235178,,,
imu,574.792915,0.2990764,-9.8013317808,0.9594370912000001,1.12912088,2.05564024,-3.21225942,,,
imu,574.801887,0.3038616224,-9.803126239200001,0.9618297024000001,1.13659779,2.07059406,-3.18982869,,,
imu,574.810859,0.3164228312,-9.794153947200002,0.9504647992000002,1.00201341,2.00330187,-3.25712088,,,
imu,574.819831,0.3247969704000001,-9.764246307200002,0.9480721880000001,0.94967504,1.92105586,-3.30198234,,,
imu,574.828804,0.3259932760000001,-9.766040765600001,0.9456795768000001,0.9945364999999999,1.75656384,-3.31693616,,,
imu,574.837776,0.3337692624,-9.786377960800001,0.9462777296000001,1.34595127,1.53973345,-3.26459779,,,
imu,574.846748,0.3259932760000001,-9.803126239200001,0.9385017432000002,1.39081273,1.37524143,-3.23469015,,,
imu,574.855086,0.3116376088,-9.803126239200001,0.9385017432000002,1.42819728,1.32290306,-3.33188998,,,
imu,574.863423,0.2984782472,-9.803724392000001,0.9367072848000002,1.33847436,1.30047233,-3.50385891,,,
imu,574.871761,0.2817299688000001,-9.8013317808,0.9402962016,1.30108981,1.33785688,-3.6459202,,,
imu,574.880098,0.2607946208,-9.803126239200001,0.9426888128,1.38333582,1.3528107,-3.59358183,,,
imu,574.888436,0.245242648,-9.821668976000002,0.9600352440000001,1.24127453,1.15841104,-3.7206893,,,
imu,574.896774,0.2290925224000001,-9.828248656800001,0.9594370912000001,1.20388998,1.39019525,-3.78050458,,,
imu,574.905111,0.2129423968,-9.828248656800001,0.9528574104000002,0.9272443100000001,1.62197946,-3.81788913,,,
imu,574.913449,0.2147368552,-9.825856045600002,0.9528574104000002,0.8375213899999999,1.77151766,-3.69825857,,,
imu,574.921787,0.2284943696,-9.8043225448,0.9373054376000002,0.70293701,1.92853277,-3.68330475,,,
imu,574.930124,0.23926112,-9.7959484056,0.9408943544,0.55339881,2.06311715,-3.75059694,,,
imu,574.938462,0.2590001624000001,-9.754675862400001,0.9385017432000002,0.44872207,2.0257326,-3.9449966,,,
imu,574.9468,0.2745521352,-9.738525736800002,0.9331183680000001,0.59078336,1.90610204,-3.95247351,,,
imu,574.955137,0.2817299688000001,-9.780396432800002,0.9522592576000002,0.81509066,1.8014253,-3.90761205,,,
imu,574.963475,0.2733558296,-9.819276364800002,0.9367072848000002,1.00201341,1.71917929,-3.8702275,,,
imu,574.971813,0.266177996,-9.822267128800002,0.9504647992000002,1.15155161,1.56216418,-3.98238115,,,
imu,574.98015,0.2554112456,-9.803126239200001,0.9648204664000001,0.8823828499999999,1.40514907,-3.81041222,,,
imu,574.988488,0.2356722032,-9.824659740000001,0.9791761336000001,0.70293701,1.33785688,-3.45152054,,,
imu,574.996826,0.2141387024,-9.879091644800003,0.9887465784000001,0.59078336,1.42010289,-3.14496723,,,
imu,575.005163,0.2105497856,-9.912588201600002,0.9749890640000002,0.40386061,1.47244126,-2.84589083,,,
imu,575.013501,0.2105497856,-9.902419604000002,0.9492684936000001,0.06739966,1.6518871,-2.71130645,,,
imu,575.021839,0.2284943696,-9.847389546400002,0.9486703408000001,-0.28401511,1.66684092,-2.53933752,,,
imu,575.030176,0.2296906752000001,-9.8061170032,0.9229497704,-0.44850713,1.70422547,-2.65896808,,,
imu,575.038514,0.221316536,-9.794153947200002,0.9038088808000001,-0.47093786,1.92853277,-2.748691,,,
imu,575.046852,0.221316536,-9.755872168000002,0.8864624496000001,-0.32887657,2.04816333,-2.98795212,,,
imu,575.055305,0.2171294664,-9.746899876,0.8924439776000002,-0.32887657,2.06311715,-3.21973633,,,
imu,575.063758,0.2266999112,-9.7612555432,0.8984255056000002,-0.23167674,2.08554788,-3.35432071,,,
imu,575.072212,0.2416537312,-9.801929933600002,0.9199590064000001,-0.14195382,2.30985518,-3.3468438,,,
imu,575.080665,0.2500278704,-9.824659740000001,0.9253423816,-0.09709236,2.42200883,-3.496382,,,
imu,575.089118,0.2578038568000001,-9.837220948800002,0.9151737840000002,-0.05970781,2.52668557,-3.41413599,,,
imu,575.097572,0.2590001624000001,-9.833632032,0.9319220624000001,-0.33635348,2.52668557,-3.48142818,,,
imu,575.106025,0.2775428992,-9.836622796,0.9450814240000001,-0.7401066199999999,2.3995781,-3.4216129,,,
imu,575.114479,0.2775428992,-9.834828337600001,0.9540537160000001,-1.01675229,2.24256299,-3.30198234,,,
imu,575.122932,0.2655798432,-9.834230184800003,0.9546518688000002,-1.3233056,2.34723973,-3.18982869,,,
imu,575.131385,0.248233412,-9.882680561600003,0.9301276040000002,-1.49527453,2.19770153,-3.07767504,,,
imu,575.139839,0.2536167872,-9.918569729600001,0.9438851184000001,-1.80930475,2.23508608,-3.04029049,,,
imu,575.148292,0.2458408008,-9.902419604000002,0.9773816752000002,-2.23548862,2.19022462,-3.05524431,,,
imu,575.156745,0.242251884,-9.944290300000002,0.9719983000000001,-2.46727283,2.12293243,-2.99542903,,,
imu,575.165199,0.2428500368,-9.9999185104,1.0031022456,-2.96074889,2.22013226,-3.05524431,,,
imu,575.173652,0.2219146888,-9.955655203200001,0.9959244120000001,-3.58133242,2.34723973,-3.13749032,,,
imu,575.182106,0.218325772,-9.893447312000001,0.9743909112000002,-4.22434668,2.45939338,-3.29450543,,,
imu,575.190559,0.236270356,-9.886269478400003,0.9821668976000001,-4.463607799999999,2.63883922,-3.33188998,,,
imu,575.199012,0.2434481896,-9.8653341304,1.010878232,-4.71034583,2.8481927,-3.29450543,,,
imu,575.207466,0.2290925224000001,-9.834828337600001,1.0102800792,-4.81502257,2.98277708,-3.24216706,,,
imu,575.215919,0.212344244,-9.8144911424,1.0156634544,-4.97951459,3.11736146,-3.37675144,,,
imu,575.224372,0.2039701048,-9.775611210400001,1.0306172744,-5.061760599999999,3.40896095,-3.28702852,,,
imu,575.232826,0.1949978128,-9.7361331256,1.0688990536,-4.85988403,3.64822207,-3.27955161,,,
imu,575.241279,0.200381188,-9.772620446400001,1.088638096,-4.702868919999999,3.87252937,-3.17487487,,,
imu,575.249732,0.200381188,-9.7702278352,1.0952177768,-4.583238359999999,4.06692903,-3.24964397,,,
imu,575.258199,0.2201202304,-9.702636568800001,1.0844510264,-4.59819218,4.06692903,-3.2720747,,,
imu,575.266665,0.2584020096,-9.636839760800001,1.0964140824,-4.44865398,4.29123633,-3.39918217,,,
imu,575.275131,0.2853188856,-9.641026830400001,1.1191438888,-4.02247011,4.44077453,-3.35432071,,,
imu,575.283597,0.2913004136,-9.7163940832,1.1227328056,-3.7159168,4.32114397,-3.20478251,,,
imu,575.292063,0.2895059552,-9.776807516000002,1.1352940144,-3.54394787,4.11179049,-3.15244414,,,
imu,575.300529,0.2924967192,-9.8013317808,1.1460607648,-3.54394787,3.91739083,-3.26459779,,,
imu,575.308995,0.281131816,-9.797742864000002,1.1592201264,-3.44674804,3.94729847,-3.15992105,,,
imu,575.317461,0.28412258,-9.766638918400002,1.1681924184,-3.52151714,3.96225229,-3.21973633,,,
imu,575.325927,0.2637853848,-9.7474980288,1.1765665576,-3.44674804,3.88000628,-3.30198234,,,
imu,575.334393,0.2446444952,-9.708019944000002,1.1669961128,-3.22244074,3.85009864,-3.30945925,,,
imu,575.342859,0.2356722032,-9.673925234400002,1.1759684048,-3.17010237,4.05197521,-3.30198234,,,
imu,575.351325,0.2590001624000001,-9.665551095200001,1.1741739464,-3.03551799,4.20151341,-3.18982869,,,
imu,575.35976,0.2637853848,-9.669140012000002,1.1861370024,-2.86354906,4.05945212,-3.03281358,,,
imu,575.368226,0.2697669128,-9.658971414400002,1.187333308,-2.41493446,4.14169813,-2.92813684,,,
imu,575.376692,0.2727576768,-9.640428677600001,1.190324072,-1.9214584,4.23889796,-2.83093701,,,
imu,575.385158,0.2781410520000001,-9.672728928800002,1.2070723504,-1.71210492,4.149175039999999,-2.73373718,,,
imu,575.393624,0.28412258,-9.7361331256,1.2238206288,-1.45788998,4.194036499999999,-2.80850628,,,
imu,575.40209,0.2733558296,-9.766638918400002,1.2298021568,-1.15881358,4.38095925,-2.85336774,,,
imu,575.410556,0.2787392048,-9.758862932000001,1.2447559768,-1.06909066,4.39591307,-3.08515195,,,
imu,575.419023,0.2757484408,-9.763050001600002,1.2632987136,-1.03170611,4.38095925,-3.17487487,,,
imu,575.427489,0.272159524,-9.787574266400002,1.2632987136,-0.81487572,4.38095925,-3.08515195,,,
imu,575.435955,0.2835244272,-9.769629682400002,1.2656913248,-0.874691,4.39591307,-3.1973056,,,
imu,575.444421,0.2954874832,-9.749890640000002,1.2674857832,-0.7999219,4.44077453,-3.21225942,,,
imu,575.452887,0.2913004136,-9.725366375200002,1.2674857832,-0.65786061,4.57535891,-3.01785976,,,
imu,575.461352,0.3074505392,-9.706225485600001,1.2662894776,-0.59056842,4.62769728,-2.77112173,,,
imu,575.469817,0.3289840400000001,-9.706225485600001,1.2788506864,-0.32887657,4.79966621,-2.56176825,,,
imu,575.478281,0.3403489432000001,-9.6954587352,1.2788506864,-0.17933837,4.814620029999999,-2.43466078,,,
imu,575.486746,0.3463304712,-9.6876827488,1.2752617696,-0.11204618,4.72489711,-2.43466078,,,
imu,575.495211,0.3804251808,-9.6954587352,1.2866266728,0.03001510999999998,4.60526655,-2.66644499,,,
imu,575.503676,0.3876030144000001,-9.716992236000001,1.2872248256,0.19450713,4.29871324,-2.9729983,,,
imu,575.512141,0.3899956256000001,-9.724170069600001,1.2722710056,0.46367589,4.09683667,-3.23469015,,,
imu,575.520605,0.3816214864,-9.711608860800002,1.265093172,0.56087572,3.79028336,-3.28702852,,,
imu,575.52907,0.3929863896,-9.722375611200002,1.2585134912,0.68050628,3.56597606,-3.36927453,,,
imu,575.537535,0.391790084,-9.719983000000001,1.2579153384,0.79265993,3.19960747,-3.3468438,,,
imu,575.546,0.3636769024000001,-9.7128051664,1.2627005608,0.94219813,2.93791562,-3.10010577,,,
imu,575.554465,0.3744436528,-9.737329431200001,1.268083936,0.9048135799999999,2.80333124,-2.98795212,,,
imu,575.562929,0.3804251808,-9.7540777096,1.2543264216,1.05435178,2.6986545,-2.80850628,,,
imu,575.571394,0.3714528888,-9.748694334400001,1.250139352,1.00201341,2.53416248,-2.60662971,,,
imu,575.579859,0.3576953744,-9.740918348000001,1.24116706,1.07678251,2.36219355,-2.53933752,,,
imu,575.588324,0.3433397072,-9.7636481544,1.2405689072,1.36090509,2.18274771,-2.64401426,,,
imu,575.596789,0.3301803456000001,-9.7750130576,1.2333910736,1.58521239,2.16779389,-2.74121409,,,
imu,575.605254,0.3032634696000001,-9.766040765600001,1.2363818376,1.45062801,2.10797861,-2.96552139,,,
imu,575.613718,0.2542149400000001,-9.758264779200001,1.2226243232,1.57025857,2.24256299,-3.00290594,,,
imu,575.622183,0.2386629672,-9.773218599200002,1.220231712,1.69736604,2.58650085,-2.95056757,,,
imu,574.835496,,,,,,,81.08021160000001,-38.60530040000001,128.9873936
imu,574.936998,,,,,,,80.6407524,-38.72737240000001,129.4878888
imu,575.630648,0.2416537312,-9.788770572,1.2220261704,1.63007385,2.82576197,-3.15992105,,,
imu,575.639113,0.248233412,-9.7953502528,1.2094649616,1.61512003,3.38653022,-3.18982869,,,
imu,575.647578,0.2470371064,-9.8013317808,1.2040815864,1.39081273,3.7454219,-3.22721324,,,
imu,575.656042,0.2709632184,-9.803126239200001,1.2040815864,1.2936129,4.2688056,-3.2720747,,,
imu,575.664859,0.3068523864000001,-9.8043225448,1.2034834336,1.26370526,4.60526655,-3.40665908,,,
imu,575.673676,0.3415452488,-9.794153947200002,1.1891277664,1.08425942,4.95668132,-3.5711511,,,
imu,575.682493,0.3702565832000001,-9.761853696000001,1.1807536272,1.00201341,4.98658896,-3.93751969,,,
imu,575.69131,0.4073420568000001,-9.761853696000001,1.1801554744,1.12912088,5.05388115,-4.0945348,,,
imu,575.700127,0.4348570856000001,-9.786377960800001,1.1837443912,1.1440747,4.89686604,-4.52071867,,,
imu,575.708944,0.4294737104000001,-9.7989391696,1.1963056,1.15155161,4.48563599,-4.96933327,,,
imu,575.717761,0.4163143488000001,-9.808509614400002,1.1885296136,1.11416706,4.06692903,-5.11887147,,,
imu,575.726578,0.4151180432000001,-9.801929933600002,1.1831462384,1.13659779,3.70056044,-5.260932759999999,,,
imu,575.735395,0.4175106544000001,-9.786976113600002,1.1681924184,1.12912088,3.27437657,-5.47028624,,,
imu,575.744212,0.4199032656,-9.7510869456,1.1729776408,0.97958268,2.93791562,-5.43290169,,,
imu,575.753029,0.4091365152000001,-9.725366375200002,1.1729776408,1.00949032,2.66874686,-5.328224949999999,,,
imu,575.761846,0.4270810992000001,-9.7295534448,1.1586219736,1.18145925,2.28742445,-5.20111748,,,
imu,575.770662,0.4061457512000001,-9.769629682400002,1.1592201264,1.21136689,1.92853277,-5.10391765,,,
imu,575.779479,0.400762376,-9.803126239200001,1.1687905712,1.368382,1.45001053,-4.94690254,,,
imu,575.788296,0.3834159448,-9.809107767200002,1.1795573216,1.28613599,1.13598031,-4.79736434,,,
imu,575.797113,0.370854736,-9.8043225448,1.184342544,1.48053565,0.8742884599999998,-4.58053395,,,
imu,575.80593,0.3421434016,-9.8228652816,1.1867351552,1.34595127,0.5677351499999999,-4.34874974,,,
imu,575.814747,0.31403022,-9.843800629600002,1.178361016,1.31604363,0.4107200399999997,-4.102011709999999,,,
imu,575.823564,0.2883096496000001,-9.840809865600002,1.1681924184,0.9945364999999999,0.2013665599999999,-4.00481188,,,
imu,575.832381,0.287113344,-9.8162856008,1.1466589176,1.09173633,0.2686587499999997,-3.96742733,,,
imu,575.841198,0.2918985664000001,-9.8013317808,1.1496496816,1.03192105,0.2836125699999998,-4.04219643,,,
imu,575.850015,0.2853188856,-9.800135475200001,1.148453376,1.0693056,0.27613566,-4.21416536,,,
imu,575.858832,0.2613927736,-9.7911631832,1.1257235696,1.01696723,0.2537049300000001,-4.17678081,,,
imu,575.867305,0.2607946208,-9.770825988000002,1.1293124864,0.9347212199999999,0.5976427899999996,-4.19173463,,,
imu,575.875779,0.2548130928,-9.7570684736,1.1430700008,1.03192105,0.7546578999999998,-4.26650373,,,
imu,575.884253,0.2697669128,-9.767835224,1.1622108904,1.07678251,0.8892422799999999,-4.17678081,,,
imu,575.892727,0.2745521352,-9.788770572,1.154434904,1.12912088,1.0537343,-4.19921154,,,
imu,575.9012,0.2739539824000001,-9.767237071200002,1.1586219736,0.9197674,0.98644211,-4.33379592,,,
imu,575.909674,0.2769447464000001,-9.727758986400001,1.1759684048,0.7552753799999999,1.02382666,-4.32631901,,,
imu,575.918148,0.2745521352,-9.746899876,1.187333308,0.80013684,0.86681155,-4.42351884,,,
imu,575.926621,0.2733558296,-9.776209363200001,1.184342544,0.9272443100000001,1.1285034,-4.169303899999999,,,
imu,575.935095,0.2607946208,-9.76484446,1.1861370024,0.67302937,1.2780416,-4.012288789999999,,,
imu,575.943569,0.2440463424,-9.758264779200001,1.208268656,0.5010604399999999,1.24065705,-4.04967334,,,
imu,575.952043,0.2619909264,-9.780396432800002,1.21125942,0.64312173,1.21822632,-4.06462716,,,
imu,575.960516,0.2715613712,-9.802528086400002,1.2160446424,0.7403215599999999,1.30047233,-3.90013514,,,
imu,575.96899,0.2584020096,-9.8013317808,1.2190354064,0.70293701,1.43505671,-3.84031986,,,
imu,575.977464,0.2518223288000001,-9.788770572,1.2184372536,0.7552753799999999,1.54721036,-3.78050458,,,
imu,575.985937,0.2416537312,-9.786976113600002,1.2393726016,0.70293701,1.62945637,-3.97490424,,,
imu,575.994411,0.2500278704,-9.802528086400002,1.2333910736,0.76275229,1.67431783,-4.057150249999999,,,
imu,576.002885,0.2338777448,-9.803724392000001,1.2447559768,0.7104139199999999,1.83133294,-4.23659609,,,
imu,576.011359,0.2189239248,-9.8132948368,1.2489430464,0.80013684,2.20517844,-4.37865738,,,
imu,576.019832,0.2249054528,-9.825856045600002,1.2399707544,0.5982602699999999,2.34723973,-4.430995749999999,,,
imu,576.028306,0.2278962168,-9.8079114616,1.2280076984,0.5010604399999999,2.53416248,-4.63287232,,,
imu,576.03678,0.2446444952,-9.785181655200002,1.2375781432,0.3889067899999999,2.66126995,-5.01419473,,,
imu,576.045253,0.2655798432,-9.767237071200002,1.2393726016,0.40386061,2.82576197,-5.29831731,,,
imu,576.053727,0.2889078024000001,-9.805518850400002,1.232194768,0.33656842,2.71360832,-5.477763149999999,,,
imu,576.062201,0.2847207328,-9.809107767200002,1.2256150872,0.26179932,2.58650085,-5.47028624,,,
imu,576.070671,0.2769447464000001,-9.802528086400002,1.2459522824,-0.07466163,2.23508608,-5.40299405,,,
imu,576.079141,0.2805336632,-9.789368724800001,1.2477467408,-0.08213854000000001,2.23508608,-5.12634838,,,
imu,576.087611,0.2685706072,-9.803724392000001,1.2603079496,-0.16438455,2.0257326,-4.931948719999999,,,
imu,576.09608,0.2566075512,-9.797742864000002,1.2447559768,-0.37373803,1.75656384,-4.81231816,,,
imu,576.10455,0.2518223288000001,-9.762451848800001,1.238176296,-0.45598404,1.68927165,-4.92447181,,,
imu,576.11302,0.263187232,-9.739123889600002,1.2369799904,-0.47093786,1.37524143,-4.9169949,,,
imu,576.12149,0.242251884,-9.730749750400001,1.2309984624,-0.19429219,1.15841104,-4.85717962,,,
imu,576.12996,0.2314851336,-9.738525736800002,1.2405689072,0.03749201999999999,0.98644211,-4.78988743,,,
imu,576.13843,0.1997830352,-9.742114653600002,1.235185532,-0.17933837,0.8817653699999997,-4.96185636,,,
imu,576.1469,0.1692772424,-9.745105417600001,1.2327929208,0.1720764,0.84438082,-4.96185636,,,
imu,576.15537,0.1579123392,-9.746899876,1.2387744488,0.13469185,0.8219500899999996,-4.96185636,,,
imu,576.16384,0.158510492,-9.749890640000002,1.2304003096,0.22441477,0.9714882899999999,-4.87213344,,,
imu,576.17231,0.1489400472,-9.740918348000001,1.22621324,0.44124516,1.16588795,-4.999240909999999,,,
imu,576.180779,0.1393696024,-9.7128051664,1.2100631144,0.51601426,1.30047233,-5.021671639999999,,,
imu,576.189249,0.1333880744,-9.7128051664,1.2309984624,0.68050628,1.47244126,-4.976810179999999,,,
imu,576.197719,0.113649032,-9.746301723200002,1.2106612672,1.00949032,1.68179474,-4.85717962,,,
imu,576.206189,0.06160973840000001,-9.7714241408,1.2286058512,1.0693056,1.88367131,-4.8422258,,,
imu,576.214659,0.008972292000000002,-9.7744149048,1.2447559768,0.91229049,2.43696265,-4.84970271,,,
imu,576.223129,0.0430670016,-9.768433376800001,1.2244187816,0.97210577,3.13979219,-5.044102369999999,,,
imu,576.231599,0.08015247520000002,-9.755274015200001,1.2369799904,1.04687487,3.73046808,-5.29831731,,,
imu,576.240069,0.09570444800000001,-9.746899876,1.2268113928,1.24127453,3.86505246,-5.32074804,,,
imu,576.248539,0.1262102408,-9.7540777096,1.2268113928,1.30108981,4.216467229999999,-5.24597894,,,
imu,576.257009,0.1549215752,-9.773816752000002,1.2196335592,1.53287402,4.4183438,-5.23102512,,,
imu,576.265478,0.1890162848,-9.783387196800001,1.2238206288,1.63755076,4.44077453,-4.94690254,,,
imu,576.273939,0.2117460912,-9.758264779200001,1.223222476,1.65998149,4.27628251,-4.80484125,,,
imu,576.2824,0.2171294664,-9.755274015200001,1.2214280176,1.88428879,4.08935976,-4.75250288,,,
imu,576.290861,0.2368685088,-9.758862932000001,1.205277892,2.04878081,3.71551426,-4.670256869999999,,,
imu,576.299322,0.2410555784,-9.764246307200002,1.2058760448,2.09364227,3.42391477,-4.52819558,,,
imu,576.307783,0.2416537312,-9.766638918400002,1.2238206288,2.04878081,3.10240764,-4.48333412,,,
imu,576.316244,0.2500278704,-9.7959484056,1.2208298648,2.1908421,2.69117759,-4.25154991,,,
imu,576.324705,0.2356722032,-9.806715156000001,1.2154464896,2.22822665,2.39210119,-3.91508896,,,
imu,576.333166,0.2320832864,-9.805518850400002,1.2190354064,2.16093446,2.05564024,-3.66835093,,,
imu,576.341627,0.245242648,-9.800733628000001,1.2190354064,1.83195042,1.7266562,-3.3468438,,,
imu,576.350088,0.2416537312,-9.788770572,1.2094649616,1.71979677,1.46496435,-3.08515195,,,
imu,576.358549,0.2135405496,-9.792957641600001,1.2010908224,1.63755076,1.09111885,-2.92065993,,,
imu,576.36701,0.1979885768,-9.807313308800001,1.1981000584,1.48801256,0.98644211,-2.98795212,,,
imu,576.375471,0.1979885768,-9.803126239200001,1.193314836,1.54782784,0.7097964399999999,-3.10010577,,,
imu,576.383932,0.1746606176,-9.798341016800002,1.1831462384,1.64502767,0.5527813299999997,-3.15244414,,,
imu,576.392393,0.1501363528,-9.7780038216,1.1867351552,1.60764312,0.6574580699999997,-3.14496723,,,
imu,576.400854,0.1411640608,-9.788172419200002,1.1795573216,1.48053565,0.6275504299999999,-3.27955161,,,
imu,576.409315,0.1303973104,-9.803126239200001,1.187333308,1.70484295,0.7471809899999999,-3.44404363,,,
imu,576.417776,0.113649032,-9.8168837536,1.1861370024,1.79456587,0.8369039099999998,-3.4216129,,,
imu,576.426237,0.0980970592,-9.8228652816,1.1998945168,1.70484295,0.9565344699999998,-3.30945925,,,
imu,576.434698,0.092713684,-9.824659740000001,1.2028852808,1.67493531,1.21822632,-3.21973633,,,
imu,576.443159,0.08015247520000002,-9.828846809600002,1.1986982112,1.48801256,1.36028761,-3.31693616,,,
imu,575.038815,,,,,,,80.921518,-38.48322840000002,128.8531144
imu,575.140255,,,,,,,82.49624680000001,-38.81282280000002,128.7432496
imu,575.241787,,,,,,,80.6041308,-38.58088600000003,129.9395552
imu,575.34338,,,,,,,80.005978,-37.6897604,128.9873936
imu,575.444943,,,,,,,82.59390440000001,-38.97151640000001,126.5947824
imu,575.547695,,,,,,,80.01818519999999,-37.37237320000002,128.6944208
imu,575.648068,,,,,,,80.2257076,-38.00714760000001,129.1094656
imu,575.7496,,,,,,,79.8716988,-38.10480520000002,128.9751864
imu,576.451727,0.0735727944,-9.8210708232,1.199296364,1.2188438,1.577118,-3.3468438,,,
imu,576.460188,0.0783580168,-9.803126239200001,1.1759684048,0.9048135799999999,1.8761944,-3.16739796,,,
imu,576.468649,0.09510629520000001,-9.793555794400001,1.1598182792,0.8375213899999999,2.19770153,-2.86084465,,,
imu,576.477213,0.08194693360000001,-9.745105417600001,1.1496496816,0.80013684,2.41453192,-2.77859864,,,
imu,576.485777,0.0933118368,-9.725366375200002,1.1580238208,0.80013684,2.60145467,-2.83841392,,,
imu,576.494341,0.116639796,-9.730749750400001,1.1646035016,0.82256757,2.66874686,-3.1225365,,,
imu,576.502905,0.128602852,-9.7403201952,1.1687905712,1.00949032,2.83323888,-3.18235178,,,
imu,576.511469,0.1178361016,-9.7923594888,1.1861370024,1.16650543,2.87062343,-2.95804448,,,
imu,576.520033,0.1052748928,-9.8467913936,1.1879314608,1.18145925,2.85566961,-2.86832156,,,
imu,576.528597,0.1130508792,-9.8467913936,1.1981000584,1.09921324,2.96034635,-2.69635263,,,
imu,576.537161,0.1088638096,-9.803126239200001,1.202287128,0.97958268,2.97530017,-2.32250713,,,
imu,576.545725,0.107667504,-9.7911631832,1.2034834336,1.09173633,3.11736146,-1.73183124,,,
imu,576.554289,0.1154434904,-9.776807516000002,1.199296364,1.04687487,3.41643786,-1.16358608,,,
imu,576.562853,0.1507345056,-9.7534795568,1.1759684048,1.1440747,3.53606842,-0.8719865899999999,,,
imu,576.571417,0.1890162848,-9.752881404000002,1.1819499328,1.26370526,3.70056044,-0.68506384,,,
imu,576.579981,0.2039701048,-9.780396432800002,1.1879314608,1.51044329,3.79028336,-0.43832581,,,
imu,576.588545,0.2290925224000001,-9.783985349600002,1.1777628632,1.77961205,3.70056044,-0.40841817,,,
imu,576.597109,0.2380648144,-9.769629682400002,1.1705850296,1.75718132,3.56597606,-0.7897405799999999,,,
imu,576.605673,0.2344758976,-9.7504887928,1.1765665576,1.80951969,3.3715764,-1.07386316,,,
imu,576.614237,0.2344758976,-9.746301723200002,1.172379488,2.09364227,3.12483837,-1.20844754,,,
imu,576.622801,0.236270356,-9.752881404000002,1.178361016,2.10111918,2.99025399,-1.30564737,,,
imu,576.631365,0.230288828,-9.789966877600001,1.1741739464,2.14598064,2.89305416,-1.52247776,,,
imu,576.639929,0.2261017584,-9.7995373224,1.1735757936,1.92915025,2.9229618,-1.6271545,,,
imu,576.648493,0.2255036056,-9.803126239200001,1.1927166832,1.69736604,2.78090051,-1.73183124,,,
imu,576.657057,0.2141387024,-9.803126239200001,1.1789591688,1.72727368,2.73603905,-1.8514618,,,
imu,576.665621,0.2159331608,-9.8013317808,1.1657998072,1.54782784,2.8481927,-1.9262309,,,
imu,576.674185,0.227298064,-9.777405668800002,1.1616127376,1.40576655,2.94539253,-1.98604618,,,
imu,576.683042,0.2464389536,-9.7815927384,1.1550330568,1.39828964,3.02016163,-2.09072292,,,
imu,576.691898,0.257205704,-9.7702278352,1.1646035016,1.368382,3.0725,-1.97856927,,,
imu,576.700755,0.2775428992,-9.787574266400002,1.1699868768,1.39828964,3.12483837,-2.01595382,,,
imu,576.709612,0.2745521352,-9.793555794400001,1.1699868768,1.35342818,3.22951511,-2.14306129,,,
imu,576.718469,0.2918985664000001,-9.782789044000001,1.1735757936,1.39828964,3.19960747,-1.99352309,,,
imu,576.727325,0.3164228312,-9.7821908912,1.1771647104,1.54035093,3.1472691,-1.9262309,,,
imu,576.736182,0.3241988176,-9.800135475200001,1.1801554744,1.57025857,2.9977309,-1.94118472,,,
imu,576.745039,0.3313766512,-9.8043225448,1.1622108904,1.60016621,3.06502309,-1.88884635,,,
imu,576.753896,0.3397507904000001,-9.802528086400002,1.1550330568,1.57773548,2.81080815,-1.82155416,,,
imu,576.762752,0.3337692624,-9.758862932000001,1.1508459872,1.39828964,2.57154703,-1.88136944,,,
imu,576.771609,0.3289840400000001,-9.746301723200002,1.1490515288,1.39828964,2.36967046,-2.12063056,,,
imu,576.780466,0.3241988176,-9.797144711200001,1.139481084,1.73475059,2.18274771,-2.2253073,,,
imu,576.789322,0.3224043592,-9.8061170032,1.133499556,1.76465823,2.05564024,-2.32250713,,,
imu,576.798179,0.3194135952000001,-9.751685098400001,1.1388829312,1.76465823,1.8014253,-2.31503022,,,
imu,576.807036,0.2907022608000001,-9.723571916800001,1.1460607648,1.80951969,1.62197946,-2.21035348,,,
imu,576.815893,0.2703650656,-9.727160833600001,1.1472570704,1.9665348,1.71917929,-1.79164652,,,
imu,576.824749,0.2595983152,-9.7325442088,1.1418736952,2.16093446,1.98834805,-1.15610917,,,
imu,576.833606,0.2685706072,-9.724170069600001,1.1287143336,2.16093446,2.16031698,-0.8346020399999998,,,
imu,576.842463,0.28412258,-9.721179305600002,1.1317050976,2.25813429,2.33976282,-0.4682334499999998,,,
imu,576.85132,0.3128339144,-9.731946056000002,1.1508459872,2.65441052,2.51173175,-0.23644924,,,
imu,576.860176,0.3152265256,-9.7325442088,1.1370884728,2.84133327,2.61640849,-0.12429559,,,
imu,576.869033,0.3176191368,-9.743310959200002,1.1323032504,3.02077911,2.57902394,-0.3336490699999999,,,
imu,576.87789,0.31403022,-9.7576666264,1.1317050976,3.05068675,2.55659321,-0.6177716499999999,,,
imu,576.886233,0.3080486920000001,-9.758264779200001,1.1215365,3.02825602,2.56407012,-0.88694041,,,
imu,576.894575,0.3146283728000001,-9.782789044000001,1.1167512776,2.99087147,2.55659321,-1.13367844,,,
imu,576.902918,0.3182172896000001,-9.783985349600002,1.1089752912,2.94601001,2.78090051,-1.38041647,,,
imu,576.911261,0.3218062064,-9.794153947200002,1.0940214712,2.97591765,2.78837742,-1.63463141,,,
imu,576.919603,0.3218062064,-9.776209363200001,1.088638096,2.84881018,2.8481927,-1.79164652,,,
imu,576.927946,0.3331711096,-9.7606573904,1.0760768872,2.81142563,2.97530017,-1.71687742,,,
imu,576.936289,0.3421434016,-9.746899876,1.0838528736,3.03573293,3.11736146,-1.44023175,,,
imu,576.944632,0.3564990688,-9.748096181600001,1.0688990536,3.21517877,3.07997691,-1.44023175,,,
imu,576.952974,0.3816214864,-9.7510869456,1.064711984,3.17031731,3.01268472,-1.36546265,,,
imu,576.961317,0.4013605288,-9.789368724800001,1.0814602624,3.25256332,2.85566961,-1.22340136,,,
imu,576.96966,0.4019586816,-9.817481906400001,1.0730861232,3.24508641,2.69117759,-1.31312428,,,
imu,576.978003,0.391790084,-9.819276364800002,1.0629175256,3.26751714,2.53416248,-1.38041647,,,
imu,576.986345,0.4013605288,-9.828846809600002,1.0754787344,3.282470959999999,2.44443956,-1.49257012,,,
imu,576.994688,0.4073420568000001,-9.832435726400002,1.0569359976,3.05068675,2.23508608,-1.82903107,,,
imu,577.003031,0.4121272792,-9.8210708232,1.0629175256,2.92357928,1.99582496,-2.12063056,,,
imu,577.011374,0.3953790008,-9.818678212000002,1.0563378448,2.78151799,1.93600968,-2.47204533,,,
imu,577.019716,0.3905937784,-9.800733628000001,1.040785872,2.79647181,1.74161002,-2.62158353,,,
imu,577.028059,0.3732473472,-9.7612555432,1.0431784832,2.81890254,1.63693328,-2.69635263,,,
imu,577.036402,0.3690602776000001,-9.735534972800002,1.0413840248,3.02825602,1.66684092,-2.64401426,,,
imu,577.044745,0.3666676664,-9.7492924872,1.0389914136,3.06564057,1.70422547,-2.62158353,,,
imu,577.053087,0.3804251808,-9.769031529600001,1.0336080384,3.282470959999999,1.7266562,-2.57672207,,,
imu,577.06143,0.3911919312,-9.7923594888,1.0461692472,3.3871477,1.7266562,-2.50195297,,,
imu,577.069773,0.3822196392,-9.810304072800001,1.0354024968,3.30490169,1.53973345,-2.48699915,,,
imu,577.078116,0.3690602776000001,-9.815687448000002,1.0354024968,2.92357928,1.4275798,-2.58419898,,,
imu,577.086889,0.3780325696000001,-9.818080059200001,1.0246357464,2.75908726,1.37524143,-2.62158353,,,
imu,577.095663,0.3660695136000001,-9.805518850400002,1.0204486768,2.63197979,1.33785688,-2.70382954,,,
imu,577.104437,0.3762381112000001,-9.782789044000001,1.0186542184,2.52730305,1.44253362,-2.81598319,,,
imu,577.113211,0.3804251808,-9.744507264800001,0.9893447312000001,2.31047266,1.39767216,-2.98047521,,,
imu,577.121985,0.3648732080000001,-9.7151977776,0.9797742864000001,2.43758013,1.40514907,-3.07767504,,,
imu,577.130758,0.3570972216000001,-9.683495679200002,0.9708019944000001,2.72917962,1.50982581,-2.98047521,,,
imu,577.139532,0.3744436528,-9.6643547896,0.9672130776000001,3.140409669999999,1.7266562,-2.88327538,,,
imu,577.148306,0.3971734592000001,-9.667345553600002,0.9743909112000002,3.43948607,1.81637912,-2.81598319,,,
imu,577.15708,0.4085383624000001,-9.694860582400002,0.9684093832000001,3.95539286,1.95844041,-2.76364482,,,
imu,577.165854,0.4043512928,-9.702038416,0.9690075360000001,4.49373038,1.88367131,-2.71878336,,,
imu,577.174627,0.4109309736,-9.727758986400001,0.980970592,4.78532987,1.88367131,-2.69635263,,,
imu,577.183401,0.4330626272,-9.777405668800002,1.0007096344,5.06197554,1.92853277,-2.79355246,,,
imu,577.192175,0.4641665728000001,-9.818678212000002,1.007887468,5.00963717,1.80890221,-2.81598319,,,
imu,577.200949,0.4587831976000001,-9.822267128800002,0.9941299536000001,4.822714420000001,1.59954873,-2.93561375,,,
imu,577.209723,0.4288755576000001,-9.8013317808,0.9911391896000001,4.69560695,1.16588795,-2.96552139,,,
imu,577.218496,0.4432312248,-9.782789044000001,0.9905410368000002,4.48625347,1.10607267,-3.09262886,,,
imu,577.22727,0.4480164472000001,-9.7510869456,0.9642223136000001,4.53859184,1.00139593,-3.13001341,,,
imu,577.236044,0.4378478496000001,-9.7331423616,0.9402962016,4.63579167,0.86681155,-3.09262886,,,
imu,577.244818,0.4438293776000001,-9.699645804800001,0.9175663952000002,4.74046841,0.6350273399999997,-3.11505959,,,
imu,577.253592,0.4378478496000001,-9.665551095200001,0.9331183680000001,5.16665228,0.62007352,-3.01785976,,,
imu,577.262365,0.4240903352000001,-9.699645804800001,0.9259405344000001,5.36105194,0.5153967799999997,-3.06272122,,,
imu,577.271139,0.4252866408000001,-9.805518850400002,0.9295294512000001,5.839574180000001,0.4929660499999997,-2.98047521,,,
imu,575.851162,,,,,,,79.7130052,-38.56867880000001,128.6700064
imu,575.952786,,,,,,,80.1402572,-38.58088600000003,128.157304
imu,576.054287,,,,,,,80.4210228,-38.22687720000002,128.8775288
imu,576.15585,,,,,,,82.09340920000001,-38.34894920000001,127.5591512
imu,576.257534,,,,,,,80.0425996,-38.58088600000003,128.6089704
imu,576.359036,,,,,,,83.2653004,-39.10579560000001,125.7524856
imu,576.460537,,,,,,,80.372194,-38.50764280000001,128.767664
imu,576.5621,,,,,,,82.77701239999999,-39.08138120000002,126.3750528
imu,577.279913,0.4450256832000001,-9.901821451200002,0.9636241608000001,5.71246671,0.27613566,-3.05524431,,,
imu,577.288687,0.4498109056,-9.9365143136,0.9648204664000001,5.30871357,0.09668981999999993,-2.77859864,,,
imu,577.29684,0.4414367664,-9.920962340800001,0.9678112304000002,4.71056077,-0.03041764999999996,-2.39727623,,,
imu,577.304993,0.4276792520000001,-9.9197660352,0.9522592576000002,4.04511578,-0.06780220000000003,-2.06829219,,,
imu,577.313147,0.400762376,-9.8880639368,0.9062014920000001,3.59650118,0.01444380999999995,-1.84398489,,,
imu,577.3213,0.4115291264,-9.851576616000001,0.8858642968000001,3.2376095,0.0368745399999999,-1.88884635,,,
imu,577.329453,0.4318663216,-9.821668976000002,0.8547603512000002,3.0133022,0.01444380999999995,-2.00847691,,,
imu,577.337607,0.4240903352000001,-9.7953502528,0.8487788232000001,3.12545585,0.05930526999999985,-2.04586146,,,
imu,577.34576,0.4210995712,-9.76484446,0.8272453224,3.26004023,0.4032431299999999,-2.12810747,,,
imu,577.353913,0.4127254320000001,-9.769031529600001,0.8051136688,3.23013259,0.4705353199999998,-2.32998404,,,
imu,577.362066,0.4055475984,-9.7786019744,0.7949450712000001,3.29742478,0.6798887999999996,-2.35241477,,,
imu,577.37022,0.3977716120000001,-9.789368724800001,0.7955432240000001,3.24508641,0.8219500899999996,-2.44213769,,,
imu,577.378373,0.3899956256000001,-9.786377960800001,0.7859727792000001,3.34976315,1.01634975,-2.43466078,,,
imu,577.386526,0.3989679176000001,-9.785779808000001,0.7859727792000001,3.28994787,1.37524143,-2.63653735,,,
imu,577.39468,0.4199032656,-9.798341016800002,0.8015247520000001,3.15536349,1.50982581,-2.62906044,,,
imu,577.402833,0.4163143488000001,-9.802528086400002,0.7901598488000001,3.11797894,1.70422547,-2.60662971,,,
imu,577.410986,0.4151180432000001,-9.8043225448,0.7949450712000001,2.94601001,1.85376367,-2.92813684,,,
imu,577.419139,0.4252866408000001,-9.818080059200001,0.804515516,2.69927198,1.77899457,-3.21225942,,,
imu,577.427293,0.4348570856000001,-9.837220948800002,0.8021229048,2.62450288,2.04068642,-3.28702852,,,
imu,577.435446,0.4474182944000001,-9.840809865600002,0.8146841136000001,2.39271867,2.08554788,-3.51881273,,,
imu,577.443599,0.4390441552000001,-9.828248656800001,0.7979358352000001,1.95905789,1.95844041,-3.73564312,,,
imu,577.451752,0.4498109056,-9.8198745176,0.7985339880000002,1.78708896,1.8761944,-3.78050458,,,
imu,577.459906,0.4522035168,-9.803126239200001,0.7913561544000001,1.93662716,1.94348659,-3.82536604,,,
imu,577.468059,0.4474182944000001,-9.802528086400002,0.7955432240000001,1.73475059,1.80890221,-3.88518132,,,
imu,577.476212,0.4300718632,-9.80970592,0.8027210576,1.52539711,1.59954873,-3.93004278,,,
imu,577.484366,0.4193051128000001,-9.803724392000001,0.8087025856000001,1.58521239,1.47991817,-3.93004278,,,
imu,577.493472,0.4031549872,-9.80970592,0.8075062800000001,1.71231986,1.54721036,-3.75059694,,,
imu,577.502578,0.4025568344,-9.810902225600001,0.8200674888,1.80951969,1.68927165,-3.59358183,,,
imu,577.511684,0.3965753064,-9.818678212000002,0.8218619472,1.60016621,1.84628676,-3.6459202,,,
imu,577.52079,0.4085383624000001,-9.821668976000002,0.8146841136000001,1.39828964,1.75656384,-3.6459202,,,
imu,577.529896,0.415716196,-9.803724392000001,0.8290397808000001,1.19641307,1.78647148,-3.6459202,,,
imu,577.539003,0.4187069600000001,-9.818678212000002,0.8344231560000002,1.03192105,1.8014253,-3.75059694,,,
imu,577.548035,0.4193051128000001,-9.8461932408,0.8194693360000002,0.9347212199999999,1.80890221,-3.7954584,,,
imu,577.557141,0.415716196,-9.85456738,0.8134878080000001,0.8973366700000001,1.71917929,-3.87770441,,,
imu,577.566247,0.4043512928,-9.800733628000001,0.8122915024000001,0.78518302,1.59954873,-4.11696553,,,
imu,577.575353,0.3989679176000001,-9.7540777096,0.8063099744000001,0.63564482,1.47991817,-4.169303899999999,,,
imu,577.58446,0.3947808480000001,-9.773816752000002,0.8182730304000002,0.85995212,1.59954873,-3.8702275,,,
imu,577.593566,0.3798270280000001,-9.801929933600002,0.8069081272,0.8449983,1.67431783,-3.75807385,,,
imu,577.602672,0.3732473472,-9.786976113600002,0.8164785720000002,0.88985976,1.91357895,-3.6459202,,,
imu,577.611778,0.3648732080000001,-9.776807516000002,0.8134878080000001,0.97958268,1.98834805,-3.51881273,,,
imu,577.620884,0.3594898328000001,-9.779798280000001,0.8170767248000002,1.03192105,2.04816333,-3.32441307,,,
imu,577.629991,0.3600879856,-9.765442612800001,0.8039173632000001,1.12164397,2.23508608,-3.39918217,,,
imu,577.639097,0.3612842912,-9.739722042400002,0.7973376824000001,1.01696723,2.35471664,-3.60105874,,,
imu,577.648203,0.3630787496,-9.724768222400002,0.7931506128000001,0.9272443100000001,2.46687029,-3.71321239,,,
imu,577.657309,0.3684621248000001,-9.7301515976,0.8015247520000001,1.12912088,2.51173175,-3.84031986,,,
imu,577.666415,0.3714528888,-9.7510869456,0.7937487656000001,1.35342818,2.71360832,-3.78798149,,,
imu,577.675521,0.3774344168000001,-9.764246307200002,0.7740097232000002,1.60016621,2.76594669,-3.65339711,,,
imu,577.684628,0.3887993200000001,-9.767835224,0.7656355840000001,1.60764312,2.76594669,-3.66835093,,,
imu,577.693734,0.4049494456000001,-9.789966877600001,0.7752060288000001,1.60764312,2.81828506,-3.84779677,,,
imu,577.701935,0.4049494456000001,-9.8061170032,0.7620466672,1.68241222,2.7734236,-3.81041222,,,
imu,577.710137,0.4109309736,-9.8300431152,0.7590559032000002,1.57025857,2.68370068,-3.8702275,,,
imu,577.718339,0.4037531400000001,-9.838417254400001,0.7632429728000001,1.45062801,2.75099287,-3.74312003,,,
imu,577.72654,0.4139217376000001,-9.855165532800001,0.7698226536000001,1.12912088,2.58650085,-3.70573548,,,
imu,577.734742,0.424688488,-9.864137824800002,0.7722152648000001,1.00201341,2.63136231,-3.56367419,,,
imu,577.742943,0.4276792520000001,-9.8617452136,0.7829820152,0.77770611,2.55659321,-3.32441307,,,
imu,577.751145,0.4300718632,-9.844398782400003,0.7913561544000001,0.59078336,2.45939338,-3.22721324,,,
imu,577.759347,0.4408386136,-9.839015407200002,0.7901598488000001,0.3963837,2.35471664,-3.07019813,,,
imu,577.767548,0.43366078,-9.858754449600001,0.771617112,0.35152224,2.1752708,-2.94309066,,,
imu,577.77575,0.4444275304,-9.880886103200002,0.7793930984000002,0.02253820000000001,2.1005017,-3.07767504,,,
imu,577.783951,0.4599795032,-9.853969227200002,0.7961413768000002,-0.30644584,1.94348659,-3.1225365,,,
imu,577.792153,0.4623721144,-9.824061587200001,0.7943469184000002,-0.65786061,1.74161002,-3.21973633,,,
imu,577.800355,0.4689517952000001,-9.8432024768,0.7859727792000001,-0.76253735,1.65936401,-3.18235178,,,
imu,577.808556,0.4605776560000001,-9.837220948800002,0.7865709320000001,-0.92702937,1.62945637,-3.29450543,,,
imu,577.816758,0.4623721144,-9.803724392000001,0.7937487656000001,-0.94198319,1.44253362,-3.27955161,,,
imu,577.824959,0.4468201416000001,-9.798341016800002,0.7973376824000001,-1.0242292,1.33037997,-3.36179762,,,
imu,577.833161,0.4665591840000001,-9.787574266400002,0.7985339880000002,-1.03170611,1.27056469,-3.23469015,,,
imu,577.841363,0.4611758088,-9.779200127200001,0.8033192104000001,-0.95693701,1.30794924,-3.2720747,,,
imu,577.849564,0.4569887392,-9.7780038216,0.8087025856000001,-0.81487572,1.19579559,-3.18235178,,,
imu,577.857766,0.4623721144,-9.7809945856,0.8158804192000001,-0.9943215599999999,1.1285034,-3.2720747,,,
imu,577.865967,0.4857000736000001,-9.785779808000001,0.8212637944000001,-0.95693701,1.24813396,-3.08515195,,,
imu,577.874169,0.4851019208000001,-9.783985349600002,0.8368157672000002,-0.9644139199999999,1.07616503,-3.04029049,,,
imu,577.882371,0.4767277816000001,-9.797742864000002,0.8439936008000001,-1.14385976,0.7995193599999997,-3.13001341,,,
imu,577.890572,0.4791203928000001,-9.7989391696,0.840404684,-1.21862886,0.7546578999999998,-3.26459779,,,
imu,577.899037,0.4839056152000001,-9.797742864000002,0.8392083784000002,-1.12890594,0.6499811599999998,-3.26459779,,,
imu,577.907502,0.4743351704000001,-9.8013317808,0.8362176144000002,-1.38312088,0.4481045899999998,-3.54872037,,,
imu,577.915967,0.4689517952000001,-9.8162856008,0.8493769760000001,-1.34573633,0.3808123999999999,-3.75807385,,,
imu,577.924431,0.4874945320000001,-9.8294449624,0.8709104768000001,-1.58499745,0.27613566,-4.146873169999999,,,
imu,577.932896,0.490485296,-9.830641268,0.8541621984000002,-1.71210492,0.2387511099999999,-4.28893446,,,
imu,577.941361,0.4952705184000001,-9.8210708232,0.8697141712000002,-1.96631986,-0.01546383000000029,-4.341272829999999,,,
imu,577.949826,0.5084298800000001,-9.822267128800002,0.8792846160000001,-2.02613514,-0.1126636599999999,-4.34874974,,,
imu,577.958291,0.5413282840000001,-9.828248656800001,0.8792846160000001,-2.19062716,-0.3594016900000003,-4.40108811,,,
imu,577.966755,0.5556839512000001,-9.8402117128,0.8978273528000001,-2.1457657,-0.8080162900000003,-4.50576485,,,
imu,577.97522,0.4982612824000001,-9.8647359776,0.9331183680000001,-2.36259609,-1.144477240000001,-4.647826139999999,,,
imu,577.983685,0.4390441552000001,-9.880886103200002,0.9552500216000002,-2.72148777,-1.36878454,-4.79736434,,,
imu,577.99215,0.442633072,-9.879689797600001,0.9731946056000002,-3.0429949,-1.48093819,-4.991764,,,
imu,578.000615,0.4414367664,-9.8946436176,0.9803724392000001,-3.60376315,-1.82487605,-5.22354821,,,
imu,578.00908,0.4103328208,-9.841408018400001,0.9564463272000002,-3.98508556,-1.95198352,-5.43290169,,,
imu,578.017544,0.3774344168000001,-9.746899876,0.9486703408000001,-4.17200831,-1.97441425,-5.612347529999999,,,
imu,578.026009,0.3570972216000001,-9.7086180968,0.9684093832000001,-4.18696213,-1.84730678,-5.67216281,,,
imu,578.034474,0.3499193880000001,-9.7074217912,0.9749890640000002,-3.96265483,-1.72019931,-5.70954736,,,
imu,578.042939,0.3188154424,-9.748096181600001,0.9839613560000001,-3.75330135,-1.55570729,-5.70207045,,,
imu,578.051404,0.2769447464000001,-9.780396432800002,0.9869521200000001,-3.618716969999999,-1.34635381,-5.761885729999999,,,
imu,578.059868,0.2619909264,-9.785779808000001,1.0072893152,-3.61124006,-1.08466196,-5.896470109999999,,,
imu,578.068333,0.260196468,-9.783387196800001,1.0132708432,-3.4916095,-0.6435242699999999,-6.053485220000001,,,
imu,578.076798,0.2584020096,-9.801929933600002,1.0395895664,-3.60376315,-0.2921095,-5.97123921,,,
imu,578.085263,0.2625890792,-9.810902225600001,1.0401877192,-3.55890169,0.1864127399999997,-5.8889932,,,
imu,576.664896,,,,,,,80.189086,-38.19025560000002,129.3291952
imu,576.765147,,,,,,,80.0425996,-38.27570600000001,128.5967632
imu,576.866709,,,,,,,80.2379148,-38.30012040000001,129.6343752
imu,576.968302,,,,,,,80.81165320000001,-38.30012040000001,129.13388
imu,577.069865,,,,,,,80.4088156,-38.33674200000002,128.950772
imu,577.171427,,,,,,,80.4088156,-38.06818360000002,128.4380696
imu,577.272959,,,,,,,80.9337252,-38.30012040000001,128.3159976
imu,577.374552,,,,,,,80.799446,-38.66633640000001,129.4756816
imu,578.093728,0.2733558296,-9.8162856008,1.0389914136,-3.53647096,0.6499811599999998,-5.74693191,,,
imu,578.102227,0.2703650656,-9.8013317808,1.0330098856,-3.33459439,1.00139593,-5.75440882,,,
imu,578.110726,0.2775428992,-9.7953502528,1.0461692472,-3.44674804,1.3528107,-5.69459354,,,
imu,578.119225,0.2942911776,-9.796546558400001,1.0467674,-3.55890169,1.61450255,-5.71702427,,,
imu,578.127724,0.2984782472,-9.76484446,1.0360006496,-3.48413259,1.70422547,-5.918900839999999,,,
imu,578.136223,0.290104108,-9.714599624800002,1.0371969552,-3.44674804,1.81637912,-6.01610067,,,
imu,578.144723,0.290104108,-9.673925234400002,1.0365988024,-3.61124006,2.00330187,-6.068439039999999,,,
imu,578.153222,0.305057928,-9.694860582400002,1.0401877192,-3.37945585,2.16779389,-5.99366994,,,
imu,578.161721,0.3158246784000001,-9.745703570400002,1.0605249144,-3.21496383,2.27994754,-5.8142241,,,
imu,578.17022,0.3355637208,-9.769629682400002,1.0563378448,-3.1925331,2.11545552,-5.69459354,,,
imu,578.178719,0.3373581792000001,-9.780396432800002,1.0563378448,-3.08785636,1.88367131,-5.71702427,,,
imu,578.187218,0.3379563320000001,-9.800135475200001,1.0688990536,-3.05794872,1.8014253,-5.74693191,,,
imu,578.195717,0.3361618736,-9.798341016800002,1.0838528736,-2.99065653,1.75656384,-5.61982444,,,
imu,578.204217,0.3379563320000001,-9.803126239200001,1.0958159296,-3.05794872,1.50982581,-5.41794787,,,
imu,578.212716,0.3355637208,-9.803126239200001,1.0898344016,-3.32711748,1.2780416,-5.17120984,,,
imu,578.221215,0.3283858872000001,-9.780396432800002,1.0940214712,-3.28225602,1.13598031,-4.999240909999999,,,
imu,578.229714,0.3295821928000001,-9.767237071200002,1.103591916,-3.35702512,0.92662683,-5.044102369999999,,,
imu,578.238213,0.3158246784000001,-9.769031529600001,1.0988066936,-3.38693276,0.7920424499999998,-5.02914855,,,
imu,578.246712,0.2972819416,-9.786976113600002,1.1239291112,-3.28225602,0.9116730099999999,-4.90204108,,,
imu,578.255211,0.2787392048,-9.797144711200001,1.1406773896,-3.05047181,0.9341037399999998,-4.83474889,,,
imu,578.263711,0.2524204816,-9.803724392000001,1.15144414,-3.14019473,0.9939190199999999,-4.94690254,,,
imu,578.27221,0.2368685088,-9.819276364800002,1.1652016544,-3.30468675,1.12102649,-4.92447181,,,
imu,578.280709,0.2314851336,-9.8228652816,1.1675942656,-3.24487147,1.33037997,-4.8422258,,,
imu,578.289208,0.2117460912,-9.835426490400001,1.169388724,-3.40188658,1.43505671,-4.976810179999999,,,
imu,578.297707,0.203371952,-9.841408018400001,1.169388724,-3.31216366,1.84628676,-4.9169949,,,
imu,578.306131,0.2243073,-9.8061170032,1.172379488,-3.75330135,2.06311715,-4.909517989999999,,,
imu,578.314555,0.2338777448,-9.793555794400001,1.1849406968,-3.69348607,2.27247063,-5.03662546,,,
imu,578.32298,0.257205704,-9.8013317808,1.193314836,-3.55890169,2.41453192,-5.33570186,,,
imu,578.331404,0.2733558296,-9.803126239200001,1.1867351552,-3.46170186,2.41453192,-5.57496298,,,
imu,578.339828,0.2685706072,-9.779200127200001,1.2004926696,-3.70096298,2.36967046,-5.829177919999999,,,
imu,578.348252,0.266177996,-9.727160833600001,1.1963056,-3.62619388,2.39210119,-5.77683955,,,
imu,578.356676,0.2530186344000001,-9.727758986400001,1.2178391008,-3.73087062,2.35471664,-5.806747189999999,,,
imu,578.3651,0.236270356,-9.7427128064,1.2124557256,-3.760778259999999,2.06311715,-5.91142393,,,
imu,578.373524,0.2386629672,-9.749890640000002,1.2124557256,-3.52151714,1.90610204,-5.86656247,,,
imu,578.381948,0.212344244,-9.7809945856,1.2447559768,-3.58133242,1.91357895,-5.97871612,,,
imu,578.390373,0.2111479384,-9.7959484056,1.2549245744,-3.50656332,1.86124058,-5.85908556,,,
imu,578.398797,0.2069608688,-9.786976113600002,1.2483448936,-3.52151714,1.73413311,-5.83665483,,,
imu,578.407221,0.1985867296,-9.745105417600001,1.2537282688,-3.59628624,1.77899457,-5.806747189999999,,,
imu,578.415645,0.1896144376,-9.728955292000002,1.268083936,-3.40936349,1.74161002,-5.522624609999999,,,
imu,578.424069,0.1878199792,-9.7325442088,1.2716728528,-3.17010237,1.76404075,-5.26840967,,,
imu,578.432493,0.1938015072,-9.7283571392,1.2656913248,-3.16262546,1.7266562,-5.25345585,,,
imu,578.440917,0.1926052016,-9.7128051664,1.2698783944,-2.97570271,1.77899457,-5.05157928,,,
imu,578.449341,0.191408896,-9.711608860800002,1.2985897288,-2.77382614,1.82385603,-4.602964679999999,,,
imu,578.457766,0.1872218264,-9.727160833600001,1.3105527848,-2.62428794,1.77899457,-4.3936112,,,
imu,578.46619,0.1932033544,-9.741516500800001,1.3267029104,-2.27287317,1.93600968,-3.99733497,,,
imu,578.474614,0.1949978128,-9.727160833600001,1.3243102992,-2.2953039,1.81637912,-3.7954584,,,
imu,578.483038,0.1961941184,-9.718188541600002,1.3506290224,-2.01118132,1.74908693,-3.5711511,,,
imu,578.491462,0.2039701048,-9.710412555200001,1.3512271752,-1.72705874,1.68927165,-3.37675144,,,
imu,578.499886,0.2117460912,-9.706225485600001,1.3542179392,-1.83173548,1.62197946,-3.3468438,,,
imu,578.50872,0.2087553272,-9.7074217912,1.3673773008,-1.59995127,1.58459491,-3.4216129,,,
imu,578.517554,0.2147368552,-9.7086180968,1.3691717592,-1.33825942,1.53973345,-3.30198234,,,
imu,578.526389,0.2087553272,-9.7151977776,1.3691717592,-1.11395212,1.53973345,-3.17487487,,,
imu,578.535223,0.2009793408,-9.725964528,1.3769477456,-0.95693701,1.577118,-3.13749032,,,
imu,578.544057,0.1896144376,-9.7283571392,1.3763495928,-0.54570696,1.59207182,-2.9729983,,,
imu,578.552891,0.1938015072,-9.739123889600002,1.3829292736,-0.47093786,1.79394839,-2.84589083,,,
imu,578.561725,0.1866236736,-9.749890640000002,1.402668316,-0.35878421,2.04068642,-2.76364482,,,
imu,578.57056,0.1872218264,-9.7331423616,1.4068553856,-0.29149202,2.21265535,-2.65149117,,,
imu,578.579394,0.1902125904,-9.7217774584,1.4044627744,-0.36626112,2.58650085,-2.5991528,,,
imu,578.588228,0.1985867296,-9.727758986400001,1.411640608,-0.26158438,2.73603905,-2.47952224,,,
imu,578.597062,0.2129423968,-9.7331423616,1.40565908,-0.15690764,2.96782326,-2.41223005,,,
imu,578.605896,0.2243073,-9.7217774584,1.4098461496,-0.02232326000000001,3.20708438,-2.48699915,,,
imu,578.61473,0.2398592728,-9.722375611200002,1.396686788,-0.02980017,3.19213056,-2.62906044,,,
imu,578.623565,0.2464389536,-9.734936820000001,1.4044627744,0.14964567,3.10988455,-2.8234601,,,
imu,578.632399,0.2506260232,-9.758862932000001,1.3853218848,0.05244583999999999,3.06502309,-3.01785976,,,
imu,578.641196,0.2727576768,-9.751685098400001,1.3835274264,0.23936859,3.0725,-2.98795212,,,
imu,578.65003,0.2643835376,-9.748694334400001,1.3841255792,0.26179932,3.05754618,-3.10758268,,,
imu,578.658864,0.263187232,-9.745703570400002,1.372760676,0.3216146,2.90053107,-3.30198234,,,
imu,578.667698,0.2679724544000001,-9.7492924872,1.3733588288,0.46367589,2.68370068,-3.36927453,,,
imu,578.676532,0.266177996,-9.749890640000002,1.372760676,0.620691,2.64631613,-3.27955161,,,
imu,578.685366,0.2434481896,-9.767835224,1.3691717592,0.73284465,2.6986545,-3.33188998,,,
imu,578.694201,0.2380648144,-9.777405668800002,1.3769477456,0.80013684,2.72108523,-3.47395127,,,
imu,578.703035,0.2308869808,-9.751685098400001,1.3775458984,0.7403215599999999,2.60893158,-3.6459202,,,
imu,578.711493,0.2225128416,-9.7283571392,1.3590031616,0.7104139199999999,2.49677793,-3.82536604,,,
imu,578.719952,0.1961941184,-9.736731278400002,1.3745551344,0.85995212,2.50425484,-3.91508896,,,
imu,578.72841,0.1860255208,-9.785181655200002,1.37575144,0.97210577,2.51173175,-4.034719519999999,,,
imu,578.736869,0.1806421456,-9.8013317808,1.372760676,0.9571519499999999,2.55659321,-4.23659609,,,
imu,578.745327,0.170473548,-9.803126239200001,1.3799385096,0.85995212,2.71360832,-4.17678081,,,
imu,578.753785,0.1591086448,-9.802528086400002,1.3811348152,0.7403215599999999,2.84071579,-4.19921154,,,
imu,578.762244,0.161501256,-9.7780038216,1.3721625232,0.5459219,3.04259236,-4.16182699,,,
imu,578.770702,0.1573141864,-9.7959484056,1.3781440512,0.51601426,3.10988455,-4.00481188,,,
imu,577.476206,,,,,,,83.4972372,-39.56966920000002,126.814512
imu,577.577647,,,,,,,81.1168332,-39.21566040000002,129.0240152
imu,577.679209,,,,,,,83.1676428,-40.11899320000001,126.3384312
imu,577.780802,,,,,,,81.29994119999999,-38.99593080000001,128.767664
imu,577.882365,,,,,,,80.84827480000001,-38.59309320000002,128.3648264
imu,577.983897,,,,,,,81.06800439999999,-38.7762012,129.2437448
imu,578.085612,,,,,,,81.1778692,-38.30012040000001,128.8775288
imu,578.187052,,,,,,,81.3609772,-37.87286840000002,128.8287
imu,578.779161,0.1776513816,-9.809107767200002,1.3835274264,0.40386061,3.25194584,-4.04219643,,,
imu,578.787619,0.1710717008,-9.8049206976,1.39070526,0.31413769,3.5211146,-4.04219643,,,
imu,578.796078,0.1746606176,-9.805518850400002,1.3871163432,0.23189168,3.46877623,-3.9449966,,,
imu,578.804536,0.173464312,-9.8049206976,1.396686788,-0.11204618,3.45382241,-3.9449966,,,
imu,578.812995,0.1728661592,-9.788172419200002,1.3841255792,-0.30644584,3.43139168,-3.83284295,,,
imu,578.821453,0.1830347568,-9.746899876,1.378742204,-0.5008455,3.41643786,-3.57862801,,,
imu,578.829912,0.1609031032,-9.717590388800001,1.3853218848,-0.5756146,3.40148404,-3.43656672,,,
imu,578.83837,0.1483418944,-9.7151977776,1.3859200376,-0.7251528,3.39400713,-3.51881273,,,
imu,578.846828,0.1363788384,-9.721179305600002,1.3715643704,-0.68776825,3.51363769,-3.62348947,,,
imu,578.855287,0.06400234960000001,-9.748096181600001,1.3960886352,-0.58309151,3.77532954,-3.65339711,,,
imu,578.863745,0.04007623760000001,-9.8234634344,1.4247999696,-0.45598404,4.18655959,-3.85527368,,,
imu,578.872204,0.07118018320000001,-9.8713156584,1.4194165944,-0.55318387,4.59778964,-4.28893446,,,
imu,578.880662,0.05981528000000001,-9.834828337600001,1.4242018168,-0.69524516,4.98658896,-4.46090339,,,
imu,578.889121,0.06519865520000001,-9.801929933600002,1.4218092056,-0.78496808,5.51744957,-4.0945348,,,
imu,578.897579,0.05562821040000001,-9.802528086400002,1.4200147472,-0.81487572,6.160463829999999,-3.91508896,,,
imu,578.906038,0.06998387760000001,-9.815687448000002,1.4122387608,-0.88964482,6.68384753,-3.80293531,,,
imu,578.9145,0.08194693360000001,-9.803126239200001,1.4104443024,-1.11395212,7.13993904,-3.6459202,,,
imu,578.922962,0.1280046992,-9.786377960800001,1.3960886352,-0.8821679099999999,7.551169089999999,-3.66835093,,,
imu,578.931424,0.1519308112,-9.755274015200001,1.3924997184,-0.76253735,7.80538403,-3.78050458,,,
imu,578.939887,0.1668846312,-9.725366375200002,1.3733588288,-0.8522602699999999,7.910060769999999,-3.96742733,,,
imu,578.948349,0.1716698536,-9.728955292000002,1.37575144,-0.68029134,8.074552789999998,-4.13191935,,,
imu,578.956811,0.173464312,-9.7283571392,1.3793403568,-0.61299915,8.26147554,-4.15435008,,,
imu,578.965274,0.1788476872,-9.727758986400001,1.387714496,-0.7550604399999999,8.1567988,-4.23659609,,,
imu,578.973736,0.1902125904,-9.723571916800001,1.4074535384,-0.79244499,8.27642936,-4.0945348,,,
imu,578.982198,0.182436604,-9.752283251200002,1.3883126488,-0.83730645,8.32129082,-3.97490424,,,
imu,578.99066,0.1698753952,-9.772620446400001,1.3990793992,-0.8821679099999999,8.36615228,-3.96742733,,,
imu,578.999123,0.152528964,-9.7702278352,1.4188184416,-1.12890594,8.373629189999999,-3.84031986,,,
imu,579.007585,0.1489400472,-9.7780038216,1.4409500952,-1.20367504,8.53812121,-3.57862801,,,
imu,579.016047,0.1339862272,-9.7995373224,1.4672688184,-1.22610577,8.80728997,-3.37675144,,,
imu,579.024509,0.092713684,-9.834828337600001,1.4588946792,-1.35321324,9.13627401,-3.39918217,,,
imu,579.032972,0.04545961280000001,-9.876699033600001,1.4822226384,-1.45788998,9.59236552,-3.47395127,,,
imu,579.041434,0.002990764,-9.883278714400001,1.5264859456,-1.97379677,10.29519506,-3.496382,,,
imu,579.049896,-0.0514411408,-9.915578965600002,1.5300748624,-2.39998064,11.12513207,-3.88518132,,,
imu,579.058359,-0.09749890640000002,-9.964029342400002,1.5366545432,-3.00561035,12.16442256,-4.30388828,,,
imu,579.066821,-0.128602852,-9.975992398400003,1.513326584,-3.67105534,13.30838979,-4.4683803,,,
imu,579.075283,-0.1423603664,-9.941897688800001,1.4852134024,-4.40379252,14.89349471,-4.73007215,,,
imu,579.083745,-0.1369769912,-9.928140174400001,1.498372764,-4.89726858,16.55336873,-5.1413022,,,
imu,579.092208,-0.1280046992,-9.924551257600003,1.5121302784,-5.45055992,18.13847365,-5.74693191,,,
imu,579.10067,-0.1070693512,-9.870717505600002,1.4947838472,-6.01880508,19.52917891,-6.180592689999999,,,
imu,579.109132,-0.09570444800000001,-9.812098531200002,1.5199062648,-6.48985041,20.87502271,-6.988098969999999,,,
imu,579.117615,-0.07955432240000002,-9.835426490400001,1.519308112,-6.781449899999999,22.10871286,-7.6834516,,,
imu,579.126097,-0.0532355992,-9.863539672000002,1.5276822512,-7.207633769999999,22.99846515,-8.5059117,,,
imu,579.13458,0.0005981528000000001,-9.880287950400001,1.5438323768,-7.633817639999999,23.73120233,-9.34332562,,,
imu,579.143063,0.0113649032,-9.878493492,1.5976661288,-8.433847010000001,24.32187822,-10.27793937,,,
imu,579.151545,0.007775986400000001,-9.9167752712,1.6174051712,-9.36098385,24.97236939,-11.21255312,,,
imu,579.160028,0.0263187232,-9.970010870400001,1.5964698232,-10.07876721,25.5779991,-11.69107536,,,
imu,579.16851,0.05443190480000001,-9.905410368000002,1.5809178504,-10.81150439,25.74996803,-12.25184361,,,
imu,579.176993,0.0466559184,-9.791761336000002,1.5635714192,-11.68630286,26.00418297,-12.62568911,,,
imu,579.185476,0.05682451600000001,-9.723571916800001,1.6407331304,-12.04519454,26.48270521,-12.58830456,,,
imu,579.193958,0.1028822816,-9.703832874400002,1.7053336328,-11.99285617,26.78925852,-12.61073529,,,
imu,579.202441,0.1034804344,-9.704431027200002,1.683800132,-11.83584106,26.81916616,-12.82756568,,,
imu,579.210924,0.10467674,-9.714599624800002,1.7430172592,-11.91061016,26.72196633,-13.37338011,,,
imu,579.219406,0.1262102408,-9.709216249600003,1.7753175104,-11.85827179,26.37802847,-13.56030286,,,
imu,579.227889,0.1411640608,-9.704431027200002,1.7980473168,-12.11248673,25.89202932,-13.8892869,,,
imu,579.236371,0.1746606176,-9.6733270816,1.8141974424,-12.3891324,25.60790674,-14.05377892,,,
imu,579.244854,0.1991848824,-9.657176956,1.806421456,-12.20968656,25.07704613,-14.27808622,,,
imu,579.253337,0.2243073,-9.667943706400001,1.8728164168,-12.04519454,24.59852389,-14.24817858,,,
imu,579.261819,0.2434481896,-9.616502565600001,1.8620496664,-12.11248673,24.02280182,-14.10611729,,,
imu,579.270302,0.2548130928,-9.578818939200001,1.8829850144,-11.92556398,23.08818807,-13.80704089,,,
imu,579.278784,0.2536167872,-9.644017594400001,1.9158834184,-11.5666723,22.16105123,-13.47805685,,,
imu,579.287267,0.2338777448,-9.762451848800001,1.982876532,-11.40965719,21.29372967,-13.03691916,,,
imu,579.29575,0.2225128416,-9.76484446,1.9601467256,-11.46199556,20.35911592,-12.58082765,,,
imu,579.304232,0.2099516328,-9.7056273328,2.0050081856,-11.68630286,19.3721638,-12.42381254,,,
imu,579.312715,0.1830347568,-9.672728928800002,2.045084423200001,-11.53676466,18.68428808,-12.20698215,,,
imu,579.321158,0.1656883256,-9.620689635200002,2.0474770344,-11.30498045,17.9515509,-11.57892171,,,
imu,579.329601,0.188418132,-9.5447242296,2.0079989496,-11.02833478,17.12161389,-10.92843054,,,
imu,579.338045,0.188418132,-9.517807353600002,2.0570474792,-10.46008962,16.26176924,-10.31532392,,,
imu,579.346488,0.1531271168,-9.4938812416,2.0708049936,-9.86193682,15.53650897,-9.91157078,,,
imu,579.354931,0.1597067976,-9.446627170400001,2.1096849256,-9.03947672,14.84115634,-9.26107961,,,
imu,579.363374,0.1567160336,-9.4669643656,2.1366018016,-8.127293700000001,14.26543427,-8.66292681,,,
imu,579.371817,0.1531271168,-9.532163020800002,2.1677057472,-7.46184871,13.57008164,-8.304035129999999,,,
imu,579.38026,0.1471455888,-9.5566872856,2.189239248,-6.945941919999999,12.77005227,-7.96009727,,,
imu,579.388704,0.1268083936,-9.5459205352,2.207183832,-6.572096419999999,12.21676093,-7.63111323,,,
imu,579.397147,0.1238176296,-9.547714993600001,2.2329044024,-6.09357418,11.72328487,-7.35446756,,,
imu,579.40559,0.1292010048,-9.564463272000001,2.2275210272,-5.577667389999999,11.14008589,-6.988098969999999,,,
imu,579.414033,0.1064711984,-9.5656595776,2.2263247216,-5.21877571,10.58679455,-6.87594532,,,
imu,579.422476,0.1034804344,-9.5237888816,2.1808651088,-4.9122224,9.99611866,-6.9357606,,,
imu,579.43092,0.1142471848,-9.486703408,2.164714983200001,-4.583238359999999,9.63722698,-6.91332987,,,
imu,579.439363,0.09690075360000001,-9.446627170400001,2.1401907184,-3.94770101,9.03907418,-7.00305279,,,
imu,579.447806,0.08015247520000002,-9.440047489600001,2.1180590648,-3.05794872,8.49325975,-7.06286807,,,
imu,579.456249,0.08314323920000001,-9.463973601600001,2.0779828272,-2.15324261,8.022214420000001,-7.20492936,,,
imu,579.464692,0.08733030880000002,-9.472347740800002,2.072599452,-1.28592105,7.49135381,-7.257267730000001,,,
imu,579.473136,0.08374139200000001,-9.512423978400001,2.0773846744,-0.44103022,6.85581646,-7.37689829,,,
imu,579.481579,0.05443190480000001,-9.606333968000001,2.0749920632,0.35152224,6.15298692,-7.26474464,,,
imu,579.490022,0.0340947096,-9.673925234400002,2.0175693944,0.88985976,5.36043446,-7.24231391,,,
imu,579.498465,0.002990764,-9.696655040800001,1.9990266576,1.24875144,4.66508183,-7.145114079999999,,,
imu,579.506908,0.007177833600000002,-9.685290137600001,1.9780913096,1.39081273,4.20899032,-6.91332987,,,
imu,579.515352,-0.0107667504,-9.6912716656,1.95895042,1.62259694,3.79028336,-6.71893021,,,
imu,579.524182,-0.05562821040000001,-9.7008421104,1.9356224608,1.86185806,3.17717674,-6.5619151,,,
imu,579.533012,-0.05084298800000001,-9.7122070136,1.9164815712,2.09364227,2.66874686,-6.00114685,,,
imu,579.541842,-0.03349655680000001,-9.7361331256,1.9134908072,2.32542648,2.27994754,-5.42542478,,,
imu,579.550672,-0.0442633072,-9.711608860800002,1.8985369872,2.47496468,1.81637912,-4.78241052,,,
imu,579.559503,-0.0442633072,-9.678710456800001,1.8955462232,2.97591765,1.13598031,-4.22164227,,,
imu,579.568333,-0.04605776560000001,-9.6733270816,1.9075092792,3.11797894,0.5153967799999997,-3.67582784,,,
imu,579.577163,-0.0562263632,-9.679308609600001,1.9218649464,3.43200916,-0.1350943900000003,-3.1973056,,,
imu,579.585993,-0.07118018320000001,-9.734338667200001,1.91408896,3.66379337,-0.80053938,-2.92813684,,,
imu,578.288725,,,,,,,81.592914,-38.55647160000002,128.889736
imu,578.390257,,,,,,,81.01917560000001,-38.50764280000001,128.6822136
imu,578.49185,,,,,,,83.77800280000001,-39.069174,127.0342416
imu,578.593382,,,,,,,80.78723880000001,-38.36115640000002,130.293564
imu,578.695097,,,,,,,83.19205720000001,-39.20345320000001,127.5957728
imu,578.796507,,,,,,,80.7262028,-38.70295800000001,130.3546
imu,578.89807,,,,,,,80.6895812,-38.6785436,128.0718536
imu,578.999602,,,,,,,80.5797164,-38.17804840000001,129.9029336
imu,579.594823,-0.08673215600000002,-9.7427128064,1.8949480704,3.86566994,-1.52579965,-2.95804448,,,
imu,579.603654,-0.1064711984,-9.719983000000001,1.8698256528,4.12736179,-1.99684498,-2.96552139,,,
imu,579.612484,-0.1220231712,-9.7474980288,1.9087055848,4.14979252,-2.2361061,-2.71878336,,,
imu,579.621314,-0.1626975616,-9.788172419200002,1.9284446272,4.359146,-2.41555194,-2.18044584,,,
imu,579.630144,-0.1812402984,-9.8049206976,1.9278464744,4.359146,-2.62490542,-1.69444669,,,
imu,579.638974,-0.1501363528,-9.8168837536,1.9152852656,4.11988488,-2.72958216,-1.26826282,,,
imu,579.647805,-0.1052748928,-9.803126239200001,1.91408896,3.84323921,-2.7594898,-0.9766633299999998,,,
imu,579.656635,-0.06579680800000001,-9.7989391696,1.8943499176,3.7609932,-2.94641255,-0.9467556899999998,,,
imu,579.665465,-0.0376836264,-9.787574266400002,1.8674330416,3.74603938,-3.35016569,-0.9243249599999999,,,
imu,579.674295,-0.0197390424,-9.788172419200002,1.8458995408,3.55163972,-4.15767197,-1.05890934,,,
imu,579.683125,0.005981528000000001,-9.7612555432,1.8650404304,3.51425517,-4.92031679,-1.07386316,,,
imu,579.691956,0.0185427368,-9.766638918400002,1.8734145696,3.44696298,-5.6754847,-0.9766633299999998,,,
imu,579.700786,0.0346928624,-9.779798280000001,1.8793960976,3.40210152,-6.53532935,-0.74487912,,,
imu,579.709616,0.0233279592,-9.777405668800002,1.9087055848,3.18527113,-7.544712199999999,-0.49066418,,,
imu,579.718446,0.03947808480000001,-9.7636481544,1.9368187664,2.998348379999999,-8.49427977,-0.03457266999999997,,,
imu,579.726958,0.04845037680000001,-9.766638918400002,1.935024308,2.87871782,-9.406462789999999,0.4663803,,,
imu,579.735587,0.0532355992,-9.803126239200001,1.9242575576,2.69179507,-10.43827637,0.89256417,,,
imu,579.744099,0.07656355840000001,-9.768433376800001,1.9451929056,2.49739541,-11.3579363,1.55053225,,,
imu,579.75261,0.0514411408,-9.703234721600001,1.9882599072,2.31047266,-12.29255005,2.11877741,,,
imu,579.761122,0.0346928624,-9.686486443200002,1.98885806,2.20579592,-13.21220998,2.50757673,,,
imu,579.769634,0.04964668240000001,-9.740918348000001,2.0014192688,2.23570356,-14.17673137,2.83656077,,,
imu,579.101225,,,,,,,80.1402572,-37.87286840000002,129.0240152
imu,579.202849,,,,,,,78.7120148,-37.73858920000001,128.4746912
imu,579.304381,,,,,,,77.10066440000001,-37.20147240000002,126.4605032
imu,579.405882,,,,,,,76.1485028,-37.00615720000003,124.6050088
imu,579.507445,,,,,,,75.3916564,-37.10381480000002,125.3374408
imu,579.609038,,,,,,,77.8453036,-37.9216972,122.6884784
imu,579.7106,,,,,,,75.6358004,-37.53106680000003,126.3994672
