Type,Timestamp,Data Accelerometer X,Data Accelerometer Y,Data Accelerometer Z,Data Gyroscope X,Data Gyroscope Y,Data Gyroscope Z,Data Magnetometer X,Data Magnetometer Y,Data Magnetometer Z
imu,400.172703,-0.1244157824,-9.7750130576,1.8638441248,0.20198404,3.12483837,-1.61220068,,,
imu,400.181155,-0.1148453376,-9.768433376800001,1.845301388,0.14216876,3.40148404,-1.70940051,,,
imu,400.189607,-0.09630260080000001,-9.718188541600002,1.8297494152,-0.01484635000000001,3.45382241,-1.95613854,,,
imu,400.198425,-0.08254508640000002,-9.6523917336,1.821375276,-0.11204618,3.55102224,-2.03090764,,,
imu,400.207244,-0.0550300576,-9.6009505928,1.8267586512,0.14964567,3.73794499,-2.0757691,,,
imu,400.216062,-0.03110394560000001,-9.593772759200002,1.8171882064,0.44872207,3.94729847,-2.11315365,,,
imu,400.22488,-0.0293094872,-9.638036066400002,1.806421456,0.65807555,3.83514482,-2.35989168,,,
imu,400.233698,-0.0191408896,-9.639830524800002,1.8040288448,0.9945364999999999,3.7454219,-2.55429134,,,
imu,400.242517,-0.002990764,-9.630260080000001,1.806421456,1.368382,3.69308353,-2.51690679,,,
imu,400.251335,0.007775986400000001,-9.637437913600001,1.80941222,1.63755076,3.55102224,-2.36736859,,,
imu,400.260153,0.011963056,-9.665551095200001,1.8016362336,1.83195042,3.23699202,-2.41223005,,,
imu,400.268971,0.0053833752,-9.6846919848,1.8267586512,1.77213514,3.03511545,-2.32998404,,,
imu,400.27779,-0.01495382,-9.700243957600001,1.8345346376,1.99644244,2.90053107,-2.29259949,,,
imu,400.286608,-0.026916876,-9.739123889600002,1.8506847632,1.8917657,2.93043871,-2.41223005,,,
imu,400.295426,-0.023926112,-9.7570684736,1.827356804,1.95905789,3.13231528,-2.06829219,,,
imu,400.304244,-0.020935348,-9.7815927384,1.827356804,1.77213514,3.19960747,-1.89632326,,,
imu,400.313063,-0.0011963056,-9.782789044000001,1.8357309432,1.75718132,3.28933039,-2.02343073,,,
imu,400.321881,-0.0017944584,-9.8013317808,1.8429087768,1.7422275,3.43886859,-2.05333837,,,
imu,400.330699,0.009570444800000001,-9.800135475200001,1.8447032352,1.68241222,3.70056044,-1.93370781,,,
imu,400.339517,0.004187069600000001,-9.779200127200001,1.833338332,1.55530475,3.88000628,-2.03090764,,,
imu,400.348336,0.0155519728,-9.752881404000002,1.8458995408,1.54035093,4.104313579999999,-1.95613854,,,
imu,400.357154,0.0305057928,-9.7504887928,1.8584607496,1.25622835,4.18655959,-1.96361545,,,
imu,400.365972,0.03887993200000001,-9.7744149048,1.8375254016,0.9347212199999999,4.27628251,-2.42718387,,,
imu,400.37479,0.04486146000000001,-9.789966877600001,1.8171882064,0.9347212199999999,4.194036499999999,-2.71878336,,,
imu,400.383609,0.0317020984,-9.748096181600001,1.8219734288,0.8674290299999999,4.16412886,-2.86832156,,,
imu,400.392427,0.0323002512,-9.723571916800001,1.8279549568,0.73284465,4.26132869,-2.72626027,,,
imu,400.400904,0.0251224176,-9.689477207200001,1.8249641928,0.66555246,4.30619015,-2.81598319,,,
imu,400.409382,0.04725407120000001,-9.6775141512,1.7908694832,0.59078336,4.194036499999999,-2.63653735,,,
imu,400.41786,0.0017944584,-9.688879054400001,1.8381235544,0.60573718,3.99215993,-2.56176825,,,
imu,400.426337,0.0173464312,-9.709814402400001,1.8488903048,0.65807555,4.05945212,-2.29259949,,,
imu,400.434815,0.023926112,-9.722375611200002,1.8399180128,0.44872207,3.99963684,-2.19539966,,,
imu,400.443292,0.0245242648,-9.7056273328,1.8237678872,0.55339881,3.83514482,-2.34493786,,,
imu,400.45177,0.0257205704,-9.6667474008,1.8189826648,0.5982602699999999,3.53606842,-2.58419898,,,
imu,400.460247,0.002990764,-9.6159044128,1.8249641928,0.7702292,3.32671494,-2.748691,,,
imu,400.468725,-0.007775986400000001,-9.585398620000001,1.8040288448,1.09173633,3.27437657,-2.86832156,,,
imu,400.477202,-0.026916876,-9.6051376624,1.8022343864,1.34595127,3.30428421,-2.85336774,,,
imu,400.48568,-0.04246884880000001,-9.648802816800002,1.8112066784,1.73475059,3.21456129,-2.93561375,,,
imu,400.494157,-0.04785222400000001,-9.706823638400001,1.8177863592,2.116073,3.23699202,-2.96552139,,,
imu,400.502635,-0.03349655680000001,-9.767835224,1.8207771232,2.4151494,3.28933039,-2.9729983,,,
imu,400.511112,-0.0263187232,-9.819276364800002,1.8291512624,2.52730305,3.49120696,-2.78607555,,,
imu,400.51959,0.0017944584,-9.833632032,1.8279549568,2.2656112,3.48373005,-2.68887572,,,
imu,400.528067,0.0191408896,-9.80970592,1.8369272488,2.03382699,3.56597606,-2.44213769,,,
imu,400.536545,0.04246884880000001,-9.7576666264,1.8566662912,1.69736604,3.60336061,-2.08324601,,,
imu,400.545022,0.0526374464,-9.7427128064,1.8052251504,1.46558183,3.53606842,-1.91875399,,,
imu,400.5535,0.07058203040000001,-9.727758986400001,1.8189826648,1.45810492,3.33419185,-1.76173888,,,
imu,400.561977,0.1100601152,-9.688280901600002,1.7717285936,1.22632071,3.16969983,-1.65706214,,,
imu,400.570455,0.08433954480000001,-9.6326526912,1.767541524,1.5926893,3.23699202,-1.39537029,,,
imu,400.578933,0.0723764888,-9.6087265792,1.7771119688,1.65250458,3.17717674,-1.11124771,,,
imu,400.58741,0.06160973840000001,-9.647606511200001,1.7753175104,2.20579592,3.22951511,-0.77478676,,,
imu,400.595888,0.08433954480000001,-9.727758986400001,1.7830934968,2.55721069,3.3715764,-0.4981410899999998,,,
imu,400.604349,0.0723764888,-9.761853696000001,1.7896731776,2.63197979,3.64822207,-0.1915877799999999,,,
imu,400.61281,0.0861340032,-9.748694334400001,1.8225715816,2.47496468,4.08935976,0.07758098000000002,,,
imu,400.621271,0.1124527264,-9.758862932000001,1.8267586512,2.18336519,4.44077453,0.1299193500000002,,,
imu,400.629732,0.113649032,-9.741516500800001,1.8082159144,1.9665348,4.784712389999999,-0.18411087,,,
imu,400.638193,0.1202287128,-9.717590388800001,1.8147955952,1.70484295,5.18846553,-0.63272547,,,
imu,400.646654,0.140565908,-9.713403319200001,1.8159919008,1.26370526,5.50997266,-0.99161715,,,
imu,400.655115,0.1800439928,-9.7283571392,1.8159919008,1.00949032,5.749233779999999,-1.53743158,,,
imu,400.663576,0.2021756464,-9.739722042400002,1.8082159144,0.9197674,5.86138743,-1.9262309,,,
imu,400.672037,0.2081571744,-9.7128051664,1.8171882064,0.51601426,5.77166451,-2.3000764,,,
imu,400.680498,0.2129423968,-9.711608860800002,1.8285531096,0.30666078,5.69689541,-2.46456842,,,
imu,400.688959,0.2021756464,-9.6954587352,1.8548718328,0.04496892999999999,5.57726485,-2.4496146,,,
imu,400.69742,0.2147368552,-9.724170069600001,1.878199792,-0.23915365,5.24828081,-2.56924516,,,
imu,400.705881,0.2087553272,-9.772620446400001,1.8997332928,-0.6503837,5.09874261,-2.56924516,,,
imu,400.714342,0.1991848824,-9.803724392000001,1.9039203624,-1.12890594,5.091265699999999,-2.65896808,,,
imu,400.722803,0.1770532288,-9.810304072800001,1.9122945016,-1.65976655,4.96415823,-2.53933752,,,
imu,400.731264,0.17944584,-9.7911631832,1.91408896,-2.37754991,4.979112049999999,-2.42718387,,,
imu,400.739725,0.1411640608,-9.748694334400001,1.908107432,-2.68410322,5.08378879,-2.35989168,,,
imu,400.748186,0.1453511304,-9.725964528,1.8853776256,-2.82616451,5.08378879,-2.28512258,,,
imu,400.756647,0.1471455888,-9.678710456800001,1.8548718328,-2.66167249,5.263234629999999,-2.12810747,,,
imu,400.765108,0.1495382,-9.620091482400001,1.8351327904,-2.36259609,5.27818845,-2.35241477,,,
imu,400.773569,0.1483418944,-9.555490980000002,1.8411143184,-1.80182784,5.308096089999999,-2.80102937,,,
imu,400.78203,0.1650901728,-9.573435564,1.836329096,-0.81487572,5.352957549999999,-3.01038285,,,
imu,400.790491,0.1591086448,-9.627867468800002,1.8291512624,0.08983038999999998,5.19594244,-3.31693616,,,
imu,400.798952,0.1836329096,-9.627867468800002,1.7944584,0.7253677399999999,4.98658896,-3.58610492,,,
imu,400.807416,0.1860255208,-9.5812115504,1.8417124712,1.22632071,4.66508183,-3.61601256,,,
imu,400.815881,0.1668846312,-9.5429297712,1.8201789704,2.07121154,4.433297619999999,-3.67582784,,,
imu,400.824346,0.1830347568,-9.591978300800001,1.803430692,2.89367164,4.44825144,-3.18235178,,,
imu,400.832811,0.1991848824,-9.673925234400002,1.8016362336,3.51425517,4.44077453,-2.72626027,,,
imu,400.841276,0.1955959656,-9.713403319200001,1.8118048312,3.86566994,4.25385178,-2.24773803,,,
imu,400.84974,0.1967922712,-9.7510869456,1.8171882064,4.232038530000001,4.03702139,-2.04586146,,,
imu,400.858205,0.1818384512,-9.783985349600002,1.8076177616,4.516161110000001,3.86505246,-2.03838455,,,
imu,400.86667,0.1441548248,-9.800733628000001,1.8076177616,4.85262206,3.73046808,-2.33746095,,,
imu,400.875135,0.1471455888,-9.7995373224,1.818384512,4.98720644,3.65569898,-2.63653735,,,
imu,400.8836,0.1297991576,-9.803126239200001,1.8237678872,4.8825297,3.73046808,-2.92813684,,,
imu,400.892065,0.1172379488,-9.803126239200001,1.8130011368,4.59093021,3.86505246,-3.26459779,,,
imu,400.900529,0.13458438,-9.801929933600002,1.7382320368,4.4339151,4.31366706,-3.27955161,,,
imu,400.908994,0.08254508640000002,-9.746301723200002,1.7711304408,4.089977240000001,4.6426511,-3.13001341,,,
imu,400.917459,0.1202287128,-9.7504887928,1.7591673848,3.97782359,5.22585008,-2.77859864,,,
imu,400.925924,0.1363788384,-9.752283251200002,1.7621581488,3.86566994,5.86138743,-2.32998404,,,
imu,400.934389,0.1782495344,-9.766040765600001,1.7280634392,3.82828539,6.17541765,-2.26269185,,,
imu,400.942853,0.185427368,-9.786377960800001,1.6969594936,3.8357623,6.72123208,-2.13558438,,,
imu,400.951318,0.2177276192,-9.785181655200002,1.6843982848,3.74603938,6.91563174,-2.06081528,,,
imu,400.959783,0.248233412,-9.761853696000001,1.6700426176,3.589024269999999,6.93806247,-2.19539966,,,
imu,400.968248,0.263187232,-9.749890640000002,1.6550887976,3.59650118,6.91563174,-2.58419898,,,
imu,400.976713,0.2835244272,-9.766040765600001,1.6341534496,3.54416281,6.930585559999999,-2.89075229,,,
imu,400.985177,0.305057928,-9.7612555432,1.6066384208,3.71613174,6.71375517,-3.25712088,,,
imu,400.993642,0.334965568,-9.724170069600001,1.5689547944,3.85071612,6.489447869999999,-3.53376655,,,
imu,401.002107,0.3313766512,-9.731946056000002,1.5647677248,3.88810067,6.09317164,-3.76555076,,,
imu,401.010577,0.323002512,-9.777405668800002,1.5874975312,4.05259269,5.86138743,-3.91508896,,,
imu,401.019047,0.2853188856,-9.7959484056,1.5779270864,4.23951544,5.704372319999999,-4.06462716,,,
imu,401.027517,0.3313766512,-9.758862932000001,1.4929893888,4.232038530000001,5.58474176,-4.20668845,,,
imu,401.035987,0.2913004136,-9.786377960800001,1.5115321256,4.44139201,5.43520356,-4.48333412,,,
imu,401.044457,0.2733558296,-9.803724392000001,1.516317348,4.64326858,5.21837317,-4.87213344,,,
imu,401.052926,0.3056560808,-9.838417254400001,1.52528964,4.41148437,5.03892733,-5.0665331,,,
imu,401.061396,0.257205704,-9.870119352800002,1.5976661288,4.089977240000001,4.95668132,-5.193640569999999,,,
imu,401.069866,0.2691687600000001,-9.872511964000001,1.5516083632,3.61893191,5.0164966,-5.29831731,,,
imu,401.078336,0.2787392048,-9.931729091200001,1.5510102104,3.11050203,5.1660348,-4.999240909999999,,,
imu,401.086806,0.2679724544000001,-9.9718053288,1.567160336,2.4151494,5.22585008,-4.70764142,,,
imu,401.095276,0.2530186344000001,-9.964029342400002,1.5779270864,1.57025857,5.3903421,-4.15435008,,,
imu,401.103746,0.2924967192,-9.876100880800003,1.5438323768,0.7253677399999999,5.614649399999999,-3.71321239,,,
imu,401.112216,0.3002727056,-9.838417254400001,1.5516083632,0.36647606,6.063264,-3.40665908,,,
imu,401.120686,0.3265914288,-9.798341016800002,1.5474212936,0.03001510999999998,6.08569473,-3.33936689,,,
imu,401.129156,0.3146283728000001,-9.7953502528,1.543234224,-0.25410747,5.86138743,-3.69825857,,,
imu,401.137625,0.3134320672,-9.791761336000002,1.537252696,-0.37373803,5.681941589999999,-4.23659609,,,
imu,401.146095,0.2984782472,-9.789368724800001,1.543234224,-0.52327623,5.397819009999999,-5.08148692,,,
imu,401.154565,0.2924967192,-9.8043225448,1.5665621832,-0.48589168,5.20341935,-5.67963972,,,
imu,401.163035,0.2930948720000001,-9.8234634344,1.5994605872,-0.7401066199999999,4.88938913,-6.24040797,,,
imu,401.171505,0.2859170384,-9.8234634344,1.5994605872,-0.9494601,4.68003565,-6.621730379999999,,,
imu,401.179873,0.245242648,-9.815687448000002,1.6191996296,-1.30087487,4.35105161,-6.905852959999999,,,
imu,401.188343,0.2458408008,-9.824659740000001,1.6323589912,-1.80930475,4.31366706,-6.9357606,,,
imu,401.196813,0.2027737992,-9.869521200000003,1.6215922408,-2.17567334,4.194036499999999,-6.748837849999999,,,
imu,401.205283,0.215335008,-9.833632032,1.6233866992,-2.55699575,4.20151341,-6.532007459999999,,,
imu,401.213894,0.1985867296,-9.758264779200001,1.656883256,-2.84859524,4.37348234,-6.14320814,,,
imu,401.222505,0.1848292152,-9.684093832000002,1.67482784,-2.87850288,4.48563599,-5.70954736,,,
imu,401.231116,0.1788476872,-9.7008421104,1.6754259928,-2.53456502,4.672558739999999,-5.34317877,,,
imu,401.239727,0.1985867296,-9.767835224,1.6574814088,-2.07847351,4.9417275,-4.991764,,,
imu,401.248338,0.203371952,-9.758862932000001,1.671837076,-1.93641222,4.91181986,-5.17120984,,,
imu,401.256949,0.2087553272,-9.745703570400002,1.7095207024,-1.76444329,4.8669584,-5.27588658,,,
imu,401.26556,0.2117460912,-9.727758986400001,1.7149040776,-1.73453565,4.76975857,-5.522624609999999,,,
imu,401.274171,0.1896144376,-9.7086180968,1.7322505088,-1.8466893,4.6426511,-6.046008309999999,,,
imu,401.282783,0.2045682576000001,-9.7056273328,1.7454098704,-1.79435093,4.694989469999999,-6.32265398,,,
imu,401.291394,0.2219146888,-9.709814402400001,1.7657470656,-1.81678166,4.762281659999999,-6.397423079999999,,,
imu,401.300005,0.212344244,-9.7283571392,1.77950458,-2.02613514,4.58283582,-6.60677656,,,
imu,401.308616,0.2129423968,-9.748096181600001,1.7890750248,-2.25044244,4.42582071,-6.554438189999999,,,
imu,401.317227,0.2039701048,-9.76484446,1.791467636,-2.41493446,4.530497449999999,-6.23293106,,,
imu,401.325838,0.1710717008,-9.786976113600002,1.815393748,-2.49718047,4.44077453,-6.180592689999999,,,
imu,401.334449,0.2159331608,-9.699645804800001,1.7322505088,-2.80373378,4.3435747,-6.14320814,,,
imu,401.34306,0.1806421456,-9.678710456800001,1.7729248992,-2.63924176,4.36600543,-6.06096213,,,
imu,401.351671,0.1788476872,-9.704431027200002,1.7669433712,-2.43736519,4.05197521,-6.23293106,,,
imu,401.360282,0.1776513816,-9.694860582400002,1.7699341352,-2.19062716,3.80523718,-6.599299649999999,,,
imu,401.368893,0.16449202,-9.6643547896,1.7812990384,-1.83173548,3.61831443,-6.771268579999999,,,
imu,401.377504,0.1638938672,-9.671532623200001,1.7830934968,-1.61490509,3.1472691,-6.995575880000001,,,
imu,401.386115,0.1268083936,-9.703832874400002,1.8022343864,-0.9943215599999999,2.96782326,-6.950714420000001,,,
imu,401.394726,0.1028822816,-9.6984494992,1.7747193576,-0.58309151,2.88557725,-6.950714420000001,,,
imu,401.403337,0.09630260080000001,-9.6535880392,1.7986454696,-0.28401511,2.85566961,-6.689022570000001,,,
imu,401.411948,0.07955432240000002,-9.648204664000001,1.8506847632,-0.29896893,2.9977309,-6.30022325,,,
imu,401.420611,0.06579680800000001,-9.7534795568,1.8626478192,-0.39616876,2.88557725,-5.98619303,,,
imu,401.429274,0.05203929360000001,-9.856959991200002,1.8638441248,-0.47841477,2.93791562,-5.829177919999999,,,
imu,401.437937,0.0502448352,-9.856959991200002,1.8829850144,-1.00927538,2.9977309,-5.79927028,,,
imu,401.4466,0.04725407120000001,-9.810304072800001,1.8805924032,-1.78687402,3.07997691,-5.94880848,,,
imu,401.455263,0.03349655680000001,-9.782789044000001,1.8554699856,-2.06351969,3.23699202,-5.829177919999999,,,
imu,401.463926,0.0125612088,-9.789966877600001,1.872218264,-2.28035008,3.61831443,-5.50767079,,,
imu,401.472589,0.0550300576,-9.740918348000001,1.7944584,-2.4448421,3.83514482,-5.34317877,,,
imu,401.481252,0.0376836264,-9.714001472000001,1.8345346376,-2.35511918,3.81271409,-5.48524006,,,
imu,401.489915,0.0293094872,-9.699047652,1.827356804,-2.17567334,3.76785263,-5.68711663,,,
imu,401.498578,0.0430670016,-9.697851346400002,1.8411143184,-1.92893531,3.76785263,-5.58243989,,,
imu,401.507241,0.04545961280000001,-9.669140012000002,1.8506847632,-1.66724346,3.92486774,-5.64225517,,,
imu,401.515904,0.0466559184,-9.659569567200002,1.8530773744,-1.26349032,3.95477538,-5.53757843,,,
imu,401.524567,0.03289840400000001,-9.689477207200001,1.8596570552,-1.04665993,3.85009864,-5.47028624,,,
imu,401.53323,0.0197390424,-9.694860582400002,1.8399180128,-0.88964482,3.90991392,-5.43290169,,,
imu,401.541893,0.0317020984,-9.6846919848,1.8524792216,-0.7999219,3.93234465,-5.3656095,,,
imu,401.550556,0.0305057928,-9.709814402400001,1.8686293472,-0.64290679,3.99963684,-4.976810179999999,,,
imu,401.559219,0.0293094872,-9.736731278400002,1.8847794728,-0.81487572,4.09683667,-4.80484125,,,
imu,401.567882,0.03887993200000001,-9.742114653600002,1.9254538632,-0.71767589,4.29871324,-4.4683803,,,
imu,401.576545,0.03289840400000001,-9.739123889600002,1.878199792,-0.7999219,4.246374869999999,-4.37118047,,,
imu,401.585208,0.05981528000000001,-9.794153947200002,1.8770034864,-0.98684465,4.29871324,-4.408565019999999,,,
imu,401.593871,0.0681894192,-9.768433376800001,1.8889665424,-1.19619813,4.246374869999999,-4.430995749999999,,,
imu,401.602534,0.0562263632,-9.7193848472,1.8883683896,-1.44293616,4.1192674,-4.57305704,,,
imu,401.611197,0.06400234960000001,-9.696655040800001,1.8692275,-1.43545925,4.14169813,-4.66277996,,,
imu,401.61967,0.06460050240000001,-9.679308609600001,1.875209028,-1.2485365,4.194036499999999,-4.49828794,,,
imu,401.628142,0.04007623760000001,-9.678112304,1.878199792,-1.20367504,4.05197521,-4.63287232,,,
imu,401.636615,0.06220789120000001,-9.687084596000002,1.8650404304,-0.85973718,4.171605769999999,-4.52071867,,,
imu,401.645087,0.0514411408,-9.711010708000002,1.8441050824,-0.50832241,4.433297619999999,-4.57305704,,,
imu,401.65356,0.0317020984,-9.731347903200001,1.8728164168,-0.54570696,4.42582071,-4.909517989999999,,,
imu,401.662032,0.0346928624,-9.739123889600002,1.8859757784,-0.44103022,4.530497449999999,-5.03662546,,,
imu,401.670505,0.0281131816,-9.777405668800002,1.926052016,-0.35878421,4.73237402,-5.05905619,,,
imu,401.678977,0.0185427368,-9.7570684736,1.9188741824,-0.59056842,4.82957385,-5.238502029999999,,,
imu,401.687449,0.0281131816,-9.755872168000002,1.9087055848,-0.65786061,4.93425059,-5.33570186,,,
imu,401.695922,0.03648732080000001,-9.7474980288,1.9134908072,-0.8522602699999999,4.9417275,-5.4403786,,,
imu,401.704394,0.04964668240000001,-9.766040765600001,1.9188741824,-1.18872122,4.90434295,-5.38056332,,,
imu,401.712867,0.05981528000000001,-9.763050001600002,1.8955462232,-1.34573633,4.9417275,-5.283363489999999,,,
imu,401.721339,0.0526374464,-9.7576666264,1.9069111264,-1.62985891,4.90434295,-5.22354821,,,
imu,400.236325,,,,,,,86.47579400000001,-16.92531320000001,117.9276704
imu,400.337857,,,,,,,84.339534,-15.70459320000002,118.2572648
imu,400.439419,,,,,,,86.79318119999999,-16.66896200000001,116.2430768
imu,400.540982,,,,,,,84.4860204,-16.15625960000002,118.7821744
imu,400.642544,,,,,,,84.58367799999999,-16.27833160000001,116.5848784
imu,400.744137,,,,,,,84.5714708,-15.97315160000001,119.2338408
imu,400.8457,,,,,,,84.6202996,-16.10743080000001,118.5380304
imu,400.947262,,,,,,,84.6202996,-16.47364680000001,119.1117688
imu,401.729812,0.04785222400000001,-9.7086180968,1.9128926544,-1.51022835,4.92677368,-4.94690254,,,
imu,401.738284,0.0430670016,-9.708019944000002,1.9176778768,-1.53265908,4.8669584,-4.931948719999999,,,
imu,401.746757,0.05682451600000001,-9.702636568800001,1.9105000432,-1.61490509,4.74732784,-4.96933327,,,
imu,401.755229,0.05802082160000001,-9.7128051664,1.9164815712,-1.55508981,4.68751256,-4.9169949,,,
imu,401.763701,0.07118018320000001,-9.693066124000001,1.9003314456,-1.5476129,4.65760492,-4.87961035,,,
imu,401.772174,0.07596540560000001,-9.706823638400001,1.9003314456,-1.30835178,4.73237402,-4.737549059999999,,,
imu,401.780646,0.08374139200000001,-9.714001472000001,1.8973406816,-1.0242292,4.75480475,-4.66277996,,,
imu,401.789119,0.09211553120000002,-9.709216249600003,1.9164815712,-1.1737674,4.68003565,-4.55062631,,,
imu,401.797591,0.09091922560000001,-9.6918698184,1.95895042,-1.28592105,4.65760492,-4.46090339,,,
imu,401.806064,0.09091922560000001,-9.7086180968,1.9756986984,-1.4728438,4.478159079999999,-4.46090339,,,
imu,401.814536,0.1022841288,-9.7911631832,1.9834746848,-1.76444329,4.08188285,-4.85717962,,,
imu,401.823009,0.0861340032,-9.812696684000002,1.9756986984,-2.16071952,3.80523718,-5.20111748,,,
imu,401.831481,0.0933118368,-9.8210708232,1.9870636016,-2.46727283,3.52859151,-5.34317877,,,
imu,401.839953,0.0933118368,-9.767237071200002,1.9745023928,-2.66167249,3.34166876,-5.14877911,,,
imu,401.848426,0.09749890640000002,-9.703832874400002,1.9661282536,-2.87850288,3.06502309,-4.84970271,,,
imu,401.856898,0.09929336480000002,-9.672728928800002,1.9362206136,-2.57942648,3.06502309,-4.35622665,,,
imu,401.865371,0.08972292000000001,-9.672728928800002,1.938015072,-2.27287317,2.88557725,-3.9449966,,,
imu,401.873843,0.1088638096,-9.699047652,1.9356224608,-1.77939711,2.6986545,-3.68330475,,,
imu,401.882316,0.1297991576,-9.696655040800001,1.941005836,-1.48032071,2.51173175,-3.65339711,,,
imu,401.890788,0.1124527264,-9.700243957600001,1.9517725864,-1.03170611,2.21265535,-3.98238115,,,
imu,401.89926,0.092713684,-9.684093832000002,1.9553615032,-0.74758353,1.89862513,-4.49828794,,,
imu,401.907733,0.1082656568,-9.697253193600002,1.9882599072,-0.71767589,1.53225654,-4.82727198,,,
imu,401.916205,0.1034804344,-9.7492924872,2.0032137272,-0.90459864,1.12102649,-5.33570186,,,
imu,401.924678,0.0903210728,-9.746899876,1.9990266576,-1.27096723,0.7546578999999998,-5.74693191,,,
imu,401.93315,0.08433954480000001,-9.6984494992,2.009793408,-1.44293616,0.4555814999999996,-6.06096213,,,
imu,401.941623,0.0634041968,-9.671532623200001,2.015774936,-1.3980747,0.1490281899999997,-6.06096213,,,
imu,401.950095,0.06220789120000001,-9.668541859200001,2.0193638528,-1.48032071,-0.09770984000000027,-5.94133157,,,
imu,401.958568,0.05562821040000001,-9.6745233872,2.0265416864,-1.29339796,-0.03789456000000024,-5.61982444,,,
imu,401.96704,0.0526374464,-9.657176956,2.0199620056,-1.1737674,-0.06780220000000003,-5.23102512,,,
imu,401.975512,0.0550300576,-9.616502565600001,2.0373084368,-1.12142903,-0.1799558500000003,-5.01419473,,,
imu,401.983985,0.0466559184,-9.597959828800002,2.066617924,-0.77749117,-0.2846325900000002,-4.96185636,,,
imu,401.992457,0.0227298064,-9.599156134400001,2.07858098,-0.60552224,-0.7108164600000002,-5.27588658,,,
imu,402.00093,-0.005981528000000001,-9.6039413568,2.096525564,-0.39616876,-0.94260067,-5.64973208,,,
imu,402.009402,-0.026916876,-9.596165370400001,2.106694161600001,0.007584380000000002,-1.15195415,-5.70954736,,,
imu,402.017875,-0.0502448352,-9.596763523200002,2.102507092,0.21693786,-1.144477240000001,-5.829177919999999,,,
imu,402.026332,-0.062806044,-9.550705757600001,2.1252368984,0.49358353,-1.21924634,-5.71702427,,,
imu,402.034789,-0.06220789120000001,-9.561472508000001,2.1258350512,0.64312173,-1.15943106,-5.62730135,,,
imu,402.043246,-0.05682451600000001,-9.642223136000002,2.1312184264,1.02444414,-0.9201699400000001,-5.45533242,,,
imu,402.051703,-0.0406743904,-9.652989886400002,2.1467703992,1.40576655,-0.8528777500000002,-5.283363489999999,,,
imu,402.060161,-0.0340947096,-9.617698871200002,2.1539482328,1.6674584,-0.7332471900000002,-5.16373293,,,
imu,402.068618,-0.0221316536,-9.606333968000001,2.1677057472,1.70484295,-0.8678315700000003,-5.00671782,,,
imu,402.077075,-0.0125612088,-9.645213900000002,2.188042942400001,2.01139626,-0.6360473600000001,-4.67773378,,,
imu,402.085532,-0.005981528000000001,-9.7086180968,2.1730891224,2.27308811,-0.4865091600000002,-4.22164227,,,
imu,402.093989,-0.004187069600000001,-9.741516500800001,2.1611260664,2.38524176,-0.3668786000000002,-3.83284295,,,
imu,402.102447,-0.0113649032,-9.734936820000001,2.150359316,2.33290339,-0.25472495,-3.6459202,,,
imu,402.110904,0.0053833752,-9.690673512800002,2.1635186776,2.01139626,0.01444380999999995,-3.38422835,,,
imu,402.119361,0.0005981528000000001,-9.661962178400001,2.1515556216,1.86933497,0.2088434699999997,-3.22721324,,,
imu,402.127818,-0.0005981528000000001,-9.6434194416,2.1288258152,1.88428879,0.3882893099999998,-3.1973056,,,
imu,402.136275,-0.002990764,-9.639232372,2.0935348,1.69736604,0.4630584099999999,-3.48890509,,,
imu,402.144732,-0.0011963056,-9.6248767048,2.0582437848,1.77213514,0.5677351499999999,-3.9449966,,,
imu,402.15319,0.011963056,-9.6296619272,2.0558511736,2.116073,0.62007352,-4.44594957,,,
imu,402.161647,0.0155519728,-9.6523917336,2.0241490752,2.60954906,0.5378275100000001,-5.13382529,,,
imu,402.170104,0.0053833752,-9.637437913600001,1.9942414352,3.1628404,0.41819695,-5.55253225,,,
imu,402.178561,-0.0131593616,-9.631456385600002,1.9715116288,3.67127028,0.2686587499999997,-5.851608649999999,,,
imu,402.187018,-0.0281131816,-9.6224840936,1.9607448784,3.79837775,0.01444380999999995,-6.16563887,,,
imu,402.195476,-0.0293094872,-9.636241608,1.949978128,4.30680763,0.04435144999999974,-6.14320814,,,
imu,402.203933,-0.04007623760000001,-9.654186192000001,1.949978128,4.54606875,0.1714589200000001,-5.874039379999999,,,
imu,402.21239,-0.05443190480000001,-9.696655040800001,1.9248557104,4.54606875,0.05182836000000002,-5.82170101,,,
imu,402.220847,-0.07297464160000001,-9.7504887928,1.9278464744,4.62083785,-0.03789456000000024,-5.8142241,,,
imu,402.229668,-0.08433954480000001,-9.802528086400002,1.9182760296,4.76289914,-0.1276174800000001,-5.85908556,,,
imu,402.238489,-0.11963056,-9.790565030400002,1.9039203624,4.68813004,-0.1350943900000003,-5.94133157,,,
imu,402.24731,-0.1531271168,-9.777405668800002,1.8877702368,4.56102257,-0.1350943900000003,-6.203023419999999,,,
imu,402.256131,-0.170473548,-9.791761336000002,1.8716201112,4.32176145,-0.2023865800000002,-6.19554651,,,
imu,402.264952,-0.1890162848,-9.7636481544,1.8566662912,4.16474634,-0.05284837999999992,-6.14320814,,,
imu,402.274567,-0.1920070488,-9.727160833600001,1.8566662912,4.15726943,0.006966899999999665,-6.180592689999999,,,
imu,402.283388,-0.185427368,-9.711608860800002,1.863245972,3.79837775,0.2387511099999999,-5.94880848,,,
imu,402.292209,-0.197390424,-9.713403319200001,1.8680311944,3.64883955,0.4481045899999998,-5.49271697,,,
imu,402.301029,-0.1908107432,-9.7086180968,1.8608533608,3.29742478,0.47801223,-5.238502029999999,,,
imu,402.30985,-0.1949978128,-9.708019944000002,1.8817887088,2.97591765,0.6873657099999999,-4.74502597,,,
imu,402.318671,-0.1836329096,-9.7283571392,1.8895646952,2.54973378,1.01634975,-4.363703559999999,,,
imu,402.327492,-0.1716698536,-9.751685098400001,1.8895646952,2.21327283,1.18084177,-3.99733497,,,
imu,402.336313,-0.1716698536,-9.743310959200002,1.9045185152,1.80204278,1.47244126,-3.83284295,,,
imu,402.345134,-0.1776513816,-9.7576666264,1.908107432,1.30856672,1.62197946,-3.85527368,,,
imu,402.353955,-0.1722680064,-9.782789044000001,1.9242575576,0.88985976,1.64441019,-3.75807385,,,
imu,402.362776,-0.1441548248,-9.824659740000001,1.949978128,0.53096808,1.98834805,-3.54872037,,,
imu,402.371597,-0.155519728,-9.863539672000002,1.9404076832,0.25432241,2.22013226,-3.50385891,,,
imu,402.380418,-0.1471455888,-9.887465784000002,1.952968892,-0.2017691,2.50425484,-3.52628964,,,
imu,402.389238,-0.1441548248,-9.842006171200001,1.9756986984,-0.56066078,2.73603905,-3.33936689,,,
imu,402.398059,-0.1250139352,-9.812098531200002,1.985867296,-0.93450628,2.84071579,-3.03281358,,,
imu,402.40688,-0.1118545736,-9.803126239200001,1.9930451296,-1.33078251,2.93043871,-3.23469015,,,
imu,402.415701,-0.09151737840000002,-9.788172419200002,2.013980477600001,-1.55508981,2.9977309,-3.30945925,,,
imu,402.424522,-0.0675912664,-9.798341016800002,2.0133823248,-1.65228964,3.09493073,-3.43656672,,,
imu,402.432965,-0.0675912664,-9.756470320800002,2.0115878664,-1.71958183,3.04259236,-3.55619728,,,
imu,402.441407,-0.05682451600000001,-9.6984494992,2.009793408,-1.80182784,2.9229618,-3.60105874,,,
imu,402.449849,-0.04605776560000001,-9.682897526400001,2.0145786304,-1.57752054,2.99025399,-3.44404363,,,
imu,402.458292,-0.06579680800000001,-9.6434194416,2.006802644,-1.41302852,2.88557725,-3.50385891,,,
imu,402.466734,-0.0562263632,-9.611119190400002,2.0283361448,-1.05413684,2.82576197,-3.57862801,,,
imu,402.475176,-0.06998387760000001,-9.630858232800001,2.0295324504,-0.70272207,2.5491163,-3.68330475,,,
imu,402.483619,-0.0861340032,-9.664952942400001,2.0283361448,-0.32139966,2.31733209,-3.87770441,,,
imu,402.492061,-0.09450814240000002,-9.6733270816,2.0331213672,-0.03727708,1.99582496,-4.13939626,,,
imu,402.500504,-0.1142471848,-9.621287788000002,2.0145786304,0.2468455,1.83133294,-4.18425772,,,
imu,402.508946,-0.1471455888,-9.589585689600002,2.0391028952,0.66555246,1.71170238,-3.89265823,,,
imu,402.517388,-0.1501363528,-9.625474857600002,2.0570474792,1.26370526,1.68927165,-3.60853565,,,
imu,402.525831,-0.1591086448,-9.672728928800002,2.0295324504,1.65998149,1.55468727,-3.6459202,,,
imu,402.534273,-0.1716698536,-9.7074217912,2.0271398392,1.98148862,1.68927165,-3.55619728,,,
imu,402.542715,-0.1597067976,-9.665551095200001,2.0343176728,1.99644244,1.68179474,-3.69078166,,,
imu,401.048794,,,,,,,84.4982276,-16.70558360000001,118.4892016
imu,401.150418,,,,,,,84.1930476,-16.85207000000002,118.45258
imu,401.25195,,,,,,,83.6925524,-17.12062840000002,118.1718144
imu,401.353512,,,,,,,86.414758,-17.76761000000002,117.170824
imu,401.456417,,,,,,,83.668138,-16.98634920000002,117.7079408
imu,401.556607,,,,,,,85.87764120000001,-17.18166440000002,115.5594736
imu,401.658169,,,,,,,83.1676428,-16.85207000000002,117.4271752
imu,401.759732,,,,,,,82.7037692,-17.18166440000002,115.1444288
imu,402.551158,-0.1626975616,-9.619493329600001,2.0355139784,2.05625772,1.79394839,-3.71321239,,,
imu,402.5596,-0.1746606176,-9.646410205600002,2.0259435336,2.07121154,1.69674856,-3.68330475,,,
imu,402.568043,-0.170473548,-9.688280901600002,2.0121860192,2.04878081,1.69674856,-3.65339711,,,
imu,402.576485,-0.173464312,-9.708019944000002,2.0091952552,1.99644244,1.73413311,-3.7206893,,,
imu,402.584927,-0.1812402984,-9.721179305600002,2.0091952552,1.82447351,1.8761944,-3.68330475,,,
imu,402.59337,-0.167482784,-9.762451848800001,2.004410032800001,1.6674584,2.15284007,-3.54124346,,,
imu,402.601812,-0.1549215752,-9.767835224,1.9960358936,1.68241222,2.34723973,-3.41413599,,,
imu,402.610255,-0.155519728,-9.780396432800002,1.9685208648,1.63755076,2.45939338,-3.41413599,,,
imu,402.618697,-0.1597067976,-9.796546558400001,1.9673245592,1.41324346,2.52668557,-3.60853565,,,
imu,402.627139,-0.146547436,-9.7612555432,1.9505762808,1.31604363,2.66874686,-3.74312003,,,
imu,402.635582,-0.1441548248,-9.744507264800001,1.9457910584,1.22632071,2.67622377,-3.85527368,,,
imu,402.644066,-0.125612088,-9.745105417600001,1.9326316968,1.32352054,2.76594669,-3.7954584,,,
imu,402.652549,-0.1034804344,-9.724768222400002,1.926052016,1.30108981,2.64631613,-3.95995042,,,
imu,402.661033,-0.09989151760000002,-9.703832874400002,1.9069111264,1.36090509,2.61640849,-3.99733497,,,
imu,402.669517,-0.0753672528,-9.697851346400002,1.8883683896,1.40576655,2.59397776,-3.98985806,,,
imu,402.678001,-0.07118018320000001,-9.682897526400001,1.887172084,1.6674584,2.54163939,-3.80293531,,,
imu,402.686485,-0.08972292000000001,-9.6499991224,1.8847794728,1.91419643,2.36219355,-3.6459202,,,
imu,402.694969,-0.07895616960000001,-9.589585689600002,1.8853776256,2.116073,2.18274771,-3.36179762,,,
imu,402.703453,-0.09450814240000002,-9.623082246400001,1.8937517648,2.35533412,1.8761944,-3.21973633,,,
imu,402.711937,-0.09749890640000002,-9.725366375200002,1.9099018904,2.7142258,1.61450255,-2.98795212,,,
imu,402.720421,-0.1094619624,-9.7845835024,1.908107432,2.90862546,1.37524143,-3.08515195,,,
imu,402.728904,-0.1333880744,-9.782789044000001,1.9236594048,2.59459524,1.13598031,-3.07019813,,,
imu,402.737388,-0.1178361016,-9.7361331256,1.9266501688,2.36281103,1.12102649,-2.74121409,,,
imu,402.745872,-0.1124527264,-9.706823638400001,1.941005836,2.3403803,1.02382666,-2.32250713,,,
imu,402.754356,-0.1333880744,-9.728955292000002,1.9433984472,2.36281103,1.07616503,-1.94866163,,,
imu,402.76284,-0.1339862272,-9.751685098400001,1.9308372384,2.28804193,1.31542615,-1.61967759,,,
imu,402.771324,-0.1250139352,-9.7403201952,1.923061252,2.23570356,1.55468727,-1.16358608,,,
imu,402.779808,-0.09929336480000002,-9.706225485600001,1.9338280024,2.14598064,1.8014253,-0.96918642,,,
imu,402.788292,-0.08374139200000001,-9.703234721600001,1.9451929056,2.16093446,1.95844041,-0.9841402399999999,,,
imu,402.796776,-0.06579680800000001,-9.699047652,1.9368187664,1.98896553,2.1752708,-1.15610917,,,
imu,402.805259,-0.04785222400000001,-9.720581152800001,1.9655301008,1.77213514,2.30237827,-1.08134007,,,
imu,402.813743,-0.03648732080000001,-9.742114653600002,1.970913476,1.65250458,2.3995781,-1.07386316,,,
imu,402.822227,-0.03349655680000001,-9.746899876,1.9816802264,1.31604363,2.50425484,-1.21592445,,,
imu,402.830711,-0.0191408896,-9.751685098400001,1.991848824,1.24875144,2.66126995,-1.31312428,,,
imu,402.839185,0.007177833600000002,-9.767835224,1.9924469768,1.08425942,2.85566961,-1.23835518,,,
imu,402.847659,0.0340947096,-9.769629682400002,2.0032137272,0.73284465,2.90800798,-1.43275484,,,
imu,402.856132,0.05084298800000001,-9.722375611200002,2.000821116,0.5010604399999999,2.89305416,-1.41032411,,,
imu,402.864606,0.0753672528,-9.703832874400002,2.009793408,0.52349117,2.81828506,-1.22340136,,,
imu,402.87308,0.101685976,-9.6954587352,1.9966340464,0.3963837,2.72856214,-1.253309,,,
imu,402.881553,0.1238176296,-9.658971414400002,1.991848824,0.41133752,2.46687029,-1.34303192,,,
imu,402.890027,0.1327899216,-9.627867468800002,1.9876617544,0.53844499,2.20517844,-1.36546265,,,
imu,402.898501,0.1429585192,-9.575230022400001,1.9822783792,0.8524752099999999,1.68927165,-1.19349372,,,
imu,402.906975,0.1746606176,-9.547714993600001,1.9745023928,1.26370526,1.28551851,-1.08881698,,,
imu,402.915448,0.2057645632,-9.557883591200001,1.9852691432,1.77213514,0.7471809899999999,-1.11124771,,,
imu,402.923922,0.2948893304,-9.595567217600001,2.0062044912,2.25065738,-0.007986920000000008,-1.24583209,,,
imu,402.932396,0.3648732080000001,-9.6290637744,1.994839588,2.44505704,-1.27906162,-1.23835518,,,
imu,402.940869,0.3714528888,-9.624278552000002,2.0032137272,2.69179507,-2.81182817,-1.32060119,,,
imu,402.949343,0.3630787496,-9.616502565600001,1.9864654488,2.89367164,-4.23991798,-1.0290017,,,
imu,402.957817,0.3786307224000001,-9.6117173432,1.9751005456,3.30490169,-5.533423409999999,-0.37851053,,,
imu,402.966291,0.3493212352000001,-9.6296619272,1.961941184,3.6862241,-6.87926721,0.09253480000000014,,,
imu,402.974764,0.3194135952000001,-9.638036066400002,1.9332298496,4.20213089,-7.985849890000001,0.8177950699999998,,,
imu,402.983238,0.3002727056,-9.647606511200001,1.9278464744,4.7329915,-8.98027892,1.35613259,,,
imu,402.991712,0.2793373576,-9.654186192000001,1.9505762808,5.09936009,-9.72796992,1.67016281,,,
imu,403.000185,0.242251884,-9.663158484000002,1.9505762808,5.44329795,-10.50556856,1.5131477,,,
imu,403.008659,0.2075590216,-9.7265626808,1.9493799752,5.73489744,-11.22335192,1.13182529,,,
imu,403.017133,0.1991848824,-9.7815927384,1.9428002944,5.92182019,-11.79907399,0.7355490599999999,,,
imu,403.025607,0.1955959656,-9.773816752000002,1.9428002944,5.84705109,-12.27011932,0.3916112000000003,,,
imu,403.03408,0.2027737992,-9.754675862400001,1.9422021416,5.839574180000001,-12.56919572,-0.01214194000000002,,,
imu,403.042544,0.2051664104,-9.718786694400002,1.9272483216,5.77228199,-12.91313358,-0.34860289,,,
imu,403.051007,0.2189239248,-9.7056273328,1.917079724,5.73489744,-13.3019329,-0.60281783,,,
imu,403.059471,0.2374666616,-9.690673512800002,1.8829850144,5.63769761,-13.81783969,-0.7074945699999999,,,
imu,403.067934,0.2249054528,-9.682299373600001,1.8644422776,5.71246671,-14.37113103,-0.5280487299999999,,,
imu,403.076398,0.1985867296,-9.6876827488,1.8668348888,5.72742053,-14.92442237,-0.4458027199999999,,,
imu,403.084861,0.1806421456,-9.710412555200001,1.8405161656,5.63769761,-15.44780607,-0.31869525,,,
imu,403.093325,0.1656883256,-9.739123889600002,1.8297494152,5.72742053,-15.96371286,-0.2738337899999999,,,
imu,403.101789,0.167482784,-9.730749750400001,1.7986454696,5.81714345,-16.71140386,-0.6551562,,,
imu,403.110252,0.155519728,-9.713403319200001,1.782495344,5.67508216,-17.58620233,-1.35798574,,,
imu,403.118716,0.1597067976,-9.7122070136,1.7561766208,5.88443564,-18.11706294,-1.70940051,,,
imu,403.127179,0.1698753952,-9.7331423616,1.722680064,6.24332732,-18.80493866,-1.75426197,,,
imu,403.135643,0.1800439928,-9.727758986400001,1.6873890488,6.51997299,-19.57506039,-1.79164652,,,
imu,403.144106,0.17944584,-9.6912716656,1.67482784,6.75923411,-20.28536684,-1.68696978,,,
imu,403.15257,0.140565908,-9.6709344704,1.6891835072,7.24523326,-20.86108891,-1.20097063,,,
imu,403.161033,0.1417622136,-9.711608860800002,1.6754259928,7.78357078,-20.90595037,-0.11681868,,,
imu,403.169497,0.1567160336,-9.788770572,1.6682481592,7.933108979999999,-20.88351964,0.9000410799999998,,,
imu,403.17796,0.1309954632,-9.838417254400001,1.6861927432,7.84338606,-20.91342728,1.40847096,,,
imu,403.186424,0.1184342544,-9.9239531048,1.6969594936,7.45458674,-20.7788429,1.67016281,,,
imu,403.194888,0.1357806856,-9.962234884,1.701744716,7.08074124,-20.63678161,1.76736264,,,
imu,403.203351,0.11963056,-10.00410558,1.7023428688,6.64708046,-20.43490504,1.58043989,,,
imu,403.211815,0.0753672528,-9.997525899200001,1.710717008,5.77228199,-20.17321319,0.9897640000000001,,,
imu,403.220278,0.04486146000000001,-9.977786856800002,1.7005484104,4.83019133,-19.74702932,0.5336724899999998,,,
imu,403.228742,0.04007623760000001,-9.976590551200001,1.6861927432,3.95539286,-19.25355326,-0.2439261499999998,,,
imu,403.237205,0.0023926112,-9.943692147200002,1.6742296872,3.21517877,-18.57315445,-0.9766633299999998,,,
imu,403.246022,-0.0137575144,-9.899428840000002,1.6467146584,2.54973378,-17.74321744,-1.64958523,,,
imu,403.254839,-0.0532355992,-9.825257892800002,1.6227885464,1.88428879,-16.84598824,-2.21783039,,,
imu,403.263656,-0.08015247520000002,-9.786976113600002,1.6024513512,1.38333582,-15.75435938,-2.56924516,,,
imu,403.272473,-0.113649032,-9.744507264800001,1.5635714192,1.16650543,-14.63282288,-2.96552139,,,
imu,403.28129,-0.1471455888,-9.687084596000002,1.5300748624,1.04687487,-13.28697908,-3.16739796,,,
imu,403.290107,-0.1800439928,-9.6326526912,1.5246914872,1.09921324,-11.94861219,-3.43656672,,,
imu,403.298924,-0.2057645632,-9.608128426400002,1.4959801528,1.30856672,-10.58781457,-3.82536604,,,
imu,403.307741,-0.212344244,-9.6296619272,1.4732503464,1.63007385,-9.144770939999999,-4.30388828,,,
imu,403.316558,-0.2470371064,-9.627867468800002,1.4792318744,1.9665348,-7.88865006,-4.87961035,,,
imu,403.325375,-0.2745521352,-9.617698871200002,1.474446652,2.23570356,-6.61757536,-5.46280933,,,
imu,403.334191,-0.2793373576,-9.651793580800001,1.486409708,2.55721069,-5.182008639999999,-5.62730135,,,
imu,403.343008,-0.2924967192,-9.7122070136,1.492391236,2.863764,-3.66419591,-5.68711663,,,
imu,403.351825,-0.2859170384,-9.7786019744,1.5091395144,2.69927198,-2.10899863,-5.83665483,,,
imu,403.360642,-0.263187232,-9.8886620896,1.543234224,2.40019558,-0.7556779200000001,-5.83665483,,,
imu,401.861185,,,,,,,82.996742,-16.10743080000001,117.1464096
imu,401.962778,,,,,,,82.60611159999999,-15.9853588,116.9999232
imu,402.06434,,,,,,,82.7648052,-15.83887240000001,116.5726712
imu,402.165903,,,,,,,82.6427332,-16.19288120000002,116.743572
imu,402.267465,,,,,,,82.43521080000001,-15.99756600000002,116.8290224
imu,402.369028,,,,,,,82.49624680000001,-16.37598920000001,116.804608
imu,402.478403,,,,,,,84.8522364,-16.5102684,116.5848784
imu,402.579965,,,,,,,82.31313879999999,-16.31495320000001,117.4027608
imu,403.369331,-0.2278962168,-9.986759148800001,1.558188044,1.92915025,0.47801223,-6.06096213,,,
imu,403.378148,-0.1908107432,-10.0316206088,1.5815160032,1.03939796,1.29299542,-6.374992349999999,,,
imu,403.386965,-0.1597067976,-10.0477707344,1.6126199488,-0.07466163,2.01825569,-6.71893021,,,
imu,403.395782,-0.1662864784,-10.0657153184,1.6317608384,-1.27096723,2.6238854,-6.726407119999999,,,
imu,403.404599,-0.1333880744,-10.0740894576,1.632957144,-2.28035008,3.31923803,-6.34508471,,,
imu,403.413415,-0.101685976,-10.0746876104,1.6503035752,-3.35702512,3.86505246,-5.784316459999999,,,
imu,403.422232,-0.0813487808,-10.057939332,1.6437238944,-4.35893106,4.38095925,-5.193640569999999,,,
imu,403.431049,-0.06160973840000001,-10.0082926496,1.6616684784,-5.09166824,4.68751256,-4.80484125,,,
imu,403.439866,-0.0340947096,-9.891054700800002,1.6586777144,-5.622528849999999,5.00901969,-4.41604193,,,
imu,403.448373,-0.003588916800000001,-9.8043225448,1.6586777144,-6.06366654,4.99406587,-4.21416536,,,
imu,403.45688,0.0185427368,-9.741516500800001,1.6682481592,-6.190774009999999,4.85200458,-4.08705789,,,
imu,403.465387,0.0251224176,-9.6470083584,1.6700426176,-6.25058929,4.65760492,-4.408565019999999,,,
imu,403.473893,0.017944584,-9.579417092000002,1.6670518536,-5.936559069999999,4.38095925,-4.602964679999999,,,
imu,403.4824,0.0245242648,-9.543527924000001,1.67482784,-5.47299065,3.99215993,-4.999240909999999,,,
imu,403.490907,0.01495382,-9.526779645600001,1.6999502576,-4.7626842,3.78280645,-5.17120984,,,
imu,403.499414,0.0173464312,-9.5249851872,1.7268671336,-4.2393005,3.54354533,-5.29831731,,,
imu,403.50792,-0.005981528000000001,-9.560874355200001,1.7478024816,-3.68600916,3.32671494,-5.20111748,,,
imu,403.516427,-0.0185427368,-9.6039413568,1.7848879552,-3.20001001,3.10240764,-5.17868675,,,
imu,403.524934,-0.0281131816,-9.633848996800001,1.8201789704,-2.87850288,3.04259236,-4.991764,,,
imu,403.533441,-0.0562263632,-9.609324732000001,1.8590589024,-2.72896468,3.15474601,-4.77493361,,,
imu,403.541948,-0.05203929360000001,-9.6326526912,1.875209028,-2.34764227,3.21456129,-4.67773378,,,
imu,403.550454,-0.0592171272,-9.666149248000002,1.890162848,-2.08595042,3.20708438,-4.7674567,,,
imu,403.558961,-0.06519865520000001,-9.685290137600001,1.893153612,-1.83173548,3.21456129,-4.87213344,,,
imu,403.567468,-0.07955432240000002,-9.6733270816,1.89913514,-1.68967419,3.34166876,-4.83474889,,,
imu,403.575975,-0.08912476720000001,-9.672728928800002,1.9344261552,-1.58499745,3.51363769,-4.759979789999999,,,
imu,403.584481,-0.09091922560000001,-9.667345553600002,1.9601467256,-1.06909066,3.85009864,-4.4683803,,,
imu,403.592988,-0.08673215600000002,-9.646410205600002,1.9733060872,-1.15881358,4.194036499999999,-4.17678081,,,
imu,403.601495,-0.07955432240000002,-9.6296619272,1.9673245592,-1.03170611,4.552928179999999,-3.57862801,,,
imu,403.610002,-0.0681894192,-9.593772759200002,1.9715116288,-1.0242292,5.07631188,-2.99542903,,,
imu,403.618509,-0.06041343280000001,-9.584800467200001,1.97390424,-0.9793677399999999,5.637080129999999,-2.45709151,,,
imu,403.627015,-0.0514411408,-9.6218859408,1.9553615032,-0.77749117,6.31000203,-2.0757691,,,
imu,403.635522,-0.04486146000000001,-9.6470083584,1.9487818224,-0.54570696,6.840862639999999,-2.02343073,,,
imu,403.644029,-0.0466559184,-9.6494009696,1.9601467256,-0.15690764,7.2595696,-2.12063056,,,
imu,403.652462,-0.0323002512,-9.686486443200002,1.979885768,0.11226112,7.66332274,-2.65149117,,,
imu,403.660895,-0.02871133440000001,-9.788172419200002,1.9463892112,0.44872207,7.932491499999999,-3.24964397,,,
imu,403.669328,-0.02871133440000001,-9.801929933600002,1.9224630992,0.79265993,8.33624464,-3.95247351,,,
imu,403.677761,-0.02871133440000001,-9.776807516000002,1.9481836696,0.9646288599999999,8.71756705,-4.47585721,,,
imu,403.686194,-0.009570444800000001,-9.7492924872,1.917079724,1.41324346,9.121320189999999,-4.77493361,,,
imu,403.694627,-0.0167482784,-9.6954587352,1.83931986,2.0413039,9.734426809999999,-4.68521069,,,
imu,403.70306,-0.007775986400000001,-9.5985579816,1.7657470656,2.69927198,10.27276433,-4.53567249,,,
imu,403.711493,0.008972292000000002,-9.541733465600002,1.7208856056,3.43948607,10.93073241,-4.29641137,,,
imu,403.719926,-0.0023926112,-9.4765348104,1.7131096192,4.39653055,11.3718701,-4.124442439999999,,,
imu,403.728359,0.0430670016,-9.444832712,1.638938672,5.39843649,11.72328487,-4.28893446,,,
imu,403.736792,0.01495382,-9.468758824,1.6347516024,6.34052715,11.98497672,-4.625395409999999,,,
imu,403.745225,0.0173464312,-9.566257730400002,1.6377423664,7.17794107,12.2690993,-5.260932759999999,,,
imu,403.753658,0.0167482784,-9.633848996800001,1.6449202,7.82843224,12.32143767,-6.053485220000001,,,
imu,403.762091,-0.005981528000000001,-9.702636568800001,1.6586777144,8.209754649999999,12.15694565,-7.13016026,,,
imu,403.770524,-0.0293094872,-9.800135475200001,1.671837076,8.2471392,12.03731509,-7.952620359999999,,,
imu,403.778957,-0.0514411408,-9.876100880800003,1.7083243968,7.73870932,11.79805397,-8.77508046,,,
imu,403.78739,-0.0245242648,-9.928738327200001,1.746606176,7.13307961,11.68590032,-9.41061781,,,
imu,403.795823,-0.03887993200000001,-9.957449661600002,1.758569232,6.32557333,11.61860813,-9.89661696,,,
imu,403.804256,-0.08314323920000001,-10.0154704832,1.788476872,5.11431391,11.66346959,-9.96390915,,,
imu,403.812689,-0.05742266880000001,-10.0914358888,1.8219734288,3.55163972,11.71580796,-9.53772528,,,
imu,403.821122,-0.04725407120000001,-10.1380918072,1.8279549568,1.93662716,11.77562324,-8.85732647,,,
imu,403.829555,-0.05861897440000001,-10.0914358888,1.8321420264,0.30666078,11.91020762,-7.952620359999999,,,
imu,403.837988,-0.0813487808,-10.0304243032,1.8411143184,-0.98684465,12.2690993,-6.58434583,,,
imu,403.846421,-0.0663949608,-10.0172649416,1.8165900536,-2.07847351,12.53826806,-5.18616366,,,
imu,403.855021,-0.07297464160000001,-9.961038578400002,1.8135992896,-2.84111833,12.92706738,-3.82536604,,,
imu,403.863621,-0.0281131816,-9.907204826400001,1.7944584,-3.70843989,13.04669794,-2.93561375,,,
imu,403.872221,-0.003588916800000001,-9.8402117128,1.8022343864,-4.24677741,13.25605142,-2.48699915,,,
imu,403.880821,0.004785222400000001,-9.783985349600002,1.803430692,-4.56828454,13.26352833,-2.17296893,,,
imu,403.889421,0.0101685976,-9.685290137600001,1.7783082744,-4.747730379999999,13.06912867,-2.39727623,,,
imu,403.898021,0.02871133440000001,-9.637437913600001,1.7693359824,-4.56828454,12.7177139,-2.77859864,,,
imu,403.90662,0.0245242648,-9.606333968000001,1.7639526072,-4.32902342,12.31396076,-3.33936689,,,
imu,403.91522,0.04366515440000001,-9.588987536800001,1.7771119688,-3.93274719,12.02983818,-3.87770441,,,
imu,403.92382,0.06519865520000001,-9.571641105600001,1.7992436224,-3.48413259,11.84291543,-4.6179185,,,
imu,403.93242,0.05682451600000001,-9.606333968000001,1.8171882064,-3.0429949,11.47654684,-5.01419473,,,
imu,403.94102,0.0675912664,-9.6296619272,1.8249641928,-2.48222665,11.34943937,-5.0665331,,,
imu,403.94962,0.0634041968,-9.626671163200001,1.8476939992,-2.17567334,11.31953173,-5.00671782,,,
imu,403.95822,0.0723764888,-9.638634219200002,1.8668348888,-1.83921239,11.39430083,-4.63287232,,,
imu,403.966819,0.07118018320000001,-9.633848996800001,1.8793960976,-1.53265908,11.52888521,-4.13939626,,,
imu,403.975419,0.0747691,-9.639830524800002,1.8793960976,-1.30087487,11.42420847,-3.73564312,,,
imu,403.984019,0.0783580168,-9.6499991224,1.88418132,-1.10647521,11.33448555,-3.45899745,,,
imu,403.992619,0.07775986400000001,-9.672728928800002,1.8883683896,-1.0242292,11.16999353,-3.496382,,,
imu,404.001219,0.09390998960000001,-9.690075360000002,1.9045185152,-0.91207555,10.80362494,-3.81041222,,,
imu,404.009819,0.0933118368,-9.713403319200001,1.911098196,-0.71019898,10.72137893,-4.102011709999999,,,
imu,404.018418,0.10467674,-9.719983000000001,1.9128926544,-0.7550604399999999,10.08584158,-4.3936112,,,
imu,404.027018,0.09869521200000002,-9.7163940832,1.917079724,-0.6503837,9.81667282,-4.48333412,,,
imu,404.035618,0.09510629520000001,-9.743310959200002,1.92904278,-0.6503837,9.689565349999999,-4.78241052,,,
imu,404.044218,0.1124527264,-9.800135475200001,1.920070488,-0.59056842,9.36805822,-4.96933327,,,
imu,404.052818,0.09091922560000001,-9.819276364800002,1.9248557104,-0.74758353,9.031597269999999,-4.999240909999999,,,
imu,404.061418,0.101685976,-9.803724392000001,1.9439966,-1.03170611,8.79233615,-4.93942563,,,
imu,404.069724,0.1064711984,-9.767237071200002,1.9685208648,-1.21862886,8.665228679999998,-4.759979789999999,,,
imu,404.07803,0.1088638096,-9.769629682400002,1.961941184,-1.33825942,8.4558752,-4.48333412,,,
imu,404.086336,0.09869521200000002,-9.772022293600001,1.926052016,-1.34573633,8.17922953,-4.20668845,,,
imu,404.094642,0.1004896704,-9.744507264800001,1.9045185152,-1.57752054,7.835291669999999,-4.169303899999999,,,
imu,404.102948,0.1088638096,-9.703832874400002,1.893153612,-1.51022835,7.52126145,-4.25902682,,,
imu,404.111254,0.09989151760000002,-9.668541859200001,1.89913514,-1.37564397,7.14741595,-4.31136519,,,
imu,404.11956,0.1034804344,-9.6470083584,1.8686293472,-1.18872122,6.908154829999999,-4.29641137,,,
imu,404.127866,0.08673215600000002,-9.636241608,1.8674330416,-0.67281443,6.66889371,-4.318842099999999,,,
imu,404.136173,0.06460050240000001,-9.6470083584,1.875209028,-0.38121494,6.33243276,-4.35622665,,,
imu,404.144479,0.05802082160000001,-9.6846919848,1.8758071808,-0.31392275,6.07074091,-4.35622665,,,
imu,404.152785,0.05682451600000001,-9.693066124000001,1.8853776256,-0.20924601,5.93615653,-4.057150249999999,,,
imu,404.161091,0.0502448352,-9.687084596000002,1.8979388344,-0.31392275,5.58474176,-3.92256587,,,
imu,404.169397,0.04007623760000001,-9.713403319200001,1.9099018904,-0.6279529699999999,5.49501884,-3.78798149,,,
imu,404.177703,0.0263187232,-9.716992236000001,1.923061252,-0.76253735,5.330526819999999,-3.48890509,,,
imu,402.681528,,,,,,,84.7179572,-17.23049320000001,114.729384
imu,402.790903,,,,,,,82.1056164,-16.24171000000001,117.170824
imu,402.892465,,,,,,,82.8014268,-15.99756600000002,117.4637968
imu,402.994058,,,,,,,83.37516519999998,-15.94873720000001,117.4637968
imu,403.09559,,,,,,,83.729174,-16.25391720000002,117.8055984
imu,403.197183,,,,,,,85.10858759999999,-16.16846680000002,118.9530752
imu,403.298715,,,,,,,85.865434,-16.91310600000002,119.5268136
imu,403.400278,,,,,,,86.23164999999999,-16.69337640000002,119.6244712
imu,404.186009,0.0245242648,-9.7325442088,1.9368187664,-1.10647521,5.18846553,-3.14496723,,,
imu,404.194315,0.0197390424,-9.759461084800002,1.9338280024,-1.26349032,5.07631188,-2.75616791,,,
imu,404.202621,0.0346928624,-9.7815927384,1.9362206136,-1.35321324,5.03145042,-2.35989168,,,
imu,404.210927,0.0257205704,-9.785181655200002,1.9374169192,-1.45041307,5.0164966,-1.91875399,,,
imu,404.219233,0.020935348,-9.754675862400001,1.9439966,-1.61490509,5.03892733,-1.54490849,,,
imu,404.22754,0.0352910152,-9.728955292000002,1.9673245592,-1.74948947,4.97163514,-1.28321664,,,
imu,404.235846,0.03349655680000001,-9.7821908912,1.991848824,-1.71958183,5.001542779999999,-1.02152479,,,
imu,404.244152,0.0245242648,-9.811500378400002,2.0032137272,-1.89902767,4.88191222,-0.9766633299999998,,,
imu,404.252458,0.0257205704,-9.7959484056,2.00381188,-2.13081188,4.75480475,-1.18601681,,,
imu,404.261287,0.020935348,-9.768433376800001,2.0109897136,-2.39250373,4.66508183,-1.42527793,,,
imu,404.270116,0.023926112,-9.7534795568,1.9936432824,-2.30278081,4.70246638,-1.63463141,,,
imu,404.278944,0.0293094872,-9.709814402400001,1.9751005456,-2.04108896,4.717420199999999,-1.66453905,,,
imu,404.287773,0.0442633072,-9.6523917336,1.9673245592,-1.85416621,4.807143119999999,-1.80660034,,,
imu,404.296602,0.0430670016,-9.627269316000001,1.9721097816,-1.55508981,4.96415823,-2.001,,,
imu,404.305431,0.04545961280000001,-9.6075302736,1.9613430312,-1.2485365,5.14360407,-2.05333837,,,
imu,404.31426,0.062806044,-9.5776226336,1.9697171704,-0.68029134,5.2408039,-2.21035348,,,
imu,404.323089,0.0747691,-9.592576453600001,1.976895004,-0.30644584,5.4651112,-2.36736859,,,
imu,404.331918,0.09749890640000002,-9.6326526912,1.9966340464,-0.02980017,5.41277283,-2.80102937,,,
imu,404.340746,0.1142471848,-9.651793580800001,1.997830352,0.23189168,5.158557889999999,-3.04029049,,,
imu,404.349575,0.1112564208,-9.672728928800002,2.009793408,0.31413769,5.08378879,-3.33188998,,,
imu,404.358404,0.125612088,-9.684093832000002,2.0205601584,0.42629134,4.91181986,-3.56367419,,,
imu,404.367233,0.1094619624,-9.701440263200002,2.021756464,0.63564482,4.65760492,-3.66835093,,,
imu,404.376062,0.1262102408,-9.688879054400001,2.0199620056,0.68798319,4.33609779,-3.75059694,,,
imu,404.384891,0.11963056,-9.667943706400001,2.0103915608,0.82256757,4.07440594,-3.76555076,,,
imu,404.39372,0.1268083936,-9.6523917336,2.0050081856,0.9347212199999999,3.86505246,-3.60853565,,,
imu,404.402549,0.1369769912,-9.651793580800001,2.0079989496,0.97958268,3.83514482,-3.44404363,,,
imu,404.411377,0.137575144,-9.694860582400002,2.0062044912,1.2188438,3.66317589,-3.18982869,,,
imu,404.420206,0.1507345056,-9.684093832000002,2.0079989496,1.21136689,3.52859151,-2.77859864,,,
imu,404.429035,0.1531271168,-9.667345553600002,2.000821116,1.42072037,3.28933039,-2.38979932,,,
imu,404.437864,0.1483418944,-9.673925234400002,2.0133823248,1.50296638,3.1472691,-2.06081528,,,
imu,404.446693,0.1597067976,-9.634447149600001,2.004410032800001,1.62259694,3.10988455,-1.74678506,,,
imu,404.455522,0.167482784,-9.627269316000001,1.9996248104,1.74970441,2.89305416,-1.80660034,,,
imu,404.464117,0.1722680064,-9.703832874400002,1.9870636016,1.79456587,2.72108523,-2.10567674,,,
imu,404.472594,0.1579123392,-9.797742864000002,2.009793408,1.92915025,2.66874686,-2.24773803,,,
imu,404.48107,0.1698753952,-9.803126239200001,2.015774936,1.71979677,2.57902394,-2.21035348,,,
imu,404.489546,0.1620994088,-9.7331423616,2.0193638528,1.50296638,2.75099287,-1.97109236,,,
imu,404.498022,0.1770532288,-9.667943706400001,2.0050081856,1.64502767,3.01268472,-1.69444669,,,
imu,404.506499,0.1866236736,-9.654186192000001,1.9816802264,1.80204278,3.24446893,-1.43275484,,,
imu,404.514975,0.218325772,-9.679308609600001,1.9631374896,2.00391935,3.62579134,-1.05143243,,,
imu,404.523451,0.2494297176,-9.7074217912,1.9637356424,2.29551884,3.90243701,-0.8944173199999998,,,
imu,404.531927,0.260196468,-9.718188541600002,1.9733060872,2.3403803,4.0444983,-1.14115535,,,
imu,404.540404,0.2793373576,-9.722973764,1.9780913096,2.4151494,4.1192674,-1.71687742,,,
imu,404.54888,0.2835244272,-9.720581152800001,1.9547633504,2.64693361,4.194036499999999,-2.36736859,,,
imu,404.557356,0.2948893304,-9.710412555200001,1.9517725864,2.69179507,4.05197521,-3.08515195,,,
imu,404.565833,0.2996745528,-9.693066124000001,1.952968892,2.58711833,3.73046808,-4.034719519999999,,,
imu,404.574309,0.3074505392,-9.669738164800002,1.9176778768,2.52730305,3.46129932,-4.73007215,,,
imu,404.582785,0.320011748,-9.685888290400001,1.8997332928,2.51234923,3.13231528,-5.1413022,,,
imu,404.591261,0.3038616224,-9.682299373600001,1.9057148208,2.38524176,3.02016163,-5.24597894,,,
imu,404.599738,0.2972819416,-9.66016772,1.911098196,2.49739541,2.81828506,-5.20111748,,,
imu,404.608214,0.2823281216,-9.654186192000001,1.911098196,2.70674889,2.69117759,-4.80484125,,,
imu,404.61669,0.2757484408,-9.6667474008,1.9069111264,2.78151799,2.49677793,-4.40108811,,,
imu,404.625166,0.2685706072,-9.685290137600001,1.9099018904,2.85628709,2.37714737,-4.19173463,,,
imu,404.633643,0.2590001624000001,-9.742114653600002,1.9176778768,2.85628709,2.1752708,-4.25902682,,,
imu,404.642119,0.2554112456,-9.803724392000001,1.9182760296,2.72170271,1.60702564,-4.65530305,,,
imu,404.650595,0.23926112,-9.8432024768,1.9122945016,2.45253395,1.15093413,-5.021671639999999,,,
imu,404.659071,0.2344758976,-9.8479876992,1.911098196,2.37776485,0.52287369,-5.522624609999999,,,
imu,404.667535,0.1967922712,-9.8061170032,1.9093037376,2.0413039,0.1789358299999999,-5.75440882,,,
imu,404.675998,0.1597067976,-9.7325442088,1.926052016,1.5926893,-0.2771556799999999,-6.053485220000001,,,
imu,404.684462,0.1537252696,-9.697851346400002,1.9266501688,1.12164397,-0.7108164600000002,-5.97123921,,,
imu,404.692926,0.131593616,-9.7403201952,1.908107432,0.9571519499999999,-0.8678315700000003,-5.806747189999999,,,
imu,404.701389,0.1160416432,-9.785779808000001,1.8853776256,0.7702292,-0.8678315700000003,-5.49271697,,,
imu,404.709853,0.110658268,-9.770825988000002,1.8805924032,0.3963837,-1.00241595,-5.08896383,,,
imu,404.718316,0.09510629520000001,-9.7295534448,1.8937517648,0.01506129,-1.00241595,-4.453426479999999,,,
imu,404.72678,0.0855358504,-9.714001472000001,1.9033222096,0.01506129,-0.53884753,-3.75807385,,,
imu,404.735243,0.07177833600000001,-9.727758986400001,1.9027240568,0.27675314,-0.20986349,-3.05524431,,,
imu,404.743707,0.09390998960000001,-9.746899876,1.893153612,0.52349117,0.1415512799999998,-2.81598319,,,
imu,404.75217,0.1064711984,-9.770825988000002,1.8937517648,0.7403215599999999,0.3434278499999999,-2.90570611,,,
imu,404.760634,0.09450814240000002,-9.7570684736,1.9176778768,0.83004448,0.4929660499999997,-3.17487487,,,
imu,404.769097,0.0933118368,-9.7750130576,1.9194723352,0.7552753799999999,0.7546578999999998,-3.51133582,,,
imu,404.777561,0.09989151760000002,-9.782789044000001,1.9003314456,0.63564482,0.8967191899999998,-3.9449966,,,
imu,404.786024,0.09091922560000001,-9.767237071200002,1.8859757784,0.6132140899999999,0.9789651999999998,-4.363703559999999,,,
imu,404.794488,0.1028822816,-9.728955292000002,1.8817887088,0.41881443,1.17336486,-4.670256869999999,,,
imu,404.802952,0.110658268,-9.696056888000001,1.8859757784,0.11226112,1.42010289,-4.991764,,,
imu,404.811415,0.143556672,-9.6523917336,1.8895646952,0.11973803,1.64441019,-5.260932759999999,,,
imu,404.819879,0.1453511304,-9.655382497600002,1.8943499176,0.05992275,1.65936401,-5.32074804,,,
imu,404.828342,0.1327899216,-9.651793580800001,1.8829850144,0.38142988,1.47991817,-5.38056332,,,
imu,404.836806,0.1250139352,-9.635045302400002,1.8740127224,0.30666078,1.25561087,-5.45533242,,,
imu,404.845269,0.1752587704,-9.709216249600003,1.9045185152,0.20198404,1.13598031,-5.43290169,,,
imu,404.853733,0.1172379488,-9.6817012208,1.9039203624,0.31413769,0.86681155,-5.33570186,,,
imu,404.862196,0.1351825328,-9.675121540000001,1.8973406816,0.50853735,0.76213481,-5.09644074,,,
imu,404.87066,0.110658268,-9.710412555200001,1.9122945016,0.4711528,0.5378275100000001,-4.81231816,,,
imu,404.879123,0.09570444800000001,-9.742114653600002,1.92904278,0.68798319,0.27613566,-4.35622665,,,
imu,404.887587,0.08733030880000002,-9.7953502528,1.9356224608,0.70293701,0.2462280199999998,-3.91508896,,,
imu,404.896051,0.06998387760000001,-9.8198745176,1.9547633504,0.52349117,0.3434278499999999,-3.56367419,,,
imu,404.904514,0.05802082160000001,-9.805518850400002,1.9810820736,0.15712258,0.27613566,-3.40665908,,,
imu,404.912978,0.05682451600000001,-9.783387196800001,1.9906525184,-0.21672292,0.3733354899999997,-3.10758268,,,
imu,404.921441,0.0490485296,-9.7714241408,1.9960358936,-0.33635348,0.6724118899999998,-3.01038285,,,
imu,404.929905,0.03289840400000001,-9.763050001600002,1.98885806,-0.49336859,0.7696117199999999,-3.0477674,,,
imu,404.938368,0.03648732080000001,-9.7295534448,1.9846709904,-0.73262971,0.9116730099999999,-3.01038285,,,
imu,404.946832,0.023926112,-9.708019944000002,1.9900543656,-0.9494601,1.14345722,-3.14496723,,,
imu,404.955295,0.0406743904,-9.663158484000002,1.9727079344,-1.21115195,1.46496435,-3.22721324,,,
imu,404.963759,0.06160973840000001,-9.626671163200001,1.9733060872,-1.21862886,1.71917929,-3.18235178,,,
imu,404.972222,0.05443190480000001,-9.6075302736,1.9703153232,-1.03918302,1.98834805,-3.22721324,,,
imu,404.980686,0.07058203040000001,-9.630858232800001,1.9756986984,-0.91955246,2.35471664,-3.1973056,,,
imu,404.989149,0.08493769760000001,-9.6260730104,1.970913476,-0.92702937,2.55659321,-3.3468438,,,
imu,404.997613,0.1082656568,-9.6248767048,1.9751005456,-0.80739881,2.59397776,-3.45152054,,,
imu,403.502006,,,,,,,88.22142360000001,-16.72999800000001,118.2572648
imu,403.603568,,,,,,,85.77998360000001,-16.33936760000001,118.2328504
imu,403.705131,,,,,,,87.8552076,-16.88869160000002,116.2796984
imu,403.814506,,,,,,,84.6080924,-16.77882680000003,118.9164536
imu,403.916068,,,,,,,85.99971319999999,-16.79103400000002,115.70596
imu,404.017631,,,,,,,84.03435400000001,-16.2172956,117.476004
imu,404.119193,,,,,,,83.08219240000001,-16.68116920000002,116.9022656
imu,404.220725,,,,,,,83.729174,-16.46143960000002,116.9999232
imu,405.006077,0.1357806856,-9.657775108800001,1.9900543656,-0.5756146,2.75846978,-3.48142818,,,
imu,405.01454,0.1357806856,-9.699645804800001,1.9882599072,-0.17186146,2.79585433,-3.60853565,,,
imu,405.023004,0.1495382,-9.6733270816,1.9804839208,-0.14195382,2.79585433,-3.84031986,,,
imu,405.031467,0.1471455888,-9.669738164800002,1.9960358936,-0.21672292,2.90800798,-4.102011709999999,,,
imu,405.039931,0.1591086448,-9.676317845600002,2.0026155744,-0.11952309,2.70613141,-4.244073,,,
imu,405.048394,0.1638938672,-9.672728928800002,2.0133823248,-0.13447691,2.56407012,-4.22911918,,,
imu,405.056858,0.1692772424,-9.685290137600001,1.9942414352,-0.10456927,2.42948574,-4.386134289999999,,,
imu,405.065321,0.1626975616,-9.7283571392,1.9834746848,0.0001074699999999984,2.16031698,-4.44594957,,,
imu,405.073789,0.1746606176,-9.7504887928,1.9804839208,0.26179932,1.89114822,-4.363703559999999,,,
imu,405.082256,0.176455076,-9.7534795568,2.012784172,0.32909151,1.5023489,-4.386134289999999,,,
imu,405.090723,0.1716698536,-9.7056273328,2.004410032800001,0.32909151,1.22570323,-4.4683803,,,
imu,405.099191,0.1573141864,-9.721179305600002,2.0319250616,0.40386061,0.8219500899999996,-4.59548777,,,
imu,405.107658,0.1459492832,-9.7504887928,2.0199620056,0.27675314,0.56025824,-4.63287232,,,
imu,405.116125,0.1238176296,-9.786377960800001,2.0187657,0.03749201999999999,0.2537049300000001,-4.625395409999999,,,
imu,405.124593,0.1010878232,-9.734936820000001,2.0133823248,-0.08961545,-0.0603252900000002,-4.3936112,,,
imu,405.13306,0.07955432240000002,-9.655980650400002,2.0121860192,-0.23915365,-0.1874327600000001,-4.124442439999999,,,
imu,405.141528,0.07177833600000001,-9.617698871200002,2.0079989496,-0.10456927,-0.07527911000000032,-3.73564312,,,
imu,405.149995,0.0562263632,-9.644615747200001,1.9984285048,0.23189168,0.0368745399999999,-3.16739796,,,
imu,405.158462,0.0490485296,-9.697851346400002,1.9822783792,0.4861066199999999,0.29856639,-2.79355246,,,
imu,405.16693,0.05861897440000001,-9.702636568800001,1.9882599072,0.68050628,0.4032431299999999,-2.4496146,,,
imu,404.322379,,,,,,,83.64372360000002,-15.87549400000001,116.7191576
imu,404.423911,,,,,,,83.8024172,-15.97315160000001,117.4637968
imu,404.525443,,,,,,,83.5216516,-15.66797160000002,117.109788
imu,404.627006,,,,,,,85.682326,-15.63135000000002,116.438392
imu,404.728538,,,,,,,83.729174,-15.8877012,116.9633016
imu,404.830131,,,,,,,85.9142628,-17.27932200000002,114.8392488
imu,404.931693,,,,,,,83.31412920000001,-15.71680040000001,117.4515896
imu,405.041068,,,,,,,85.6701188,-16.32716040000002,115.0101496
imu,405.150512,,,,,,,83.76579559999999,-15.59472840000002,116.8412296
