Type,Timestamp,Data Accelerometer X,Data Accelerometer Y,Data Accelerometer Z,Data Gyroscope X,Data Gyroscope Y,Data Gyroscope Z,Data Magnetometer X,Data Magnetometer Y,Data Magnetometer Z
imu,94.559293,-0.011963056,-9.6326526912,2.1814632616,0.64312173,2.11545552,-3.5711511,,,
imu,94.567759,0.07177833600000001,-9.519003659200001,2.150957468800001,0.30666078,1.71170238,-3.53376655,,,
imu,94.576225,0.1148453376,-9.460982837600001,2.2137635128,0.26927623,1.09859576,-3.63844329,,,
imu,94.584691,0.07118018320000001,-9.4831144912,2.2107727488,0.74779847,0.2686587499999997,-4.07210407,,,
imu,94.593157,0.03289840400000001,-9.661364025600001,2.1521537744,1.43567419,-0.94260067,-4.5431494,,,
imu,94.601623,-0.0490485296,-9.834828337600001,2.1467703992,1.80204278,-2.25853683,-4.85717962,,,
imu,94.610089,-0.1441548248,-9.8144911424,2.0989181752,1.98896553,-3.20062749,-5.08148692,,,
imu,94.618555,-0.2625890792,-9.759461084800002,2.178472497600001,1.52539711,-3.8810263,-5.38056332,,,
imu,94.627021,-0.3810233336,-9.812098531200002,2.1754817336,1.43567419,-3.94084158,-5.48524006,,,
imu,94.635487,-0.4868963792000001,-9.867726741600002,2.0408973536,1.71231986,-3.21558131,-5.40299405,,,
imu,94.643954,-0.5473098120000001,-9.651195428000001,1.8985369872,1.8917657,-2.27349065,-5.29831731,,,
imu,94.65242,-0.565254396,-9.3246039992,1.7531858568,2.65441052,-0.7108164600000002,-4.999240909999999,,,
imu,94.660873,-0.5784137576,-9.163102743200001,1.7430172592,4.20213089,1.51730272,-4.15435008,,,
imu,94.669326,-0.5574784096000001,-9.316229860000002,1.7304560504,6.34052715,3.91739083,-3.02533667,,,
imu,94.67778,-0.4408386136,-9.6051376624,1.842310624,8.12003173,6.317478939999999,-1.88136944,,,
imu,94.686233,-0.2727576768,-9.897036228800001,1.9451929056,9.09950694,8.08950661,-1.51500085,,,
imu,94.694687,-0.2087553272,-10.1949163232,1.9631374896,9.136891489999998,8.7549516,-1.71687742,,,
imu,94.70314,-0.04007623760000001,-10.2960041464,1.8668348888,8.68079998,8.34372155,-2.38232241,,,
imu,94.711593,0.0227298064,-10.013077872,1.7801027328,7.46206365,6.818431909999999,-4.08705789,,,
imu,94.720047,-0.0681894192,-9.667345553600002,1.7083243968,6.08631221,4.32862088,-6.374992349999999,,,
imu,94.7285,-0.2296906752000001,-9.591380148,1.6461165056,5.4806825,1.61450255,-7.780651429999999,,,
imu,94.736953,-0.2733558296,-9.737329431200001,1.5234951816,5.74985126,-0.7332471900000002,-8.77508046,,,
imu,94.745407,-0.430670016,-9.769629682400002,1.4582965264,6.40034243,-2.65481306,-9.26107961,,,
imu,94.75386,-0.61310662,-9.678710456800001,1.4612872904,7.1256027,-3.82121102,-8.21431221,,,
imu,94.762313,-0.6657440664000001,-9.657176956,1.4612872904,7.73123241,-4.09785669,-5.74693191,,,
imu,94.770767,-0.7285501104000001,-9.614109954400002,1.5474212936,7.977970440000001,-3.49970389,-3.0477674,,,
imu,94.77922,-0.7159889016000002,-9.557883591200001,1.5773289336,7.92563207,-1.74263004,0.21964227,,,
imu,94.787674,-0.6549773160000001,-9.582407856000001,1.6455183528,6.95363377,0.2312741999999997,3.11320644,,,
imu,94.796127,-0.4785222400000001,-9.573435564,1.653892492,5.63769761,2.28742445,5.296464159999999,,,
imu,94.80458,-0.161501256,-9.5877912312,1.6933705768,4.41148437,4.00711375,6.70960015,,,
imu,94.813034,0.06699311360000001,-9.648802816800002,1.6682481592,3.19274804,4.99406587,7.18812239,,,
imu,94.821487,0.2835244272,-9.702038416,1.635947908,2.30299575,5.14360407,7.1208302,,,
imu,94.82994,0.5239818528000001,-9.6015487456,1.6377423664,1.46558183,4.51554363,6.57501577,,,
imu,94.838394,0.684884956,-9.5237888816,1.6784167568,1.01696723,3.58840679,6.01424752,,,
imu,94.846847,0.7566632920000002,-9.5949690648,1.737633884,0.77770611,2.18274771,5.408617809999999,,,
imu,94.855301,0.8529658928000001,-9.6817012208,1.722680064,0.94967504,0.7471809899999999,4.922618659999999,,,
imu,94.863765,0.8798827688,-9.701440263200002,1.8231697344,0.9272443100000001,-0.90521612,4.18988148,,,
imu,94.87223,0.8954347416000001,-9.7702278352,1.9212667936,0.74779847,-2.64733615,3.07582189,,,
imu,94.880695,0.9977188704000002,-9.881484256,1.9625393368,0.42629134,-4.65114803,1.69259354,,,
imu,94.88916,1.1029937632,-9.922158646400002,1.9816802264,-0.34383039,-6.92412867,0.5710570399999999,,,
imu,94.897625,1.1412755424,-9.835426490400001,1.9236594048,-1.06909066,-10.03452323,-0.6177716499999999,,,
imu,94.906089,1.1269198752,-9.790565030400002,1.8877702368,-1.57004363,-13.43651728,-2.04586146,,,
imu,94.914554,1.0330098856,-9.6505972752,1.8770034864,-1.55508981,-16.62168094,-4.31136519,,,
imu,94.923019,0.9020144224000001,-9.4938812416,1.8835831672,-0.66533752,-19.46290674,-6.65163802,,,
imu,94.931484,0.6938572480000001,-9.452010545600002,1.9176778768,1.02444414,-22.05739451,-7.952620359999999,,,
imu,94.939949,0.5622636320000001,-9.606932120800002,1.961941184,2.84133327,-23.75465308,-8.5806808,,,
imu,94.948413,0.3301803456000001,-9.610521037600002,1.8387217072,4.54606875,-25.04815851,-8.34141968,,,
imu,94.956878,0.1890162848,-9.7128051664,1.9715116288,6.11621985,-25.28741963,-7.406805929999999,,,
imu,94.965343,0.0382817792,-9.860548908000002,1.955959656,7.34243309,-25.19769671,-6.53948437,,,
imu,94.973808,-0.1393696024,-9.9131863544,1.893153612,7.933108979999999,-24.53972863,-5.91142393,,,
imu,94.982273,-0.2584020096,-9.999320357600002,1.9637356424,7.58917112,-23.41071522,-5.47028624,,,
imu,94.990738,-0.3582935272000001,-10.0657153184,1.9751005456,6.43025007,-22.07234833,-5.40299405,,,
imu,94.999202,-0.4707462536000001,-10.1069878616,1.9362206136,5.21899065,-20.94333492,-6.42733072,,,
imu,95.007667,-0.601143564,-10.0663134712,1.9236594048,3.85819303,-19.33579927,-7.54886722,,,
imu,95.016132,-0.7106055264000001,-9.945486605600001,1.8470958464,2.66188743,-17.1899261,-8.46852715,,,
imu,95.024597,-0.771617112,-9.7953502528,1.7460080232,1.68988913,-14.92442237,-9.20874124,,,
imu,95.033062,-0.8284416280000001,-9.612315496,1.7172966888,1.368382,-12.44956516,-9.94147842,,,
imu,95.041526,-0.8948365888000002,-9.4137287664,1.6993521048,1.4431511,-9.88498503,-10.24055482,,,
imu,95.049991,-0.8810790744000001,-9.3592968616,1.6832019792,1.79456587,-7.05871305,-9.97138606,,,
imu,95.058456,-0.8116933496000001,-9.4316733504,1.7280634392,2.16841137,-4.41936382,-9.44800236,,,
imu,95.067253,-0.7357279440000001,-9.6218859408,1.8028325392,2.407672489999999,-1.99684498,-8.97695703,,,
imu,95.076049,-0.6244715232,-9.822267128800002,1.8237678872,2.33290339,-0.007986920000000008,-8.79003428,,,
imu,95.084846,-0.5610673264,-10.0017129688,1.8225715816,1.67493531,1.33037997,-8.38628114,,,
imu,95.093643,-0.4539979752000001,-10.099810028,1.8088140672,0.79265993,2.20517844,-7.825512890000001,,,
imu,95.10244,-0.3672658192000001,-10.0471725816,1.7962528584,-0.35878421,2.4743472,-7.541390310000001,,,
imu,95.111236,-0.3391526376000001,-9.9819739264,1.7783082744,-1.30087487,2.35471664,-7.646067049999999,,,
imu,95.120033,-0.2966837888,-9.9849646904,1.752587704,-2.46727283,1.6518871,-7.840466709999999,,,
imu,95.12883,-0.3008708584000001,-10.0292279976,1.725670828,-3.59628624,0.7471809899999999,-8.348896589999999,,,
imu,95.137626,-0.31403022,-9.941299536000002,1.6646592424,-4.47856162,-0.4491246100000001,-8.8797572,,,
imu,95.146423,-0.3905937784,-9.7786019744,1.6138162544,-5.23372953,-1.32392308,-8.79751119,,,
imu,95.15522,-0.4599795032,-9.635045302400002,1.5665621832,-5.47299065,-1.91459897,-8.03486637,,,
imu,95.164016,-0.5359449088000001,-9.536350090400001,1.5330656264,-5.26363717,-2.31835211,-7.13016026,,,
imu,95.172813,-0.5742266880000001,-9.4215047528,1.5079432088,-4.53089999,-2.25853683,-5.9637623,,,
imu,95.18161,-0.5359449088000001,-9.343744888800002,1.4917930832,-3.6411477,-1.54075347,-4.759979789999999,,,
imu,95.190406,-0.451605364,-9.33118368,1.5390471544,-3.20748692,-0.9949390400000002,-4.244073,,,
imu,95.199203,-0.3206099008000001,-9.507638756,1.5755344752,-2.86354906,-1.03232359,-4.33379592,,,
imu,95.208,-0.2464389536,-9.861147060800002,1.6700426176,-2.91588743,-1.96693734,-5.38056332,,,
imu,95.216797,-0.221316536,-10.1010063336,1.6832019792,-3.13271782,-3.02865856,-6.98062206,,,
imu,95.225593,-0.158510492,-10.2756669512,1.6963613408,-3.73087062,-4.01561068,-7.930189629999999,,,
imu,95.23439,-0.146547436,-10.3683806352,1.6712389232,-4.52342308,-4.97265516,-8.43861951,,,
imu,95.243187,-0.1836329096,-10.2864337016,1.6473128112,-4.964560769999999,-5.63810015,-7.96009727,,,
imu,95.251926,-0.2924967192,-10.1183527648,1.6407331304,-5.02437605,-6.0493302,-6.43480763,,,
imu,95.260722,-0.2643835376,-9.803126239200001,1.5707492528,-4.95708386,-6.041853290000001,-4.4683803,,,
imu,95.269519,-0.281131816,-9.809107767200002,1.6832019792,-4.44865398,-5.92222273,-3.28702852,,,
imu,95.27798,-0.2344758976,-9.9131863544,1.710717008,-4.18696213,-6.00446874,-3.24964397,,,
imu,95.286441,-0.2117460912,-10.0298261504,1.7621581488,-4.22434668,-6.26616059,-3.70573548,,,
imu,95.294902,-0.2015774936,-10.0495651928,1.7932620944,-5.14400661,-6.804498110000001,-4.28145755,,,
imu,95.303363,-0.2434481896,-10.001114816,1.8405161656,-6.65434243,-7.34283563,-4.72259524,,,
imu,95.311824,-0.2398592728,-9.994535135200001,1.9146871128,-8.20953971,-7.79892714,-5.02914855,,,
imu,95.320285,-0.1961941184,-10.0393965952,1.9039203624,-9.34603003,-8.06061899,-5.8889932,,,
imu,95.328746,-0.2697669128,-10.042985512,1.896144376,-10.36288979,-8.28492629,-6.95819133,,,
imu,95.337207,-0.3792288752000001,-9.955655203200001,1.9069111264,-10.96104259,-8.15034191,-7.37689829,,,
imu,95.345668,-0.4169125016,-9.7989391696,1.911098196,-10.9685195,-7.43255855,-6.576868919999999,,,
imu,95.354129,-0.3295821928000001,-9.568052188800001,1.8853776256,-10.98347332,-6.1988684,-5.41047096,,,
imu,95.36259,-0.1429585192,-9.373652528800001,1.9332298496,-10.5199049,-5.28668538,-4.386134289999999,,,
imu,95.371051,0.0592171272,-9.2169364952,2.0462807288,-10.11615176,-5.204439369999999,-3.55619728,,,
imu,95.379512,0.263187232,-9.261199802400002,2.1826595672,-9.86941373,-6.0493302,-3.02533667,,,
imu,95.387973,0.3206099008000001,-9.4113361552,2.3100661136,-9.98156738,-7.88865006,-2.75616791,,,
imu,95.396434,0.3074505392,-9.462777296000002,2.398592728,-10.80402748,-10.46818401,-2.79355246,,,
imu,95.404895,0.2326814392,-9.507040603200002,2.4368745072,-12.06014836,-13.31688672,-3.54124346,,,
imu,95.413356,0.08792846160000001,-9.5213962704,2.5080546904,-13.18168486,-16.11325106,-4.55810322,,,
imu,95.421817,-0.1297991576,-9.456795768000001,2.628881556000001,-13.77236075,-18.47595462,-5.14877911,,,
imu,95.430278,-0.3343674152,-9.300079734400002,2.7048469616,-13.74245311,-19.54515275,-4.83474889,,,
imu,95.438739,-0.5144114080000001,-9.215142036800001,2.8340479664,-13.09196194,-19.5825373,-3.60105874,,,
imu,95.4472,-0.5999472584000001,-9.2510312048,2.927957956,-12.32184021,-18.70773883,-1.87389253,,,
imu,95.455661,-0.5760211464000001,-9.382026668000002,3.062542336,-11.342365,-16.8160806,0.1074886200000003,,,
imu,95.464122,-0.5365430616000001,-9.502255380800001,3.1624338536,-10.54233563,-14.61039215,2.14868505,,,
imu,95.472583,-0.3905937784,-9.4735440464,3.173200604000001,-9.60024497,-13.0028565,3.10572953,,,
imu,95.48105,-0.2386629672,-9.328791068800001,3.2647179824,-8.96470762,-11.99347365,2.94123751,,,
imu,95.489518,-0.08673215600000002,-9.283331456,3.3658058056,-8.59086212,-11.57476669,2.46271527,,,
imu,95.497985,0.007177833600000002,-9.349128264,3.346664916,-7.94784786,-12.17291949,1.72997809,,,
imu,95.506452,0.0370854736,-9.329389221600001,3.2904385528,-7.41698725,-13.63091694,0.75050288,,,
imu,95.51492,0.0107667504,-9.2061697448,3.254549384800001,-7.01323411,-15.07396057,-0.03457266999999997,,,
imu,95.523387,0.0017944584,-9.035098044000001,3.2037063968,-6.42255822,-16.60672712,-0.5355256399999999,,,
imu,95.531854,-0.0723764888,-9.028518363200002,3.140900352800001,-5.1365297,-18.11706294,-0.8121713099999999,,,
imu,95.540322,-0.1411640608,-9.0297146688,3.015288264800001,-3.72339371,-19.41056837,-0.90937114,,,
imu,95.548789,-0.2643835376,-8.969301236000002,2.9841843192,-2.22801171,-20.65921234,-1.19349372,,,
imu,95.557256,-0.3576953744,-9.014760848800002,2.947696998400001,-0.7550604399999999,-21.58634918,-1.06638625,,,
imu,95.565724,-0.4163143488000001,-9.136185867200002,2.8723297456,0.31413769,-22.10225597,-1.00657097,,,
imu,95.574191,-0.5598710208000001,-9.2576108856,2.7885883536,0.9197674,-22.73031641,-1.05143243,,,
imu,95.582659,-0.8846679912000001,-9.2917055952,2.7072395728,1.22632071,-22.75274714,-1.1037708,,,
imu,95.591126,-1.3470401056,-9.289312984,2.6779300856,1.48053565,-21.39194952,-0.7598329399999999,,,
imu,95.599593,-1.7250726752,-9.284527761600001,2.7383435184,1.85438115,-18.19930895,0.6533030499999999,,,
imu,95.608061,-2.0056063384,-9.301874192800001,2.8089255488,2.30299575,-13.15987161,2.34308471,,,
imu,95.616528,-2.112675689600001,-9.370661764800001,2.7760271448,2.61702597,-6.886744119999999,3.37489829,,,
imu,95.624995,-1.9601467256,-9.5489112992,2.796962492800001,2.77404108,-0.23229422,3.55434413,,,
imu,95.633463,-1.677818604,-9.728955292000002,2.761671477600001,2.63197979,6.16794074,2.64216111,,,
imu,95.64193,-1.3350770496,-9.6799067624,2.727576768,2.85628709,11.64851577,1.94680848,,,
imu,95.650397,-0.9905410368000002,-9.448421628800002,2.7012580448,3.70117792,15.74586245,1.37108641,,,
imu,94.628727,,,,,,,88.67309000000002,-17.4990516,118.45258
imu,94.730289,,,,,,,88.3190812,-17.97513240000001,117.1464096
imu,94.831821,,,,,,,88.0871444,-18.08499720000001,118.818796
imu,95.658865,-0.7524762224000001,-9.350922722400002,2.731165684800001,5.00216026,18.5497037,1.02714855,,,
imu,95.667332,-0.5461135064000001,-9.509433214400001,2.6910894472,6.62464973,20.10490098,0.6906876,,,
imu,95.675799,-0.442633072,-9.701440263200002,2.6743411688,8.26956993,20.60585395,0.05515025000000007,,,
imu,95.684262,-0.3553027632,-9.7995373224,2.713221100800001,9.705136649999998,20.73296142,-0.37851053,,,
imu,95.692724,-0.3032634696000001,-9.862343366400001,2.7359509072,10.57245821,20.69557687,-0.5280487299999999,,,
imu,95.701186,-0.2476352592,-10.0393965952,2.699463586400001,10.99116517,20.53108485,-0.1691570499999999,,,
imu,95.709649,-0.1979885768,-10.1823551144,2.5774404152,10.68461186,20.08247025,0.13739626,,,
imu,95.718111,-0.1686790896,-10.0358076784,2.508652843200001,9.129414579999999,19.18524105,-0.04204958000000003,,,
imu,95.726573,-0.2057645632,-9.764246307200002,2.425509604,7.52187893,18.24315039,-0.3411259799999999,,,
imu,95.735035,-0.185427368,-9.5423316184,2.3304033088,6.28071187,17.28610591,-0.6402023799999998,,,
imu,95.743498,-0.16449202,-9.382624820800002,2.2185487352,5.65265143,16.41130744,-1.53743158,,,
imu,95.75196,-0.1878199792,-9.3868118904,2.0911421888,5.92182019,15.58884734,-2.9729983,,,
imu,95.760422,-0.1567160336,-9.395784182400002,1.9912506712,6.55735754,15.30472476,-3.13001341,,,
imu,95.768884,-0.02871133440000001,-9.4203084472,1.9792876152,7.34991,15.42435532,-1.91127708,,,
imu,95.777347,-0.04545961280000001,-9.392195265600002,2.0325232144,8.26956993,14.84863325,-0.9018942299999999,,,
imu,95.785809,-0.07656355840000001,-9.343744888800002,2.0373084368,9.38362952,14.2130959,-0.04204958000000003,,,
imu,95.794271,-0.1543234224,-9.363483931200001,2.0169712416,9.95187468,14.24300354,1.07948692,,,
imu,95.802733,-0.2338777448,-9.374848834400002,1.9457910584,10.0415976,14.63180286,1.70754736,,,
imu,95.811196,-0.1985867296,-9.603343204000002,2.066617924,9.660275189999998,15.39444768,1.35613259,,,
imu,95.819658,-0.2643835376,-9.8300431152,2.0528604096,8.516307959999999,16.68795311,0.3916112000000003,,,
imu,95.82812,-0.185427368,-9.950869980800002,2.031326908800001,7.01344905,18.25810421,-0.52057182,,,
imu,95.836583,0.1238176296,-9.925747563200002,2.0014192688,5.66012834,19.98527042,-1.27573973,,,
imu,95.845045,0.4103328208,-9.810304072800001,1.9439966,4.54606875,21.32363731,-1.8514618,,,
imu,95.853507,0.6184899952000001,-9.725964528,1.9362206136,3.78342393,21.45074478,-1.84398489,,,
imu,95.861969,0.7375224024000001,-9.6260730104,1.8518810688,3.47687062,21.00960709,-1.23087827,,,
imu,95.870432,0.7040258456,-9.335968902400001,1.7489987872,3.58154736,20.50117721,-0.8121713099999999,,,
imu,95.878894,0.5263744640000001,-9.1092689912,1.6802112152,4.17970016,19.70862475,-0.4308489,,,
imu,95.887707,0.3953790008,-9.212151272800002,1.6652573952,5.248898290000001,19.05813358,-0.6402023799999998,,,
imu,95.89652,0.3690602776000001,-9.453206851200001,1.6784167568,6.31061951,18.66185735,-1.53743158,,,
imu,95.905333,0.3971734592000001,-9.685290137600001,1.7322505088,7.34243309,18.65438044,-2.17296893,,,
imu,95.914146,0.4707462536000001,-9.911391896000003,1.8656385832,7.94058589,18.60204207,-2.3000764,,,
imu,95.922959,0.4510072112,-10.1697939056,1.9439966,7.98544735,18.30296567,-2.31503022,,,
imu,95.931772,0.370854736,-10.3671843296,1.970913476,7.23027944,18.09361219,-2.04586146,,,
imu,95.940585,0.3014690112,-10.3217247168,2.0797772856,5.30123666,18.05622764,-1.8514618,,,
imu,95.949397,0.1890162848,-10.2786577152,2.1515556216,3.48434753,18.53474988,-1.60472377,,,
imu,95.95821,0.1495382,-10.2816484792,2.1431814824,1.65250458,19.28991779,-1.54490849,,,
imu,95.967023,0.1381732968,-10.1931218648,2.0911421888,-0.29896893,20.06003952,-1.68696978,,,
imu,95.975836,0.1860255208,-9.956851508800002,2.039701048,-1.65228964,20.83763816,-2.58419898,,,
imu,95.984649,0.2566075512,-9.6523917336,1.9894562128,-2.31773463,21.56289843,-4.04967334,,,
imu,95.993462,0.2440463424,-9.4203084472,1.9439966,-1.89155076,22.31058943,-4.98428709,,,
imu,96.002275,0.257205704,-9.324005846400002,1.9487818224,-1.00927538,22.68443493,-5.0665331,,,
imu,96.011088,0.2745521352,-9.3904008072,2.0319250616,-0.32887657,23.06575734,-4.82727198,,,
imu,96.019901,0.2889078024000001,-9.6428212888,2.1366018016,-0.17186146,23.0358497,-4.74502597,,,
imu,96.028714,0.3553027632,-9.929336480000002,2.2448674584,-0.51579932,23.30501846,-4.50576485,,,
imu,96.037527,0.46356842,-10.1153620008,2.3459552816,-1.27096723,23.62652559,-4.25902682,,,
imu,96.04634,0.5915731192000001,-10.135699196,2.4302948264,-2.51213429,24.11252474,-3.8702275,,,
imu,96.055153,0.7859727792000001,-10.0477707344,2.4153410064,-4.3140696,24.3816935,-3.69078166,,,
imu,96.063966,0.8948365888000002,-9.815089295200002,2.3926112,-5.929082159999999,24.2321553,-3.78798149,,,
imu,96.072779,1.0336080384,-9.456197615200002,2.3615072544,-7.01323411,23.50689503,-4.52071867,,,
imu,96.081592,1.067702748,-9.129606186400002,2.3202347112,-7.28987978,21.99655921,-6.636684199999999,,,
imu,96.090101,0.9229497704,-9.060220461600002,2.2095764432,-6.58705024,20.1198548,-9.19378742,,,
imu,96.098611,0.7291482632,-9.017751612800001,2.117460912,-5.14400661,18.3253964,-11.44433733,,,
imu,96.10712,0.49347606,-9.044668488800001,2.0887495776,-3.02056417,16.92721423,-13.42571848,,,
imu,96.11563,0.2201202304,-9.2707702472,2.0708049936,-0.59056842,16.2318616,-14.73417773,,,
imu,96.124139,0.0107667504,-9.587193078400002,2.054654868000001,1.35342818,16.40383053,-14.77156228,,,
imu,96.132649,-0.1477437416,-9.789368724800001,2.0642253128,2.58711833,17.18142917,-13.69488724,,,
imu,96.141158,-0.2895059552,-9.876699033600001,2.090544036,3.11050203,18.48988842,-12.11725923,,,
imu,96.149668,-0.4091365152000001,-9.979581315200003,2.0708049936,3.20022495,20.53856176,-10.33027774,,,
imu,96.158177,-0.4270810992000001,-9.914980812800001,2.0642253128,3.00582529,22.91621914,-8.76760355,,,
imu,96.166687,-0.3905937784,-9.762451848800001,2.03371952,2.40019558,25.16676905,-8.43861951,,,
imu,96.175196,-0.3403489432000001,-9.6290637744,1.95895042,1.95905789,27.10328874,-9.49286382,,,
imu,96.183706,-0.2470371064,-9.5698466472,1.9362206136,2.10859609,28.50894782,-10.973292,,,
imu,96.192215,-0.1531271168,-9.551303910400001,1.9152852656,2.52730305,29.54823831,-11.91538266,,,
imu,96.200725,-0.0370854736,-9.568052188800001,1.9404076832,3.10302512,29.68282269,-12.89485787,,,
imu,96.209234,-0.0131593616,-9.524387034400002,1.949978128,4.089977240000001,29.34636174,-13.82199471,,,
imu,96.217744,0.0352910152,-9.533359326400001,2.0020174216,5.08440627,28.6435322,-14.1135942,,,
imu,96.226254,0.0735727944,-9.634447149600001,2.0761883688,5.67508216,27.60424171,-13.89676381,,,
imu,96.234763,0.0191408896,-9.748096181600001,2.1120775368,6.08631221,26.60233577,-13.71731797,,,
imu,96.243273,-0.0191408896,-9.8079114616,2.1790706504,5.62274379,25.97427533,-13.20141118,,,
imu,96.251782,-0.06041343280000001,-9.892251006400002,2.275971404,4.81523751,25.73501421,-12.06492086,,,
imu,96.260292,-0.1333880744,-10.0088908024,2.3070753496,3.40957843,25.26396888,-11.83313665,,,
imu,96.268801,-0.1926052016,-10.0405929008,2.3256180864,1.60016621,24.77796973,-12.28922816,,,
imu,96.277311,-0.2410555784,-9.985562843200002,2.3315996144,-0.41859949,24.18729384,-13.55282595,,,
imu,96.28582,-0.2649816904,-9.879091644800003,2.2831492376,-1.95884295,23.76110997,-15.19026924,,,
imu,96.29433,-0.2865151912,-9.7361331256,2.2616157368,-3.16262546,22.94612678,-16.62583596,,,
imu,96.302736,-0.3241988176,-9.573435564,2.2436711528,-3.85050118,22.01898994,-17.4034346,,,
imu,96.311142,-0.2763465936,-9.492086783200001,2.188042942400001,-3.79816281,21.28625276,-17.61278808,,,
imu,96.319549,-0.191408896,-9.443636406400001,2.1671075944,-3.64862461,20.29182373,-17.67260336,,,
imu,96.327955,-0.1441548248,-9.4244955168,2.1497611632,-3.028041079999999,19.35720998,-16.8052818,,,
imu,96.336361,-0.1184342544,-9.4215047528,2.1371999544,-2.04108896,18.6992419,-14.96596194,,,
imu,96.344994,-0.146547436,-9.4250936696,2.1527519272,-1.06161375,18.00388927,-12.7677504,,,
imu,96.353401,-0.2398592728,-9.470553282400001,2.1695002056,-0.32887657,17.02441406,-10.81627689,,,
imu,96.361807,-0.2578038568000001,-9.614708107200002,2.1838558728,-0.4260764,15.75333936,-10.13587808,,,
imu,96.370213,-0.3421434016,-9.752881404000002,2.2305117912,-0.76253735,14.37758792,-10.72655397,,,
imu,96.37862,-0.5000557408,-9.8653341304,2.1940244704,-1.71958183,12.83734446,-12.1695976,,,
imu,96.387026,-0.5766192992000001,-9.8647359776,2.174285428,-2.69158013,11.67842341,-13.29861101,,,
imu,96.395432,-0.6495939408000001,-9.789368724800001,2.1617242192,-3.34954821,10.60174837,-14.16593257,,,
imu,96.403839,-0.6872775672000001,-9.665551095200001,2.106694161600001,-3.21496383,10.19051832,-14.22574785,,,
imu,96.412245,-0.6412198016000001,-9.488497866400001,2.0684123824,-2.69905704,9.78676518,-13.6649796,,,
imu,96.420651,-0.5820026744000001,-9.3317818328,2.0319250616,-1.12890594,9.801718999999999,-12.33408962,,,
imu,96.429058,-0.5090280328000001,-9.231890315200001,1.9792876152,1.09173633,9.98116484,-10.49476976,,,
imu,96.437464,-0.442633072,-9.169084271200001,2.0151767832,3.50677826,10.41482562,-7.92271272,,,
imu,96.44587,-0.3553027632,-9.254021968800002,2.0863569664,5.52554396,10.54941,-5.216071299999999,,,
imu,96.454277,-0.2578038568000001,-9.470553282400001,2.1431814824,6.87138776,10.20547214,-3.7954584,,,
imu,96.462683,-0.2177276192,-9.6733270816,2.171294664,7.43215601,9.08393564,-3.72816621,,,
imu,96.471089,-0.1686790896,-9.801929933600002,2.1844540256,7.2003718,7.3343387,-4.430995749999999,,,
imu,94.933414,,,,,,,89.08813479999999,-17.96292520000002,118.9042464
imu,95.034946,,,,,,,89.5153868,-17.91409640000001,118.5258232
imu,95.136509,,,,,,,90.08912520000001,-18.07279000000002,118.5258232
imu,95.238071,,,,,,,89.8693956,-17.27932200000002,117.4393824
imu,95.339634,,,,,,,89.75953080000001,-16.9375204,117.8666344
imu,95.441196,,,,,,,92.49394360000001,-16.48585400000002,114.363168
imu,95.550571,,,,,,,90.78493560000001,-15.10644040000002,115.2665008
imu,95.652103,,,,,,,93.6902492,-15.3627916,111.5433048
imu,96.479496,-0.140565908,-9.832435726400002,2.2143616656,6.43772698,4.94920441,-5.72450118,,,
imu,96.487902,-0.1609031032,-9.7995373224,2.1886410952,6.01902002,2.56407012,-7.077821889999999,,,
imu,96.496308,-0.2266999112,-9.6954587352,2.1180590648,5.854528,0.4256738599999998,-7.81055907,,,
imu,96.50477,-0.2739539824000001,-9.599754287200001,2.057645632,6.05640457,-1.413646,-7.4591443,,,
imu,96.513233,-0.3373581792000001,-9.478329268800001,2.0103915608,6.6769881,-2.70715143,-6.360038530000001,,,
imu,96.521695,-0.4037531400000001,-9.4382530312,1.9792876152,7.76114005,-3.41745788,-4.86465653,,,
imu,96.530157,-0.439642308,-9.505246144800001,1.997830352,8.628461609999999,-3.97822613,-3.21225942,,,
imu,96.53862,-0.46356842,-9.630260080000001,1.9673245592,9.525690809999999,-4.0305645,-2.01595382,,,
imu,96.547082,-0.5168040192000001,-9.741516500800001,1.9685208648,10.2659049,-3.76887265,-1.02152479,,,
imu,96.555544,-0.520392936,-9.818678212000002,1.976895004,10.52011984,-3.46231934,-0.26635688,,,
imu,96.564006,-0.4821111568000001,-9.9101955904,1.9852691432,10.43787383,-3.04361238,0.1299193500000002,,,
imu,96.572469,-0.4402404608,-9.962234884,1.9984285048,10.25842799,-2.66976688,-0.03457266999999997,,,
imu,96.580931,-0.3941826952,-9.9718053288,1.9691190176,9.99673614,-2.58752087,-0.8719865899999999,,,
imu,96.589393,-0.3786307224000001,-9.904214062400001,1.902125904,9.630367549999999,-2.22115228,-1.41032411,,,
imu,96.597855,-0.3612842912,-9.831239420800001,1.8799942504,9.22661441,-1.98936807,-1.51500085,,,
imu,96.606318,-0.3307784984000001,-9.752283251200002,1.85427368,8.845291999999999,-1.52579965,-1.42527793,,,
imu,96.61478,-0.340947096,-9.635045302400002,1.827356804,8.583600149999999,-1.04727741,-1.32060119,,,
imu,96.623242,-0.352910152,-9.559678049600002,1.8189826648,8.583600149999999,-0.7033395499999999,-1.26826282,,,
imu,96.631704,-0.3690602776000001,-9.536350090400001,1.7926639416,8.471446499999999,-0.3444478700000002,-1.42527793,,,
imu,96.640167,-0.3882011672000001,-9.571042952800001,1.8177863592,8.33686212,-0.02294074000000013,-2.03090764,,,
imu,96.648629,-0.3146283728000001,-9.6284656216,1.803430692,8.239662289999998,0.1565051,-2.65896808,,,
imu,96.657091,-0.2691687600000001,-9.688280901600002,1.7818971912,7.77609387,0.08921290999999965,-3.22721324,,,
imu,96.665554,-0.2560093984,-9.678710456800001,1.7579710792,7.53683275,-0.43417079,-3.40665908,,,
imu,96.674016,-0.1991848824,-9.572239258400002,1.7358394256,7.4246791,-1.12204651,-3.07767504,,,
imu,96.682478,-0.191408896,-9.5213962704,1.7131096192,7.58917112,-1.69029167,-2.50942988,,,
imu,96.69094,-0.2249054528,-9.502853533600002,1.6473128112,8.29200066,-2.13890627,-1.84398489,,,
imu,96.699403,-0.3236006648,-9.478927421600002,1.6491072696,8.845291999999999,-2.75201289,-1.29817046,,,
imu,96.707862,-0.3606861384,-9.402363863200002,1.606040268,9.31633733,-3.05108929,-0.8046943999999998,,,
imu,96.716322,-0.3367600264,-9.489096019200002,1.6449202,10.10888979,-3.06604311,-0.5355256399999999,,,
imu,96.724782,-0.4922797544,-9.639232372,1.6054421152,10.65470422,-2.93893564,-0.54300255,,,
imu,96.733242,-0.5443190480000001,-9.815687448000002,1.5653658776,11.03602663,-2.49032104,-0.7299252999999999,,,
imu,96.741701,-0.56824516,-10.016068636,1.606040268,11.00611899,-1.86973751,-1.02152479,,,
imu,96.750161,-0.5849934384000001,-10.0555467208,1.632957144,10.44535074,-1.22672325,-1.1037708,,,
imu,96.758621,-0.5694414656000001,-10.0872488192,1.6760241456,9.637844459999998,-0.25472495,-1.1037708,,,
imu,96.76708,-0.5455153536,-10.1554382384,1.5414397656,9.069599299999998,0.7322271699999998,-1.17106299,,,
imu,96.77554,-0.4868963792000001,-10.171588364,1.5264859456,8.00040117,1.36776452,-1.44023175,,,
imu,96.784,-0.4079402096,-10.0537522624,1.4403519424,6.95363377,1.83133294,-1.5523854,,,
imu,96.79246,-0.43366078,-9.893447312000001,1.4068553856,6.19098895,1.84628676,-2.35989168,,,
imu,96.800919,-0.4390441552000001,-9.701440263200002,1.4792318744,5.66760525,1.62197946,-3.30198234,,,
imu,96.809379,-0.4061457512000001,-9.696056888000001,1.4666706656,5.89191255,1.65936401,-3.55619728,,,
imu,96.817839,-0.3636769024000001,-9.791761336000002,1.4158276776,6.25080423,1.31542615,-3.69825857,,,
imu,96.826299,-0.3062542336,-9.959244120000001,1.5868993784,6.1536044,0.9789651999999998,-3.48142818,,,
imu,96.834758,-0.2625890792,-9.9000269928,1.603049504,6.13865058,0.50044296,-2.59167589,,,
imu,96.843218,-0.2733558296,-9.8581562968,1.528280404,6.14612749,-0.01546383000000029,-1.63463141,,,
imu,96.851678,-0.2877114968,-9.853969227200002,1.5061487504,5.95920474,-0.5837089900000003,-0.1990646899999999,,,
imu,96.860137,-0.2619909264,-9.950271828000002,1.603049504,5.34609812,-0.7930624700000002,1.49819388,,,
imu,96.868597,-0.2506260232,-9.9000269928,1.5665621832,4.4339151,-0.88278539,2.91880678,,,
imu,96.877057,-0.1692772424,-9.706823638400001,1.5569917384,3.5366859,-1.2641078,3.28517537,,,
imu,96.885517,-0.251224176,-9.4424401008,1.5815160032,3.11050203,-1.88469133,2.60477656,,,
imu,96.893976,-0.3134320672,-9.259405344000001,1.6126199488,3.30490169,-2.10899863,1.86456247,,,
imu,96.902436,-0.4103328208,-9.214543884000001,1.5097376672,4.30680763,-2.19872155,1.87203938,,,
imu,96.91125,-0.3170209840000001,-9.3210150824,1.3572087032,5.51059014,-2.019275710000001,1.94680848,,,
imu,96.920065,-0.3594898328000001,-9.464571754400001,1.309954632,6.65455737,-2.19124464,1.91690084,,,
imu,96.928879,-0.3307784984000001,-9.5082369088,1.3709662176,7.34991,-2.16881391,1.82717792,,,
imu,96.937693,-0.263187232,-9.5459205352,1.4062572328,8.11255482,-1.79496841,2.09634668,,,
imu,96.946507,-0.266177996,-9.686486443200002,1.4786337216,8.935014919999999,-1.36130763,2.20850033,,,
imu,96.955322,-0.260196468,-9.785181655200002,1.483418944,9.31633733,-1.23420016,2.43280763,,,
imu,96.964136,-0.2195220776,-9.935318008000001,1.4899986248,9.47335244,-1.42112291,3.06086807,,,
imu,96.97295,-0.1483418944,-9.922756799200002,1.5115321256,9.301383509999999,-1.54823038,3.72631306,,,
imu,96.981765,-0.1124527264,-9.967618259200002,1.5067469032,9.25652205,-1.72767622,4.227266029999999,,,
imu,96.990579,-0.09510629520000001,-10.0722949992,1.4529131512,8.88267655,-2.42302885,4.72074209,,,
imu,96.999393,-0.0675912664,-10.1339047376,1.3942941768,8.254616109999999,-2.63985924,5.169356690000001,,,
imu,97.008207,0.0167482784,-10.174579128,1.3685736064,7.41720219,-2.58752087,5.864709319999999,,,
imu,97.017022,0.04486146000000001,-10.2529371448,1.342853036,6.37043479,-3.66419591,6.38061611,,,
imu,97.025836,0.09989151760000002,-10.282246632,1.2423633656,6.05640457,-4.53899438,6.48529285,,,
imu,97.03465,0.09450814240000002,-10.1913274064,1.247148588,5.17412919,-5.45865431,6.32080083,,,
imu,97.043464,0.05562821040000001,-10.1255305984,1.3195250768,3.99277741,-5.95960728,6.51520049,,,
imu,97.052279,0.1178361016,-9.950271828000002,1.2938045064,3.11050203,-5.952130370000001,6.896522900000001,,,
imu,97.061093,0.08733030880000002,-9.881484256,1.2369799904,2.66188743,-6.325975870000001,6.73203088,,,
imu,97.069907,0.0173464312,-9.847389546400002,1.2064741976,2.21327283,-6.632529180000001,6.216124090000001,,,
imu,97.078722,0.0227298064,-9.849184004800001,1.15144414,2.02635008,-6.17643767,6.522677400000001,,,
imu,97.087536,0.07118018320000001,-9.8617452136,1.1329014032,2.08616536,-5.85493054,7.01615346,,,
imu,97.09635,0.1118545736,-9.815687448000002,1.1269198752,2.12354991,-5.451177400000001,6.85913835,,,
imu,97.105164,0.1453511304,-9.773816752000002,1.1167512776,2.34785721,-4.965178249999999,7.03858419,,,
imu,97.113642,0.2159331608,-9.802528086400002,1.1233309584,2.51982614,-4.64367112,7.1208302,,,
imu,97.122119,0.2566075512,-9.800135475200001,1.109573444,2.67684125,-4.18757961,7.03858419,,,
imu,97.130597,0.3929863896,-9.812696684000002,1.1257235696,2.60207215,-4.04551832,6.5974465,,,
imu,97.139074,0.424688488,-9.772620446400001,1.1598182792,2.19831901,-4.2548718,5.692740389999999,,,
imu,97.147552,0.4348570856000001,-9.635643455200002,1.1986982112,2.03382699,-4.71844022,5.04972613,,,
imu,97.15603,0.4073420568000001,-9.469356976800002,1.208268656,2.12354991,-5.226870099999999,4.04034328,,,
imu,97.164507,0.352910152,-9.364680236800002,1.1215365,2.46001086,-5.61566942,3.03843734,,,
imu,97.172985,0.3355637208,-9.5249851872,1.1131623608,3.43948607,-5.87736127,1.99166994,,,
imu,97.181462,0.266177996,-9.689477207200001,1.160416432,4.09745415,-5.996991830000001,1.01967164,,,
imu,97.18994,0.2542149400000001,-9.828248656800001,1.2315966152,3.9853005,-5.86988436,0.72807215,,,
imu,97.198417,0.2368685088,-9.853371074400002,1.2256150872,3.3123786,-5.780161440000001,0.6533030499999999,,,
imu,97.206895,0.2308869808,-9.765442612800001,1.2495411992,2.85628709,-5.68296161,0.3916112000000003,,,
imu,97.215372,0.2135405496,-9.8563618384,1.2812432976,2.79647181,-5.21939319,0.2121653600000002,,,
imu,97.22385,0.2386629672,-9.917373424,1.3117490904,2.39271867,-4.71096331,0.4663803,,,
imu,97.232327,0.2500278704,-9.938906924800001,1.3464419528,1.68988913,-4.35207163,1.03462546,,,
imu,97.240805,0.2494297176,-9.953262592000002,1.312945396,0.9945364999999999,-3.86607248,1.14677911,,,
imu,97.249282,0.2679724544000001,-10.045976276,1.3613957728,0.07487657,-3.5819499,1.01219473,,,
imu,97.25776,0.2918985664000001,-10.0591356376,1.1969037528,-0.62047606,-3.52961153,0.7131183299999999,,,
imu,97.266237,0.3170209840000001,-9.931729091200001,1.3290955216,-1.54013599,-3.5819499,0.1673038999999998,,,
imu,97.274715,0.3164228312,-9.797144711200001,1.2776543808,-1.86912003,-3.29035041,-0.2813106999999999,,,
imu,97.283192,0.3564990688,-9.739123889600002,1.3296936744,-1.87659694,-3.19315058,0.0177657,,,
imu,97.29167,0.3612842912,-9.664952942400001,1.348834564,-1.43545925,-2.96136637,0.1747808100000001,,,
imu,95.753918,,,,,,,91.55398919999999,-14.78905320000001,114.9979424
imu,95.855481,,,,,,,90.96804359999999,-15.64355720000001,117.7079408
imu,95.957043,,,,,,,90.7971428,-16.03418760000002,117.0609592
imu,96.058636,,,,,,,89.73511640000001,-16.03418760000002,116.8900584
imu,96.160199,,,,,,,88.28245960000001,-16.43702520000001,116.682536
imu,96.261731,,,,,,,88.03831559999999,-16.52247560000002,116.1820408
imu,96.363324,,,,,,,86.4391724,-16.33936760000001,116.4139776
imu,96.464856,,,,,,,88.1603876,-17.14504280000002,115.950104
imu,97.300148,0.3732473472,-9.5985579816,1.3745551344,-0.63542988,-2.4604134,0.5710570399999999,,,
imu,97.308625,0.334965568,-9.718786694400002,1.3243102992,0.12721494,-2.18376773,1.0645331,,,
imu,97.31709,0.4001642232,-9.788770572,1.336871508,0.50853735,-1.8622606,1.44585551,,,
imu,97.325555,0.442633072,-9.899428840000002,1.3673773008,0.68050628,-1.712722400000001,1.77483955,,,
imu,97.33402,0.4641665728000001,-9.8061170032,1.4403519424,0.44872207,-1.70524549,1.94680848,,,
imu,97.342484,0.5329541448,-9.815687448000002,1.4576983736,0.09730729999999999,-1.77253768,2.50009982,,,
imu,97.350949,0.6304530512000001,-10.045976276,1.7149040776,-0.56066078,-2.07161408,2.8589915,,,
imu,97.359414,0.646005024,-9.766638918400002,1.3984812464,-1.19619813,-2.34078284,3.1580679,,,
imu,97.367879,0.7094092208000001,-9.6709344704,1.417622136,-1.55508981,-3.25296586,2.86646841,,,
imu,97.376344,0.6597625384000001,-9.606932120800002,1.348834564,-1.59995127,-3.93336467,2.53748437,,,
imu,97.384808,0.6998387760000001,-9.547116840800001,1.327899216,-1.57752054,-4.66610185,2.40289999,,,
imu,97.393273,0.7967395296000002,-9.4699551296,1.354816092,-1.30835178,-5.08480881,2.50009982,,,
imu,97.401738,0.7189796656000002,-9.524387034400002,1.4678669712,-0.97189083,-5.76520762,2.84403768,,,
imu,97.410203,0.8691160184000001,-9.305463109600002,1.3596013144,-0.15690764,-6.2736375,3.12816026,,,
imu,97.418668,0.8762938520000002,-9.4555994624,1.3494327168,1.00949032,-6.804498110000001,3.50200576,,,
imu,97.427132,0.8954347416000001,-9.603343204000002,1.3117490904,1.89924261,-7.589573659999999,3.99548182,,,
imu,97.435508,0.9558481744000001,-9.630858232800001,1.3572087032,2.27308811,-8.26249556,4.339419680000001,,,
imu,97.443972,0.9977188704000002,-9.606932120800002,1.3691717592,2.51234923,-8.98775583,4.30951204,,,
imu,97.452437,1.004896704,-9.631456385600002,1.3703680648,2.87871782,-9.7877852,4.466527149999999,,,
imu,97.460902,1.0174579128,-9.6290637744,1.348834564,3.39462461,-10.385938,4.75812664,,,
imu,97.469367,0.9977188704000002,-9.6075302736,1.3410585776,3.77594702,-10.96166007,4.67588063,,,
imu,97.477832,1.0210468296,-9.655980650400002,1.3590031616,4.03016196,-11.27569029,4.72074209,,,
imu,97.486297,1.1179475832,-9.794153947200002,1.3625920784,4.06754651,-11.73925871,4.78803428,,,
imu,97.494761,1.1747720992,-9.8880639368,1.4050609272,3.76847011,-12.56919572,4.511388609999999,,,
imu,97.503226,1.2286058512,-9.915578965600002,1.411640608,3.06564057,-13.72811677,4.1300662,,,
imu,97.511691,1.2106612672,-9.929336480000002,1.3954904824,2.28056502,-15.05152984,4.316988950000001,,,
imu,97.520152,1.1717813352,-9.892849159200003,1.3793403568,1.6674584,-16.18802016,4.59363462,,,
imu,97.528613,1.1675942656,-9.824659740000001,1.3889108016,1.35342818,-16.99552644,5.08711068,,,
imu,97.537074,1.1358921672,-9.803126239200001,1.3434511888,1.20388998,-17.73574053,5.49086382,,,
imu,97.545535,1.1101715968,-9.7815927384,1.336871508,1.06182869,-18.48343153,5.61797129,,,
imu,97.553996,1.0509544696,-9.668541859200001,1.3284973688,1.0693056,-19.20121489,5.281510340000001,,,
imu,97.562457,1.03181358,-9.6224840936,1.3422548832,1.368382,-19.70964477,4.8029881,,,
imu,97.570918,1.0443747888,-9.660765872800003,1.3392641192,1.63755076,-20.36761285,3.67397469,,,
imu,97.579379,0.9642223136000001,-9.686486443200002,1.3590031616,1.99644244,-20.80127363,2.50757673,,,
imu,97.58784,0.9749890640000002,-9.6846919848,1.3733588288,2.09364227,-21.11530385,1.37108641,,,
imu,97.596301,1.007887468,-9.702636568800001,1.387714496,2.2656112,-21.26484205,0.5336724899999998,,,
imu,97.604762,1.0252338992,-9.693066124000001,1.3613957728,2.3403803,-21.56391845,-0.40841817,,,
imu,97.613223,1.1107697496,-9.678710456800001,1.3554142448,2.2656112,-21.96019468,-1.22340136,,,
imu,97.621684,1.2136520312,-9.669140012000002,1.3769477456,2.19831901,-22.62563967,-1.81407725,,,
imu,97.630145,1.2734673112,-9.7151977776,1.396686788,2.28804193,-23.62754561,-2.15801511,,,
imu,97.638606,1.2704765472,-9.776807516000002,1.3733588288,2.34785721,-25.07058924,-1.96361545,,,
imu,97.647067,1.2746636168,-9.770825988000002,1.3464419528,2.51234923,-26.49867905,-1.26078591,,,
imu,97.655528,1.274065464,-9.655980650400002,1.3506290224,2.48244159,-27.8071383,-0.7224483899999998,,,
imu,97.663989,1.1927166832,-9.5740337168,1.372760676,2.49739541,-29.09316682,-0.46075654,,,
imu,97.67245,1.1131623608,-9.589585689600002,1.3703680648,2.75908726,-30.47639517,-0.54300255,,,
imu,97.680911,1.1759684048,-9.624278552000002,1.3631902312,2.83385636,-31.6951315,-0.77478676,,,
imu,97.689372,1.2256150872,-9.631456385600002,1.384723732,2.93105619,-32.92882165,-1.07386316,,,
imu,97.697833,1.2010908224,-9.679308609600001,1.3835274264,3.12545585,-34.37186528,-1.3280781,,,
imu,97.706294,1.1412755424,-9.70502918,1.3865181904,3.24508641,-35.97192402,-1.54490849,,,
imu,97.714755,1.0192523712,-9.70502918,1.4062572328,3.25256332,-37.34019855,-1.38041647,,,
imu,97.723243,0.9935318008000001,-9.722375611200002,1.396686788,3.282470959999999,-38.11779719,-1.07386316,,,
imu,97.73173,0.9612315496000001,-9.783387196800001,1.3841255792,3.41705534,-38.74585763,-0.6476792899999999,,,
imu,97.740218,1.004896704,-9.788770572,1.3841255792,3.4619168,-39.10474931,-0.5654332799999999,,,
imu,97.748706,1.1017974576,-9.737329431200001,1.3924997184,3.43200916,-39.87487104,-0.5280487299999999,,,
imu,97.757193,1.139481084,-9.6709344704,1.4289870392,3.59650118,-40.86930007,-0.4757103599999999,,,
imu,97.765681,1.1430700008,-9.638036066400002,1.456502068,3.84323921,-42.17775932,-0.6102947399999998,,,
imu,97.774169,1.1478552232,-9.6523917336,1.4469316232,4.0600696,-43.54603385,-0.9318018699999999,,,
imu,97.782657,1.160416432,-9.638036066400002,1.4343704144,4.30680763,-44.6301858,-1.18601681,,,
imu,97.791144,1.2304003096,-9.632054538400002,1.4433427064,4.56849948,-45.77415303,-1.5523854,,,
imu,97.799632,1.2034834336,-9.633250844,1.46547436,4.77785296,-47.16485829,-1.99352309,,,
imu,97.80812,1.2573171856,-9.6817012208,1.4523149984,4.90496043,-48.69762484,-2.27016876,,,
imu,97.816607,1.2704765472,-9.673925234400002,1.4283888864,4.86757588,-50.36497577,-2.33746095,,,
imu,97.825095,1.1939129888,-9.596165370400001,1.4319778032,4.77037605,-52.34635692,-2.71130645,,,
imu,97.833583,1.130508792,-9.623680399200001,1.4541094568,4.54606875,-54.24549206,-2.85336774,,,
imu,97.84207,1.1759684048,-9.6817012208,1.4259962752,4.33671527,-56.00256591,-2.62158353,,,
imu,97.850558,1.2130538784,-9.743310959200002,1.4439408592,4.29933072,-57.81945504,-2.47952224,,,
imu,97.859046,1.3081601736,-9.7403201952,1.4941856944,3.947915950000001,-60.09991259,-2.46456842,,,
imu,97.867534,1.4600909848,-9.764246307200002,1.5234951816,3.58154736,-62.73178490999999,-2.16549202,,,
imu,97.876021,1.5145228896,-9.858754449600001,1.5217007232,3.02077911,-66.07396367999999,-1.87389253,,,
imu,97.884509,1.447529776,-9.8647359776,1.4911949304,2.28804193,-69.64792666,-1.38041647,,,
imu,97.892997,1.2991878816,-9.847389546400002,1.4559039152,1.52539711,-73.04992071,-1.03647861,,,
imu,97.901484,1.214250184,-9.746899876,1.4134350664,1.03939796,-75.86871577999999,-0.4458027199999999,,,
imu,97.909972,0.9295294512000001,-9.562668813600002,1.396686788,0.83004448,-78.37348062999999,-0.4458027199999999,,,
imu,97.91846,0.4928779072000001,-9.4555994624,1.3530216336,1.33099745,-80.03335464999999,-1.03647861,,,
imu,97.927286,0.1070693512,-9.4077472384,1.342853036,2.68431816,-79.90624718,-1.35050883,,,
imu,97.936112,-0.3301803456000001,-9.422701058400001,1.4080516912,4.25446926,-77.90991220999999,-1.253309,,,
imu,97.944938,-0.6729219000000001,-9.4173176832,1.3835274264,5.94425092,-74.26865704,-0.93927878,,,
imu,97.953765,-0.9731946056000002,-9.367072848000001,1.3356752024,7.55178657,-69.06472767999999,-0.63272547,,,
imu,97.962591,-1.2447559768,-9.2755554696,1.4188184416,8.800430539999999,-62.73178490999999,-0.4831872699999999,,,
imu,97.971417,-1.4379593312,-9.352717180800001,1.4911949304,10.1911358,-55.59881277,-0.77478676,,,
imu,97.980243,-1.6634629368,-9.591978300800001,1.5288785568,11.17808792,-47.71067272,-1.07386316,,,
imu,97.98907,-1.9368187664,-9.809107767200002,1.5055505976,12.05288639,-39.20194914,-1.74678506,,,
imu,97.997896,-2.2203431936,-9.889260242400002,1.4588946792,12.4342088,-29.72870417,-2.83841392,,,
imu,98.006722,-2.473361828,-9.8013317808,1.4666706656,12.3594397,-18.99933832,-4.102011709999999,,,
imu,98.015548,-2.5923942352,-9.693066124000001,1.4158276776,12.52393172,-6.871790300000001,-5.01419473,,,
imu,98.024374,-2.545140164,-9.667943706400001,1.3195250768,12.99497705,5.5398803,-6.00114685,,,
imu,98.033201,-2.4231169928,-9.688879054400001,1.229204004,13.06974615,17.62256686,-7.384375199999999,,,
imu,98.042027,-2.2891307656,-9.645213900000002,1.1568275152,13.0323616,29.00242388,-9.12649523,,,
imu,98.050853,-2.0564493264,-9.787574266400002,1.1358921672,13.33891491,39.91123557,-10.50972358,,,
imu,98.059679,-1.8865739312,-9.844996935200001,1.0264302048,13.44359165,49.86300278,-12.04996704,,,
imu,98.068505,-1.82436604,-9.894045464800001,1.0013077872,13.64546822,58.89511005999999,-13.92667145,,,
imu,98.077332,-1.7262689808,-9.934719855200001,0.9115848672000001,13.59312985,67.6730024,-15.93048333,,,
imu,98.086158,-1.5414397656,-9.943692147200002,0.8212637944000001,13.39873019,76.39855637000001,-17.6277419,,,
imu,98.094984,-1.3853218848,-10.0244427752,0.6902683312000001,13.01740778,84.81008012000001,-19.21284682,,,
imu,98.10381,-1.3685736064,-10.0507614984,0.6382290376000002,12.55383936,92.61597416000001,-20.57364444,,,
imu,98.112637,-1.5085413616,-10.07887468,0.6226770648,12.50150099,100.50411421,-21.5157351,,,
imu,96.566418,,,,,,,84.9376868,-17.26711480000001,118.086364
imu,96.668011,,,,,,,88.53881080000001,-18.23148360000002,115.766996
imu,96.769543,,,,,,,85.987506,-17.79202440000001,119.4779848
imu,96.871106,,,,,,,86.6222804,-18.53666360000001,117.3783464
imu,96.972668,,,,,,,86.8175956,-19.25688840000002,120.1249664
imu,97.074231,,,,,,,87.208226,-19.22026680000002,119.2094264
imu,97.175793,,,,,,,87.92845080000001,-18.69535720000002,120.2104168
imu,97.277356,,,,,,,88.09935159999999,-18.14603320000001,119.2094264
imu,98.121463,-1.3924997184,-10.2517408392,0.4079402096,12.5089779,108.85582268,-22.58493323,,,
imu,98.129919,-1.295000812,-10.2409740888,0.2440463424,11.73885617,117.5439921,-23.47468552,,,
imu,98.138375,-1.0922270128,-10.1045952504,0.1638938672,10.68461186,125.73120855,-24.30462253,,,
imu,98.14683,-0.8643307960000001,-10.028031692,0.062806044,9.809813389999999,132.98381125,-24.90277533,,,
imu,98.155286,-0.5658525488000001,-9.9933388296,-0.05861897440000001,9.40606025,139.15973891,-24.97006752,,,
imu,98.163742,-0.161501256,-9.911990048800002,-0.0933118368,9.039691659999999,144.1617917,-24.91025224,,,
imu,98.172198,0.2039701048,-9.910793743200001,-0.0855358504,8.87519964,147.65350867,-24.66351421,,,
imu,98.180654,0.5945638832000001,-10.0501633456,-0.2171294664,8.7705229,149.53021308,-23.9831154,,,
imu,98.18911,0.8990236584000001,-10.060930096,-0.2249054528,7.96301662,149.40310561,-22.70456379,,,
imu,98.197566,1.1981000584,-10.0950248056,-0.2476352592,6.76671102,147.66846249,-21.26899707,,,
imu,98.206022,1.3201232296,-10.1219416816,-0.2117460912,5.59283615,144.40105282,-19.75118434,,,
imu,98.214478,1.3745551344,-10.022050164,-0.1579123392,4.25446926,140.29622923,-18.42777127,,,
imu,98.222934,1.4947838472,-9.889260242400002,-0.1160416432,2.96096383,135.66802194,-17.35857314,,,
imu,98.23139,1.6814075208,-9.8461932408,-0.0502448352,2.00391935,130.68839988,-16.98472764,,,
imu,98.239846,2.2963085992,-9.911391896000003,0.0681894192,1.00949032,124.81154862,-16.94734309,,,
imu,98.248301,3.1600412424,-9.980179468000001,0.1740624648,0.33656842,116.66171672,-16.42395939,,,
imu,98.256757,3.8413372816,-10.0681079296,0.2590001624000001,-0.29149202,104.71361454,-15.77346822,,,
imu,98.265213,4.0590649008,-10.0441818176,0.4127254320000001,-1.2485365,89.80465600000001,-14.9360543,,,
imu,98.273669,4.138619223200001,-9.976590551200001,0.5610673264,-2.20558098,73.74425332,-12.36399726,,,
imu,98.282125,4.0800002488,-9.977786856800002,0.6741182056000001,-3.028041079999999,57.48945097999999,-9.575109829999999,,,
imu,98.290581,3.8245890032,-10.022050164,0.723764888,-3.79816281,41.45147902999999,-7.44419048,,,
imu,98.299037,3.514147700000001,-9.982572079200002,0.7770004872000001,-4.73277656,26.31073628,-5.37308641,,,
imu,98.307493,3.1648264648,-9.959244120000001,0.8427972952,-5.40569846,12.82986755,-3.36179762,,,
imu,98.315949,2.6821171552,-10.0136760248,0.9020144224000001,-6.071143449999999,0.8294269999999999,-1.73930815,,,
imu,98.324405,2.3094679608,-10.0621264016,0.8918458248000001,-6.78892681,-9.25692459,-0.5803870999999998,,,
imu,98.332857,2.1132738424,-10.0477707344,0.8816772272000001,-7.304833599999999,-18.02734002,-0.2813106999999999,,,
imu,98.341309,2.087553272,-9.960440425600002,0.8768920048000002,-7.57400236,-26.36409467,-1.3280781,,,
imu,98.349761,2.0678142296,-9.696056888000001,0.8200674888,-7.23754141,-34.67094168,-3.06272122,,,
imu,98.358213,1.9691190176,-9.463973601600001,0.7207741240000002,-6.50480423,-42.92545032,-4.8422258,,,
imu,98.366665,1.7268671336,-9.288714831200002,0.6914646368,-5.51785211,-50.97808239,-6.52453055,,,
imu,98.375117,1.4158276776,-9.267779483200002,0.6765108168000001,-4.26173123,-57.84188577,-7.496528849999999,,,
imu,98.383569,1.1149568192,-9.367072848000001,0.6400234960000001,-2.63924176,-63.34489153000001,-7.61615941,,,
imu,98.392021,0.7823838624,-9.481918185600001,0.6477994824000001,-1.27844414,-67.83103752999999,-7.563821040000001,,,
imu,98.400474,0.3720510416,-9.499862769600002,0.6836886504,-0.39616876,-71.15826247999999,-7.30212919,,,
imu,98.408926,-0.0693857248,-9.486703408,0.7261574992000001,0.26179932,-73.10973598999999,-7.43671357,,,
imu,98.417378,-0.5132151024,-9.5949690648,0.7913561544000001,1.1440747,-73.31908947,-7.541390310000001,,,
imu,98.42583,-0.8685178656000001,-9.748096181600001,0.7925524600000001,1.94410407,-71.95081493999999,-7.39185211,,,
imu,98.434282,-1.1735757936,-9.869521200000003,0.8164785720000002,2.39271867,-69.38623480999999,-7.41428284,,,
imu,98.442734,-1.3625920784,-9.8270523512,0.8021229048,2.76656417,-65.63282598999999,-7.39932902,,,
imu,98.451186,-1.5689547944,-9.686486443200002,0.8284416280000001,2.95348692,-61.14667999,-7.04791425,,,
imu,98.459638,-1.746606176,-9.655382497600002,0.8565548096000002,3.57407045,-55.57638204,-6.08339286,,,
imu,98.46809,-1.9176778768,-9.731946056000002,0.8625363376,4.29933072,-49.66962314,-4.81231816,,,
imu,98.476542,-2.2077819848,-9.820472670400001,0.9091922560000001,4.62083785,-43.32172655,-4.102011709999999,,,
imu,98.484994,-2.5768422624,-9.904214062400001,0.9319220624000001,4.99468335,-35.71023217,-3.25712088,,,
imu,98.493447,-3.0523737384,-9.9753942456,1.0042985512,5.1816061,-26.85757073,-2.77859864,,,
imu,98.501899,-3.361020583200001,-9.935916160800002,0.8649289488,5.21899065,-16.08334342,-2.80850628,,,
imu,98.510351,-3.591907564,-9.8713156584,0.8218619472,4.97225262,-3.90345703,-3.36927453,,,
imu,98.518803,-3.6475357744,-9.849184004800001,0.8128896552000001,4.60588403,9.15122783,-3.95247351,,,
imu,98.527179,-3.4836419072,-9.8820824088,0.7548688336000001,4.1348387,22.49003527,-4.92447181,,,
imu,98.535658,-3.1947341048,-9.880886103200002,0.7297464160000001,3.74603938,35.48490485,-5.55253225,,,
imu,98.544137,-2.8579740784,-9.900625145600001,0.6866794144,3.64136264,47.67226814999999,-5.38056332,,,
imu,98.552616,-2.473959980800001,-9.986160996000002,0.6358364264000002,3.60397809,58.61846439,-4.81231816,,,
imu,98.561094,-2.089347730400001,-10.0746876104,0.6483976352,3.282470959999999,67.68795622,-4.55810322,,,
imu,98.569573,-1.698753952,-10.0896414304,0.6262659816,2.75161035,75.13495858,-4.85717962,,,
imu,98.578052,-1.3643865368,-10.0902395832,0.6232752176,2.04878081,80.99685602000001,-5.22354821,,,
imu,98.586531,-1.1502478344,-10.0603319432,0.5664507016000001,1.33847436,85.46057129,-5.75440882,,,
imu,98.59501,-0.9157719368000001,-9.977188704000001,0.5030465048,0.63564482,89.17659556000001,-6.666591840000001,,,
imu,98.603488,-0.6047324808000001,-9.892251006400002,0.4671573368000001,-0.05970781,91.88323698,-7.13016026,,,
imu,98.611967,-0.3559009160000001,-9.862343366400001,0.4175106544000001,-0.5681376899999999,93.44591117,-7.61615941,,,
imu,98.620446,-0.1626975616,-9.783985349600002,0.3870048616000001,-1.0242292,93.99920251,-7.975051089999999,,,
imu,98.628925,0.07775986400000001,-9.6775141512,0.3732473472,-1.01675229,93.90200268000001,-8.16197384,,,
imu,98.637404,0.34393786,-9.633848996800001,0.3720510416,-0.85973718,92.9449582,-8.4311426,,,
imu,98.645882,0.4809148512,-9.613511801600001,0.4270810992000001,-0.5008455,91.11311525,-8.939572479999999,,,
imu,98.654361,0.5102243384,-9.766040765600001,0.5030465048,-0.13447691,88.65321186,-9.19378742,,,
imu,98.66284,0.5748248408000001,-9.874306422400002,0.5676470072,-0.11204618,86.13349319000001,-9.16387978,,,
imu,98.671319,0.726755652,-9.902419604000002,0.5431227424,-0.64290679,83.83808182,-9.31341798,,,
imu,98.679798,0.8254508640000001,-9.898830687200002,0.5700396184000001,-1.23358268,81.07910203,-9.64987893,,,
imu,98.688276,0.8451899064,-9.866530436000001,0.5891805080000001,-1.622382,78.42479898,-9.99381679,,,
imu,98.696755,0.9193608536000001,-9.8982325344,0.6107140088,-2.07847351,75.45646571,-9.50034073,,,
imu,98.705234,1.0246357464,-9.920364188,0.6101158560000001,-2.6691494,72.54047081,-8.894711019999999,,,
imu,98.713713,1.1047882216,-9.9000269928,0.6388271904000001,-3.1925331,69.01136929,-8.73769591,,,
imu,98.722192,1.130508792,-9.914382660000001,0.7153907488000001,-3.58133242,65.00374553,-8.62554226,,,
imu,98.73067,1.262102408,-9.9688145648,0.7488873056,-3.77573208,61.08584468999999,-7.96009727,,,
imu,98.739119,1.4810263328,-9.982572079200002,0.7764023344000002,-4.02994702,56.56231414,-7.32455992,,,
imu,98.747567,1.65987402,-9.892251006400002,0.7566632920000002,-4.02247011,51.02192383,-6.988098969999999,,,
imu,98.756015,1.8219734288,-9.817481906400001,0.8098988912000001,-4.276685049999999,44.38990466,-6.85351459,,,
imu,98.764464,2.0480751872,-9.8228652816,0.8846679912000001,-4.418746339999999,37.40647071999999,-6.25536179,,,
imu,98.772912,2.2376896248,-9.849184004800001,0.8858642968000001,-4.157054489999999,29.44356157,-5.350655679999999,,,
imu,98.78136,2.3160476416,-9.7337405144,0.840404684,-3.97013174,20.71053069,-4.18425772,,,
imu,98.789808,2.3094679608,-9.543527924000001,0.8302360864000001,-3.54394787,11.63356195,-2.74121409,,,
imu,98.798257,2.174285428,-9.459786532,0.8212637944000001,-2.63176485,2.63883922,-0.8794635,,,
imu,98.806705,2.1377981072,-9.553696521600001,0.8356194616000001,-1.53265908,-6.146530029999999,1.04210237,,,
imu,98.815153,2.1605279136,-9.6709344704,0.8140859608000002,-0.47841477,-14.41599249,2.35803853,,,
imu,98.823601,2.0923384944,-9.696056888000001,0.8075062800000001,0.40386061,-22.66302422,3.53939031,,,
imu,98.83205,1.9404076832,-9.699645804800001,0.8009265992000001,1.16650543,-30.93996359,4.4291426,,,
imu,98.840498,1.7693359824,-9.630260080000001,0.7548688336000001,2.01139626,-38.75333454,5.124495229999999,,,
imu,98.848946,1.6036476568,-9.645213900000002,0.7644392784,2.43758013,-45.78910685,5.75255567,,,
imu,98.857395,1.3972849408,-9.610521037600002,0.7309427216000001,3.0133022,-52.06223434,6.05910898,,,
imu,98.865843,1.1711831824,-9.667345553600002,0.6950535536000001,3.88062376,-57.09419477,6.88904599,,,
imu,98.874291,0.9731946056000002,-9.668541859200001,0.6436124128,4.61336094,-61.55791004,7.569444800000001,,,
imu,98.882739,0.8188711832000002,-9.633848996800001,0.6065269392000001,5.44329795,-65.07953465,8.204982150000001,,,
imu,98.891188,0.6358364264000002,-9.673925234400002,0.5993491056000001,6.25080423,-67.66654550999999,8.60125838,,,
imu,98.899636,0.4677554896000001,-9.7193848472,0.6089195504,7.07326433,-69.74512648999999,8.25732052,,,
imu,98.908084,0.3164228312,-9.752283251200002,0.6125084672000001,7.68637095,-71.21060084999999,7.554490980000001,,,
imu,98.916533,0.167482784,-9.8013317808,0.6005454112,8.277046839999999,-72.19007606,6.657261780000001,,,
imu,98.924981,0.0251224176,-9.805518850400002,0.6059287864000001,8.501354139999998,-72.63869066,5.73012494,,,
imu,97.378832,,,,,,,88.80736920000001,-17.93851080000002,119.185012
imu,97.480425,,,,,,,89.4177292,-17.7309884,119.6610928
imu,97.581957,,,,,,,92.77470919999999,-18.20706920000001,118.5380304
imu,97.68352,,,,,,,91.66385400000001,-17.6333308,120.5766328
imu,97.785082,,,,,,,95.9119596,-18.37797000000001,117.6957336
imu,97.886645,,,,,,,95.25277080000001,-17.90188920000002,120.1127592
imu,97.988207,,,,,,,99.02479559999999,-18.12161880000001,116.9022656
imu,98.0898,,,,,,,100.2455156,-19.03715880000001,118.8310032
imu,98.933429,-0.1309954632,-9.776209363200001,0.6196863008000001,8.59107706,-72.25736825,4.60858844,,,
imu,98.94225,-0.3008708584000001,-9.797742864000002,0.5772174520000001,8.70323071,-71.12835483999999,3.42723666,,,
imu,98.951071,-0.4713444064,-9.876699033600001,0.5395338256000001,8.501354139999998,-69.46100390999999,1.93933157,,,
imu,98.959892,-0.6166955368000001,-9.897036228800001,0.5766192992000001,7.98544735,-67.18054636,0.7205952400000002,,,
imu,98.968713,-0.7692245008,-9.851576616000001,0.6382290376000002,7.58169421,-64.34679747,-0.3336490699999999,,,
imu,98.977534,-0.8601437264,-9.874306422400002,0.6430142600000001,7.21532562,-61.08686470999999,-1.35798574,,,
imu,98.986355,-0.9295294512000001,-9.962234884,0.6394253432000001,6.81904939,-57.45308645,-2.50942988,,,
imu,98.995176,-1.1675942656,-10.0238446224,0.6986424704000002,6.34052715,-53.53518561,-3.45152054,,,
imu,99.003996,-1.612021796,-10.2032904624,0.8021229048,5.54797469,-48.69762484,-4.430995749999999,,,
imu,99.012817,-1.946987364,-10.30318198,0.8021229048,4.31428454,-42.07308258,-4.84970271,,,
imu,99.021638,-2.3280106976,-10.3653898712,0.8362176144000002,2.45253395,-34.06531197,-5.82170101,,,
imu,99.030459,-2.6270870976,-10.3683806352,0.8146841136000001,0.21693786,-24.4425288,-7.44419048,,,
imu,99.03928,-2.7580825608,-10.294209688,0.7381205552000002,-1.82425857,-13.53371711,-8.99938776,,,
imu,99.048101,-2.701856197600001,-10.2391796304,0.6986424704000002,-3.73834753,-2.09404481,-10.27046246,,,
imu,99.056922,-2.578636720800001,-10.084856208,0.6711274416,-5.271114079999999,9.36805822,-11.67612154,,,
imu,99.065743,-2.425509604,-9.956253356,0.6651459136000001,-6.048712719999999,19.98527042,-12.76027349,,,
imu,99.074564,-2.1778743448,-9.852174768800001,0.6005454112,-6.145912549999999,29.5407614,-13.50048758,,,
imu,99.083385,-1.98885806,-9.8946436176,0.6687348304,-6.09357418,38.1392079,-13.91919454,,,
imu,99.092205,-1.7830934968,-9.851576616000001,0.6065269392000001,-5.7346825,45.70584082,-14.05377892,,,
imu,99.101026,-1.588095684,-9.904214062400001,0.5592728680000001,-5.390744639999999,52.35281380999999,-14.24817858,,,
imu,99.109847,-1.3799385096,-9.937112466400002,0.5257763112000001,-5.600098119999999,58.0277885,-14.4874397,,,
imu,99.118668,-1.1616127376,-9.869521200000003,0.5873860496000001,-6.05618963,62.69338034,-14.76408537,,,
imu,99.127489,-0.9666149248000001,-9.803724392000001,0.6178918424000002,-6.594527149999999,66.43931225,-15.34728435,,,
imu,99.13631,-0.7405131664000002,-9.805518850400002,0.5921712720000001,-6.81883445,69.51979917,-15.84076041,,,
imu,99.144785,-0.5467116592000001,-9.837220948800002,0.5664507016000001,-7.03566484,71.73296453,-15.88562187,,,
imu,99.15326,-0.3218062064,-9.803126239200001,0.5796100632000001,-7.28987978,73.16853125,-15.35476126,,,
imu,99.161735,-0.1184342544,-9.800733628000001,0.6077232448000001,-7.446894889999999,73.63957658,-14.50987043,,,
imu,99.17021,0.1423603664,-9.769031529600001,0.5987509528,-7.43194107,73.31806945000001,-13.61264123,,,
imu,99.178685,0.3247969704000001,-9.7510869456,0.6466031768,-7.207633769999999,72.09933312,-13.18645736,,,
imu,99.18716,0.3732473472,-9.780396432800002,0.6812960392000001,-6.88612664,69.99832141,-13.0668268,,,
imu,99.195635,0.382817792,-9.832435726400002,0.7411113192000001,-6.46741968,67.41878746,-12.62568911,,,
imu,99.20411,0.4181088072000001,-9.890456548000001,0.70282954,-6.29545075,64.95140716,-12.55839692,,,
imu,99.212585,0.4175106544000001,-9.897634381600001,0.7411113192000001,-6.45994277,62.49150376999999,-12.58830456,,,
imu,99.22106,0.3947808480000001,-9.844996935200001,0.7883653904000001,-6.736588439999999,60.00169274,-12.43128945,,,
imu,99.229535,0.4288755576000001,-9.856959991200002,0.7883653904000001,-6.7066808,57.42215879,-11.87799811,,,
imu,99.23801,0.4623721144,-9.848585852000001,0.7973376824000001,-6.669296249999999,54.83514793,-11.39199896,,,
imu,99.246485,0.5180003248000001,-9.802528086400002,0.8505732816000001,-6.42255822,52.20327561,-10.87609217,,,
imu,99.25496,0.5909749664,-9.810902225600001,0.8984255056000002,-6.407604399999999,49.14521942,-10.42000066,,,
imu,99.263435,0.6783052752000002,-9.895241770400002,0.9193608536000001,-6.30292766,45.92267121,-9.814370949999999,,,
imu,99.27191,0.7578595976000001,-9.953262592000002,0.9343146736000002,-6.28049693,42.19917003,-9.47791,,,
imu,99.280385,0.8248527112,-9.932327244000001,0.9743909112000002,-6.519758049999999,38.13173098999999,-9.00686467,,,
imu,99.28886,0.9295294512000001,-9.896438076,1.025832052,-6.759019169999999,33.78764628,-8.3563735,,,
imu,99.297335,1.0102800792,-9.886269478400003,1.0563378448,-6.79640372,28.9426086,-7.74326688,,,
imu,99.30581,1.055739692,-9.8916528536,1.0982085408,-6.968372649999999,23.80597143,-7.02548352,,,
imu,99.314285,1.0898344016,-9.855763685600001,1.1113679024,-7.07304939,18.52727297,-6.30770016,,,
imu,99.32276,1.127518028,-9.8013317808,1.1299106392,-7.29735669,13.05417485,-5.26840967,,,
imu,99.331235,1.1227328056,-9.745703570400002,1.1388829312,-7.372125789999999,7.386677069999999,-4.29641137,,,
imu,99.33971,1.1317050976,-9.7086180968,1.1687905712,-7.185203039999999,1.8761944,-3.27955161,,,
imu,99.348177,1.094619624,-9.671532623200001,1.1538367512,-7.01323411,-3.92588776,-2.41223005,,,
imu,99.356644,1.0635156784,-9.596763523200002,1.1568275152,-6.60200406,-9.42141661,-1.39537029,,,
imu,99.365112,1.0503563168,-9.522592576000001,1.1358921672,-5.97394362,-14.74497653,-0.4682334499999998,,,
imu,99.373579,0.9708019944000001,-9.479525574400002,1.130508792,-4.919699309999999,-19.8068446,0.66825687,,,
imu,99.382046,0.9151737840000002,-9.418513988800001,1.1167512776,-3.84302427,-24.592067,1.80474719,,,
imu,99.390514,0.8248527112,-9.416719530400002,1.13649032,-2.78877996,-29.11559755,2.62720729,,,
imu,99.398981,0.7135962904,-9.5172092008,1.1657998072,-1.60742818,-33.50454372,3.03096043,,,
imu,99.407449,0.56824516,-9.651793580800001,1.1885296136,-0.7401066199999999,-37.33272164,3.41975975,,,
imu,99.415916,0.4258847936,-9.754675862400001,1.2154464896,-0.0522309,-40.65994659,3.5319134,,,
imu,99.424383,0.2817299688000001,-9.797144711200001,1.2579153384,0.19450713,-43.24695745,3.71135924,,,
imu,99.432851,0.1357806856,-9.8061170032,1.283037756,0.45619898,-45.14609259,3.55434413,,,
imu,99.441318,-0.011963056,-9.844996935200001,1.3105527848,0.31413769,-46.48445948,3.21040627,,,
imu,99.449785,-0.16449202,-9.904214062400001,1.3290955216,0.11226112,-47.22467357,2.67206875,,,
imu,99.458253,-0.2799355104,-9.929336480000002,1.2812432976,-0.34383039,-47.27701194,2.1860696,,,
imu,99.46672,-0.3959771536000001,-9.850978463200002,1.280046992,-1.06161375,-46.6489515,1.41594787,,,
imu,99.475187,-0.49347606,-9.740918348000001,1.2896174368,-1.45041307,-45.68443011,0.9000410799999998,,,
imu,99.483655,-0.5359449088000001,-9.711010708000002,1.2638968664,-1.55508981,-44.24138648,0.5411494000000001,,,
imu,99.492122,-0.5772174520000001,-9.694860582400002,1.232194768,-1.50275144,-42.67123538,0.15982699,,,
imu,99.500589,-0.6442105656,-9.664952942400001,1.2250169344,-1.21862886,-40.94406917,-0.4233719899999999,,,
imu,99.509057,-0.7094092208000001,-9.617100718400001,1.247148588,-0.5980453299999999,-38.90287274,-0.77478676,,,
imu,99.517524,-0.7524762224000001,-9.676317845600002,1.2722710056,0.36647606,-36.71961502,-0.7224483899999998,,,
imu,99.525992,-0.8756956992000001,-9.7809945856,1.2644950192,1.19641307,-34.35691146,-1.1785399,,,
imu,99.534459,-1.0365988024,-9.782789044000001,1.2932063536,1.77213514,-31.51568566,-1.52995467,,,
imu,99.542926,-1.1370884728,-9.803126239200001,1.4104443024,1.60764312,-28.24827599,-1.76173888,,,
imu,99.55139,-1.1986982112,-9.946084758400001,1.4331741088,1.03939796,-24.48739026,-2.21035348,,,
imu,98.191332,,,,,,,96.82749960000001,-19.81841960000001,122.1269472
imu,98.292895,,,,,,,88.91723400000001,-20.05035640000001,121.9194248
imu,98.394457,,,,,,,86.2804788,-19.56206840000001,120.4911824
imu,98.49605,,,,,,,88.8806124,-20.23346440000002,120.955056
imu,98.597552,,,,,,,90.0647108,-20.44098680000002,121.8339744
imu,98.699145,,,,,,,89.19799960000002,-20.91706760000001,121.0893352
imu,98.800707,,,,,,,82.935706,-20.12359960000001,120.0639304
imu,98.90227,,,,,,,84.69354280000002,-20.00152760000002,116.8778512
imu,99.003737,,,,,,,87.91624360000002,-20.99031080000002,119.6610928
imu,99.1053,,,,,,,86.40255080000001,-20.25787880000001,122.4443344
imu,99.206862,,,,,,,82.83804839999999,-19.8306268,119.4047416
imu,99.308425,,,,,,,81.3609772,-19.64751880000002,118.2328504
imu,99.409987,,,,,,,82.447418,-18.95170840000002,118.0985712
imu,99.512099,,,,,,,84.6325068,-19.08598760000002,118.4769944
