Type,Timestamp,Data Accelerometer X,Data Accelerometer Y,Data Accelerometer Z,Data Gyroscope X,Data Gyroscope Y,Data Gyroscope Z,Data Magnetometer X,Data Magnetometer Y,Data Magnetometer Z
imu,392.636782,0.1842310624,-9.7995373224,1.4888023192,2.25813429,3.1472691,-3.10758268,,,
imu,392.645157,0.1878199792,-9.811500378400002,1.5246914872,2.34785721,2.9229618,-3.08515195,,,
imu,392.653533,0.1746606176,-9.832435726400002,1.5199062648,2.28056502,2.81828506,-3.07767504,,,
imu,392.661909,0.1746606176,-9.839015407200002,1.5169155008,2.06373463,2.69117759,-3.33936689,,,
imu,392.670285,0.1549215752,-9.834230184800003,1.5234951816,1.72727368,2.48930102,-3.48142818,,,
imu,392.678661,0.1579123392,-9.841408018400001,1.522298876,1.45810492,2.33228591,-3.38422835,,,
imu,392.687036,0.1495382,-9.8210708232,1.507345056,1.08425942,2.40705501,-3.44404363,,,
imu,392.695412,0.1399677552,-9.801929933600002,1.5067469032,0.83004448,2.36219355,-3.54124346,,,
imu,392.703788,0.1501363528,-9.7815927384,1.4929893888,0.5010604399999999,2.20517844,-3.70573548,,,
imu,392.712164,0.140565908,-9.76484446,1.4840170968,0.56087572,2.12293243,-3.69078166,,,
imu,392.72054,0.1519308112,-9.756470320800002,1.4708577352,0.76275229,2.13040934,-3.69078166,,,
imu,392.728915,0.1399677552,-9.758264779200001,1.4708577352,0.80761375,2.01077878,-3.73564312,,,
imu,392.737291,0.1477437416,-9.752283251200002,1.4756429576,0.82256757,2.08554788,-3.58610492,,,
imu,392.745667,0.1507345056,-9.755872168000002,1.4762411104,1.01696723,2.04816333,-3.37675144,,,
imu,392.754043,0.1537252696,-9.7809945856,1.5115321256,1.12912088,2.07059406,-3.30945925,,,
imu,392.762419,0.1519308112,-9.783985349600002,1.5330656264,1.09921324,1.95844041,-3.2720747,,,
imu,392.770794,0.1609031032,-9.782789044000001,1.549215752,1.15902852,1.81637912,-3.21225942,,,
imu,392.77917,0.16449202,-9.793555794400001,1.5354582376,1.09921324,1.81637912,-3.00290594,,,
imu,392.787546,0.1842310624,-9.796546558400001,1.519308112,1.22632071,1.92105586,-2.76364482,,,
imu,392.796368,0.1985867296,-9.788172419200002,1.5109339728,1.27865908,1.77151766,-2.86832156,,,
imu,392.805191,0.1938015072,-9.7923594888,1.5037561392,1.18893616,1.48739508,-3.05524431,,,
imu,392.814013,0.197390424,-9.770825988000002,1.504354292,1.39081273,1.66684092,-3.00290594,,,
imu,392.822835,0.1836329096,-9.796546558400001,1.501363528,1.52539711,1.47244126,-3.20478251,,,
imu,392.831657,0.1626975616,-9.790565030400002,1.5031579864,1.45062801,1.29299542,-3.5711511,,,
imu,392.84048,0.1357806856,-9.796546558400001,1.5234951816,1.37585891,1.37524143,-3.75807385,,,
imu,392.849302,0.1321917688,-9.798341016800002,1.537252696,1.28613599,1.44253362,-3.95995042,,,
imu,392.858124,0.110658268,-9.792957641600001,1.5300748624,1.20388998,1.45001053,-4.124442439999999,,,
imu,392.866946,0.1034804344,-9.794153947200002,1.5264859456,1.22632071,1.67431783,-4.32631901,,,
imu,392.875816,0.09690075360000001,-9.779798280000001,1.5264859456,1.30856672,1.81637912,-4.61044159,,,
imu,392.884638,0.09091922560000001,-9.7636481544,1.5300748624,1.23379762,2.00330187,-4.80484125,,,
imu,392.893461,0.0783580168,-9.743310959200002,1.516317348,1.33099745,2.30237827,-4.65530305,,,
imu,392.902283,0.09450814240000002,-9.734936820000001,1.5121302784,1.39081273,2.51920866,-4.70016451,,,
imu,392.911105,0.1034804344,-9.742114653600002,1.4870078608,1.47305874,2.78837742,-4.56558013,,,
imu,392.919927,0.122621324,-9.758264779200001,1.483418944,1.64502767,2.98277708,-4.28893446,,,
imu,392.92875,0.1453511304,-9.800733628000001,1.4822226384,1.98896553,3.18465365,-4.18425772,,,
imu,392.937572,0.173464312,-9.803126239200001,1.4959801528,2.07121154,3.15474601,-4.22911918,,,
imu,392.946394,0.1848292152,-9.7995373224,1.5049524448,2.10111918,3.04259236,-4.341272829999999,,,
imu,392.955216,0.1728661592,-9.802528086400002,1.5139247368,1.90671952,2.90800798,-4.56558013,,,
imu,392.964038,0.170473548,-9.805518850400002,1.5067469032,1.86185806,2.53416248,-4.56558013,,,
imu,392.972861,0.1746606176,-9.820472670400001,1.4828207912,1.7422275,2.2500399,-4.50576485,,,
imu,392.981683,0.1758569232,-9.788172419200002,1.4648762072,1.92915025,1.92105586,-4.602964679999999,,,
imu,392.990505,0.1417622136,-9.745703570400002,1.447529776,2.03382699,1.50982581,-4.7674567,,,
imu,392.998987,0.09869521200000002,-9.7427128064,1.4253981224,2.12354991,1.45748744,-4.57305704,,,
imu,393.007468,0.0723764888,-9.7540777096,1.4110424552,2.22074974,1.39767216,-4.25902682,,,
imu,393.015949,0.0675912664,-9.7845835024,1.4182202888,2.44505704,1.47244126,-4.0945348,,,
imu,393.024431,0.04486146000000001,-9.8079114616,1.4212110528,2.76656417,1.73413311,-4.07210407,,,
imu,393.032912,0.04007623760000001,-9.844398782400003,1.4170239832,2.90862546,1.96591732,-4.10948862,,,
imu,393.041393,0.04007623760000001,-9.8479876992,1.4212110528,2.60954906,2.23508608,-4.341272829999999,,,
imu,393.049875,0.0275150288,-9.8593526024,1.4212110528,2.22822665,2.50425484,-4.70016451,,,
imu,393.058356,0.03588916800000001,-9.850380310400002,1.4206129,2.12354991,2.63136231,-5.00671782,,,
imu,393.066837,0.04545961280000001,-9.8581562968,1.408649844,1.83195042,2.86314652,-5.0665331,,,
imu,393.075319,0.06699311360000001,-9.855763685600001,1.4110424552,1.4431511,3.17717674,-5.02914855,,,
imu,393.0838,0.09690075360000001,-9.8234634344,1.3948923296,1.0693056,3.26689966,-4.715118329999999,,,
imu,393.092281,0.1070693512,-9.803126239200001,1.396686788,1.09173633,3.16222292,-4.4683803,,,
imu,393.100763,0.1184342544,-9.803724392000001,1.4032664688,0.97958268,2.87810034,-4.30388828,,,
imu,393.109244,0.08673215600000002,-9.802528086400002,1.4098461496,0.82256757,2.78090051,-4.13939626,,,
imu,393.117725,0.1274065464,-9.775611210400001,1.414631372,0.6281679099999999,2.57902394,-4.17678081,,,
imu,393.126207,0.1280046992,-9.7845835024,1.4128369136,0.7702292,2.4743472,-4.11696553,,,
imu,393.134688,0.110658268,-9.7995373224,1.4343704144,0.8973366700000001,2.31733209,-3.90013514,,,
imu,393.143169,0.1130508792,-9.7911631832,1.4523149984,0.8375213899999999,2.13040934,-3.74312003,,,
imu,393.151651,0.09390998960000001,-9.800733628000001,1.4696614296,0.9646288599999999,2.12293243,-3.60853565,,,
imu,393.160132,0.08254508640000002,-9.801929933600002,1.4690632768,0.65059864,2.1005017,-3.60105874,,,
imu,393.168613,0.08194693360000001,-9.802528086400002,1.4732503464,0.7702292,2.15284007,-3.38422835,,,
imu,393.177095,0.0681894192,-9.802528086400002,1.4852134024,0.68798319,2.1752708,-3.37675144,,,
imu,393.185576,0.08374139200000001,-9.802528086400002,1.4935875416,0.64312173,2.16031698,-3.54124346,,,
imu,393.194057,0.08374139200000001,-9.808509614400002,1.4935875416,0.56835263,2.19022462,-3.88518132,,,
imu,393.202511,0.08194693360000001,-9.821668976000002,1.5037561392,0.52349117,2.36967046,-4.102011709999999,,,
imu,393.210964,0.101685976,-9.797742864000002,1.4840170968,0.57582954,2.31733209,-4.19173463,,,
imu,393.219418,0.1268083936,-9.767237071200002,1.4606891376,0.56087572,2.15284007,-4.3936112,,,
imu,393.227871,0.1028822816,-9.7744149048,1.4349685672,0.8524752099999999,2.0257326,-4.57305704,,,
imu,393.236324,0.1112564208,-9.783985349600002,1.4612872904,0.8749059399999999,1.86124058,-4.37118047,,,
imu,393.244778,0.1250139352,-9.802528086400002,1.4702595824,1.13659779,1.98087114,-3.77302767,,,
imu,393.253231,0.1148453376,-9.808509614400002,1.4523149984,1.10669015,1.84628676,-3.61601256,,,
imu,393.261684,0.1268083936,-9.8144911424,1.4660725128,1.22632071,1.74908693,-3.54124346,,,
imu,393.270138,0.116639796,-9.8049206976,1.486409708,1.25622835,1.69674856,-3.29450543,,,
imu,393.278591,0.08733030880000002,-9.831837573600001,1.4499223872,1.28613599,1.69674856,-3.18235178,,,
imu,393.287044,0.0813487808,-9.844398782400003,1.4421464008,1.1440747,1.76404075,-3.27955161,,,
imu,393.295498,0.08015247520000002,-9.822267128800002,1.459492832,0.9197674,1.70422547,-3.25712088,,,
imu,393.303951,0.07656355840000001,-9.802528086400002,1.4660725128,0.79265993,1.92105586,-3.25712088,,,
imu,393.312405,0.06220789120000001,-9.802528086400002,1.4553057624,0.53844499,1.99582496,-3.39918217,,,
imu,393.320858,0.0693857248,-9.786976113600002,1.4451371648,0.55339881,2.16779389,-3.58610492,,,
imu,393.329311,0.07716171120000001,-9.7744149048,1.4499223872,0.5459219,2.30237827,-3.58610492,,,
imu,393.337765,0.0813487808,-9.772620446400001,1.4421464008,0.3963837,2.28742445,-3.72816621,,,
imu,393.346218,0.09091922560000001,-9.7504887928,1.4427445536,0.6132140899999999,2.42200883,-3.77302767,,,
imu,393.354671,0.10467674,-9.752881404000002,1.4553057624,0.6281679099999999,2.36219355,-3.99733497,,,
imu,393.363125,0.1154434904,-9.768433376800001,1.4648762072,0.71789083,2.30985518,-4.04219643,,,
imu,393.371578,0.1274065464,-9.7702278352,1.4612872904,0.88985976,2.29490136,-3.78798149,,,
imu,393.380032,0.1297991576,-9.786976113600002,1.4690632768,0.94219813,2.04816333,-3.62348947,,,
imu,393.388485,0.1297991576,-9.793555794400001,1.46547436,1.04687487,2.03320951,-3.48890509,,,
imu,393.396938,0.1244157824,-9.801929933600002,1.456502068,1.13659779,1.94348659,-3.30198234,,,
imu,393.405406,0.1268083936,-9.802528086400002,1.4600909848,1.25622835,1.77899457,-3.10010577,,,
imu,393.413873,0.1022841288,-9.801929933600002,1.4576983736,1.22632071,1.62945637,-3.10758268,,,
imu,393.42234,0.092713684,-9.809107767200002,1.4582965264,1.2936129,1.577118,-3.16739796,,,
imu,393.430808,0.0723764888,-9.8198745176,1.4666706656,1.11416706,1.62945637,-3.23469015,,,
imu,393.439275,0.06460050240000001,-9.8300431152,1.4858115552,1.15155161,1.83133294,-3.27955161,,,
imu,393.447742,0.06220789120000001,-9.828846809600002,1.4816244856,0.9945364999999999,2.1005017,-3.33188998,,,
imu,393.45621,0.0550300576,-9.821668976000002,1.4852134024,0.80761375,2.14536316,-3.35432071,,,
imu,393.464677,0.06041343280000001,-9.822267128800002,1.486409708,0.68798319,2.45939338,-3.37675144,,,
imu,393.473144,0.06579680800000001,-9.817481906400001,1.4911949304,0.65059864,2.86314652,-3.25712088,,,
imu,393.481612,0.09091922560000001,-9.7959484056,1.477437416,0.52349117,3.05006927,-3.17487487,,,
imu,393.490079,0.09989151760000002,-9.758862932000001,1.477437416,0.44872207,3.11736146,-3.3468438,,,
imu,393.498547,0.1010878232,-9.7606573904,1.4571002208,0.4711528,3.2220382,-3.66087402,,,
imu,393.507014,0.1262102408,-9.7702278352,1.4457353176,0.68798319,3.2220382,-3.72816621,,,
imu,393.515481,0.13458438,-9.764246307200002,1.4612872904,0.82256757,3.10240764,-3.84779677,,,
imu,393.523949,0.1423603664,-9.755274015200001,1.4630817488,0.88985976,2.93791562,-4.06462716,,,
imu,393.532416,0.1549215752,-9.7540777096,1.4463334704,0.97958268,2.76594669,-4.0945348,,,
imu,393.540883,0.1597067976,-9.766638918400002,1.4499223872,1.05435178,2.50425484,-3.83284295,,,
imu,393.549351,0.1716698536,-9.802528086400002,1.459492832,1.21136689,2.13788625,-3.69825857,,,
imu,393.557818,0.1632957144,-9.8234634344,1.4870078608,1.15155161,1.8761944,-3.84031986,,,
imu,393.566285,0.1483418944,-9.834828337600001,1.5019616808,0.7702292,1.61450255,-3.82536604,,,
imu,393.574753,0.1244157824,-9.825257892800002,1.5145228896,0.56835263,1.49487199,-3.65339711,,,
imu,393.58322,0.0980970592,-9.847389546400002,1.5157191952,0.46367589,1.52477963,-3.24216706,,,
imu,393.591687,0.06460050240000001,-9.845595088000001,1.5228970288,0.29918387,1.6518871,-2.98795212,,,
imu,393.600155,0.05203929360000001,-9.8228652816,1.5121302784,0.26179932,1.76404075,-2.99542903,,,
imu,393.608615,0.03947808480000001,-9.7510869456,1.48042818,0.18703022,1.88367131,-3.05524431,,,
imu,393.617074,0.02990764000000001,-9.7427128064,1.4840170968,0.23189168,2.14536316,-3.01038285,,,
imu,393.625534,0.0221316536,-9.7474980288,1.4768392632,0.44872207,2.4743472,-2.80850628,,,
imu,393.633994,0.0562263632,-9.7534795568,1.4726521936,0.66555246,2.90800798,-2.18792275,,,
imu,393.642453,0.09211553120000002,-9.7786019744,1.4882041664,0.88985976,3.33419185,-2.02343073,,,
imu,393.650913,0.125612088,-9.796546558400001,1.5037561392,0.9646288599999999,3.63326825,-2.20287657,,,
imu,393.659373,0.1567160336,-9.802528086400002,1.5109339728,1.1440747,3.81271409,-2.36736859,,,
imu,393.667833,0.1830347568,-9.802528086400002,1.52528964,1.23379762,3.797760269999999,-2.71130645,,,
imu,393.676292,0.2099516328,-9.803126239200001,1.5450286824,1.16650543,3.64074516,-3.15244414,,,
imu,393.684752,0.20935348,-9.788172419200002,1.5378508488,0.91229049,3.5211146,-3.66835093,,,
imu,393.693212,0.2195220776,-9.768433376800001,1.5240933344,0.77770611,3.12483837,-4.102011709999999,,,
imu,393.701672,0.2189239248,-9.745105417600001,1.5055505976,0.78518302,2.95286944,-4.124442439999999,,,
imu,393.710131,0.2201202304,-9.731946056000002,1.4899986248,0.88985976,2.49677793,-4.11696553,,,
imu,393.718591,0.2201202304,-9.716992236000001,1.4792318744,1.22632071,2.07807097,-4.06462716,,,
imu,393.727051,0.1961941184,-9.725366375200002,1.4738484992,1.28613599,1.73413311,-3.92256587,,,
imu,393.73551,0.1626975616,-9.7570684736,1.4660725128,1.39081273,1.39019525,-3.90761205,,,
imu,393.74397,0.137575144,-9.777405668800002,1.4612872904,1.6674584,1.21074941,-3.75059694,,,
imu,393.75243,0.1022841288,-9.800733628000001,1.4678669712,1.93662716,1.11354958,-3.66835093,,,
imu,393.76089,0.0532355992,-9.838417254400001,1.4798300272,1.77213514,1.18831868,-3.52628964,,,
imu,393.769349,0.04007623760000001,-9.855165532800001,1.5067469032,1.35342818,1.46496435,-3.33188998,,,
imu,393.777809,0.0281131816,-9.834230184800003,1.5181118064,0.9571519499999999,1.81637912,-3.37675144,,,
imu,393.786269,0.0317020984,-9.825257892800002,1.501363528,0.91229049,2.31733209,-3.39918217,,,
imu,393.794729,0.03289840400000001,-9.821668976000002,1.486409708,0.6132140899999999,2.61640849,-3.5711511,,,
imu,393.803188,0.0466559184,-9.7809945856,1.4905967776,0.3889067899999999,2.94539253,-3.60853565,,,
imu,393.812017,0.07716171120000001,-9.749890640000002,1.4929893888,0.20946095,3.24446893,-3.83284295,,,
imu,393.820846,0.09450814240000002,-9.745703570400002,1.498372764,0.31413769,3.37905331,-3.88518132,,,
imu,393.829675,0.1064711984,-9.802528086400002,1.4852134024,0.56835263,3.52859151,-4.012288789999999,,,
imu,393.838504,0.1309954632,-9.772022293600001,1.4822226384,0.7702292,3.5211146,-3.9449966,,,
imu,393.847333,0.1501363528,-9.7361331256,1.4917930832,0.97210577,3.47625314,-4.02724261,,,
imu,393.856161,0.1321917688,-9.7504887928,1.504354292,1.15902852,3.40148404,-4.19921154,,,
imu,393.86499,0.1297991576,-9.786377960800001,1.486409708,1.46558183,3.28933039,-3.84031986,,,
imu,393.873819,0.1501363528,-9.7959484056,1.489400472,1.77961205,3.1472691,-3.36927453,,,
imu,393.882648,0.1609031032,-9.7786019744,1.492391236,1.82447351,3.13979219,-3.18235178,,,
imu,393.891477,0.1632957144,-9.776807516000002,1.4708577352,1.77961205,2.96034635,-3.26459779,,,
imu,393.900306,0.1513326584,-9.798341016800002,1.4708577352,1.92167334,2.9977309,-3.31693616,,,
imu,393.909135,0.1710717008,-9.801929933600002,1.4888023192,2.05625772,2.78090051,-3.47395127,,,
imu,393.917964,0.1543234224,-9.801929933600002,1.5007653752,1.82447351,2.60893158,-3.81041222,,,
imu,393.926792,0.1495382,-9.779200127200001,1.5067469032,1.75718132,2.52668557,-3.93004278,,,
imu,393.935621,0.1423603664,-9.752881404000002,1.5037561392,1.77961205,2.40705501,-4.10948862,,,
imu,393.94445,0.1268083936,-9.7786019744,1.48042818,1.69736604,2.42200883,-4.124442439999999,,,
imu,393.953279,0.122621324,-9.773218599200002,1.486409708,1.53287402,2.49677793,-4.19173463,,,
imu,393.962108,0.110658268,-9.783387196800001,1.4816244856,1.50296638,2.41453192,-4.169303899999999,,,
imu,393.970871,0.09690075360000001,-9.7953502528,1.4690632768,1.65250458,2.60145467,-4.124442439999999,,,
imu,393.9797,0.1004896704,-9.801929933600002,1.471455888,1.76465823,2.76594669,-4.057150249999999,,,
imu,393.988529,0.113649032,-9.8043225448,1.4576983736,1.46558183,2.69117759,-4.0945348,,,
imu,393.997358,0.1058730456,-9.828248656800001,1.4588946792,1.52539711,2.75099287,-4.13191935,,,
imu,394.006187,0.1022841288,-9.8234634344,1.4840170968,1.60016621,2.98277708,-4.06462716,,,
imu,394.014655,0.107667504,-9.825257892800002,1.4726521936,1.39828964,3.03511545,-4.07210407,,,
imu,394.023124,0.1082656568,-9.824659740000001,1.4618854432,1.08425942,2.97530017,-4.32631901,,,
imu,394.031593,0.1184342544,-9.8061170032,1.4792318744,1.02444414,2.93791562,-4.363703559999999,,,
imu,394.040061,0.1130508792,-9.800733628000001,1.4780355688,1.0693056,2.90800798,-4.318842099999999,,,
imu,394.04853,0.1094619624,-9.802528086400002,1.4798300272,0.94967504,2.97530017,-4.25902682,,,
imu,394.056998,0.1064711984,-9.801929933600002,1.498372764,1.04687487,3.12483837,-4.06462716,,,
imu,394.065467,0.09570444800000001,-9.798341016800002,1.4840170968,1.01696723,2.9977309,-4.0197657,,,
imu,394.073936,0.1004896704,-9.759461084800002,1.4852134024,0.97958268,2.87062343,-3.92256587,,,
imu,394.082404,0.08673215600000002,-9.7510869456,1.474446652,1.00949032,2.87810034,-3.95247351,,,
imu,394.090873,0.08673215600000002,-9.769031529600001,1.4750448048,1.06182869,2.9229618,-3.85527368,,,
imu,394.099342,0.08493769760000001,-9.758264779200001,1.468465124,1.38333582,2.87062343,-3.8702275,,,
imu,392.654889,,,,,,,80.2379148,-17.71878120000001,122.5053704
imu,392.756451,,,,,,,82.54507559999999,-18.59769960000002,120.161588
imu,392.858044,,,,,,,80.2989508,-17.97513240000001,123.1645592
imu,392.959576,,,,,,,80.09142840000001,-17.91409640000001,120.6987048
imu,393.061139,,,,,,,79.62755480000001,-17.90188920000002,122.4077128
imu,393.162732,,,,,,,79.76183400000001,-18.47562760000001,123.0669016
imu,393.264264,,,,,,,80.067014,-17.70657400000002,122.7006856
imu,393.365826,,,,,,,79.5909332,-17.76761000000002,122.4077128
imu,394.10781,0.08852661440000001,-9.7492924872,1.4732503464,1.51044329,3.05006927,-3.75059694,,,
imu,394.116279,0.08493769760000001,-9.7474980288,1.4696614296,1.71231986,3.15474601,-3.58610492,,,
imu,394.124747,0.101685976,-9.783387196800001,1.4702595824,1.68241222,3.10988455,-3.51881273,,,
imu,394.133216,0.1208268656,-9.788172419200002,1.4822226384,1.74970441,3.10988455,-3.54872037,,,
imu,394.141685,0.1303973104,-9.794752100000002,1.4852134024,1.83942733,3.10240764,-3.51133582,,,
imu,394.150153,0.1513326584,-9.8043225448,1.4858115552,1.62259694,3.05006927,-3.66087402,,,
imu,394.158622,0.1567160336,-9.800733628000001,1.4905967776,1.33099745,2.93791562,-3.7954584,,,
imu,394.167091,0.161501256,-9.7953502528,1.4846152496,1.34595127,2.84071579,-3.73564312,,,
imu,394.175559,0.1638938672,-9.801929933600002,1.4666706656,1.36090509,2.67622377,-3.70573548,,,
imu,394.184028,0.1668846312,-9.792957641600001,1.4648762072,1.33847436,2.51920866,-3.7206893,,,
imu,394.192497,0.1710717008,-9.7570684736,1.4493242344,1.368382,2.48182411,-3.80293531,,,
imu,394.200965,0.1609031032,-9.759461084800002,1.4403519424,1.51044329,2.16031698,-3.73564312,,,
imu,394.209434,0.146547436,-9.7815927384,1.4433427064,1.67493531,2.07059406,-3.78798149,,,
imu,394.217909,0.1417622136,-9.805518850400002,1.4672688184,2.01887317,2.07059406,-3.61601256,,,
imu,394.226384,0.1214250184,-9.853969227200002,1.489400472,2.10111918,1.86871749,-3.61601256,,,
imu,394.234859,0.1064711984,-9.8497821576,1.504354292,1.94410407,1.68927165,-3.84031986,,,
imu,394.243334,0.08015247520000002,-9.825257892800002,1.5187099592,1.57773548,1.56964109,-4.11696553,,,
imu,394.251809,0.0693857248,-9.8563618384,1.5175136536,1.33099745,1.47244126,-4.42351884,,,
imu,394.260284,0.04246884880000001,-9.849184004800001,1.5025598336,0.91229049,1.48739508,-4.48333412,,,
imu,394.268759,0.0466559184,-9.807313308800001,1.4690632768,0.59078336,1.45748744,-4.29641137,,,
imu,394.277234,0.0442633072,-9.745105417600001,1.4349685672,0.7403215599999999,1.60702564,-3.99733497,,,
imu,394.285709,0.017944584,-9.710412555200001,1.423603664,0.8823828499999999,1.77899457,-3.52628964,,,
imu,394.294184,0.0173464312,-9.722973764,1.3984812464,1.07678251,2.22760917,-2.80102937,,,
imu,394.302659,0.0382817792,-9.734338667200001,1.4068553856,1.368382,2.64631613,-1.94866163,,,
imu,394.311134,0.0634041968,-9.745703570400002,1.4242018168,1.77213514,3.05754618,-1.5523854,,,
imu,394.319609,0.0747691,-9.751685098400001,1.4307814976,2.08616536,3.23699202,-1.81407725,,,
imu,394.328084,0.08314323920000001,-9.749890640000002,1.4361648728,2.08616536,3.31923803,-2.32998404,,,
imu,394.336559,0.0980970592,-9.770825988000002,1.4277907336,2.10859609,3.39400713,-2.8982292,,,
imu,394.345034,0.1112564208,-9.7923594888,1.4403519424,2.34785721,3.40148404,-3.53376655,,,
imu,394.353509,0.1154434904,-9.8043225448,1.4427445536,2.30299575,3.63326825,-3.93751969,,,
imu,394.361984,0.1214250184,-9.820472670400001,1.4457353176,2.17588828,3.62579134,-4.057150249999999,,,
imu,394.370458,0.1447529776,-9.803724392000001,1.459492832,2.02635008,3.73046808,-3.85527368,,,
imu,394.378933,0.170473548,-9.819276364800002,1.4397537896,2.0413039,3.6706528,-3.6459202,,,
imu,394.387408,0.1788476872,-9.824061587200001,1.4439408592,1.90671952,3.2968073,-3.57862801,,,
imu,394.395883,0.1818384512,-9.821668976000002,1.453511304,1.63007385,3.09493073,-3.46647436,,,
imu,394.404358,0.1878199792,-9.805518850400002,1.453511304,1.48053565,2.80333124,-3.30198234,,,
imu,394.412833,0.1776513816,-9.811500378400002,1.4427445536,1.31604363,2.33976282,-3.11505959,,,
imu,394.421283,0.176455076,-9.832435726400002,1.4451371648,1.35342818,2.01825569,-2.94309066,,,
imu,394.429733,0.161501256,-9.8778953392,1.4660725128,1.04687487,1.75656384,-2.69635263,,,
imu,394.438182,0.1531271168,-9.870119352800002,1.4726521936,0.76275229,1.77151766,-2.36736859,,,
imu,394.446632,0.128602852,-9.8581562968,1.4732503464,0.78518302,1.9509635,-2.12063056,,,
imu,394.455081,0.122621324,-9.836024643200002,1.4517168456,0.59078336,2.00330187,-2.2253073,,,
imu,394.463531,0.1178361016,-9.836622796,1.4648762072,0.5459219,2.21265535,-2.18044584,,,
imu,394.47198,0.1148453376,-9.8228652816,1.4917930832,0.29170696,2.57154703,-2.41223005,,,
imu,394.48043,0.13458438,-9.818678212000002,1.507345056,0.34404533,2.95286944,-2.6739219,,,
imu,394.488879,0.1513326584,-9.824061587200001,1.4911949304,0.32909151,3.11736146,-3.21973633,,,
imu,394.497329,0.1991848824,-9.788770572,1.4576983736,0.49358353,3.25194584,-3.48890509,,,
imu,394.505779,0.2141387024,-9.6984494992,1.4349685672,0.7403215599999999,3.22951511,-3.95247351,,,
imu,394.514228,0.2039701048,-9.676915998400002,1.4319778032,1.04687487,3.23699202,-4.37865738,,,
imu,394.522678,0.2021756464,-9.676915998400002,1.411640608,1.61512003,3.27437657,-4.244073,,,
imu,394.531127,0.218325772,-9.693066124000001,1.4032664688,1.82447351,3.09493073,-3.7954584,,,
imu,394.539577,0.218325772,-9.696655040800001,1.402668316,2.18336519,2.82576197,-3.69825857,,,
imu,394.548026,0.206362716,-9.7163940832,1.3865181904,2.66188743,2.63883922,-3.92256587,,,
imu,394.556476,0.2087553272,-9.749890640000002,1.396686788,2.82637945,2.51173175,-4.0197657,,,
imu,394.564925,0.19439966,-9.7815927384,1.402668316,2.82637945,2.15284007,-4.28145755,,,
imu,394.573375,0.176455076,-9.8079114616,1.4098461496,2.81890254,1.97339423,-4.647826139999999,,,
imu,394.581825,0.1507345056,-9.828248656800001,1.4218092056,2.43758013,1.77151766,-5.01419473,,,
imu,394.590274,0.137575144,-9.850978463200002,1.4134350664,2.19831901,1.67431783,-5.17120984,,,
imu,394.598724,0.1321917688,-9.864137824800002,1.4140332192,1.9665348,1.58459491,-5.24597894,,,
imu,394.607173,0.1208268656,-9.876100880800003,1.4152295248,1.71231986,1.49487199,-5.33570186,,,
imu,394.615623,0.1064711984,-9.892849159200003,1.4487260816,1.35342818,1.45001053,-5.34317877,,,
imu,394.624088,0.09151737840000002,-9.8916528536,1.4523149984,1.07678251,1.39019525,-5.08896383,,,
imu,394.632552,0.09630260080000001,-9.867726741600002,1.4541094568,0.71789083,1.40514907,-4.86465653,,,
imu,394.641017,0.09450814240000002,-9.8467913936,1.4373611784,0.65807555,1.34533379,-4.61044159,,,
imu,394.649482,0.1004896704,-9.824061587200001,1.4343704144,0.41881443,1.34533379,-4.453426479999999,,,
imu,394.657947,0.08972292000000001,-9.803126239200001,1.4427445536,0.42629134,1.30794924,-4.18425772,,,
imu,394.666412,0.07656355840000001,-9.792957641600001,1.4463334704,0.35899915,1.25561087,-4.00481188,,,
imu,394.674876,0.08015247520000002,-9.7821908912,1.4313796504,0.4711528,1.37524143,-3.77302767,,,
imu,394.683341,0.06400234960000001,-9.786976113600002,1.4421464008,0.53096808,1.46496435,-3.63096638,,,
imu,394.691806,0.0753672528,-9.787574266400002,1.4433427064,0.8823828499999999,1.56216418,-3.46647436,,,
imu,394.700271,0.07955432240000002,-9.7923594888,1.4517168456,0.9646288599999999,1.82385603,-3.51133582,,,
imu,394.708736,0.07895616960000001,-9.793555794400001,1.4571002208,0.9347212199999999,1.95844041,-3.51881273,,,
imu,394.717201,0.08852661440000001,-9.7995373224,1.462483596,0.94967504,2.07059406,-3.44404363,,,
imu,394.725665,0.08374139200000001,-9.798341016800002,1.46547436,1.10669015,2.1752708,-3.58610492,,,
imu,394.73413,0.09151737840000002,-9.794752100000002,1.4541094568,0.9646288599999999,2.25751681,-3.55619728,,,
imu,394.742595,0.1070693512,-9.7911631832,1.4397537896,0.94219813,2.4743472,-3.496382,,,
imu,394.75106,0.1178361016,-9.7780038216,1.4457353176,0.9197674,2.57154703,-3.45899745,,,
imu,394.759525,0.1058730456,-9.755872168000002,1.4457353176,1.03939796,2.57154703,-3.46647436,,,
imu,394.767989,0.10467674,-9.755872168000002,1.4421464008,1.19641307,2.7734236,-3.48890509,,,
imu,394.776454,0.113649032,-9.776807516000002,1.432575956,1.27118217,2.9977309,-3.21225942,,,
imu,394.784919,0.1459492832,-9.779798280000001,1.4367630256,1.34595127,2.95286944,-3.13749032,,,
imu,394.793384,0.1626975616,-9.802528086400002,1.4481279288,1.35342818,2.96034635,-3.16739796,,,
imu,394.801849,0.1770532288,-9.828846809600002,1.4636799016,1.43567419,2.89305416,-3.33936689,,,
imu,394.810313,0.1890162848,-9.842604324000002,1.4738484992,1.26370526,2.78837742,-3.66835093,,,
imu,394.818778,0.1926052016,-9.862343366400001,1.474446652,1.09921324,2.56407012,-3.88518132,,,
imu,394.827599,0.1896144376,-9.85456738,1.4756429576,0.9945364999999999,2.30237827,-4.012288789999999,,,
imu,394.83642,0.206362716,-9.820472670400001,1.48042818,0.76275229,2.1752708,-4.22911918,,,
imu,394.845241,0.1896144376,-9.780396432800002,1.4547076096,0.82256757,2.1005017,-4.0945348,,,
imu,394.854062,0.1949978128,-9.756470320800002,1.4230055112,0.7702292,1.74908693,-4.23659609,,,
imu,394.862883,0.170473548,-9.769629682400002,1.4218092056,0.88985976,1.49487199,-4.341272829999999,,,
imu,394.871704,0.1489400472,-9.801929933600002,1.4367630256,1.09173633,1.44253362,-4.18425772,,,
imu,394.880525,0.1262102408,-9.824061587200001,1.4672688184,1.17398234,1.3528107,-3.96742733,,,
imu,394.889346,0.1064711984,-9.8168837536,1.4917930832,1.00949032,1.2780416,-3.9449966,,,
imu,394.898166,0.09151737840000002,-9.803126239200001,1.5025598336,1.02444414,1.37524143,-3.87770441,,,
imu,394.906987,0.06220789120000001,-9.8228652816,1.5049524448,0.7702292,1.28551851,-4.0945348,,,
imu,394.915808,0.03947808480000001,-9.836024643200002,1.4858115552,0.45619898,1.44253362,-4.07210407,,,
imu,393.467309,,,,,,,79.26133879999999,-17.88968200000001,123.0791088
imu,393.568841,,,,,,,81.60512120000001,-18.64652840000001,121.748524
imu,393.670434,,,,,,,79.56651880000001,-17.81643880000001,122.9814512
imu,393.771996,,,,,,,82.3497604,-18.80522200000001,120.5400112
imu,393.873559,,,,,,,79.33458200000001,-17.86526760000002,122.7128928
imu,393.975121,,,,,,,79.700798,-18.85405080000002,120.6132544
imu,394.076684,,,,,,,79.27354600000001,-17.88968200000001,122.5053704
imu,394.178246,,,,,,,79.8106628,-17.51125880000002,123.396496
imu,394.924629,0.04007623760000001,-9.815687448000002,1.4600909848,0.41133752,1.62197946,-4.07210407,,,
imu,394.93345,0.0406743904,-9.773218599200002,1.4463334704,0.45619898,1.69674856,-3.98238115,,,
imu,394.942271,0.0490485296,-9.743310959200002,1.4170239832,0.53844499,1.86871749,-3.73564312,,,
imu,394.951092,0.06699311360000001,-9.7403201952,1.399677552,0.73284465,2.10797861,-3.17487487,,,
imu,394.959913,0.0855358504,-9.746301723200002,1.3990793992,0.9870595899999999,2.30237827,-2.83093701,,,
imu,394.968734,0.1082656568,-9.7612555432,1.3984812464,1.41324346,2.53416248,-2.56176825,,,
imu,394.977555,0.113649032,-9.785181655200002,1.411640608,1.46558183,2.6238854,-2.71878336,,,
imu,394.986375,0.1238176296,-9.782789044000001,1.4128369136,1.368382,2.56407012,-2.91318302,,,
imu,394.995196,0.1333880744,-9.786976113600002,1.4164258304,1.42072037,2.70613141,-3.04029049,,,
imu,395.004017,0.1292010048,-9.8013317808,1.3978830936,1.24875144,2.64631613,-3.38422835,,,
imu,395.012838,0.140565908,-9.803126239200001,1.4014720104,1.18893616,2.57902394,-3.43656672,,,
imu,395.021659,0.137575144,-9.817481906400001,1.399677552,1.2188438,2.52668557,-3.69078166,,,
imu,395.030154,0.1549215752,-9.811500378400002,1.4230055112,1.20388998,2.4743472,-3.8702275,,,
imu,395.03865,0.152528964,-9.808509614400002,1.4277907336,1.12912088,2.33976282,-4.10948862,,,
imu,395.047145,0.1591086448,-9.800733628000001,1.4313796504,0.78518302,2.23508608,-4.341272829999999,,,
imu,395.05564,0.1537252696,-9.803126239200001,1.4307814976,0.65807555,2.04068642,-4.46090339,,,
imu,395.064354,0.158510492,-9.775611210400001,1.4463334704,0.81509066,1.83133294,-4.22164227,,,
imu,395.072849,0.1543234224,-9.772022293600001,1.4409500952,0.620691,1.62197946,-4.04219643,,,
imu,395.081345,0.1543234224,-9.780396432800002,1.4307814976,0.4861066199999999,1.42010289,-3.82536604,,,
imu,395.08984,0.1561178808,-9.7780038216,1.4349685672,0.49358353,1.36776452,-3.62348947,,,
imu,395.098335,0.1441548248,-9.803126239200001,1.4379593312,0.3216146,1.30047233,-3.65339711,,,
imu,395.106831,0.146547436,-9.792957641600001,1.4433427064,0.36647606,1.24065705,-3.51133582,,,
imu,395.115326,0.128602852,-9.7995373224,1.453511304,0.25432241,1.21822632,-3.51133582,,,
imu,395.123821,0.122621324,-9.809107767200002,1.4630817488,0.23189168,1.02382666,-3.6459202,,,
imu,395.132317,0.116639796,-9.815089295200002,1.4726521936,0.18703022,1.14345722,-3.53376655,,,
imu,395.140812,0.1172379488,-9.8270523512,1.4732503464,-0.05970781,1.14345722,-3.7954584,,,
imu,395.149307,0.107667504,-9.876100880800003,1.45052054,-0.14195382,1.21822632,-4.034719519999999,,,
imu,395.157803,0.1010878232,-9.842006171200001,1.4559039152,-0.18681528,1.12102649,-4.20668845,,,
imu,395.166298,0.0723764888,-9.803126239200001,1.468465124,-0.13447691,1.24065705,-4.37118047,,,
imu,395.174793,0.05742266880000001,-9.8270523512,1.4732503464,-0.05970781,1.45001053,-4.318842099999999,,,
imu,395.183289,0.0340947096,-9.840809865600002,1.4648762072,0.007584380000000002,1.71170238,-3.90013514,,,
imu,395.191784,0.017944584,-9.8479876992,1.48042818,0.04496892999999999,1.92105586,-3.54124346,,,
imu,395.200279,0.008972292000000002,-9.836024643200002,1.4846152496,-0.007369440000000005,2.2500399,-3.3468438,,,
imu,395.208775,0.0227298064,-9.8300431152,1.4696614296,0.08983038999999998,2.6238854,-3.13001341,,,
imu,395.21727,0.0293094872,-9.8294449624,1.4678669712,0.12721494,2.84071579,-3.14496723,,,
imu,395.225765,0.0532355992,-9.801929933600002,1.4541094568,0.08235347999999998,3.13231528,-3.14496723,,,
imu,395.234196,0.0634041968,-9.780396432800002,1.4571002208,0.16459949,3.43139168,-3.21225942,,,
imu,395.242626,0.0855358504,-9.780396432800002,1.4511186928,0.05244583999999999,3.54354533,-3.31693616,,,
imu,395.251056,0.1124527264,-9.7636481544,1.4403519424,0.03749201999999999,3.65569898,-3.51881273,,,
imu,395.259486,0.1387714496,-9.7606573904,1.4469316232,0.02253820000000001,3.75289881,-3.3468438,,,
imu,395.267916,0.1698753952,-9.746301723200002,1.4427445536,-0.14943073,3.55849915,-3.32441307,,,
imu,395.276346,0.167482784,-9.7403201952,1.4433427064,0.03001510999999998,3.3715764,-3.24964397,,,
imu,395.284777,0.173464312,-9.7427128064,1.444539012,0.07487657,3.02016163,-3.33188998,,,
imu,395.293207,0.1758569232,-9.742114653600002,1.4588946792,0.10478421,2.90800798,-3.21225942,,,
imu,395.301637,0.176455076,-9.7534795568,1.456502068,0.03001510999999998,2.75846978,-2.92065993,,,
imu,395.310067,0.1579123392,-9.760059237600002,1.4582965264,-0.03727708,2.51920866,-2.80850628,,,
imu,395.318497,0.1579123392,-9.786976113600002,1.46547436,-0.05970781,2.36967046,-2.74121409,,,
imu,395.326927,0.1561178808,-9.8043225448,1.5019616808,0.05244583999999999,2.31733209,-2.51690679,,,
imu,395.335358,0.146547436,-9.831239420800001,1.5187099592,-0.05970781,2.21265535,-2.62906044,,,
imu,395.343788,0.1339862272,-9.863539672000002,1.5390471544,-0.03727708,2.16779389,-2.95056757,,,
imu,395.352218,0.1297991576,-9.864137824800002,1.5534028216,-0.39616876,2.12293243,-3.09262886,,,
imu,395.360648,0.1172379488,-9.865932283200001,1.5593843496,-0.56066078,2.18274771,-3.23469015,,,
imu,395.369078,0.1148453376,-9.842006171200001,1.5575898912,-0.78496808,2.25751681,-3.3468438,,,
imu,395.377509,0.1100601152,-9.818080059200001,1.558188044,-0.79244499,2.21265535,-3.2720747,,,
imu,395.385939,0.1154434904,-9.8049206976,1.5557954328,-0.94198319,2.21265535,-3.42908981,,,
imu,395.394369,0.1309954632,-9.796546558400001,1.5635714192,-0.82235263,2.42200883,-3.41413599,,,
imu,395.402799,0.1232194768,-9.765442612800001,1.567160336,-0.7550604399999999,2.45191647,-3.45899745,,,
imu,395.411229,0.1268083936,-9.7534795568,1.5827123088,-0.68029134,2.58650085,-3.45899745,,,
imu,395.419659,0.1471455888,-9.736731278400002,1.5803196976,-0.77001426,2.55659321,-3.33936689,,,
imu,395.42809,0.1609031032,-9.736731278400002,1.5904882952,-0.5307531400000001,2.60145467,-3.35432071,,,
imu,395.43652,0.1453511304,-9.725366375200002,1.58510492,-0.47841477,2.55659321,-3.36179762,,,
imu,395.444978,0.1507345056,-9.719983000000001,1.5904882952,-0.45598404,2.46687029,-3.35432071,,,
imu,395.453437,0.1471455888,-9.708019944000002,1.5958716704,-0.34383039,2.30237827,-3.37675144,,,
imu,395.461895,0.152528964,-9.703234721600001,1.5845067672,-0.15690764,2.45191647,-3.36179762,,,
imu,395.470354,0.1321917688,-9.703832874400002,1.5569917384,-0.007369440000000005,2.38462428,-3.36927453,,,
imu,395.478812,0.1184342544,-9.740918348000001,1.5270840984,0.14964567,2.36219355,-3.21225942,,,
imu,395.487271,0.1268083936,-9.7265626808,1.5498139048,0.29918387,2.65379304,-3.13749032,,,
imu,395.495729,0.1327899216,-9.7217774584,1.5605806552,0.57582954,2.85566961,-3.17487487,,,
imu,395.504187,0.158510492,-9.742114653600002,1.55519728,0.88985976,3.02763854,-3.1225365,,,
imu,395.512646,0.1662864784,-9.743909112,1.5516083632,0.8524752099999999,3.03511545,-3.48142818,,,
imu,395.521104,0.185427368,-9.766040765600001,1.5563935856,0.9870595899999999,3.04259236,-3.82536604,,,
imu,395.529563,0.2081571744,-9.812696684000002,1.561178808,1.27118217,3.17717674,-3.84031986,,,
imu,395.538021,0.2219146888,-9.833632032,1.5605806552,1.20388998,2.96782326,-4.04219643,,,
imu,395.54648,0.2255036056,-9.8198745176,1.5833104616,1.16650543,2.71360832,-4.27398064,,,
imu,395.554938,0.230288828,-9.8144911424,1.5964698232,1.10669015,2.45191647,-4.386134289999999,,,
imu,395.563397,0.2069608688,-9.839015407200002,1.5779270864,0.9048135799999999,2.20517844,-4.46090339,,,
imu,395.571855,0.20935348,-9.8593526024,1.5599825024,0.8375213899999999,1.71917929,-4.33379592,,,
imu,395.580314,0.1932033544,-9.802528086400002,1.5504120576,0.7702292,1.39767216,-4.146873169999999,,,
imu,395.588772,0.1567160336,-9.7821908912,1.5480194464,0.68050628,1.24065705,-4.012288789999999,,,
imu,395.59723,0.1280046992,-9.783985349600002,1.5378508488,0.8823828499999999,1.27056469,-3.45899745,,,
imu,395.605689,0.1154434904,-9.802528086400002,1.5635714192,0.8449983,1.31542615,-2.89075229,,,
imu,395.614147,0.1094619624,-9.803126239200001,1.567160336,0.74779847,1.45001053,-2.46456842,,,
imu,395.622606,0.09630260080000001,-9.7959484056,1.5701511,0.57582954,1.3528107,-2.83093701,,,
imu,395.631064,0.08493769760000001,-9.761853696000001,1.5677584888,0.5010604399999999,1.49487199,-3.1225365,,,
imu,395.639523,0.08433954480000001,-9.737927584000001,1.5653658776,0.41133752,1.64441019,-3.62348947,,,
imu,395.648336,0.08733030880000002,-9.720581152800001,1.5665621832,0.43376825,1.99582496,-3.86275059,,,
imu,395.657149,0.08015247520000002,-9.7056273328,1.5480194464,0.42629134,2.27994754,-4.13939626,,,
imu,395.665962,0.09630260080000001,-9.6918698184,1.5318693208,0.50853735,2.48930102,-4.04219643,,,
imu,395.674774,0.1214250184,-9.696655040800001,1.5474212936,0.8823828499999999,2.84071579,-3.78798149,,,
imu,395.683587,0.13458438,-9.724768222400002,1.549215752,1.07678251,3.04259236,-3.63844329,,,
imu,395.6924,0.167482784,-9.7265626808,1.5647677248,1.37585891,3.26689966,-3.496382,,,
imu,395.701213,0.1716698536,-9.737329431200001,1.5892919896,1.72727368,3.27437657,-3.38422835,,,
imu,395.710026,0.200381188,-9.762451848800001,1.5857030728,1.75718132,3.19213056,-3.36179762,,,
imu,395.718839,0.1991848824,-9.769031529600001,1.5677584888,1.89924261,3.13231528,-3.47395127,,,
imu,395.727652,0.218325772,-9.749890640000002,1.5749363224,2.16093446,3.11736146,-3.48142818,,,
imu,395.736465,0.230288828,-9.749890640000002,1.5653658776,2.18336519,2.93043871,-3.59358183,,,
imu,394.279809,,,,,,,79.2369244,-18.09720440000002,122.7373072
imu,394.381371,,,,,,,79.3467892,-18.19486200000002,122.3466768
imu,394.482964,,,,,,,79.55431159999999,-17.95071800000001,122.8227576
imu,394.584496,,,,,,,79.98156359999999,-18.54887080000001,123.2500096
imu,394.686059,,,,,,,81.8858868,-17.95071800000001,122.7983432
imu,394.787652,,,,,,,79.79845560000001,-17.95071800000001,122.4931632
imu,394.889214,,,,,,,82.36196760000001,-18.43900600000001,120.2348312
imu,394.990746,,,,,,,79.2247172,-17.74319560000002,123.0058656
imu,395.745278,0.2255036056,-9.791761336000002,1.5599825024,2.2656112,2.81080815,-3.63096638,,,
imu,395.754091,0.218325772,-9.803126239200001,1.5701511,2.116073,2.50425484,-3.92256587,,,
imu,395.762904,0.2165313136,-9.801929933600002,1.5779270864,1.98896553,2.33976282,-4.124442439999999,,,
imu,395.771717,0.206362716,-9.8079114616,1.567160336,2.01887317,2.18274771,-4.13939626,,,
imu,395.78053,0.1788476872,-9.820472670400001,1.5749363224,1.98896553,2.09302479,-4.0945348,,,
imu,395.789343,0.1908107432,-9.8210708232,1.5815160032,1.65998149,2.04816333,-4.102011709999999,,,
imu,395.798156,0.1800439928,-9.83961356,1.5773289336,1.60016621,1.93600968,-4.04219643,,,
imu,395.806969,0.1597067976,-9.868923047200001,1.5575898912,1.48801256,1.74908693,-4.22911918,,,
imu,395.815782,0.1447529776,-9.8294449624,1.5426360712,1.4431511,1.53973345,-4.29641137,,,
imu,395.824595,0.1507345056,-9.785181655200002,1.5396453072,1.19641307,1.39019525,-4.31136519,,,
imu,395.833408,0.1381732968,-9.7809945856,1.5264859456,1.35342818,1.24065705,-4.35622665,,,
imu,395.84222,0.1250139352,-9.801929933600002,1.5001672224,1.32352054,1.23318014,-4.13939626,,,
imu,395.850702,0.1244157824,-9.803126239200001,1.5234951816,1.33099745,1.39767216,-3.45152054,,,
imu,395.859183,0.110658268,-9.806715156000001,1.5127284312,1.37585891,1.4275798,-3.09262886,,,
imu,395.867664,0.1004896704,-9.825257892800002,1.5139247368,1.24127453,1.43505671,-3.02533667,,,
imu,395.876146,0.09869521200000002,-9.847389546400002,1.52528964,1.0693056,1.47991817,-3.00290594,,,
imu,395.884627,0.08493769760000001,-9.852174768800001,1.5360563904,0.77770611,1.54721036,-2.95056757,,,
imu,395.893109,0.07716171120000001,-9.855763685600001,1.5336637792,0.59078336,1.73413311,-3.14496723,,,
imu,395.90159,0.08673215600000002,-9.803724392000001,1.5270840984,0.41133752,2.12293243,-3.39170526,,,
imu,395.910071,0.09510629520000001,-9.786976113600002,1.5097376672,0.15712258,2.3995781,-3.48142818,,,
imu,395.918553,0.09630260080000001,-9.7702278352,1.5031579864,0.21693786,2.51920866,-3.60105874,,,
imu,395.927034,0.10467674,-9.754675862400001,1.5121302784,0.16459949,2.6986545,-3.71321239,,,
imu,395.935515,0.1208268656,-9.728955292000002,1.5145228896,0.23189168,2.79585433,-3.81041222,,,
imu,395.943997,0.137575144,-9.724768222400002,1.5067469032,0.53096808,2.86314652,-3.81041222,,,
imu,395.952478,0.143556672,-9.7283571392,1.5270840984,0.53844499,2.87810034,-4.102011709999999,,,
imu,395.960959,0.1549215752,-9.734338667200001,1.5264859456,0.74779847,2.81828506,-4.22911918,,,
imu,395.969441,0.1758569232,-9.748096181600001,1.5450286824,0.9945364999999999,2.86314652,-4.146873169999999,,,
imu,395.977922,0.1716698536,-9.776807516000002,1.564169572,1.07678251,2.55659321,-4.18425772,,,
imu,395.986403,0.1620994088,-9.802528086400002,1.5797215448,1.18145925,2.60893158,-4.15435008,,,
imu,395.994885,0.1597067976,-9.820472670400001,1.6006568928,1.15902852,2.36967046,-4.11696553,,,
imu,396.003366,0.1567160336,-9.830641268,1.6102273376,0.9870595899999999,2.27994754,-3.90761205,,,
imu,396.011847,0.1573141864,-9.834230184800003,1.6102273376,0.9571519499999999,2.13788625,-3.89265823,,,
imu,396.020329,0.1477437416,-9.828248656800001,1.6174051712,0.66555246,1.89862513,-3.78798149,,,
imu,396.02881,0.146547436,-9.807313308800001,1.6054421152,0.5982602699999999,1.74161002,-3.75059694,,,
imu,396.037291,0.1393696024,-9.794752100000002,1.597067976,0.63564482,1.62945637,-3.67582784,,,
imu,396.045773,0.1250139352,-9.748694334400001,1.5952735176,0.6281679099999999,1.60702564,-3.63844329,,,
imu,396.054225,0.1040785872,-9.7325442088,1.5749363224,0.53096808,1.55468727,-3.75059694,,,
imu,396.062677,0.1022841288,-9.710412555200001,1.5725437112,0.81509066,1.53973345,-3.68330475,,,
imu,396.071129,0.09151737840000002,-9.719983000000001,1.5504120576,1.02444414,1.74161002,-3.48890509,,,
imu,396.079581,0.08673215600000002,-9.7128051664,1.5587861968,1.20388998,1.93600968,-3.32441307,,,
imu,396.088033,0.08912476720000001,-9.715795930400002,1.5659640304,1.41324346,2.13788625,-3.1973056,,,
imu,396.096485,0.0813487808,-9.7427128064,1.552206516,1.57025857,2.28742445,-3.30945925,,,
imu,396.104937,0.080750628,-9.739722042400002,1.5486175992,1.82447351,2.52668557,-3.41413599,,,
imu,396.113389,0.09749890640000002,-9.748096181600001,1.5557954328,1.95905789,2.86314652,-3.44404363,,,
imu,396.121842,0.080750628,-9.789368724800001,1.5348600848,1.85438115,3.06502309,-3.51881273,,,
imu,396.130294,0.10467674,-9.793555794400001,1.5528046688,1.86185806,3.19213056,-3.68330475,,,
imu,396.138746,0.131593616,-9.802528086400002,1.5545991272,1.87681188,3.2220382,-3.84031986,,,
imu,396.147198,0.1339862272,-9.766638918400002,1.5384490016,1.8917657,3.24446893,-3.81041222,,,
imu,396.155549,0.1519308112,-9.755274015200001,1.5031579864,1.84690424,3.30428421,-3.54872037,,,
imu,396.164002,0.1692772424,-9.720581152800001,1.501363528,2.09364227,3.35662258,-3.32441307,,,
imu,396.172454,0.1836329096,-9.727160833600001,1.4732503464,2.28804193,3.24446893,-3.10010577,,,
imu,396.180906,0.1920070488,-9.751685098400001,1.4828207912,2.43758013,3.05754618,-2.94309066,,,
imu,396.189358,0.1955959656,-9.76484446,1.4852134024,2.51234923,2.93043871,-3.01038285,,,
imu,396.19781,0.1991848824,-9.767237071200002,1.4935875416,2.75908726,2.73603905,-2.90570611,,,
imu,396.206262,0.1752587704,-9.7995373224,1.516317348,2.87124091,2.59397776,-2.75616791,,,
imu,396.214714,0.1567160336,-9.825257892800002,1.5348600848,2.72917962,2.34723973,-2.68887572,,,
imu,396.223166,0.1411640608,-9.8527729216,1.5258877928,2.40019558,2.1005017,-2.80102937,,,
imu,396.231618,0.1411640608,-9.824659740000001,1.5384490016,2.24318047,2.01077878,-2.77859864,,,
imu,396.24007,0.1124527264,-9.824061587200001,1.5324674736,2.06373463,2.14536316,-2.62158353,,,
imu,396.248522,0.08673215600000002,-9.836622796,1.5444305296,1.95158098,2.53416248,-2.38979932,,,
imu,396.256987,0.08015247520000002,-9.8168837536,1.5366545432,1.73475059,3.00520781,-1.99352309,,,
imu,396.265452,0.09510629520000001,-9.8210708232,1.5557954328,1.60764312,3.49868387,-1.63463141,,,
imu,396.273917,0.1082656568,-9.800733628000001,1.5617769608,1.40576655,4.03702139,-1.74678506,,,
imu,396.282382,0.1321917688,-9.798341016800002,1.5653658776,1.35342818,4.410866889999999,-2.18792275,,,
imu,396.290847,0.1429585192,-9.737927584000001,1.5725437112,1.34595127,4.814620029999999,-2.62906044,,,
imu,396.299311,0.1686790896,-9.711010708000002,1.5647677248,1.27118217,5.12117334,-3.18982869,,,
imu,396.307776,0.1985867296,-9.694860582400002,1.5450286824,1.46558183,5.34548064,-3.5711511,,,
imu,396.316241,0.2243073,-9.6733270816,1.537252696,1.69736604,5.29314227,-3.83284295,,,
imu,396.324706,0.2649816904,-9.6667474008,1.5444305296,1.99644244,5.20341935,-3.98238115,,,
imu,396.333171,0.2739539824000001,-9.673925234400002,1.5318693208,2.30299575,4.979112049999999,-3.93751969,,,
imu,396.341635,0.2829262744000001,-9.675719692800001,1.549215752,2.69927198,4.58283582,-3.81788913,,,
imu,396.3501,0.2715613712,-9.6876827488,1.543234224,3.10302512,4.29871324,-3.6459202,,,
imu,396.358565,0.2554112456,-9.693664276800002,1.5516083632,3.46939371,3.90991392,-3.47395127,,,
imu,396.36703,0.2320832864,-9.741516500800001,1.5528046688,3.85819303,3.61083752,-3.11505959,,,
imu,396.375495,0.2099516328,-9.763050001600002,1.5348600848,4.01520814,3.41643786,-2.83841392,,,
imu,396.383959,0.2075590216,-9.785181655200002,1.5456268352,3.947915950000001,3.12483837,-2.80850628,,,
imu,396.392424,0.1309954632,-9.8300431152,1.52528964,3.731085559999999,3.17717674,-2.86084465,,,
imu,396.400889,0.206362716,-9.803126239200001,1.5031579864,3.52920899,3.22951511,-2.95804448,,,
imu,396.409354,0.200381188,-9.815089295200002,1.4941856944,3.40957843,3.4463455,-3.18235178,,,
imu,396.417819,0.2147368552,-9.834828337600001,1.4678669712,3.26751714,3.55849915,-3.33936689,,,
imu,396.426284,0.2344758976,-9.8527729216,1.4642780544,3.17779422,3.64074516,-3.27955161,,,
imu,396.434748,0.2398592728,-9.850380310400002,1.48042818,2.96844074,3.58840679,-3.37675144,,,
imu,396.443213,0.251224176,-9.853371074400002,1.4780355688,2.60954906,3.46129932,-3.496382,,,
imu,396.451678,0.2637853848,-9.877297186400002,1.4666706656,2.35533412,3.52859151,-3.54124346,,,
imu,396.460142,0.266177996,-9.899428840000002,1.4517168456,2.16841137,3.38653022,-3.7206893,,,
imu,396.468605,0.272159524,-9.842006171200001,1.4313796504,2.04878081,3.12483837,-3.88518132,,,
imu,396.477069,0.2655798432,-9.800733628000001,1.4463334704,1.70484295,2.96782326,-4.012288789999999,,,
imu,396.485532,0.230288828,-9.803126239200001,1.3984812464,1.5926893,2.90053107,-4.00481188,,,
imu,396.493996,0.2416537312,-9.802528086400002,1.3924997184,1.63755076,3.00520781,-3.51881273,,,
imu,396.502459,0.2207183832,-9.783387196800001,1.3709662176,1.71231986,2.99025399,-3.07019813,,,
imu,396.510923,0.2338777448,-9.752283251200002,1.3691717592,1.54035093,2.96034635,-2.9729983,,,
imu,396.519386,0.2380648144,-9.769629682400002,1.3661809952,1.63755076,2.87810034,-3.13749032,,,
imu,396.52785,0.2440463424,-9.8013317808,1.363788384,1.77961205,2.91548489,-3.13749032,,,
imu,396.536313,0.2536167872,-9.8168837536,1.3691717592,1.87681188,2.71360832,-3.54872037,,,
imu,396.544777,0.2566075512,-9.837220948800002,1.3739569816,1.92915025,2.50425484,-3.96742733,,,
imu,396.55324,0.2673743016,-9.8497821576,1.3865181904,1.83942733,2.38462428,-4.15435008,,,
imu,395.092239,,,,,,,81.66615720000001,-19.29351000000001,119.6977144
imu,395.193771,,,,,,,79.6031404,-17.97513240000001,122.5297848
imu,395.295333,,,,,,,79.639762,-18.20706920000001,122.7251
imu,395.396926,,,,,,,79.6763836,-17.32815080000001,122.6396496
imu,395.498428,,,,,,,79.55431159999999,-17.88968200000001,122.5786136
imu,395.600051,,,,,,,79.4688612,-17.75540280000001,122.7983432
imu,395.701614,,,,,,,79.2369244,-17.60891640000002,122.5664064
imu,395.803176,,,,,,,80.44543719999999,-17.51125880000002,121.6386592
imu,396.561704,0.2745521352,-9.860548908000002,1.4104443024,1.61512003,2.28742445,-4.32631901,,,
imu,396.570168,0.2799355104,-9.856959991200002,1.4110424552,1.22632071,2.1752708,-4.31136519,,,
imu,396.578631,0.2799355104,-9.8461932408,1.4158276776,0.9571519499999999,2.05564024,-4.25154991,,,
imu,396.587095,0.2799355104,-9.837819101600003,1.396686788,0.71789083,1.76404075,-4.34874974,,,
imu,396.595558,0.2781410520000001,-9.832435726400002,1.387714496,0.52349117,1.59954873,-4.43847266,,,
imu,396.604022,0.2835244272,-9.825257892800002,1.3954904824,0.43376825,1.53225654,-4.55062631,,,
imu,396.612485,0.2637853848,-9.811500378400002,1.4020701632,0.32909151,1.21822632,-4.58801086,,,
imu,396.620949,0.2374666616,-9.803724392000001,1.4182202888,0.20946095,0.9191499199999997,-4.715118329999999,,,
imu,396.629412,0.218325772,-9.793555794400001,1.426594428,0.20198404,0.72475026,-4.51324176,,,
imu,396.637876,0.1985867296,-9.801929933600002,1.4194165944,0.29918387,0.5527813299999997,-4.51324176,,,
imu,396.646339,0.1818384512,-9.8013317808,1.4230055112,0.11973803,0.5153967799999997,-4.55810322,,,
imu,396.654803,0.1519308112,-9.801929933600002,1.4559039152,0.03749201999999999,0.6499811599999998,-4.30388828,,,
imu,396.663645,0.1561178808,-9.789368724800001,1.48042818,0.20198404,0.7471809899999999,-4.19173463,,,
imu,396.672487,0.1369769912,-9.801929933600002,1.4576983736,0.23189168,0.6873657099999999,-4.22164227,,,
imu,396.681329,0.1160416432,-9.801929933600002,1.4636799016,0.23189168,0.9041961000000001,-4.13191935,,,
imu,396.690172,0.1148453376,-9.797144711200001,1.4786337216,0.08983038999999998,1.23318014,-4.057150249999999,,,
imu,396.699014,0.1238176296,-9.7786019744,1.4899986248,0.08983038999999998,1.62945637,-3.89265823,,,
imu,396.707856,0.1387714496,-9.751685098400001,1.4911949304,0.1720764,1.75656384,-3.88518132,,,
imu,396.716698,0.137575144,-9.7504887928,1.4792318744,0.23189168,2.01077878,-4.079580979999999,,,
imu,396.72554,0.146547436,-9.7504887928,1.4756429576,0.35152224,2.33976282,-4.102011709999999,,,
imu,396.734382,0.1638938672,-9.7504887928,1.4750448048,0.4711528,2.58650085,-4.21416536,,,
imu,396.743224,0.1878199792,-9.738525736800002,1.4882041664,0.6132140899999999,2.7734236,-4.25154991,,,
imu,396.752066,0.2075590216,-9.744507264800001,1.4786337216,0.85995212,2.99025399,-4.341272829999999,,,
imu,396.760909,0.2278962168,-9.745105417600001,1.4911949304,1.05435178,2.90800798,-4.6179185,,,
imu,396.769751,0.2548130928,-9.751685098400001,1.4846152496,1.0693056,2.57902394,-4.81231816,,,
imu,396.778593,0.2709632184,-9.76484446,1.4882041664,1.28613599,2.30985518,-4.759979789999999,,,
imu,396.787435,0.2649816904,-9.76484446,1.48042818,1.53287402,2.0257326,-4.77493361,,,
imu,396.796277,0.260196468,-9.789368724800001,1.4870078608,1.53287402,1.577118,-4.93942563,,,
imu,396.805119,0.2380648144,-9.8049206976,1.477437416,1.68988913,1.26308778,-4.79736434,,,
imu,396.813961,0.2225128416,-9.803126239200001,1.4858115552,1.65998149,1.02382666,-4.6179185,,,
imu,396.822804,0.1842310624,-9.803126239200001,1.4690632768,1.54035093,0.80699627,-4.46090339,,,
imu,396.831646,0.1591086448,-9.794153947200002,1.4732503464,1.368382,0.5453044199999999,-4.47585721,,,
imu,396.840488,0.128602852,-9.802528086400002,1.46547436,1.42072037,0.66493498,-4.19921154,,,
imu,396.84933,0.1160416432,-9.8132948368,1.4588946792,1.30108981,0.6574580699999997,-4.0197657,,,
imu,396.858172,0.1100601152,-9.825856045600002,1.4660725128,1.1440747,0.6798887999999996,-4.034719519999999,,,
imu,396.866628,0.1058730456,-9.819276364800002,1.4786337216,1.03939796,0.8967191899999998,-4.169303899999999,,,
imu,396.875084,0.1142471848,-9.803126239200001,1.4911949304,0.8749059399999999,0.92662683,-4.47585721,,,
imu,396.88354,0.1088638096,-9.822267128800002,1.4935875416,0.74779847,1.06121121,-4.47585721,,,
imu,396.891996,0.1292010048,-9.841408018400001,1.5007653752,0.64312173,1.17336486,-4.46090339,,,
imu,396.900452,0.1250139352,-9.834230184800003,1.468465124,0.46367589,1.15093413,-4.67773378,,,
imu,396.908908,0.1268083936,-9.797742864000002,1.4702595824,0.57582954,1.10607267,-4.737549059999999,,,
imu,396.917364,0.0933118368,-9.758264779200001,1.4547076096,0.6954601,1.16588795,-4.58053395,,,
imu,396.925819,0.09630260080000001,-9.758264779200001,1.4571002208,0.9197674,1.43505671,-3.8702275,,,
imu,396.934275,0.09929336480000002,-9.755274015200001,1.4529131512,1.16650543,1.75656384,-3.31693616,,,
imu,396.942731,0.1130508792,-9.766040765600001,1.459492832,1.33099745,1.8761944,-3.24216706,,,
imu,396.951187,0.0980970592,-9.7540777096,1.447529776,1.46558183,1.93600968,-3.62348947,,,
imu,396.959643,0.0980970592,-9.7403201952,1.4672688184,1.70484295,2.07059406,-3.8702275,,,
imu,396.968099,0.08972292000000001,-9.7361331256,1.4421464008,1.75718132,2.13788625,-4.244073,,,
imu,396.976555,0.09390998960000001,-9.7474980288,1.4499223872,1.91419643,2.19022462,-4.670256869999999,,,
imu,396.985011,0.092713684,-9.772022293600001,1.4457353176,2.12354991,2.33228591,-4.954379449999999,,,
imu,396.993467,0.1160416432,-9.803126239200001,1.4463334704,2.24318047,2.36219355,-5.0665331,,,
imu,397.001923,0.1441548248,-9.822267128800002,1.456502068,2.2656112,2.38462428,-5.03662546,,,
imu,397.010379,0.167482784,-9.853371074400002,1.4678669712,2.24318047,2.2500399,-4.94690254,,,
imu,397.018834,0.1836329096,-9.836622796,1.462483596,1.84690424,1.93600968,-4.81979507,,,
imu,397.02729,0.1806421456,-9.8264541984,1.4696614296,1.86933497,1.70422547,-4.44594957,,,
imu,397.035746,0.19439966,-9.808509614400002,1.4750448048,1.62259694,1.43505671,-4.169303899999999,,,
imu,397.044202,0.1806421456,-9.803126239200001,1.4517168456,1.32352054,1.06121121,-3.92256587,,,
imu,397.052658,0.1597067976,-9.7809945856,1.4433427064,1.12912088,0.62007352,-3.76555076,,,
imu,397.061114,0.1453511304,-9.776209363200001,1.4379593312,1.04687487,0.2910894799999997,-3.57862801,,,
imu,397.069574,0.122621324,-9.792957641600001,1.4218092056,0.91229049,0.2537049300000001,-3.54872037,,,
imu,397.078033,0.0855358504,-9.800733628000001,1.4337722616,0.8749059399999999,-0.01546383000000029,-3.62348947,,,
imu,397.086493,0.06041343280000001,-9.803126239200001,1.45052054,1.00201341,0.1415512799999998,-3.48142818,,,
imu,397.094953,0.0323002512,-9.8563618384,1.462483596,1.18893616,0.3209971199999999,-3.42908981,,,
imu,397.103413,0.0281131816,-9.841408018400001,1.4768392632,1.06182869,0.56025824,-3.40665908,,,
imu,397.111872,0.0245242648,-9.831239420800001,1.5097376672,0.6281679099999999,1.11354958,-3.52628964,,,
imu,397.120332,0.0173464312,-9.889858395200001,1.498372764,0.44872207,1.47991817,-3.93751969,,,
imu,397.128792,0.04187069600000001,-9.885671325600002,1.4720540408,0.46367589,1.8761944,-4.0197657,,,
imu,397.137252,0.06041343280000001,-9.8132948368,1.4660725128,0.3216146,2.27247063,-4.23659609,,,
imu,397.145711,0.0747691,-9.7989391696,1.486409708,0.22441477,2.59397776,-4.40108811,,,
imu,397.154171,0.0933118368,-9.797144711200001,1.4720540408,0.29170696,2.94539253,-4.124442439999999,,,
imu,397.162631,0.125612088,-9.793555794400001,1.4672688184,0.23189168,3.21456129,-3.7206893,,,
imu,397.17109,0.1507345056,-9.7702278352,1.4576983736,0.29918387,3.46877623,-3.48142818,,,
imu,397.17955,0.1716698536,-9.7636481544,1.4768392632,0.3963837,3.49868387,-3.44404363,,,
imu,397.18801,0.1806421456,-9.76484446,1.4792318744,0.76275229,3.32671494,-3.33188998,,,
imu,397.19647,0.1848292152,-9.779200127200001,1.468465124,0.7552753799999999,3.41643786,-3.50385891,,,
imu,397.204929,0.1961941184,-9.755872168000002,1.4690632768,0.77770611,3.1472691,-3.95247351,,,
imu,397.213389,0.1932033544,-9.755274015200001,1.474446652,0.9048135799999999,2.79585433,-4.408565019999999,,,
imu,397.221849,0.1932033544,-9.769031529600001,1.4732503464,1.1440747,2.4743472,-4.57305704,,,
imu,397.230309,0.182436604,-9.764246307200002,1.4786337216,1.09921324,2.16031698,-4.52819558,,,
imu,397.238768,0.185427368,-9.76484446,1.4780355688,1.12912088,1.83133294,-4.670256869999999,,,
imu,397.247159,0.1692772424,-9.7821908912,1.477437416,1.11416706,1.56216418,-4.61044159,,,
imu,397.255619,0.1537252696,-9.767835224,1.4678669712,1.10669015,1.41262598,-4.37118047,,,
imu,397.264079,0.1303973104,-9.772620446400001,1.4648762072,1.21136689,1.33037997,-4.07210407,,,
imu,397.272542,0.1214250184,-9.798341016800002,1.4720540408,1.25622835,1.24813396,-4.012288789999999,,,
imu,397.281006,0.1190324072,-9.802528086400002,1.4696614296,1.24875144,1.21074941,-3.88518132,,,
imu,397.289469,0.0903210728,-9.802528086400002,1.4547076096,1.2188438,1.18831868,-3.93751969,,,
imu,397.297933,0.07656355840000001,-9.802528086400002,1.4588946792,1.27118217,1.2780416,-3.81788913,,,
imu,397.306396,0.0634041968,-9.825257892800002,1.4457353176,1.10669015,1.30047233,-3.90761205,,,
imu,397.31486,0.05383375200000001,-9.834828337600001,1.4487260816,1.03192105,1.47244126,-3.80293531,,,
imu,397.323323,0.0406743904,-9.834828337600001,1.4571002208,1.02444414,1.69674856,-3.7206893,,,
imu,397.331787,0.0281131816,-9.856959991200002,1.4547076096,0.85995212,1.92105586,-3.69825857,,,
imu,397.34025,0.0257205704,-9.8653341304,1.4463334704,0.68798319,2.22760917,-3.69825857,,,
imu,397.348714,0.0340947096,-9.856959991200002,1.4636799016,0.6281679099999999,2.61640849,-3.59358183,,,
imu,397.357177,0.03947808480000001,-9.859950755200002,1.4576983736,0.38142988,2.96034635,-3.54124346,,,
imu,397.365641,0.06998387760000001,-9.83961356,1.4547076096,0.23936859,3.26689966,-3.53376655,,,
imu,397.374105,0.08314323920000001,-9.835426490400001,1.4391556368,0.14964567,3.42391477,-3.48890509,,,
imu,395.904708,,,,,,,79.3589964,-17.401394,122.9448296
imu,396.00624,,,,,,,81.8614724,-18.19486200000002,119.7587504
imu,396.107833,,,,,,,79.2857532,-17.86526760000002,122.4565416
imu,396.209396,,,,,,,81.97133720000001,-18.71977160000002,120.6254616
imu,396.310928,,,,,,,79.3467892,-17.76761000000002,122.4931632
imu,396.412521,,,,,,,79.4810684,-18.04837560000001,122.9204152
imu,396.514053,,,,,,,78.96836599999999,-18.32914120000002,123.1401448
imu,396.615676,,,,,,,79.51769,-18.26810520000002,122.8593792
imu,397.382568,0.1004896704,-9.8234634344,1.453511304,-0.06718472,3.5211146,-3.54124346,,,
imu,397.391032,0.1208268656,-9.806715156000001,1.4678669712,-0.20924601,3.49868387,-3.56367419,,,
imu,397.399495,0.1423603664,-9.802528086400002,1.4690632768,-0.45598404,3.31923803,-3.66087402,,,
imu,397.407959,0.1519308112,-9.786976113600002,1.45052054,-0.38869185,3.2220382,-3.66835093,,,
imu,397.416422,0.1519308112,-9.765442612800001,1.4571002208,-0.37373803,3.18465365,-3.62348947,,,
imu,397.424886,0.1477437416,-9.754675862400001,1.453511304,-0.41112258,3.10240764,-3.72816621,,,
imu,397.433349,0.1459492832,-9.7636481544,1.4618854432,-0.35878421,2.93043871,-3.52628964,,,
imu,397.441813,0.1543234224,-9.779200127200001,1.471455888,-0.25410747,2.97530017,-3.57862801,,,
imu,397.450276,0.1495382,-9.786976113600002,1.4828207912,-0.14943073,2.58650085,-3.73564312,,,
imu,397.45874,0.1441548248,-9.800733628000001,1.4977746112,0.08235347999999998,2.66874686,-3.70573548,,,
imu,397.467204,0.1399677552,-9.818080059200001,1.5211025704,0.01506129,2.43696265,-3.74312003,,,
imu,397.475707,0.1429585192,-9.8461932408,1.5575898912,-0.25410747,2.27247063,-3.85527368,,,
imu,397.484209,0.1321917688,-9.838417254400001,1.5713474056,-0.52327623,2.21265535,-3.98985806,,,
imu,397.492712,0.155519728,-9.803724392000001,1.5839086144,-0.76253735,2.04816333,-3.95247351,,,
imu,397.501215,0.1459492832,-9.800733628000001,1.5593843496,-0.79244499,2.04816333,-3.84031986,,,
imu,397.509718,0.1471455888,-9.8013317808,1.5677584888,-0.91955246,2.04816333,-3.71321239,,,
imu,397.518221,0.1411640608,-9.786377960800001,1.588095684,-0.98684465,1.90610204,-3.63096638,,,
imu,397.526724,0.1650901728,-9.7265626808,1.5719455584,-0.8821679099999999,2.00330187,-3.41413599,,,
imu,397.535227,0.167482784,-9.678710456800001,1.5659640304,-0.874691,1.77899457,-3.83284295,,,
imu,397.54373,0.1656883256,-9.711608860800002,1.5701511,-0.7251528,1.41262598,-4.33379592,,,
imu,397.552233,0.1537252696,-9.763050001600002,1.5587861968,-0.36626112,1.30047233,-4.386134289999999,,,
imu,397.560736,0.1417622136,-9.790565030400002,1.5414397656,-0.09709236,1.10607267,-4.41604193,,,
imu,397.569239,0.128602852,-9.758862932000001,1.5534028216,0.1720764,1.09859576,-4.318842099999999,,,
imu,397.577742,0.1022841288,-9.745105417600001,1.5593843496,0.64312173,1.14345722,-3.80293531,,,
imu,397.586245,0.08673215600000002,-9.748694334400001,1.546224988,1.00201341,1.37524143,-3.07767504,,,
imu,397.594748,0.101685976,-9.7576666264,1.537252696,1.01696723,1.7266562,-2.58419898,,,
imu,397.603251,0.1010878232,-9.7492924872,1.5300748624,1.2936129,1.83880985,-2.35241477,,,
imu,397.611754,0.09510629520000001,-9.7534795568,1.5414397656,1.47305874,2.06311715,-2.62158353,,,
imu,397.620257,0.110658268,-9.767237071200002,1.5115321256,1.56278166,2.324809,-3.02533667,,,
imu,397.62876,0.113649032,-9.752283251200002,1.5055505976,1.70484295,2.39210119,-3.45899745,,,
imu,396.71714,,,,,,,79.3589964,-18.3535556,122.3832984
imu,396.818702,,,,,,,79.49327559999999,-18.13382600000002,122.236812
imu,396.920265,,,,,,,79.6641764,-17.96292520000002,122.480956
imu,397.021858,,,,,,,81.78822919999999,-18.82963640000002,120.955056
imu,397.12339,,,,,,,79.52989720000001,-17.58450200000001,122.9448296
imu,397.225593,,,,,,,81.83705800000001,-18.92729400000002,120.0028944
imu,397.326515,,,,,,,79.16368119999998,-18.03616840000002,122.3710912
imu,397.428077,,,,,,,78.80967240000001,-18.3535556,121.016092
imu,397.52967,,,,,,,78.98057320000001,-18.255898,122.5786136
imu,397.631202,,,,,,,79.04160920000001,-18.20706920000001,123.213388
