Type,Timestamp,Data Accelerometer X,Data Accelerometer Y,Data Accelerometer Z,Data Gyroscope X,Data Gyroscope Y,Data Gyroscope Z,Data Magnetometer X,Data Magnetometer Y,Data Magnetometer Z
imu,554.921334,-0.125612088,-9.853371074400002,1.3685736064,0.06739966,2.1005017,-3.2720747,,,
imu,554.929814,-0.1381732968,-9.824061587200001,1.3691717592,0.01506129,2.04816333,-3.17487487,,,
imu,554.938294,-0.1668846312,-9.8234634344,1.3859200376,-0.10456927,1.96591732,-3.17487487,,,
imu,554.946774,-0.1812402984,-9.803126239200001,1.399677552,-0.25410747,2.0257326,-3.38422835,,,
imu,554.955254,-0.1926052016,-9.794752100000002,1.4050609272,-0.20924601,2.22760917,-3.3468438,,,
imu,554.963734,-0.1997830352,-9.801929933600002,1.414631372,-0.17186146,2.51920866,-3.63096638,,,
imu,554.972214,-0.19439966,-9.819276364800002,1.3924997184,-0.03727708,2.75099287,-3.65339711,,,
imu,554.980694,-0.1477437416,-9.7845835024,1.399677552,-0.22419983,2.9229618,-3.80293531,,,
imu,554.989174,-0.11963056,-9.748096181600001,1.4188184416,-0.007369440000000005,2.9977309,-3.8702275,,,
imu,554.997654,-0.1268083936,-9.7612555432,1.4098461496,0.20946095,3.21456129,-3.95247351,,,
imu,555.006134,-0.1004896704,-9.785779808000001,1.4170239832,0.40386061,3.52859151,-3.48142818,,,
imu,555.014581,-0.0741709472,-9.794752100000002,1.4200147472,0.44872207,3.50616078,-3.1225365,,,
imu,555.023028,-0.04785222400000001,-9.789966877600001,1.4218092056,0.68050628,3.55849915,-2.95056757,,,
imu,555.031475,-0.0305057928,-9.763050001600002,1.4218092056,0.91229049,3.54354533,-2.96552139,,,
imu,555.039923,-0.0293094872,-9.7504887928,1.4188184416,0.97958268,3.38653022,-2.87579847,,,
imu,555.04837,-0.008972292000000002,-9.746899876,1.3954904824,1.0693056,3.27437657,-3.07019813,,,
imu,555.056817,-0.0107667504,-9.7361331256,1.396686788,1.37585891,3.05006927,-3.30198234,,,
imu,555.065264,-0.0203371952,-9.759461084800002,1.408649844,1.57025857,2.84071579,-3.54124346,,,
imu,555.073711,-0.0161501256,-9.7606573904,1.399677552,1.63007385,2.59397776,-3.74312003,,,
imu,555.082158,-0.0251224176,-9.7815927384,1.3883126488,1.67493531,2.41453192,-3.84031986,,,
imu,555.090605,-0.023926112,-9.7995373224,1.378742204,1.8917657,2.31733209,-3.95247351,,,
imu,555.099052,-0.0352910152,-9.810902225600001,1.3883126488,2.12354991,2.30237827,-3.97490424,,,
imu,555.107499,-0.04725407120000001,-9.812696684000002,1.3889108016,2.08616536,2.27247063,-4.0197657,,,
imu,555.115946,-0.04785222400000001,-9.8144911424,1.3805366624,2.24318047,2.22760917,-3.65339711,,,
imu,555.124393,-0.0490485296,-9.815687448000002,1.3733588288,2.24318047,2.16031698,-3.65339711,,,
imu,555.13284,-0.05802082160000001,-9.824659740000001,1.3601994672,2.19831901,2.16031698,-3.74312003,,,
imu,555.141287,-0.06699311360000001,-9.822267128800002,1.3452456472,2.21327283,2.03320951,-4.04967334,,,
imu,555.149734,-0.07955432240000002,-9.815089295200002,1.3290955216,2.2656112,2.08554788,-4.19173463,,,
imu,555.158181,-0.07895616960000001,-9.806715156000001,1.3177306184,2.31047266,2.14536316,-4.20668845,,,
imu,555.166628,-0.08433954480000001,-9.802528086400002,1.312945396,2.30299575,2.27247063,-4.42351884,,,
imu,555.175075,-0.08194693360000001,-9.810304072800001,1.3087583264,2.21327283,2.27247063,-4.52071867,,,
imu,555.183522,-0.08852661440000001,-9.818080059200001,1.2985897288,2.37776485,2.46687029,-4.41604193,,,
imu,555.191969,-0.080750628,-9.827650504000003,1.2932063536,2.31794957,2.43696265,-4.49828794,,,
imu,555.200416,-0.08314323920000001,-9.855165532800001,1.3105527848,2.25813429,2.42948574,-4.44594957,,,
imu,555.208863,-0.08015247520000002,-9.869521200000003,1.3111509376,2.04878081,2.39210119,-4.28893446,,,
imu,555.217669,-0.09390998960000001,-9.870119352800002,1.3177306184,1.80204278,2.54163939,-4.13939626,,,
imu,555.226475,-0.09929336480000002,-9.862343366400001,1.309954632,1.4431511,2.48182411,-4.23659609,,,
imu,555.235282,-0.1070693512,-9.851576616000001,1.3015804928,1.21136689,2.41453192,-4.33379592,,,
imu,555.244088,-0.1082656568,-9.8527729216,1.3105527848,0.9571519499999999,2.36219355,-4.40108811,,,
imu,555.252894,-0.1142471848,-9.819276364800002,1.3027767984,0.620691,2.19770153,-4.58053395,,,
imu,555.261701,-0.09929336480000002,-9.7750130576,1.3033749512,0.55339881,2.04816333,-4.715118329999999,,,
imu,555.270507,-0.1142471848,-9.765442612800001,1.2926082008,0.74779847,1.9509635,-4.70764142,,,
imu,555.279313,-0.137575144,-9.8270523512,1.2609061024,0.8973366700000001,1.92105586,-4.49081103,,,
imu,555.28812,-0.1309954632,-9.883876867200001,1.2842340616,0.7403215599999999,1.84628676,-4.26650373,,,
imu,555.296926,-0.1429585192,-9.863539672000002,1.3284973688,0.6281679099999999,1.6518871,-4.06462716,,,
imu,555.305732,-0.152528964,-9.866530436000001,1.3213195352,0.63564482,1.62945637,-4.19921154,,,
imu,555.314538,-0.1716698536,-9.856959991200002,1.3506290224,0.4861066199999999,1.59954873,-4.07210407,,,
imu,555.323345,-0.1967922712,-9.870717505600002,1.378742204,0.28423005,1.74161002,-3.82536604,,,
imu,555.332151,-0.2111479384,-9.894045464800001,1.3458438,0.25432241,1.77899457,-3.75059694,,,
imu,555.340957,-0.2189239248,-9.842604324000002,1.3380678136,0.14964567,2.03320951,-3.43656672,,,
imu,555.349764,-0.2356722032,-9.803126239200001,1.327899216,0.1720764,2.35471664,-3.23469015,,,
imu,555.35857,-0.2356722032,-9.794153947200002,1.3231139936,0.20946095,2.70613141,-2.78607555,,,
imu,555.367376,-0.2189239248,-9.801929933600002,1.3416567304,0.52349117,3.21456129,-2.0757691,,,
imu,555.376183,-0.1908107432,-9.789368724800001,1.3649846896,0.63564482,3.61831443,-1.79912343,,,
imu,555.384989,-0.1609031032,-9.802528086400002,1.3613957728,0.79265993,3.95477538,-2.06829219,,,
imu,555.393795,-0.125612088,-9.8043225448,1.3536197864,1.02444414,4.05945212,-2.51690679,,,
imu,555.402602,-0.08673215600000002,-9.7959484056,1.3613957728,0.9870595899999999,4.216467229999999,-3.09262886,,,
imu,555.411408,-0.0663949608,-9.7953502528,1.3649846896,1.09173633,4.20899032,-3.72816621,,,
imu,555.419884,-0.0305057928,-9.8013317808,1.3709662176,1.17398234,3.98468302,-4.15435008,,,
imu,555.42836,-0.0233279592,-9.7923594888,1.357806856,1.368382,3.820191,-4.453426479999999,,,
imu,555.436837,0.0,-9.780396432800002,1.3811348152,1.27118217,3.43886859,-4.48333412,,,
imu,555.445313,0.0101685976,-9.7809945856,1.3703680648,1.19641307,3.1472691,-4.363703559999999,,,
imu,555.453789,0.0173464312,-9.7953502528,1.3751532872,1.2188438,2.63136231,-4.29641137,,,
imu,555.462265,-0.0011963056,-9.797144711200001,1.3829292736,1.20388998,2.09302479,-4.318842099999999,,,
imu,555.470742,-0.0203371952,-9.769031529600001,1.3984812464,0.9571519499999999,1.59954873,-4.146873169999999,,,
imu,555.479218,-0.0406743904,-9.767237071200002,1.3793403568,0.88985976,1.06868812,-3.98985806,,,
imu,555.487694,-0.0675912664,-9.797742864000002,1.3482364112,1.03939796,0.8219500899999996,-3.69078166,,,
imu,555.49617,-0.1052748928,-9.7995373224,1.3536197864,1.03939796,0.7172733499999997,-3.47395127,,,
imu,555.504647,-0.1321917688,-9.783387196800001,1.3446474944,1.06182869,0.6350273399999997,-3.22721324,,,
imu,555.513123,-0.1507345056,-9.7815927384,1.3416567304,1.35342818,0.8144731799999998,-2.89075229,,,
imu,555.521599,-0.1746606176,-9.80970592,1.3619939256,1.42819728,0.98644211,-2.91318302,,,
imu,555.530075,-0.1752587704,-9.824061587200001,1.3835274264,1.54035093,1.39019525,-2.94309066,,,
imu,555.538552,-0.1932033544,-9.830641268,1.3889108016,1.39081273,1.63693328,-3.24216706,,,
imu,555.547028,-0.19439966,-9.878493492,1.3930978712,1.42072037,1.92105586,-3.66087402,,,
imu,555.555504,-0.1860255208,-9.8982325344,1.3649846896,1.48801256,2.25751681,-3.77302767,,,
imu,555.563981,-0.1656883256,-9.8479876992,1.3661809952,1.25622835,2.5491163,-4.04967334,,,
imu,555.572457,-0.1788476872,-9.803126239200001,1.3763495928,1.17398234,2.96782326,-4.146873169999999,,,
imu,555.580933,-0.1579123392,-9.824061587200001,1.351825328,1.31604363,3.37905331,-3.69825857,,,
imu,555.589409,-0.1220231712,-9.830641268,1.339862272,1.16650543,3.63326825,-2.98795212,,,
imu,555.597886,-0.0903210728,-9.8330338792,1.342853036,1.27865908,3.797760269999999,-2.57672207,,,
imu,555.606362,-0.07177833600000001,-9.8294449624,1.3380678136,1.37585891,3.86505246,-2.65896808,,,
imu,555.614838,-0.05861897440000001,-9.818080059200001,1.3332825912,1.21136689,3.73046808,-2.8982292,,,
imu,555.62334,-0.05981528000000001,-9.821668976000002,1.336871508,1.18145925,3.63326825,-3.23469015,,,
imu,555.631841,-0.04545961280000001,-9.80970592,1.3392641192,1.18893616,3.5211146,-3.48142818,,,
imu,555.640343,-0.06160973840000001,-9.800733628000001,1.3404604248,1.24127453,3.2220382,-3.9449966,,,
imu,555.648845,-0.05802082160000001,-9.800135475200001,1.3314881328,1.16650543,3.07997691,-4.13939626,,,
imu,555.657347,-0.05682451600000001,-9.800733628000001,1.3284973688,0.9870595899999999,2.90800798,-4.318842099999999,,,
imu,555.665848,-0.05443190480000001,-9.7911631832,1.3273010632,0.8973366700000001,2.81828506,-4.3936112,,,
imu,555.67435,-0.05203929360000001,-9.803126239200001,1.3332825912,1.03192105,2.81828506,-4.19173463,,,
imu,555.682852,-0.05562821040000001,-9.8210708232,1.3404604248,0.8674290299999999,2.61640849,-4.17678081,,,
imu,555.691345,-0.05443190480000001,-9.824061587200001,1.3416567304,0.8375213899999999,2.54163939,-3.91508896,,,
imu,555.699847,-0.04366515440000001,-9.840809865600002,1.3691717592,0.68798319,2.42948574,-3.67582784,,,
imu,555.708348,-0.0430670016,-9.8467913936,1.3811348152,0.6281679099999999,2.3995781,-3.28702852,,,
imu,555.71685,-0.0562263632,-9.847389546400002,1.3811348152,0.42629134,2.21265535,-3.14496723,,,
imu,555.725352,-0.07118018320000001,-9.837220948800002,1.3823311208,0.41133752,2.19022462,-3.00290594,,,
imu,555.733853,-0.08433954480000001,-9.809107767200002,1.3901071072,0.2468455,1.89862513,-3.20478251,,,
imu,555.742355,-0.113649032,-9.791761336000002,1.3811348152,0.11226112,1.71917929,-3.4216129,,,
imu,555.750857,-0.140565908,-9.770825988000002,1.3805366624,0.32909151,1.75656384,-3.496382,,,
imu,555.759359,-0.1662864784,-9.746301723200002,1.3805366624,0.4861066199999999,1.89862513,-3.52628964,,,
imu,555.76786,-0.1746606176,-9.752881404000002,1.3769477456,0.620691,2.01825569,-3.58610492,,,
imu,555.776362,-0.1626975616,-9.770825988000002,1.378742204,0.70293701,2.33228591,-3.56367419,,,
imu,555.784864,-0.1543234224,-9.801929933600002,1.3913034128,0.83004448,2.63136231,-3.54872037,,,
imu,555.793365,-0.1477437416,-9.803724392000001,1.4152295248,1.12164397,2.94539253,-3.66087402,,,
imu,555.801867,-0.1172379488,-9.818678212000002,1.4349685672,1.13659779,3.25194584,-3.75059694,,,
imu,555.810369,-0.09390998960000001,-9.824659740000001,1.4271925808,1.13659779,3.51363769,-3.75059694,,,
imu,555.81887,-0.0675912664,-9.839015407200002,1.438557484,1.03939796,3.52859151,-3.91508896,,,
imu,555.8273,-0.06579680800000001,-9.8079114616,1.447529776,0.8973366700000001,3.79028336,-3.93751969,,,
imu,555.835729,-0.04007623760000001,-9.802528086400002,1.4331741088,0.8674290299999999,3.7454219,-4.012288789999999,,,
imu,555.844158,-0.0257205704,-9.7474980288,1.4038646216,0.94967504,3.5958837,-3.9449966,,,
imu,555.852587,-0.0101685976,-9.727160833600001,1.381732968,1.04687487,3.45382241,-3.91508896,,,
imu,555.861016,-0.01495382,-9.758264779200001,1.3835274264,1.42072037,3.25194584,-3.87770441,,,
imu,555.869446,-0.0293094872,-9.802528086400002,1.3990793992,1.54035093,2.97530017,-3.68330475,,,
imu,555.877875,-0.0275150288,-9.803126239200001,1.408649844,1.60764312,2.66874686,-3.67582784,,,
imu,555.886304,-0.0370854736,-9.7989391696,1.4367630256,1.54035093,2.39210119,-3.78050458,,,
imu,555.894733,-0.06579680800000001,-9.803724392000001,1.4451371648,1.5179202,2.19022462,-3.80293531,,,
imu,555.903162,-0.08194693360000001,-9.8593526024,1.4582965264,1.27865908,1.94348659,-3.78050458,,,
imu,555.911592,-0.10467674,-9.911391896000003,1.4361648728,1.09173633,1.7266562,-3.74312003,,,
imu,555.920021,-0.131593616,-9.882680561600003,1.4044627744,0.91229049,1.76404075,-3.60105874,,,
imu,555.92845,-0.1591086448,-9.8294449624,1.3865181904,0.9870595899999999,1.90610204,-3.35432071,,,
imu,555.936879,-0.1812402984,-9.833632032,1.4032664688,1.18893616,2.25751681,-2.79355246,,,
imu,555.945308,-0.1967922712,-9.860548908000002,1.3793403568,0.97210577,2.57902394,-2.06081528,,,
imu,555.953738,-0.2009793408,-9.895241770400002,1.3978830936,1.10669015,3.10240764,-1.47013939,,,
imu,555.962167,-0.1902125904,-9.937710619200002,1.4110424552,0.85995212,3.43886859,-1.18601681,,,
imu,555.970596,-0.1926052016,-9.953262592000002,1.4277907336,0.44872207,3.85009864,-1.27573973,,,
imu,555.979025,-0.1866236736,-9.950869980800002,1.4224073584,-0.13447691,4.28375942,-1.4028472,,,
imu,555.987455,-0.1710717008,-9.922756799200002,1.4092479968,-0.70272207,4.44077453,-1.44770866,,,
imu,555.995884,-0.1620994088,-9.938906924800001,1.3972849408,-1.12142903,4.70994329,-1.44023175,,,
imu,556.004313,-0.1495382,-9.902419604000002,1.3811348152,-1.56256672,4.93425059,-1.38789338,,,
imu,556.012742,-0.1381732968,-9.860548908000002,1.3619939256,-1.97379677,5.023973509999999,-1.17106299,,,
imu,556.021171,-0.1280046992,-9.827650504000003,1.354816092,-2.21305789,5.1660348,-0.7822636699999999,,,
imu,556.029984,-0.1034804344,-9.803724392000001,1.3572087032,-2.370073,5.18846553,-0.4308489,,,
imu,556.038797,-0.09151737840000002,-9.7786019744,1.3500308696,-2.34764227,5.24828081,-0.06448030999999999,,,
imu,556.04761,-0.0855358504,-9.7331423616,1.3631902312,-2.25791935,5.29314227,0.2944113700000002,,,
imu,556.056423,-0.09570444800000001,-9.755872168000002,1.3763495928,-2.21305789,5.2408039,0.72807215,,,
imu,556.065236,-0.08433954480000001,-9.690673512800002,1.3596013144,-2.00370441,5.40529592,0.9224718100000002,,,
imu,556.074049,-0.04007623760000001,-9.6876827488,1.3631902312,-1.71958183,5.56231103,0.97481018,,,
imu,556.082862,-0.0011963056,-9.704431027200002,1.3506290224,-1.45041307,5.62212631,0.7804105200000002,,,
imu,556.091675,0.003588916800000001,-9.713403319200001,1.3655828424,-1.15881358,5.32304991,0.1897346300000002,,,
imu,555.005363,,,,,,,77.7110244,-17.84085320000002,123.2378024
imu,555.106926,,,,,,,77.68661000000002,-17.59670920000001,122.8227576
imu,555.208488,,,,,,,77.35701559999998,-17.79202440000001,123.091316
imu,555.310051,,,,,,,79.883906,-17.9263036,122.297848
imu,555.412102,,,,,,,77.7110244,-17.3037364,123.7749192
imu,555.513176,,,,,,,79.99377080000001,-18.20706920000001,121.1625784
imu,556.100488,0.0257205704,-9.717590388800001,1.3853218848,-0.91955246,5.091265699999999,-0.5056179999999999,,,
imu,556.109301,0.05861897440000001,-9.7008421104,1.4188184416,-0.7251528,5.023973509999999,-1.08881698,,,
imu,556.118114,0.08254508640000002,-9.7534795568,1.4277907336,-0.50832241,4.85200458,-1.61220068,,,
imu,556.126927,0.09989151760000002,-9.800733628000001,1.4253981224,-0.24663056,4.4183438,-2.29259949,,,
imu,556.13574,0.1232194768,-9.786976113600002,1.408649844,-0.08213854000000001,4.02954448,-2.93561375,,,
imu,556.144553,0.1309954632,-9.7540777096,1.4379593312,0.1720764,3.61831443,-3.22721324,,,
imu,556.153366,0.1292010048,-9.76484446,1.4433427064,0.7253677399999999,3.31923803,-3.24964397,,,
imu,556.162178,0.1292010048,-9.7959484056,1.4397537896,0.82256757,2.93791562,-3.0477674,,,
imu,556.170991,0.1280046992,-9.8043225448,1.447529776,1.09921324,2.76594669,-2.78607555,,,
imu,556.179804,0.1292010048,-9.818678212000002,1.4547076096,1.33847436,2.78090051,-2.56176825,,,
imu,556.188617,0.1238176296,-9.8270523512,1.4810263328,1.54782784,2.50425484,-2.53933752,,,
imu,556.19743,0.1064711984,-9.8270523512,1.4846152496,1.36090509,2.34723973,-2.68887572,,,
imu,556.206243,0.092713684,-9.8210708232,1.4768392632,1.32352054,2.22013226,-2.91318302,,,
imu,556.215056,0.08792846160000001,-9.803126239200001,1.48042818,1.30856672,1.98087114,-3.21225942,,,
imu,556.223869,0.10467674,-9.802528086400002,1.4553057624,1.28613599,1.8014253,-3.61601256,,,
imu,556.232353,0.0903210728,-9.803126239200001,1.4517168456,1.30108981,1.78647148,-4.10948862,,,
imu,556.240837,0.09690075360000001,-9.768433376800001,1.4439408592,1.26370526,1.80890221,-4.318842099999999,,,
imu,556.249321,0.1058730456,-9.76484446,1.4409500952,1.31604363,1.67431783,-4.42351884,,,
imu,556.257805,0.09929336480000002,-9.7612555432,1.4553057624,1.16650543,1.54721036,-4.70016451,,,
imu,556.266289,0.09510629520000001,-9.761853696000001,1.4571002208,0.9870595899999999,1.41262598,-4.991764,,,
imu,556.274772,0.1028822816,-9.773816752000002,1.4636799016,1.06182869,1.26308778,-5.044102369999999,,,
imu,556.283256,0.0861340032,-9.7809945856,1.4642780544,0.9197674,0.92662683,-5.193640569999999,,,
imu,556.29174,0.0735727944,-9.7750130576,1.4606891376,0.85995212,0.8742884599999998,-5.17868675,,,
imu,556.300224,0.0747691,-9.761853696000001,1.4618854432,1.01696723,0.76213481,-4.991764,,,
imu,556.308708,0.06460050240000001,-9.7750130576,1.4559039152,1.16650543,0.66493498,-4.81979507,,,
imu,556.317192,0.04545961280000001,-9.7953502528,1.4553057624,1.10669015,0.4705353199999998,-4.87213344,,,
imu,556.325676,0.02871133440000001,-9.802528086400002,1.4702595824,1.27118217,0.3509047599999997,-4.72259524,,,
imu,556.33416,0.008374139200000002,-9.802528086400002,1.468465124,1.23379762,0.2237972899999998,-4.49081103,,,
imu,556.342644,-0.0011963056,-9.8132948368,1.459492832,1.54035093,0.41819695,-4.318842099999999,,,
imu,556.351127,-0.0227298064,-9.825257892800002,1.4708577352,1.60016621,0.4929660499999997,-4.13191935,,,
imu,556.359611,-0.0352910152,-9.818080059200001,1.471455888,1.51044329,0.5901658799999998,-4.04219643,,,
imu,556.368095,-0.0490485296,-9.8061170032,1.4726521936,1.54035093,0.8518577299999999,-3.88518132,,,
imu,556.376579,-0.05682451600000001,-9.786377960800001,1.4696614296,1.53287402,1.10607267,-3.84779677,,,
imu,556.385063,-0.05562821040000001,-9.769031529600001,1.4529131512,1.39828964,1.33037997,-3.83284295,,,
imu,556.393547,-0.0370854736,-9.765442612800001,1.4529131512,1.54035093,1.58459491,-3.77302767,,,
imu,556.402031,-0.009570444800000001,-9.783985349600002,1.4463334704,1.4431511,1.77151766,-3.8702275,,,
imu,556.410515,0.0,-9.794153947200002,1.444539012,1.33847436,1.92105586,-3.93751969,,,
imu,556.418998,0.0161501256,-9.7959484056,1.4588946792,1.25622835,2.04816333,-3.99733497,,,
imu,556.427482,0.04725407120000001,-9.800733628000001,1.4451371648,1.24875144,2.07807097,-4.0197657,,,
imu,556.435946,0.06998387760000001,-9.782789044000001,1.4271925808,1.17398234,1.91357895,-4.25154991,,,
imu,556.444409,0.06519865520000001,-9.797742864000002,1.4062572328,1.32352054,1.70422547,-4.453426479999999,,,
imu,556.452873,0.05802082160000001,-9.798341016800002,1.3990793992,1.50296638,1.58459491,-4.4683803,,,
imu,556.461337,0.0340947096,-9.800733628000001,1.4271925808,1.5179202,1.39767216,-4.56558013,,,
imu,556.4698,0.0005981528000000001,-9.796546558400001,1.4768392632,1.49548947,1.24813396,-4.73007215,,,
imu,556.478264,-0.05443190480000001,-9.8013317808,1.5061487504,1.03939796,1.15841104,-5.09644074,,,
imu,556.486727,-0.1058730456,-9.855763685600001,1.501363528,0.8449983,1.00139593,-5.350655679999999,,,
imu,556.495191,-0.1250139352,-9.8880639368,1.4888023192,0.7253677399999999,1.12102649,-5.45533242,,,
imu,556.503654,-0.1495382,-9.848585852000001,1.4750448048,0.5459219,1.45748744,-5.58243989,,,
imu,556.512118,-0.176455076,-9.802528086400002,1.4606891376,0.53096808,1.89862513,-5.500193879999999,,,
imu,556.520581,-0.1961941184,-9.789966877600001,1.4582965264,0.47862971,2.72856214,-5.11887147,,,
imu,556.529045,-0.1967922712,-9.801929933600002,1.4481279288,0.620691,3.58092988,-4.48333412,,,
imu,556.537508,-0.1668846312,-9.801929933600002,1.441548248,0.77770611,4.16412886,-3.92256587,,,
imu,556.545972,-0.1292010048,-9.791761336000002,1.4457353176,1.11416706,4.85200458,-3.84031986,,,
imu,556.554436,-0.1124527264,-9.7504887928,1.4319778032,1.34595127,5.330526819999999,-4.0197657,,,
imu,556.562899,-0.08374139200000001,-9.7122070136,1.4104443024,1.53287402,5.66698777,-4.46090339,,,
imu,556.571363,-0.05203929360000001,-9.679308609600001,1.3960886352,1.82447351,5.77166451,-4.87961035,,,
imu,556.579826,-0.0011963056,-9.6775141512,1.3835274264,2.33290339,5.77166451,-5.27588658,,,
imu,556.58829,0.0251224176,-9.689477207200001,1.3865181904,2.57216451,5.330526819999999,-5.55253225,,,
imu,556.596753,0.0753672528,-9.718786694400002,1.3865181904,2.998348379999999,4.70994329,-5.39551714,,,
imu,556.605217,0.131593616,-9.759461084800002,1.3901071072,3.11050203,4.01459066,-5.216071299999999,,,
imu,556.61368,0.1561178808,-9.800733628000001,1.3930978712,3.28994787,2.97530017,-4.90204108,,,
imu,556.622144,0.1710717008,-9.809107767200002,1.4038646216,3.45443989,1.79394839,-4.50576485,,,
imu,556.630607,0.1603049504,-9.802528086400002,1.4038646216,3.611455,0.6350273399999997,-4.0945348,,,
imu,556.639382,0.1262102408,-9.818678212000002,1.411640608,3.54416281,-0.5538013500000001,-3.4216129,,,
imu,556.648157,0.06579680800000001,-9.849184004800001,1.3835274264,3.30490169,-1.45850746,-2.87579847,,,
imu,556.656932,0.07775986400000001,-9.842006171200001,1.3972849408,3.0880713,-1.90712206,-2.28512258,,,
imu,556.665707,0.0382817792,-9.919167882400002,1.4164258304,2.68431816,-2.3108752,-1.58976995,,,
imu,556.674482,0.0,-9.960440425600002,1.4152295248,2.31794957,-2.41555194,-1.00657097,,,
imu,556.683257,-0.0305057928,-9.986759148800001,1.4559039152,1.68988913,-2.39312121,-0.76730985,,,
imu,556.692032,-0.06041343280000001,-10.0208538584,1.4941856944,1.05435178,-2.34825975,-0.6177716499999999,,,
imu,556.700807,-0.08493769760000001,-9.995731440800002,1.4905967776,0.3889067899999999,-2.02675262,-0.55047946,,,
imu,556.709582,-0.09390998960000001,-9.9688145648,1.4702595824,-0.127,-1.67533785,-0.8794635,,,
imu,556.718357,-0.08673215600000002,-9.949075522400001,1.4439408592,-0.47841477,-1.15195415,-1.48509321,,,
imu,556.727132,-0.07895616960000001,-9.843800629600002,1.4206129,-0.95693701,-0.53884753,-1.90380017,,,
imu,556.735907,-0.07716171120000001,-9.797742864000002,1.441548248,-1.16629049,0.1864127399999997,-2.36736859,,,
imu,556.744682,-0.0753672528,-9.793555794400001,1.4122387608,-1.04665993,1.03878048,-2.41223005,,,
imu,556.753457,-0.06220789120000001,-9.803126239200001,1.4038646216,-0.85973718,1.9509635,-2.17296893,,,
imu,556.762232,-0.0382817792,-9.803126239200001,1.4038646216,-0.68776825,2.75846978,-2.12063056,,,
imu,556.771007,-0.0203371952,-9.8043225448,1.4182202888,-0.59056842,3.43139168,-2.40475314,,,
imu,556.779782,-0.011963056,-9.8228652816,1.4403519424,-0.33635348,4.05945212,-2.63653735,,,
imu,556.788501,-0.002990764,-9.813892989600001,1.462483596,-0.26906129,4.523020539999999,-3.09262886,,,
imu,556.797276,-0.0023926112,-9.7959484056,1.444539012,-0.17186146,4.9417275,-3.65339711,,,
imu,556.806051,0.0155519728,-9.76484446,1.4499223872,-0.35878421,5.21837317,-4.17678081,,,
imu,556.814826,0.026916876,-9.737927584000001,1.4307814976,-0.19429219,5.4651112,-4.33379592,,,
imu,556.823601,0.04964668240000001,-9.724768222400002,1.4247999696,-0.127,5.659510859999999,-4.6179185,,,
imu,556.832376,0.062806044,-9.7151977776,1.4068553856,0.11973803,5.62960322,-4.93942563,,,
imu,556.841151,0.0741709472,-9.713403319200001,1.4128369136,0.33656842,5.42772665,-5.07401001,,,
imu,556.849926,0.07656355840000001,-9.723571916800001,1.414631372,0.58330645,5.0164966,-5.4403786,,,
imu,556.858701,0.0675912664,-9.7504887928,1.4289870392,0.8375213899999999,4.65012801,-5.57496298,,,
imu,556.866836,0.06519865520000001,-9.779798280000001,1.4337722616,1.04687487,4.2688056,-5.60487062,,,
imu,556.874972,0.0526374464,-9.802528086400002,1.441548248,0.9870595899999999,3.85009864,-5.545055339999999,,,
imu,556.883107,0.0376836264,-9.803126239200001,1.4547076096,1.07678251,3.47625314,-5.34317877,,,
imu,556.891242,0.0167482784,-9.805518850400002,1.4576983736,0.9272443100000001,3.05006927,-5.01419473,,,
imu,556.899378,0.0101685976,-9.815687448000002,1.4547076096,0.8524752099999999,2.72108523,-4.61044159,,,
imu,556.907513,0.003588916800000001,-9.806715156000001,1.4618854432,0.74779847,2.37714737,-4.30388828,,,
imu,556.915649,-0.020935348,-9.803724392000001,1.4612872904,0.70293701,2.12293243,-4.04219643,,,
imu,556.923784,-0.04725407120000001,-9.827650504000003,1.4553057624,0.67302937,1.86124058,-3.85527368,,,
imu,556.93192,-0.05562821040000001,-9.834230184800003,1.4720540408,0.68050628,1.56216418,-3.66087402,,,
imu,556.940055,-0.06699311360000001,-9.851576616000001,1.4696614296,0.44124516,1.3528107,-3.82536604,,,
imu,556.948191,-0.08912476720000001,-9.8527729216,1.4846152496,0.13469185,1.29299542,-4.07210407,,,
imu,556.956326,-0.09570444800000001,-9.8593526024,1.492391236,-0.05970781,1.24065705,-4.11696553,,,
imu,556.964462,-0.1052748928,-9.8617452136,1.486409708,-0.26158438,1.13598031,-4.25902682,,,
imu,556.972597,-0.09091922560000001,-9.839015407200002,1.4905967776,-0.39616876,1.2032725,-4.29641137,,,
imu,556.980733,-0.09749890640000002,-9.822267128800002,1.5025598336,-0.5008455,1.32290306,-4.25902682,,,
imu,556.988868,-0.101685976,-9.824061587200001,1.5061487504,-0.69524516,1.39767216,-4.22164227,,,
imu,556.997004,-0.09929336480000002,-9.809107767200002,1.5109339728,-0.80739881,1.74908693,-4.124442439999999,,,
imu,557.005139,-0.09211553120000002,-9.7744149048,1.5049524448,-0.90459864,1.88367131,-3.96742733,,,
imu,557.013275,-0.08912476720000001,-9.731347903200001,1.4911949304,-0.94198319,2.27247063,-3.7954584,,,
imu,557.02141,-0.07955432240000002,-9.722973764,1.4876060136,-0.83730645,2.71360832,-3.5711511,,,
imu,557.029546,-0.068787572,-9.7331423616,1.4738484992,-0.62047606,2.84071579,-3.37675144,,,
imu,557.037681,-0.05203929360000001,-9.746301723200002,1.4888023192,-0.46346095,2.94539253,-3.27955161,,,
imu,557.045817,-0.0317020984,-9.739722042400002,1.5085413616,-0.14943073,3.03511545,-3.41413599,,,
imu,555.614738,,,,,,,77.4302588,-18.09720440000002,123.9824416
imu,555.71627,,,,,,,80.50647319999999,-18.39017720000002,120.7353264
imu,555.817863,,,,,,,77.46688040000001,-17.68215960000001,122.8960008
imu,555.919395,,,,,,,77.7110244,-17.24270040000002,123.0424872
imu,556.020988,,,,,,,77.57674519999999,-17.84085320000002,123.4819464
imu,556.122551,,,,,,,77.442466,-17.29152920000001,122.3955056
imu,556.224113,,,,,,,77.3448084,-16.76661960000001,123.2378024
imu,556.325645,,,,,,,77.6744028,-17.05959240000001,123.0669016
imu,557.053952,-0.0191408896,-9.744507264800001,1.5228970288,0.05992275,2.87062343,-3.80293531,,,
imu,557.062696,-0.0227298064,-9.7474980288,1.5258877928,0.11226112,2.71360832,-4.18425772,,,
imu,557.07144,0.0,-9.787574266400002,1.5390471544,0.3216146,2.48182411,-4.48333412,,,
imu,557.080184,0.0011963056,-9.794153947200002,1.5366545432,0.32909151,2.24256299,-4.50576485,,,
imu,557.088928,0.008374139200000002,-9.759461084800002,1.5300748624,0.57582954,2.0257326,-4.386134289999999,,,
imu,557.097672,-0.008972292000000002,-9.769629682400002,1.5007653752,0.85995212,1.92853277,-4.06462716,,,
imu,557.106416,-0.02871133440000001,-9.803724392000001,1.4630817488,1.02444414,1.95844041,-3.5711511,,,
imu,557.11516,-0.0257205704,-9.821668976000002,1.4905967776,1.15902852,2.03320951,-2.84589083,,,
imu,557.123904,-0.0215335008,-9.828248656800001,1.5199062648,1.22632071,2.2500399,-2.35241477,,,
imu,557.132648,-0.02871133440000001,-9.834230184800003,1.4935875416,1.06182869,2.34723973,-2.38232241,,,
imu,557.141392,-0.0340947096,-9.867128588800002,1.4935875416,1.01696723,2.4743472,-2.47952224,,,
imu,557.150135,-0.0376836264,-9.8497821576,1.4977746112,0.79265993,2.5491163,-3.05524431,,,
imu,557.158879,-0.0263187232,-9.825257892800002,1.5145228896,0.56835263,2.38462428,-3.75059694,,,
imu,557.167623,-0.0281131816,-9.802528086400002,1.5139247368,0.33656842,2.38462428,-4.21416536,,,
imu,557.176367,-0.020935348,-9.802528086400002,1.498372764,0.20946095,2.34723973,-4.759979789999999,,,
imu,557.185111,-0.0191408896,-9.8198745176,1.486409708,0.12721494,2.42948574,-4.9169949,,,
imu,557.193855,-0.0011963056,-9.800733628000001,1.5031579864,-0.007369440000000005,2.45939338,-4.6179185,,,
imu,557.202599,0.0185427368,-9.769031529600001,1.5181118064,0.15712258,2.34723973,-4.453426479999999,,,
imu,557.211343,0.007177833600000002,-9.776209363200001,1.5246914872,0.09730729999999999,2.33228591,-4.27398064,,,
imu,557.220087,0.007775986400000001,-9.773218599200002,1.5234951816,0.02253820000000001,2.0257326,-3.95995042,,,
imu,557.228831,0.0005981528000000001,-9.779200127200001,1.5288785568,0.03001510999999998,1.86124058,-3.47395127,,,
imu,557.237575,0.002990764,-9.767237071200002,1.5396453072,0.12721494,1.71170238,-2.99542903,,,
imu,557.246319,-0.0173464312,-9.775611210400001,1.5318693208,0.10478421,1.70422547,-2.78607555,,,
imu,557.255063,-0.03648732080000001,-9.755274015200001,1.5354582376,0.28423005,1.56216418,-2.6739219,,,
imu,557.26358,-0.0442633072,-9.746899876,1.5390471544,0.32909151,1.47244126,-2.55429134,,,
imu,557.272097,-0.05443190480000001,-9.7612555432,1.5725437112,0.32909151,1.41262598,-2.85336774,,,
imu,557.280614,-0.0526374464,-9.749890640000002,1.594077212,0.50853735,1.53973345,-2.9729983,,,
imu,557.289131,-0.0634041968,-9.791761336000002,1.6263774632,0.44872207,1.74161002,-3.06272122,,,
imu,557.297648,-0.07656355840000001,-9.803126239200001,1.6425275888,0.23189168,1.85376367,-3.26459779,,,
imu,557.306165,-0.0663949608,-9.828248656800001,1.638938672,0.29170696,2.03320951,-3.38422835,,,
imu,557.314682,-0.03110394560000001,-9.797742864000002,1.620994088,0.26179932,2.22013226,-3.48142818,,,
imu,557.323198,-0.0143556672,-9.737329431200001,1.6251811576,0.29918387,2.39210119,-3.51133582,,,
imu,557.331715,-0.026916876,-9.746301723200002,1.5928809064,0.35899915,2.4743472,-3.66835093,,,
imu,557.340232,-0.0125612088,-9.748096181600001,1.5916846008,0.56835263,2.81080815,-3.1973056,,,
imu,557.348749,0.007775986400000001,-9.739722042400002,1.5988624344,0.67302937,2.87810034,-2.83841392,,,
imu,557.357266,0.008374139200000002,-9.735534972800002,1.5749363224,1.10669015,2.94539253,-2.61410662,,,
imu,557.365783,0.0305057928,-9.7325442088,1.5892919896,1.35342818,2.90053107,-2.5991528,,,
imu,557.3743,0.0257205704,-9.743909112,1.5749363224,1.67493531,2.80333124,-2.68887572,,,
imu,557.382817,0.020935348,-9.7606573904,1.5809178504,2.13850373,2.90053107,-2.78607555,,,
imu,557.391334,0.011963056,-9.760059237600002,1.5898901424,2.1908421,2.7734236,-3.09262886,,,
imu,557.399851,0.0137575144,-9.770825988000002,1.5737400168,2.24318047,2.56407012,-3.55619728,,,
imu,557.408368,0.0173464312,-9.772620446400001,1.558188044,2.36281103,2.5491163,-3.72816621,,,
imu,557.416885,0.008374139200000002,-9.761853696000001,1.5540009744,2.37776485,2.54163939,-3.91508896,,,
imu,557.425402,0.0101685976,-9.751685098400001,1.5438323768,2.53477996,2.46687029,-3.95995042,,,
imu,557.433919,0.0017944584,-9.777405668800002,1.5240933344,2.37028794,2.39210119,-4.012288789999999,,,
imu,557.442436,0.0173464312,-9.765442612800001,1.5145228896,2.24318047,2.34723973,-4.079580979999999,,,
imu,557.450953,0.0125612088,-9.7815927384,1.5019616808,2.36281103,2.31733209,-4.04967334,,,
imu,557.45947,0.0203371952,-9.794752100000002,1.498372764,2.43010322,2.38462428,-3.96742733,,,
imu,557.467894,0.0143556672,-9.797742864000002,1.4732503464,2.49739541,2.1752708,-4.102011709999999,,,
imu,557.476318,0.0101685976,-9.812696684000002,1.477437416,2.46001086,2.01825569,-4.17678081,,,
imu,557.484742,0.0,-9.837220948800002,1.483418944,2.47496468,1.92105586,-4.17678081,,,
imu,557.493166,-0.0101685976,-9.856959991200002,1.489400472,2.407672489999999,1.77151766,-4.124442439999999,,,
imu,557.50159,-0.0113649032,-9.850978463200002,1.5019616808,2.407672489999999,1.70422547,-4.04967334,,,
imu,557.510014,-0.0233279592,-9.874306422400002,1.5121302784,2.04878081,1.70422547,-3.9449966,,,
imu,557.518438,-0.02990764000000001,-9.863539672000002,1.5151210424,1.68988913,1.8014253,-3.90013514,,,
imu,557.526863,-0.0251224176,-9.8467913936,1.4971764584,1.42072037,1.84628676,-3.71321239,,,
imu,557.535287,-0.03289840400000001,-9.827650504000003,1.4971764584,1.15155161,1.99582496,-3.51133582,,,
imu,557.543711,-0.0233279592,-9.810304072800001,1.4852134024,0.97210577,1.98834805,-3.4216129,,,
imu,557.552135,-0.03110394560000001,-9.803126239200001,1.48042818,0.68050628,1.89114822,-3.47395127,,,
imu,557.560559,-0.0143556672,-9.791761336000002,1.4780355688,0.44872207,2.01825569,-3.55619728,,,
imu,557.568983,-0.002990764,-9.7809945856,1.4822226384,0.67302937,2.13788625,-3.496382,,,
imu,557.577407,0.004187069600000001,-9.794153947200002,1.4911949304,0.74779847,2.13040934,-3.66835093,,,
imu,557.585831,-0.0011963056,-9.796546558400001,1.5055505976,0.65807555,2.11545552,-4.102011709999999,,,
imu,557.594256,-0.004785222400000001,-9.8043225448,1.513326584,0.81509066,2.07059406,-4.19921154,,,
imu,557.60268,-0.0011963056,-9.8132948368,1.537252696,0.81509066,1.98834805,-4.102011709999999,,,
imu,557.611104,0.0137575144,-9.8043225448,1.5396453072,0.82256757,1.93600968,-4.22164227,,,
imu,557.619528,0.0167482784,-9.802528086400002,1.5360563904,0.7552753799999999,2.01077878,-4.32631901,,,
imu,557.627952,0.023926112,-9.797742864000002,1.5360563904,0.79265993,1.94348659,-4.124442439999999,,,
imu,557.636376,0.0370854736,-9.806715156000001,1.5318693208,0.79265993,1.9509635,-3.86275059,,,
imu,557.6448,0.03349655680000001,-9.779798280000001,1.5444305296,0.73284465,1.71170238,-3.91508896,,,
imu,557.653224,0.03887993200000001,-9.743310959200002,1.5480194464,0.620691,1.53225654,-4.04219643,,,
imu,557.661649,0.02990764000000001,-9.745105417600001,1.5438323768,0.55339881,1.2032725,-4.18425772,,,
imu,557.670116,0.0125612088,-9.777405668800002,1.5414397656,0.8973366700000001,1.15841104,-4.15435008,,,
imu,557.678583,0.0011963056,-9.802528086400002,1.537252696,1.03192105,0.84438082,-4.26650373,,,
imu,557.687051,-0.0137575144,-9.794752100000002,1.537252696,0.9945364999999999,0.5752120599999997,-4.51324176,,,
imu,557.695518,-0.03947808480000001,-9.7809945856,1.5438323768,1.05435178,0.52287369,-4.58801086,,,
imu,557.703985,-0.07596540560000001,-9.813892989600001,1.5504120576,1.24127453,0.72475026,-4.15435008,,,
imu,557.712453,-0.092713684,-9.833632032,1.5593843496,1.11416706,1.01634975,-3.51881273,,,
imu,557.72092,-0.09869521200000002,-9.832435726400002,1.5689547944,1.20388998,1.42010289,-2.98795212,,,
imu,557.729387,-0.09390998960000001,-9.842006171200001,1.5617769608,1.2936129,1.84628676,-2.87579847,,,
imu,556.427182,,,,,,,77.99179000000001,-17.80423160000002,122.3222624
imu,556.528745,,,,,,,77.3692228,-17.4990516,122.4931632
imu,556.630307,,,,,,,79.9571492,-18.20706920000001,120.4545608
imu,556.73187,,,,,,,77.80868199999999,-17.34035800000002,123.4697392
imu,556.833432,,,,,,,80.5797164,-18.10941160000002,119.5146064
imu,556.934995,,,,,,,77.5523308,-17.19387160000001,122.7739288
imu,557.036557,,,,,,,77.5523308,-17.13283560000001,120.405732
imu,557.13812,,,,,,,77.4790876,-17.32815080000001,122.358884
imu,557.737855,-0.09510629520000001,-9.815687448000002,1.5504120576,1.07678251,2.18274771,-3.21225942,,,
imu,557.746322,-0.080750628,-9.7989391696,1.5438323768,0.94219813,2.51173175,-3.60105874,,,
imu,557.754789,-0.06519865520000001,-9.769629682400002,1.519308112,0.8749059399999999,2.6986545,-4.244073,,,
imu,557.763257,-0.0514411408,-9.758264779200001,1.5025598336,0.94967504,2.94539253,-4.89456417,,,
imu,557.771724,-0.03648732080000001,-9.738525736800002,1.4935875416,1.1440747,3.23699202,-5.24597894,,,
imu,557.780192,-0.007775986400000001,-9.731946056000002,1.4870078608,1.39828964,3.21456129,-5.29831731,,,
imu,557.788659,0.008972292000000002,-9.735534972800002,1.4917930832,1.41324346,3.13979219,-5.34317877,,,
imu,557.797126,0.0161501256,-9.7427128064,1.4899986248,1.71231986,2.78090051,-5.350655679999999,,,
imu,557.805594,0.0221316536,-9.744507264800001,1.4947838472,1.91419643,2.39210119,-5.00671782,,,
imu,557.814061,0.0053833752,-9.769031529600001,1.4917930832,1.92915025,1.94348659,-4.83474889,,,
imu,557.822528,-0.0185427368,-9.7714241408,1.4888023192,2.03382699,1.47244126,-4.692687599999999,,,
imu,557.830996,-0.04845037680000001,-9.7702278352,1.4810263328,2.09364227,1.16588795,-4.22911918,,,
imu,557.839463,-0.07596540560000001,-9.797144711200001,1.4971764584,2.03382699,1.03130357,-3.8702275,,,
imu,557.84793,-0.1118545736,-9.800135475200001,1.492391236,1.85438115,0.8518577299999999,-3.74312003,,,
imu,557.856398,-0.1268083936,-9.8061170032,1.4941856944,1.8169966,0.8294269999999999,-3.4216129,,,
imu,557.864865,-0.1351825328,-9.825257892800002,1.4858115552,1.77213514,1.06121121,-3.18235178,,,
imu,557.874114,-0.1519308112,-9.837819101600003,1.4917930832,1.74970441,1.59954873,-2.93561375,,,
imu,557.883353,-0.158510492,-9.83961356,1.5181118064,1.56278166,2.04068642,-2.87579847,,,
imu,557.892592,-0.1262102408,-9.873110116800001,1.5300748624,1.25622835,2.42200883,-2.91318302,,,
imu,557.901831,-0.1321917688,-9.924551257600003,1.5324674736,1.12912088,2.78090051,-3.28702852,,,
imu,557.91107,-0.08733030880000002,-9.956851508800002,1.522298876,0.8449983,3.13979219,-3.75059694,,,
imu,557.920309,-0.04964668240000001,-9.882680561600003,1.54024346,0.58330645,3.34166876,-4.18425772,,,
imu,557.929547,-0.04127254320000001,-9.840809865600002,1.5653658776,0.29170696,3.53606842,-4.715118329999999,,,
imu,557.938786,-0.0340947096,-9.8402117128,1.5456268352,0.08235347999999998,3.5958837,-4.887087259999999,,,
imu,557.948025,0.0,-9.824659740000001,1.5300748624,-0.07466163,3.66317589,-4.34874974,,,
imu,557.957264,0.0113649032,-9.800733628000001,1.528280404,-0.14195382,3.7454219,-3.90013514,,,
imu,557.966503,0.0221316536,-9.779200127200001,1.5336637792,-0.13447691,3.49120696,-3.7954584,,,
imu,557.975742,0.0293094872,-9.7714241408,1.5258877928,0.04496892999999999,3.2968073,-3.48890509,,,
imu,557.984981,0.0245242648,-9.7504887928,1.5240933344,0.17955331,3.08745382,-3.41413599,,,
imu,557.99422,0.0215335008,-9.7534795568,1.5306730152,0.42629134,2.75099287,-3.47395127,,,
imu,558.003458,0.008374139200000002,-9.746899876,1.5384490016,0.45619898,2.45939338,-3.78050458,,,
imu,558.012697,-0.0005981528000000001,-9.734936820000001,1.5330656264,0.73284465,2.23508608,-3.97490424,,,
imu,558.021936,-0.007775986400000001,-9.7283571392,1.5318693208,0.9197674,2.12293243,-4.02724261,,,
imu,558.031175,-0.01495382,-9.727160833600001,1.5318693208,0.9945364999999999,1.8761944,-4.0945348,,,
imu,558.040414,-0.0532355992,-9.722973764,1.5336637792,1.1440747,1.68179474,-4.19921154,,,
imu,558.049653,-0.05682451600000001,-9.711608860800002,1.5390471544,1.17398234,1.50982581,-4.37118047,,,
imu,558.058892,-0.07955432240000002,-9.714001472000001,1.5408416128,1.22632071,1.52477963,-4.22164227,,,
imu,558.06813,-0.0980970592,-9.706823638400001,1.531271168,1.21136689,1.69674856,-3.96742733,,,
imu,558.077369,-0.1154434904,-9.7474980288,1.519308112,1.2936129,1.69674856,-3.81041222,,,
imu,558.08546,-0.09989151760000002,-9.768433376800001,1.5211025704,1.30108981,1.92105586,-3.48890509,,,
imu,558.093551,-0.1028822816,-9.793555794400001,1.5420379184,1.46558183,2.23508608,-3.22721324,,,
imu,558.101642,-0.09211553120000002,-9.8061170032,1.5408416128,1.40576655,2.4743472,-3.18235178,,,
imu,558.109733,-0.07656355840000001,-9.833632032,1.5420379184,1.58521239,2.80333124,-3.1225365,,,
imu,558.117824,-0.05084298800000001,-9.862343366400001,1.5480194464,1.63755076,2.99025399,-3.29450543,,,
imu,558.125915,-0.0352910152,-9.855165532800001,1.5390471544,1.63755076,3.10240764,-3.58610492,,,
imu,558.134006,-0.0155519728,-9.8629415192,1.5510102104,1.54035093,3.17717674,-3.88518132,,,
imu,558.142097,0.0125612088,-9.847389546400002,1.5468231408,1.54782784,3.25942275,-4.169303899999999,,,
imu,558.150188,0.0251224176,-9.8234634344,1.5545991272,1.52539711,3.05006927,-4.41604193,,,
imu,558.158279,0.0466559184,-9.809107767200002,1.54024346,1.45810492,2.78837742,-4.602964679999999,,,
imu,558.16637,0.03887993200000001,-9.798341016800002,1.5360563904,1.30856672,2.51173175,-4.954379449999999,,,
imu,558.174461,0.0317020984,-9.794752100000002,1.5330656264,1.04687487,2.30237827,-5.05905619,,,
imu,558.182552,0.03110394560000001,-9.785779808000001,1.5145228896,1.04687487,2.19770153,-4.85717962,,,
imu,558.190643,0.0215335008,-9.7911631832,1.52528964,0.94219813,1.89862513,-4.692687599999999,,,
imu,558.198734,0.002990764,-9.802528086400002,1.5276822512,0.9945364999999999,1.63693328,-4.55810322,,,
imu,558.206825,-0.0011963056,-9.802528086400002,1.5217007232,1.09921324,1.33785688,-4.49828794,,,
imu,558.214916,-0.0275150288,-9.798341016800002,1.5217007232,0.9571519499999999,0.9341037399999998,-4.58053395,,,
imu,558.223007,-0.05562821040000001,-9.785181655200002,1.5228970288,0.94219813,0.6125966099999998,-4.81231816,,,
imu,558.231098,-0.08493769760000001,-9.760059237600002,1.5199062648,1.2936129,0.52287369,-4.87213344,,,
imu,558.239189,-0.1142471848,-9.743909112,1.5151210424,1.17398234,0.3135202100000001,-4.94690254,,,
imu,558.24728,-0.1495382,-9.7301515976,1.5127284312,1.17398234,0.2910894799999997,-4.931948719999999,,,
imu,558.255371,-0.1716698536,-9.708019944000002,1.498372764,1.16650543,0.3209971199999999,-4.78241052,,,
imu,558.263462,-0.1872218264,-9.6912716656,1.4876060136,1.40576655,0.5901658799999998,-4.52071867,,,
imu,558.271553,-0.203371952,-9.724170069600001,1.4828207912,1.70484295,1.15841104,-4.169303899999999,,,
imu,558.280063,-0.2105497856,-9.7953502528,1.486409708,1.99644244,1.44253362,-3.60105874,,,
imu,558.288574,-0.2015774936,-9.830641268,1.5199062648,2.0413039,1.97339423,-3.29450543,,,
imu,558.297084,-0.1932033544,-9.836622796,1.5390471544,1.89924261,2.51173175,-3.18982869,,,
imu,558.305595,-0.1656883256,-9.835426490400001,1.543234224,1.76465823,2.84071579,-3.09262886,,,
imu,558.314106,-0.1477437416,-9.887465784000002,1.5540009744,1.68988913,3.23699202,-2.99542903,,,
imu,558.322616,-0.1112564208,-9.908999284800002,1.5557954328,1.32352054,3.3715764,-3.31693616,,,
imu,558.331127,-0.07596540560000001,-9.860548908000002,1.537252696,1.12164397,3.46877623,-3.63096638,,,
imu,558.339637,-0.0735727944,-9.820472670400001,1.5276822512,1.06182869,3.49120696,-3.75059694,,,
imu,558.348148,-0.07118018320000001,-9.794752100000002,1.5270840984,1.05435178,3.7454219,-3.45152054,,,
imu,558.356659,-0.0502448352,-9.788172419200002,1.5115321256,1.06182869,3.7454219,-2.92813684,,,
imu,558.365169,-0.0137575144,-9.7750130576,1.498372764,1.00949032,3.83514482,-2.60662971,,,
imu,558.37368,0.0191408896,-9.7606573904,1.495382,1.33099745,3.72299117,-2.53186061,,,
imu,558.38219,0.0352910152,-9.758862932000001,1.48042818,1.61512003,3.49868387,-2.90570611,,,
imu,558.390701,0.0466559184,-9.763050001600002,1.4816244856,1.72727368,3.16969983,-3.24216706,,,
imu,558.399211,0.05203929360000001,-9.772022293600001,1.4822226384,1.80204278,2.79585433,-3.67582784,,,
imu,558.407722,0.0490485296,-9.789368724800001,1.4792318744,2.02635008,2.53416248,-4.10948862,,,
imu,558.416233,0.0442633072,-9.801929933600002,1.4989709168,2.05625772,2.16031698,-4.49828794,,,
imu,558.424743,0.0317020984,-9.8234634344,1.516317348,1.92167334,1.75656384,-4.81979507,,,
imu,558.433254,0.0215335008,-9.834230184800003,1.5258877928,1.75718132,1.50982581,-4.81231816,,,
imu,558.441764,-0.0005981528000000001,-9.834230184800003,1.5169155008,1.34595127,1.09859576,-4.92447181,,,
imu,558.450275,-0.0227298064,-9.815089295200002,1.5234951816,1.18145925,0.78456554,-5.08896383,,,
imu,558.458786,-0.0514411408,-9.802528086400002,1.5211025704,1.03939796,0.4929660499999997,-4.909517989999999,,,
imu,558.467296,-0.07297464160000001,-9.797144711200001,1.5091395144,0.9272443100000001,0.4032431299999999,-4.66277996,,,
imu,558.475807,-0.1010878232,-9.787574266400002,1.5025598336,0.70293701,0.3135202100000001,-4.41604193,,,
imu,558.484203,-0.143556672,-9.766638918400002,1.5049524448,0.85995212,0.4032431299999999,-4.18425772,,,
imu,558.492599,-0.1692772424,-9.788770572,1.5067469032,0.91229049,0.6350273399999997,-3.86275059,,,
imu,558.500995,-0.1872218264,-9.796546558400001,1.5007653752,0.74779847,0.92662683,-3.71321239,,,
imu,558.509391,-0.1872218264,-9.800135475200001,1.504354292,0.94967504,1.15093413,-3.75059694,,,
imu,558.517788,-0.2021756464,-9.822267128800002,1.5354582376,1.0693056,1.40514907,-3.67582784,,,
imu,558.526184,-0.19439966,-9.839015407200002,1.5767307808,0.9272443100000001,1.8014253,-3.69825857,,,
imu,558.53458,-0.1866236736,-9.852174768800001,1.5886938368,0.81509066,2.1752708,-3.91508896,,,
imu,558.542976,-0.1656883256,-9.900625145600001,1.5785252392,0.63564482,2.31733209,-4.0945348,,,
imu,558.551372,-0.1321917688,-9.876699033600001,1.5575898912,0.68050628,2.50425484,-4.25902682,,,
imu,557.239682,,,,,,,77.58895240000001,-16.82765560000001,122.1025328
imu,557.341245,,,,,,,77.4180516,-16.75441240000002,122.3344696
imu,557.442807,,,,,,,77.10066440000001,-16.79103400000002,122.175776
imu,557.54501,,,,,,,77.3448084,-16.49806120000001,121.7241096
imu,557.647336,,,,,,,77.02742119999999,-16.4126108,122.5908208
imu,557.747495,,,,,,,79.85949160000001,-17.60891640000002,121.0527136
imu,557.849057,,,,,,,80.38440120000001,-17.10842120000002,120.344696
imu,557.95062,,,,,,,77.7964748,-16.60792600000001,122.2246048
imu,558.559768,-0.1154434904,-9.806715156000001,1.5635714192,0.66555246,2.71360832,-4.363703559999999,,,
imu,558.568164,-0.1130508792,-9.7911631832,1.5755344752,0.53096808,2.72108523,-4.22164227,,,
imu,558.576561,-0.101685976,-9.803126239200001,1.561178808,0.4861066199999999,2.95286944,-3.77302767,,,
imu,558.584957,-0.0933118368,-9.802528086400002,1.5545991272,0.6132140899999999,2.9977309,-3.24964397,,,
imu,558.593353,-0.09450814240000002,-9.770825988000002,1.5623751136,0.66555246,3.03511545,-2.95056757,,,
imu,558.601749,-0.09929336480000002,-9.772620446400001,1.5689547944,0.6954601,3.04259236,-2.59167589,,,
imu,558.610145,-0.09390998960000001,-9.772022293600001,1.5605806552,0.85995212,3.0725,-2.42718387,,,
imu,558.618541,-0.09630260080000001,-9.7606573904,1.552206516,1.0693056,3.1472691,-2.50195297,,,
imu,558.626937,-0.0861340032,-9.7331423616,1.5486175992,1.09173633,3.08745382,-2.92813684,,,
imu,558.635334,-0.07895616960000001,-9.7193848472,1.5384490016,1.35342818,3.10988455,-3.30945925,,,
imu,558.64373,-0.06101158560000001,-9.724170069600001,1.5234951816,1.39828964,3.05006927,-3.69825857,,,
imu,558.652126,-0.0382817792,-9.722973764,1.5175136536,1.48801256,3.0725,-3.86275059,,,
imu,558.660522,-0.0185427368,-9.714599624800002,1.5294767096,1.68241222,3.09493073,-3.93004278,,,
imu,558.668918,-0.004785222400000001,-9.7403201952,1.5217007232,1.77213514,3.00520781,-3.97490424,,,
imu,558.677314,0.011963056,-9.746899876,1.5288785568,1.77213514,2.94539253,-3.93004278,,,
imu,558.685793,0.0173464312,-9.746899876,1.5151210424,1.71231986,2.54163939,-3.8702275,,,
imu,558.694272,0.017944584,-9.767835224,1.513326584,1.8917657,2.16031698,-3.73564312,,,
imu,558.702751,0.008374139200000002,-9.779798280000001,1.5091395144,1.9665348,1.94348659,-3.61601256,,,
imu,558.71123,-0.007775986400000001,-9.794752100000002,1.4965783056,2.01139626,1.65936401,-3.58610492,,,
imu,558.719708,-0.0317020984,-9.803126239200001,1.4989709168,2.10111918,1.4275798,-3.58610492,,,
imu,558.728187,-0.0532355992,-9.831837573600001,1.5067469032,2.17588828,1.24065705,-3.68330475,,,
imu,558.736666,-0.0813487808,-9.8653341304,1.51033582,2.02635008,1.08364194,-3.70573548,,,
imu,558.745145,-0.09749890640000002,-9.8617452136,1.4989709168,1.95158098,1.21074941,-3.63844329,,,
imu,558.753624,-0.1130508792,-9.853969227200002,1.4911949304,1.91419643,1.32290306,-3.54124346,,,
imu,558.762102,-0.1148453376,-9.839015407200002,1.4822226384,1.77961205,1.48739508,-3.41413599,,,
imu,558.770581,-0.1327899216,-9.832435726400002,1.4738484992,1.63007385,1.68179474,-3.46647436,,,
imu,558.77906,-0.1351825328,-9.842604324000002,1.4666706656,1.39081273,1.74908693,-3.54124346,,,
imu,558.787539,-0.1483418944,-9.860548908000002,1.4690632768,1.24875144,2.16779389,-3.44404363,,,
imu,558.796018,-0.158510492,-9.874306422400002,1.4672688184,1.0693056,2.53416248,-3.31693616,,,
imu,558.804496,-0.1597067976,-9.882680561600003,1.468465124,0.8674290299999999,3.05006927,-3.17487487,,,
imu,558.812975,-0.1597067976,-9.874306422400002,1.4762411104,0.60573718,3.5211146,-2.9729983,,,
imu,558.821454,-0.1549215752,-9.863539672000002,1.4702595824,0.32909151,3.87252937,-2.76364482,,,
imu,558.829933,-0.1363788384,-9.837819101600003,1.453511304,0.12721494,4.29123633,-2.50942988,,,
imu,558.838412,-0.10467674,-9.821668976000002,1.4666706656,-0.10456927,4.50806672,-2.5991528,,,
imu,558.84689,-0.07895616960000001,-9.808509614400002,1.462483596,-0.14943073,4.65012801,-2.64401426,,,
imu,558.855369,-0.05084298800000001,-9.802528086400002,1.4756429576,-0.07466163,4.762281659999999,-2.69635263,,,
imu,558.863848,-0.0167482784,-9.7953502528,1.4965783056,-0.11204618,4.63517419,-2.86832156,,,
imu,558.872327,-0.002990764,-9.786377960800001,1.5001672224,-0.13447691,4.4931129,-3.07019813,,,
imu,558.880806,0.0113649032,-9.769629682400002,1.519308112,-0.18681528,4.246374869999999,-3.22721324,,,
imu,558.889359,0.0275150288,-9.765442612800001,1.5300748624,-0.2017691,4.00711375,-3.13749032,,,
imu,558.897913,0.0382817792,-9.739123889600002,1.52528964,0.05992275,3.78280645,-2.96552139,,,
imu,558.906467,0.06220789120000001,-9.716992236000001,1.5061487504,0.16459949,3.36409949,-2.98795212,,,
imu,558.915021,0.0592171272,-9.756470320800002,1.5097376672,0.41133752,3.08745382,-2.79355246,,,
imu,558.923575,0.03648732080000001,-9.810304072800001,1.5420379184,0.5459219,2.71360832,-2.96552139,,,
imu,558.932129,0.0352910152,-9.8049206976,1.5617769608,0.57582954,2.48182411,-2.99542903,,,
imu,558.940682,0.0191408896,-9.800135475200001,1.5845067672,0.59078336,2.19770153,-3.13749032,,,
imu,558.949236,-0.0011963056,-9.800135475200001,1.5946753648,0.5459219,1.8761944,-3.6459202,,,
imu,558.95779,-0.0203371952,-9.822267128800002,1.5964698232,0.38142988,1.60702564,-3.84779677,,,
imu,558.966288,-0.03887993200000001,-9.841408018400001,1.5719455584,0.3889067899999999,1.51730272,-3.78798149,,,
imu,558.974841,-0.05742266880000001,-9.802528086400002,1.561178808,0.43376825,1.53225654,-3.81041222,,,
imu,558.983395,-0.07955432240000002,-9.755274015200001,1.5563935856,0.58330645,1.59954873,-3.67582784,,,
imu,558.991949,-0.09510629520000001,-9.738525736800002,1.5288785568,0.8674290299999999,1.92105586,-3.13001341,,,
imu,559.000503,-0.0933118368,-9.764246307200002,1.5450286824,1.17398234,2.1752708,-2.5991528,,,
imu,559.009057,-0.0783580168,-9.791761336000002,1.5330656264,1.21136689,2.324809,-2.42718387,,,
imu,559.01761,-0.08194693360000001,-9.7959484056,1.5330656264,1.45062801,2.33228591,-2.68887572,,,
imu,559.026164,-0.08254508640000002,-9.783985349600002,1.5348600848,1.6674584,2.33228591,-3.1225365,,,
imu,559.034718,-0.08314323920000001,-9.773816752000002,1.5348600848,1.6674584,2.50425484,-3.51133582,,,
imu,559.043272,-0.07955432240000002,-9.769629682400002,1.5217007232,1.76465823,2.57154703,-3.93004278,,,
imu,559.051826,-0.04127254320000001,-9.752881404000002,1.5217007232,1.73475059,2.65379304,-4.33379592,,,
imu,559.06038,-0.0227298064,-9.749890640000002,1.5007653752,1.61512003,2.66126995,-4.70016451,,,
imu,559.068933,0.0005981528000000001,-9.762451848800001,1.5049524448,1.51044329,2.57154703,-4.79736434,,,
imu,559.077487,0.0101685976,-9.769629682400002,1.501363528,1.69736604,2.30985518,-4.81979507,,,
imu,559.086041,0.009570444800000001,-9.759461084800002,1.5049524448,1.70484295,2.13040934,-4.87213344,,,
imu,559.0945,0.0257205704,-9.7474980288,1.498372764,1.86185806,1.94348659,-4.715118329999999,,,
imu,559.102958,0.017944584,-9.779200127200001,1.4935875416,1.93662716,1.53973345,-4.61044159,,,
imu,559.111416,0.007177833600000002,-9.7953502528,1.483418944,1.78708896,1.26308778,-4.40108811,,,
imu,559.119875,-0.0053833752,-9.803724392000001,1.4935875416,1.71231986,0.80699627,-4.26650373,,,
imu,559.128333,-0.020935348,-9.818678212000002,1.5085413616,1.7422275,0.6350273399999997,-3.95995042,,,
imu,559.136792,-0.03648732080000001,-9.8330338792,1.5145228896,1.58521239,0.5303505999999998,-3.82536604,,,
imu,559.14525,-0.0663949608,-9.850978463200002,1.5109339728,1.56278166,0.4256738599999998,-3.76555076,,,
imu,559.153709,-0.0723764888,-9.832435726400002,1.5097376672,1.45062801,0.5079198699999998,-3.76555076,,,
imu,559.162167,-0.101685976,-9.860548908000002,1.5456268352,1.23379762,0.7995193599999997,-3.60853565,,,
imu,559.170626,-0.122621324,-9.840809865600002,1.5510102104,0.91229049,1.09111885,-3.55619728,,,
imu,559.179084,-0.1339862272,-9.8593526024,1.5587861968,0.68050628,1.55468727,-3.36179762,,,
imu,559.187543,-0.1453511304,-9.900625145600001,1.5528046688,0.65807555,1.90610204,-3.39918217,,,
imu,559.196001,-0.1220231712,-9.8880639368,1.5348600848,0.5010604399999999,2.19770153,-3.66087402,,,
imu,559.204459,-0.1202287128,-9.818080059200001,1.5330656264,0.26179932,2.36967046,-3.89265823,,,
imu,559.212918,-0.1160416432,-9.8013317808,1.5420379184,0.11226112,2.60893158,-3.92256587,,,
imu,559.221376,-0.1010878232,-9.802528086400002,1.5217007232,0.12721494,2.83323888,-3.6459202,,,
imu,559.229835,-0.07177833600000001,-9.803724392000001,1.5264859456,0.18703022,3.03511545,-3.25712088,,,
imu,559.238293,-0.05084298800000001,-9.776807516000002,1.5306730152,0.14216876,3.05754618,-3.2720747,,,
imu,559.246752,-0.03588916800000001,-9.745105417600001,1.531271168,0.44124516,3.10988455,-3.21225942,,,
imu,559.25521,-0.0185427368,-9.727160833600001,1.5139247368,0.49358353,2.93791562,-3.26459779,,,
imu,559.263669,-0.005981528000000001,-9.6918698184,1.5127284312,0.65807555,2.87810034,-3.42908981,,,
imu,559.272127,-0.004785222400000001,-9.676317845600002,1.5025598336,0.9945364999999999,2.63883922,-3.54124346,,,
imu,559.280586,-0.002990764,-9.675719692800001,1.477437416,1.33099745,2.55659321,-3.61601256,,,
imu,559.289044,-0.0065796808,-9.701440263200002,1.486409708,1.46558183,2.35471664,-3.68330475,,,
imu,559.297765,-0.0065796808,-9.745105417600001,1.4846152496,1.52539711,2.16031698,-3.54124346,,,
imu,559.306487,-0.008374139200000002,-9.800733628000001,1.4882041664,1.83942733,2.11545552,-3.39918217,,,
imu,559.315208,-0.0221316536,-9.810902225600001,1.5157191952,1.73475059,2.01825569,-3.52628964,,,
imu,559.32393,-0.0376836264,-9.855763685600001,1.5324674736,1.68988913,1.94348659,-3.66087402,,,
imu,559.332651,-0.0442633072,-9.870717505600002,1.5438323768,1.63007385,1.8761944,-3.6459202,,,
imu,559.341372,-0.0430670016,-9.880886103200002,1.5366545432,1.30856672,1.86124058,-3.73564312,,,
imu,559.350094,-0.0562263632,-9.869521200000003,1.5516083632,0.7702292,1.8761944,-3.89265823,,,
imu,559.358815,-0.068787572,-9.870119352800002,1.5474212936,0.64312173,1.8761944,-3.92256587,,,
imu,559.367537,-0.07716171120000001,-9.874306422400002,1.552206516,0.52349117,1.86871749,-3.97490424,,,
imu,558.052126,,,,,,,77.564538,-16.99855640000001,120.9306416
imu,558.153689,,,,,,,77.2105292,-16.47364680000001,122.3100552
imu,558.255282,,,,,,,78.0162044,-16.80324120000001,122.2612264
imu,558.356814,,,,,,,77.6621956,-16.66896200000001,122.3100552
imu,558.458376,,,,,,,77.9551684,-16.9375204,123.0058656
imu,558.559939,,,,,,,78.15048360000002,-16.47364680000001,121.8950104
imu,558.661501,,,,,,,77.8941324,-17.08400680000002,121.8950104
imu,558.770907,,,,,,,79.7740412,-17.1694572,122.1269472
imu,559.376258,-0.08254508640000002,-9.833632032,1.5569917384,0.3739529699999999,1.89862513,-4.06462716,,,
imu,559.384979,-0.0783580168,-9.820472670400001,1.5396453072,0.3216146,2.00330187,-3.97490424,,,
imu,559.393701,-0.0747691,-9.802528086400002,1.537252696,0.22441477,2.09302479,-3.85527368,,,
imu,559.402422,-0.07895616960000001,-9.803126239200001,1.5300748624,0.15712258,2.13040934,-3.90013514,,,
imu,559.411143,-0.0747691,-9.7923594888,1.5181118064,0.21693786,2.33228591,-3.88518132,,,
imu,559.419865,-0.0783580168,-9.779798280000001,1.5324674736,-0.01484635000000001,2.33976282,-4.00481188,,,
imu,559.428586,-0.0735727944,-9.786377960800001,1.5258877928,0.17955331,2.40705501,-3.85527368,,,
imu,559.437308,-0.06041343280000001,-9.7714241408,1.5575898912,0.21693786,2.3995781,-3.82536604,,,
imu,559.446029,-0.06519865520000001,-9.797742864000002,1.5569917384,0.41133752,2.50425484,-3.61601256,,,
imu,559.45475,-0.06041343280000001,-9.803126239200001,1.5456268352,0.42629134,2.67622377,-3.52628964,,,
imu,559.463472,-0.05981528000000001,-9.787574266400002,1.558188044,0.33656842,2.57154703,-3.33936689,,,
imu,559.472193,-0.04605776560000001,-9.7636481544,1.5510102104,0.30666078,2.53416248,-3.38422835,,,
imu,559.480915,-0.0592171272,-9.7612555432,1.5300748624,0.3889067899999999,2.6238854,-3.36927453,,,
imu,559.489636,-0.03887993200000001,-9.755872168000002,1.5300748624,0.29170696,2.66126995,-3.25712088,,,
imu,559.498289,-0.0281131816,-9.746899876,1.5324674736,0.27675314,2.48930102,-3.27955161,,,
imu,559.506942,-0.0137575144,-9.758862932000001,1.519308112,0.42629134,2.36967046,-3.36927453,,,
imu,559.515595,-0.01495382,-9.7845835024,1.5288785568,0.59078336,2.44443956,-3.30198234,,,
imu,559.524248,-0.0191408896,-9.8049206976,1.534261932,0.51601426,2.35471664,-3.53376655,,,
imu,559.532901,-0.0245242648,-9.821668976000002,1.5707492528,0.5010604399999999,2.15284007,-3.71321239,,,
imu,559.541554,-0.04366515440000001,-9.8402117128,1.5994605872,0.38142988,2.13040934,-3.75059694,,,
imu,559.550207,-0.0346928624,-9.837220948800002,1.6024513512,0.20198404,2.1005017,-3.82536604,,,
imu,559.55886,-0.04246884880000001,-9.834828337600001,1.5874975312,0.007584380000000002,2.04068642,-3.90013514,,,
imu,559.567513,-0.03887993200000001,-9.8719138112,1.6024513512,-0.07466163,2.22013226,-3.90013514,,,
imu,559.576166,-0.04725407120000001,-9.850380310400002,1.618003324,-0.29896893,2.23508608,-3.97490424,,,
imu,559.584819,-0.0352910152,-9.806715156000001,1.6174051712,-0.50832241,2.30985518,-4.00481188,,,
imu,559.593472,-0.03947808480000001,-9.775611210400001,1.6233866992,-0.64290679,2.16779389,-4.20668845,,,
imu,559.602125,-0.04785222400000001,-9.787574266400002,1.6156107128,-0.91955246,2.00330187,-4.63287232,,,
imu,559.610778,-0.04127254320000001,-9.803126239200001,1.6162088656,-1.01675229,1.90610204,-4.53567249,,,
imu,559.619431,-0.04545961280000001,-9.7504887928,1.5994605872,-0.8522602699999999,1.70422547,-4.29641137,,,
imu,559.628084,-0.06041343280000001,-9.722973764,1.5845067672,-0.73262971,1.62197946,-4.012288789999999,,,
imu,559.636737,-0.08493769760000001,-9.723571916800001,1.5815160032,-0.6279529699999999,1.89114822,-3.54872037,,,
imu,559.64539,-0.08314323920000001,-9.7403201952,1.5898901424,-0.2017691,2.22013226,-2.74121409,,,
imu,559.654043,-0.0681894192,-9.7427128064,1.594077212,0.11226112,2.21265535,-2.18044584,,,
imu,559.662696,-0.06519865520000001,-9.760059237600002,1.5898901424,0.41133752,2.39210119,-2.001,,,
imu,559.671349,-0.068787572,-9.760059237600002,1.6012550456,0.58330645,2.48182411,-2.27016876,,,
imu,559.680002,-0.06220789120000001,-9.7534795568,1.61501256,0.45619898,2.55659321,-2.81598319,,,
imu,559.688655,-0.06998387760000001,-9.727758986400001,1.5988624344,0.6132140899999999,2.54163939,-3.2720747,,,
imu,559.697308,-0.0634041968,-9.721179305600002,1.5868993784,0.68798319,2.6238854,-3.7954584,,,
imu,559.705608,-0.05562821040000001,-9.7265626808,1.5815160032,0.7702292,2.72108523,-4.13939626,,,
imu,559.713907,-0.0502448352,-9.722973764,1.5868993784,0.9646288599999999,2.89305416,-4.32631901,,,
imu,559.722207,-0.04545961280000001,-9.741516500800001,1.5857030728,1.26370526,2.95286944,-4.37118047,,,
imu,559.730506,-0.0340947096,-9.766040765600001,1.6036476568,1.45810492,2.83323888,-4.341272829999999,,,
imu,559.738806,-0.02990764000000001,-9.802528086400002,1.6132181016,1.48801256,2.81828506,-4.341272829999999,,,
imu,559.747105,-0.017944584,-9.815089295200002,1.6365460608,1.49548947,2.76594669,-4.28893446,,,
imu,559.755405,-0.0197390424,-9.839015407200002,1.6610703256,1.30856672,2.65379304,-4.04967334,,,
imu,559.763704,-0.0305057928,-9.865932283200001,1.6616684784,1.12164397,2.42200883,-3.88518132,,,
imu,559.772004,-0.0227298064,-9.856959991200002,1.6760241456,0.8524752099999999,2.22760917,-3.53376655,,,
imu,559.780303,-0.0370854736,-9.851576616000001,1.6796130624,0.60573718,2.18274771,-3.35432071,,,
imu,559.788603,-0.04605776560000001,-9.8264541984,1.6670518536,0.32909151,2.01077878,-3.07019813,,,
imu,559.796902,-0.0442633072,-9.803126239200001,1.6616684784,0.15712258,1.97339423,-2.8982292,,,
imu,559.805202,-0.0340947096,-9.785181655200002,1.6580795616,0.09730729999999999,1.88367131,-2.79355246,,,
imu,559.813501,-0.05203929360000001,-9.7714241408,1.6712389232,-0.02232326000000001,1.71917929,-3.04029049,,,
imu,559.821801,-0.0592171272,-9.745703570400002,1.6742296872,-0.07466163,1.71170238,-3.18982869,,,
imu,559.8301,-0.05861897440000001,-9.743909112,1.6885853544,-0.06718472,1.56216418,-3.40665908,,,
imu,559.8384,-0.0681894192,-9.7780038216,1.6754259928,0.04496892999999999,1.37524143,-3.58610492,,,
imu,559.846699,-0.0693857248,-9.760059237600002,1.6461165056,0.3216146,1.40514907,-3.75807385,,,
imu,559.854999,-0.05383375200000001,-9.697253193600002,1.6556869504,0.45619898,1.3528107,-3.96742733,,,
imu,559.863298,-0.08374139200000001,-9.6745233872,1.6377423664,0.71789083,1.40514907,-4.23659609,,,
imu,559.871598,-0.09989151760000002,-9.702038416,1.6335552968,1.12912088,1.50982581,-3.81041222,,,
imu,559.879897,-0.0855358504,-9.711010708000002,1.6203959352,1.48053565,1.68179474,-3.15244414,,,
imu,559.888197,-0.07596540560000001,-9.7337405144,1.6114236432,1.87681188,1.79394839,-2.98795212,,,
imu,559.896496,-0.09091922560000001,-9.7337405144,1.6197977824,2.06373463,1.80890221,-2.93561375,,,
imu,559.905309,-0.09390998960000001,-9.766040765600001,1.6191996296,2.5646876,2.00330187,-2.6739219,,,
imu,559.914122,-0.08972292000000001,-9.794153947200002,1.6174051712,2.64693361,2.33228591,-2.72626027,,,
imu,558.872469,,,,,,,77.22273639999999,-16.94972760000002,121.9072176
imu,558.974032,,,,,,,80.01818519999999,-17.09621400000001,119.2704624
imu,559.075564,,,,,,,77.6377812,-16.86427720000001,122.664064
imu,559.177126,,,,,,,77.35701559999998,-17.62112360000001,119.2948768
imu,559.278689,,,,,,,77.4302588,-16.52247560000002,122.3222624
imu,559.380313,,,,,,,76.9785924,-16.70558360000001,121.6996952
imu,559.481814,,,,,,,77.1128716,-16.58351160000002,121.9804608
imu,559.583376,,,,,,,77.52791640000001,-16.43702520000001,121.80956
imu,559.685033,,,,,,,77.7232316,-16.7422052,121.8461816
imu,559.786626,,,,,,,77.45467319999999,-16.38819640000002,121.9804608
imu,559.888189,,,,,,,80.01818519999999,-16.49806120000001,120.6987048
