Type,Timestamp,Data Accelerometer X,Data Accelerometer Y,Data Accelerometer Z,Data Gyroscope X,Data Gyroscope Y,Data Gyroscope Z,Data Magnetometer X,Data Magnetometer Y,Data Magnetometer Z
imu,293.000442,-0.2530186344000001,-9.725366375200002,1.5109339728,0.64312173,17.48798248,-2.13558438,,,
imu,293.008913,-0.1441548248,-9.706823638400001,1.5037561392,0.73284465,18.02632,-2.38979932,,,
imu,293.017384,-0.0197390424,-9.6846919848,1.4899986248,1.09173633,18.19081202,-2.55429134,,,
imu,293.025856,0.06699311360000001,-9.6703363176,1.4929893888,1.27865908,17.69733596,-3.00290594,,,
imu,293.034327,0.1190324072,-9.683495679200002,1.5025598336,1.40576655,16.85992204,-3.36179762,,,
imu,293.042798,0.1429585192,-9.692467971200001,1.5228970288,1.80204278,15.73838554,-3.57862801,,,
imu,293.051269,0.1722680064,-9.702038416,1.5181118064,1.94410407,14.60189522,-3.24216706,,,
imu,293.05974,0.191408896,-9.6703363176,1.5109339728,2.18336519,13.30091288,-3.06272122,,,
imu,293.068211,0.170473548,-9.665551095200001,1.495382,2.70674889,12.12703801,-2.90570611,,,
imu,293.076683,0.1393696024,-9.6535880392,1.5097376672,3.04320984,10.93073241,-2.66644499,,,
imu,293.085154,0.1321917688,-9.671532623200001,1.5288785568,3.40210152,10.01854939,-2.20287657,,,
imu,293.093625,0.1112564208,-9.6745233872,1.531271168,3.64883955,9.21852002,-1.73183124,,,
imu,293.102096,0.0861340032,-9.6817012208,1.5504120576,4.23951544,8.43344447,-1.35798574,,,
imu,293.110567,0.03349655680000001,-9.697851346400002,1.5516083632,4.55354566,7.75304566,-1.14863226,,,
imu,293.119039,-0.0125612088,-9.703832874400002,1.5653658776,4.94234498,7.32686179,-0.8944173199999998,,,
imu,293.12751,-0.0562263632,-9.6709344704,1.5557954328,5.27132902,7.28200033,-0.5355256399999999,,,
imu,293.135981,-0.1022841288,-9.6703363176,1.519308112,5.56292851,7.409107799999999,-0.5280487299999999,,,
imu,293.144452,-0.09630260080000001,-9.6218859408,1.5001672224,5.7797589,7.581076729999999,-0.7224483899999998,,,
imu,293.152923,-0.09510629520000001,-9.641026830400001,1.507345056,6.13117367,7.76052257,-0.9318018699999999,,,
imu,293.161394,-0.06400234960000001,-9.6876827488,1.4989709168,6.72932647,8.08950661,-1.1037708,,,
imu,293.169866,-0.0017944584,-9.797144711200001,1.5181118064,7.30504854,8.20913717,-1.31312428,,,
imu,293.178337,0.09570444800000001,-9.830641268,1.5199062648,7.35738691,8.22409099,-1.52247776,,,
imu,293.186808,0.1483418944,-9.820472670400001,1.5450286824,7.22280253,7.96987605,-1.5523854,,,
imu,293.195277,0.1812402984,-9.878493492,1.5390471544,7.08074124,7.54369218,-1.54490849,,,
imu,293.203745,0.2225128416,-9.916177118400002,1.4899986248,6.7517572,7.20723123,-1.18601681,,,
imu,293.212214,0.23926112,-9.961038578400002,1.4397537896,6.33305024,6.69880135,-0.7598329399999999,,,
imu,293.220682,0.2135405496,-9.9496736752,1.4020701632,5.854528,6.01840254,-0.66263311,,,
imu,293.229151,0.1698753952,-9.938308772000001,1.3835274264,5.37600576,5.5398803,-0.9617095099999999,,,
imu,293.23762,0.1399677552,-9.9580478144,1.3566105504,4.94234498,5.375388279999999,-1.1037708,,,
imu,293.246088,0.152528964,-9.8982325344,1.324908452,4.32176145,5.24828081,-1.42527793,,,
imu,293.254557,0.113649032,-9.859950755200002,1.3021786456,4.02268505,5.22585008,-1.89632326,,,
imu,293.263026,0.1292010048,-9.8653341304,1.2734673112,3.76847011,5.30061918,-2.38232241,,,
imu,293.271494,0.1357806856,-9.906008520800002,1.295000812,3.50677826,5.40529592,-2.74121409,,,
imu,293.279963,0.1680809368,-9.9066066736,1.3027767984,3.12545585,5.48006502,-2.90570611,,,
imu,293.288431,0.197390424,-9.901821451200002,1.292010048,2.73665653,5.41277283,-3.08515195,,,
imu,293.2969,0.2284943696,-9.9030177568,1.2746636168,2.4151494,5.1660348,-2.98795212,,,
imu,293.305369,0.2398592728,-9.876699033600001,1.2573171856,2.01139626,4.65760492,-3.07019813,,,
imu,293.313837,0.2440463424,-9.885671325600002,1.2513356576,1.78708896,4.0444983,-3.11505959,,,
imu,293.322306,0.2338777448,-9.8880639368,1.250139352,1.75718132,3.61831443,-2.84589083,,,
imu,293.330775,0.1997830352,-9.8497821576,1.244157824,1.26370526,3.06502309,-2.80102937,,,
imu,293.339243,0.1549215752,-9.813892989600001,1.247148588,1.30108981,2.8481927,-2.4496146,,,
imu,293.347712,0.1154434904,-9.803724392000001,1.2519338104,1.18145925,2.67622377,-2.35989168,,,
imu,293.35618,0.1082656568,-9.824061587200001,1.2603079496,1.07678251,2.78837742,-2.24773803,,,
imu,293.364649,0.1124527264,-9.824659740000001,1.28602852,0.9197674,3.02763854,-2.06829219,,,
imu,293.373118,0.1124527264,-9.812098531200002,1.3290955216,0.8674290299999999,3.1472691,-2.24026112,,,
imu,293.381586,0.137575144,-9.839015407200002,1.3422548832,0.65059864,3.21456129,-2.62906044,,,
imu,293.390055,0.1537252696,-9.859950755200002,1.3649846896,0.49358353,3.1472691,-2.94309066,,,
imu,293.398505,0.1573141864,-9.855763685600001,1.3913034128,0.26179932,2.94539253,-3.31693616,,,
imu,293.406954,0.1603049504,-9.832435726400002,1.381732968,-0.01484635000000001,2.83323888,-3.53376655,,,
imu,293.415404,0.1477437416,-9.820472670400001,1.3643865368,-0.11204618,2.68370068,-3.7206893,,,
imu,293.423853,0.1333880744,-9.783387196800001,1.3715643704,-0.08961545,2.56407012,-3.70573548,,,
imu,293.432303,0.1321917688,-9.768433376800001,1.3775458984,-0.02980017,2.50425484,-3.59358183,,,
imu,293.440905,0.1232194768,-9.746899876,1.381732968,0.03001510999999998,2.38462428,-3.61601256,,,
imu,293.449354,0.1124527264,-9.748096181600001,1.3948923296,0.26179932,2.27994754,-3.48142818,,,
imu,293.457804,0.1399677552,-9.723571916800001,1.396686788,0.60573718,2.27247063,-3.30198234,,,
imu,293.466253,0.1483418944,-9.715795930400002,1.3954904824,0.85995212,2.18274771,-3.30198234,,,
imu,293.474703,0.1692772424,-9.749890640000002,1.3799385096,1.1440747,2.08554788,-3.51881273,,,
imu,293.483153,0.1866236736,-9.7744149048,1.3930978712,1.27865908,1.8014253,-3.84031986,,,
imu,293.491602,0.1842310624,-9.796546558400001,1.39070526,1.39828964,1.41262598,-4.169303899999999,,,
imu,293.500052,0.2027737992,-9.801929933600002,1.4230055112,1.47305874,1.01634975,-4.26650373,,,
imu,293.508501,0.2075590216,-9.8013317808,1.4092479968,1.46558183,0.7322271699999998,-4.363703559999999,,,
imu,293.516951,0.200381188,-9.7845835024,1.3942941768,1.45062801,0.3284740299999998,-4.386134289999999,,,
imu,293.5254,0.1806421456,-9.802528086400002,1.3924997184,1.49548947,0.07425908999999997,-4.124442439999999,,,
imu,293.53385,0.1489400472,-9.8162856008,1.366779148,1.4431511,-0.3369709599999999,-3.8702275,,,
imu,293.542299,0.1333880744,-9.802528086400002,1.3500308696,1.52539711,-0.5014629800000003,-3.83284295,,,
imu,293.550749,0.07955432240000002,-9.787574266400002,1.3619939256,1.47305874,-0.6659550000000003,-4.00481188,,,
imu,293.559199,0.0263187232,-9.7786019744,1.3440493416,1.65998149,-0.7556779200000001,-4.28145755,,,
imu,293.567648,0.0263187232,-9.818678212000002,1.3404604248,1.74970441,-0.7781086500000001,-4.52819558,,,
imu,293.576098,0.003588916800000001,-9.8049206976,1.3284973688,1.9665348,-0.53884753,-4.670256869999999,,,
imu,293.584547,-0.007775986400000001,-9.773816752000002,1.3183287712,2.13850373,-0.3294940500000001,-4.887087259999999,,,
imu,293.592997,0.0023926112,-9.790565030400002,1.3284973688,2.35533412,0.13407437,-4.57305704,,,
imu,293.601818,0.0263187232,-9.800135475200001,1.3195250768,2.30299575,0.6724118899999998,-3.91508896,,,
imu,293.610639,0.06041343280000001,-9.8198745176,1.3243102992,2.45253395,1.07616503,-3.24216706,,,
imu,293.619459,0.05981528000000001,-9.835426490400001,1.3332825912,2.4899185,1.16588795,-2.85336774,,,
imu,293.62828,0.08792846160000001,-9.803126239200001,1.3416567304,2.43758013,1.06121121,-3.00290594,,,
imu,293.637101,0.07177833600000001,-9.803126239200001,1.3302918272,2.4899185,1.03130357,-3.40665908,,,
imu,293.645922,0.0532355992,-9.801929933600002,1.309954632,2.45253395,1.02382666,-3.78050458,,,
imu,293.654743,0.0215335008,-9.7815927384,1.303973104,2.34785721,0.8742884599999998,-4.363703559999999,,,
imu,293.663564,0.008972292000000002,-9.758862932000001,1.2985897288,2.25813429,0.8144731799999998,-4.81231816,,,
imu,293.672385,0.005981528000000001,-9.777405668800002,1.2902155896,2.12354991,0.9640113799999996,-5.08148692,,,
imu,293.681206,0.003588916800000001,-9.759461084800002,1.2866266728,2.18336519,1.2032725,-5.10391765,,,
imu,293.690027,0.009570444800000001,-9.786377960800001,1.3045712568,2.407672489999999,1.47244126,-4.93942563,,,
imu,293.698848,0.03947808480000001,-9.8294449624,1.3302918272,2.53477996,1.58459491,-4.52819558,,,
imu,293.707669,0.0723764888,-9.825257892800002,1.351825328,2.31794957,1.56964109,-4.23659609,,,
imu,293.716489,0.09211553120000002,-9.828846809600002,1.3392641192,2.116073,1.34533379,-4.31136519,,,
imu,293.72531,0.1058730456,-9.837220948800002,1.327899216,1.95905789,1.08364194,-4.18425772,,,
imu,293.734131,0.1172379488,-9.8467913936,1.3171324656,1.8917657,0.8817653699999997,-3.93004278,,,
imu,293.742952,0.107667504,-9.8563618384,1.3231139936,1.63755076,0.6873657099999999,-3.72816621,,,
imu,293.751773,0.09091922560000001,-9.834828337600001,1.3087583264,1.39828964,0.4032431299999999,-3.6459202,,,
imu,293.760594,0.05861897440000001,-9.827650504000003,1.3021786456,1.50296638,0.21632038,-3.78050458,,,
imu,293.769415,0.04187069600000001,-9.828846809600002,1.3147398544,1.18893616,0.2387511099999999,-3.92256587,,,
imu,293.778236,0.03947808480000001,-9.813892989600001,1.3153380072,1.09173633,0.5079198699999998,-3.7954584,,,
imu,293.787057,0.04127254320000001,-9.837819101600003,1.3207213824,1.09921324,0.6350273399999997,-3.9449966,,,
imu,293.795878,0.026916876,-9.864137824800002,1.3057675624,1.15155161,0.84438082,-4.169303899999999,,,
imu,293.804351,0.0532355992,-9.867726741600002,1.3063657152,1.01696723,0.8144731799999998,-4.53567249,,,
imu,293.812825,0.0305057928,-9.8049206976,1.3057675624,1.08425942,0.94905756,-4.63287232,,,
imu,293.821299,0.0173464312,-9.801929933600002,1.2997860344,1.13659779,1.14345722,-4.57305704,,,
imu,293.829772,0.03349655680000001,-9.8210708232,1.2938045064,1.28613599,1.49487199,-4.00481188,,,
imu,293.838246,0.04007623760000001,-9.821668976000002,1.274065464,1.32352054,1.65936401,-3.51133582,,,
imu,293.84672,0.0490485296,-9.8198745176,1.2926082008,1.45062801,1.8761944,-3.33188998,,,
imu,293.855194,0.06101158560000001,-9.811500378400002,1.3003841872,1.40576655,1.83880985,-3.18235178,,,
imu,293.863667,0.0592171272,-9.802528086400002,1.2973934232,1.54782784,1.86871749,-3.40665908,,,
imu,293.872141,0.05383375200000001,-9.801929933600002,1.2848322144,1.31604363,1.70422547,-3.67582784,,,
imu,293.880615,0.04486146000000001,-9.7989391696,1.292010048,1.28613599,1.53973345,-3.99733497,,,
imu,293.889088,0.0155519728,-9.7995373224,1.2854303672,1.34595127,1.56216418,-4.26650373,,,
imu,293.897562,0.011963056,-9.8013317808,1.2662894776,1.45062801,1.70422547,-4.430995749999999,,,
imu,293.906036,-0.0005981528000000001,-9.802528086400002,1.2638968664,1.368382,1.66684092,-4.52071867,,,
imu,293.91451,-0.002990764,-9.80970592,1.2710747,1.33847436,1.86871749,-4.74502597,,,
imu,293.922983,-0.002990764,-9.822267128800002,1.283037756,1.28613599,2.0257326,-4.70764142,,,
imu,293.931457,-0.005981528000000001,-9.828248656800001,1.3033749512,1.18893616,2.22760917,-4.68521069,,,
imu,293.939931,-0.0017944584,-9.850380310400002,1.3021786456,1.11416706,2.39210119,-4.44594957,,,
imu,293.948404,0.0113649032,-9.859950755200002,1.3003841872,0.8973366700000001,2.5491163,-4.13939626,,,
imu,293.956878,0.05203929360000001,-9.8581562968,1.2985897288,0.81509066,2.53416248,-3.9449966,,,
imu,293.965352,0.04605776560000001,-9.830641268,1.2842340616,0.68798319,2.34723973,-3.69078166,,,
imu,293.973826,0.0490485296,-9.805518850400002,1.2806451448,0.55339881,2.10797861,-3.45152054,,,
imu,293.982299,0.05203929360000001,-9.801929933600002,1.2788506864,0.53844499,1.86124058,-3.20478251,,,
imu,293.061324,,,,,,,80.860482,-18.86625800000001,119.1728048
imu,293.162917,,,,,,,78.85850119999999,-18.73197880000001,121.9072176
imu,293.264449,,,,,,,78.785258,-18.69535720000002,121.6752808
imu,293.990773,0.03588916800000001,-9.803126239200001,1.2854303672,0.51601426,1.50982581,-3.10010577,,,
imu,293.999247,0.005981528000000001,-9.8234634344,1.3021786456,0.46367589,1.30794924,-3.00290594,,,
imu,294.007719,0.0005981528000000001,-9.817481906400001,1.2997860344,0.4861066199999999,1.39767216,-2.83841392,,,
imu,294.016192,0.002990764,-9.827650504000003,1.3153380072,0.30666078,1.47244126,-2.75616791,,,
imu,294.024664,0.0005981528000000001,-9.8593526024,1.3255066048,0.34404533,1.68179474,-2.71130645,,,
imu,294.033137,0.0005981528000000001,-9.825856045600002,1.333880744,0.27675314,1.84628676,-2.78607555,,,
imu,294.041609,0.0191408896,-9.821668976000002,1.3374696608,0.14964567,2.11545552,-2.88327538,,,
imu,294.050081,0.04486146000000001,-9.802528086400002,1.327899216,0.03749201999999999,2.33976282,-2.99542903,,,
imu,294.058554,0.04845037680000001,-9.7821908912,1.3296936744,0.06739966,2.46687029,-3.06272122,,,
imu,294.067026,0.06519865520000001,-9.755872168000002,1.3201232296,0.23189168,2.65379304,-3.18235178,,,
imu,294.075499,0.07177833600000001,-9.762451848800001,1.3183287712,0.41881443,2.75846978,-3.31693616,,,
imu,294.083971,0.08015247520000002,-9.748694334400001,1.3273010632,0.6281679099999999,2.94539253,-3.30198234,,,
imu,294.092444,0.1040785872,-9.751685098400001,1.321917688,0.82256757,2.93043871,-3.38422835,,,
imu,294.100916,0.1070693512,-9.7821908912,1.339862272,1.10669015,2.97530017,-3.36179762,,,
imu,294.109389,0.1040785872,-9.8013317808,1.3380678136,1.27865908,2.82576197,-3.48142818,,,
imu,294.117861,0.1142471848,-9.7750130576,1.3452456472,1.11416706,2.58650085,-3.85527368,,,
imu,294.126333,0.116639796,-9.748694334400001,1.3374696608,1.45062801,2.58650085,-3.91508896,,,
imu,294.134806,0.1172379488,-9.766638918400002,1.33088998,1.63755076,2.57154703,-4.0197657,,,
imu,294.143278,0.1124527264,-9.809107767200002,1.324908452,1.60016621,2.46687029,-4.012288789999999,,,
imu,294.151751,0.1142471848,-9.870119352800002,1.3500308696,1.73475059,2.41453192,-4.06462716,,,
imu,294.160223,0.1357806856,-9.873708269600002,1.369769912,1.57773548,2.25751681,-4.23659609,,,
imu,294.168696,0.1387714496,-9.830641268,1.3703680648,1.40576655,2.04068642,-4.52071867,,,
imu,294.177168,0.1297991576,-9.832435726400002,1.372760676,1.26370526,1.68179474,-4.84970271,,,
imu,294.18564,0.11963056,-9.875502728,1.3596013144,1.08425942,1.2780416,-4.887087259999999,,,
imu,294.194113,0.10467674,-9.900625145600001,1.3231139936,0.9197674,0.8219500899999996,-4.909517989999999,,,
imu,294.202585,0.07058203040000001,-9.831837573600001,1.3051694096,0.9347212199999999,0.4107200399999997,-4.78241052,,,
imu,294.211041,0.04187069600000001,-9.758862932000001,1.3225158408,0.8973366700000001,0.27613566,-4.13939626,,,
imu,294.219497,0.03110394560000001,-9.746899876,1.3015804928,1.02444414,0.2686587499999997,-3.54124346,,,
imu,294.227953,0.0317020984,-9.7750130576,1.2818414504,1.25622835,0.2013665599999999,-3.04029049,,,
imu,294.236409,0.05383375200000001,-9.8013317808,1.2734673112,1.65250458,0.3658585799999998,-2.98795212,,,
imu,294.244865,0.05203929360000001,-9.803724392000001,1.2573171856,1.77961205,0.2611818399999999,-3.15992105,,,
imu,294.253321,0.06220789120000001,-9.8132948368,1.2698783944,1.78708896,0.2088434699999997,-3.6459202,,,
imu,294.261777,0.03588916800000001,-9.803724392000001,1.283037756,1.92915025,0.07425908999999997,-3.92256587,,,
imu,294.270233,0.0017944584,-9.831837573600001,1.2854303672,1.93662716,-0.09023292999999999,-4.11696553,,,
imu,294.278689,0.0101685976,-9.839015407200002,1.2842340616,1.87681188,0.1639820099999998,-4.29641137,,,
imu,294.287145,0.005981528000000001,-9.848585852000001,1.297991576,1.60764312,0.1864127399999997,-4.37118047,,,
imu,294.2956,0.0005981528000000001,-9.867128588800002,1.2985897288,1.21136689,0.2611818399999999,-4.41604193,,,
imu,294.304056,0.0017944584,-9.883278714400001,1.2985897288,0.9571519499999999,0.3733354899999997,-4.34874974,,,
imu,294.312512,0.0017944584,-9.858754449600001,1.2973934232,0.57582954,0.4555814999999996,-4.146873169999999,,,
imu,294.320968,0.0101685976,-9.828248656800001,1.2896174368,0.2468455,0.50044296,-3.96742733,,,
imu,294.329424,0.0221316536,-9.807313308800001,1.2955989648,0.05992275,0.5752120599999997,-3.76555076,,,
imu,294.33788,0.004187069600000001,-9.789966877600001,1.3003841872,-0.21672292,0.5677351499999999,-3.66087402,,,
imu,294.346336,-0.0107667504,-9.776807516000002,1.2734673112,-0.16438455,0.5901658799999998,-3.45152054,,,
imu,294.354792,-0.0017944584,-9.793555794400001,1.2632987136,-0.09709236,0.8593346399999997,-3.07019813,,,
imu,294.363248,0.004785222400000001,-9.777405668800002,1.2615042552,0.15712258,1.03878048,-2.89075229,,,
imu,294.371704,0.0017944584,-9.803126239200001,1.2926082008,0.3889067899999999,1.26308778,-2.99542903,,,
imu,294.38016,0.0203371952,-9.803126239200001,1.3177306184,0.5010604399999999,1.43505671,-3.01038285,,,
imu,294.388615,0.03947808480000001,-9.818080059200001,1.3476382584,0.3739529699999999,1.52477963,-3.10010577,,,
imu,294.397071,0.0741709472,-9.879689797600001,1.3655828424,0.27675314,1.47991817,-3.39918217,,,
imu,294.405527,0.09390998960000001,-9.929336480000002,1.3536197864,0.26927623,1.5023489,-3.90761205,,,
imu,294.414001,0.137575144,-9.908401132000002,1.3530216336,0.03001510999999998,1.22570323,-4.37865738,,,
imu,294.422475,0.1489400472,-9.8593526024,1.3643865368,-0.11204618,0.8518577299999999,-4.65530305,,,
imu,294.430948,0.1668846312,-9.839015407200002,1.3596013144,-0.13447691,0.6574580699999997,-4.341272829999999,,,
imu,294.439422,0.1926052016,-9.844398782400003,1.3482364112,-0.23915365,0.33595094,-3.84031986,,,
imu,294.447896,0.19439966,-9.834230184800003,1.3290955216,-0.37373803,-0.1425713000000002,-3.496382,,,
imu,294.45637,0.1812402984,-9.802528086400002,1.3267029104,-0.41112258,-0.65847809,-3.44404363,,,
imu,294.464843,0.143556672,-9.772620446400001,1.3213195352,-0.32887657,-1.09961578,-3.60105874,,,
imu,294.473317,0.1040785872,-9.7845835024,1.3165343128,-0.40364567,-1.45850746,-3.69078166,,,
imu,294.481791,0.05562821040000001,-9.760059237600002,1.3147398544,-0.35878421,-1.57813802,-3.75807385,,,
imu,294.490264,0.03588916800000001,-9.745703570400002,1.318926924,-0.23167674,-1.43607673,-3.83284295,,,
imu,294.498738,0.0125612088,-9.748694334400001,1.3255066048,-0.20924601,-1.47346128,-4.00481188,,,
imu,294.507212,-0.0011963056,-9.758264779200001,1.33088998,0.03001510999999998,-1.286538530000001,-4.07210407,,,
imu,294.515686,-0.0257205704,-9.762451848800001,1.3458438,0.11226112,-1.12952342,-4.26650373,,,
imu,294.524159,-0.0376836264,-9.801929933600002,1.369769912,0.11226112,-0.9201699400000001,-4.52071867,,,
imu,294.53255,-0.0323002512,-9.802528086400002,1.3769477456,0.05992275,-0.7033395499999999,-4.63287232,,,
imu,294.541023,-0.03588916800000001,-9.800733628000001,1.3691717592,0.0001074699999999984,-0.4939860700000001,-4.887087259999999,,,
imu,294.549497,-0.04605776560000001,-9.803724392000001,1.3643865368,0.08235347999999998,-0.35192478,-4.87213344,,,
imu,294.557971,-0.0514411408,-9.802528086400002,1.363788384,-0.08961545,-0.2622018600000002,-4.715118329999999,,,
imu,294.566445,-0.0562263632,-9.7821908912,1.3721625232,-0.25410747,0.04435144999999974,-4.453426479999999,,,
imu,294.574918,-0.0634041968,-9.7786019744,1.372760676,-0.22419983,0.3957662200000001,-4.33379592,,,
imu,294.583392,-0.06519865520000001,-9.776807516000002,1.3655828424,-0.13447691,0.7546578999999998,-3.98238115,,,
imu,294.591866,-0.04545961280000001,-9.779798280000001,1.3691717592,0.0001074699999999984,1.06868812,-3.67582784,,,
imu,294.600339,-0.0376836264,-9.786377960800001,1.3799385096,0.16459949,1.30794924,-3.57862801,,,
imu,294.608813,-0.03887993200000001,-9.790565030400002,1.3841255792,0.18703022,1.44253362,-3.5711511,,,
imu,294.617619,-0.0131593616,-9.802528086400002,1.39070526,0.30666078,1.73413311,-3.60853565,,,
imu,294.626426,0.0023926112,-9.805518850400002,1.3889108016,0.23936859,1.74161002,-3.5711511,,,
imu,294.635232,0.0173464312,-9.831837573600001,1.3960886352,0.5010604399999999,1.80890221,-3.45152054,,,
imu,294.644038,0.02871133440000001,-9.8270523512,1.4092479968,0.44872207,1.85376367,-3.5711511,,,
imu,294.652845,0.0430670016,-9.828846809600002,1.411640608,0.59078336,1.80890221,-3.48890509,,,
imu,294.661651,0.062806044,-9.8270523512,1.4122387608,0.41881443,1.68927165,-3.1973056,,,
imu,294.670457,0.0747691,-9.8132948368,1.4170239832,0.20198404,1.59954873,-2.84589083,,,
imu,294.679264,0.0855358504,-9.803126239200001,1.4092479968,0.26927623,1.47991817,-2.64401426,,,
imu,294.68807,0.07775986400000001,-9.772620446400001,1.4080516912,0.11973803,1.21074941,-2.83841392,,,
imu,294.696876,0.07177833600000001,-9.76484446,1.3913034128,0.22441477,0.9939190199999999,-2.65149117,,,
imu,294.705683,0.0514411408,-9.769031529600001,1.3769477456,0.31413769,0.7920424499999998,-2.70382954,,,
imu,294.714489,0.04486146000000001,-9.737329431200001,1.3649846896,0.38142988,0.6574580699999997,-2.94309066,,,
imu,294.723295,0.03349655680000001,-9.710412555200001,1.3625920784,0.41133752,0.7097964399999999,-2.83093701,,,
imu,294.732101,0.04246884880000001,-9.7086180968,1.3392641192,0.59078336,0.7995193599999997,-2.68139881,,,
imu,294.740908,0.03947808480000001,-9.710412555200001,1.3314881328,0.9571519499999999,1.01634975,-2.87579847,,,
imu,294.749714,0.02871133440000001,-9.734936820000001,1.3171324656,1.33099745,1.10607267,-2.9729983,,,
imu,294.75852,0.0323002512,-9.8049206976,1.3596013144,1.65250458,1.27056469,-2.95056757,,,
imu,294.767327,0.03110394560000001,-9.880287950400001,1.3835274264,1.54035093,1.33785688,-3.14496723,,,
imu,294.776133,0.03947808480000001,-9.916177118400002,1.4283888864,1.24875144,1.45001053,-3.56367419,,,
imu,294.784939,0.0490485296,-9.908999284800002,1.4541094568,0.94219813,1.58459491,-3.72816621,,,
imu,294.793746,0.0466559184,-9.9078029792,1.4529131512,0.3739529699999999,1.62945637,-3.97490424,,,
imu,294.802552,0.05443190480000001,-9.920962340800001,1.4463334704,-0.11204618,1.8014253,-4.034719519999999,,,
imu,293.366012,,,,,,,79.3712036,-18.18265480000001,122.0414968
imu,293.467605,,,,,,,78.6509788,-18.42679880000002,121.8339744
imu,293.569137,,,,,,,79.3589964,-18.36576280000002,122.2490192
imu,293.670699,,,,,,,79.4078252,-18.20706920000001,122.1635688
imu,293.772262,,,,,,,81.287734,-18.73197880000001,121.8828032
imu,293.873855,,,,,,,79.6519692,-18.89067240000002,122.541992
imu,293.97557,,,,,,,81.89809400000001,-19.19585240000001,119.8930296
imu,294.076949,,,,,,,79.29796040000001,-18.4878348,122.9204152
imu,294.811358,0.06579680800000001,-9.88447502,1.4080516912,-0.2765382,1.79394839,-3.91508896,,,
imu,294.819835,0.062806044,-9.8168837536,1.3865181904,-0.59056842,1.70422547,-3.78050458,,,
imu,294.828311,0.0592171272,-9.792957641600001,1.3631902312,-0.60552224,1.79394839,-3.42908981,,,
imu,294.836787,0.0693857248,-9.787574266400002,1.3613957728,-0.35878421,1.83880985,-2.81598319,,,
imu,294.845263,0.08912476720000001,-9.798341016800002,1.3661809952,-0.09709236,1.9509635,-2.47952224,,,
imu,294.85374,0.08972292000000001,-9.7750130576,1.3751532872,0.1720764,1.89114822,-2.55429134,,,
imu,294.862216,0.0813487808,-9.758862932000001,1.3930978712,0.20198404,1.75656384,-3.08515195,,,
imu,294.870692,0.0663949608,-9.746301723200002,1.3841255792,0.3739529699999999,1.64441019,-3.69825857,,,
imu,294.879168,0.068787572,-9.727160833600001,1.3799385096,0.44872207,1.60702564,-4.33379592,,,
imu,294.887645,0.05861897440000001,-9.724170069600001,1.3703680648,0.40386061,1.34533379,-4.96933327,,,
imu,294.896121,0.03289840400000001,-9.7217774584,1.3679754536,0.64312173,1.33037997,-5.260932759999999,,,
imu,294.904597,0.0430670016,-9.721179305600002,1.3763495928,0.97210577,1.51730272,-5.20859439,,,
imu,294.913073,0.0442633072,-9.743909112,1.3811348152,0.9646288599999999,1.43505671,-5.24597894,,,
imu,294.92155,0.04127254320000001,-9.786976113600002,1.3871163432,1.31604363,1.30047233,-5.1413022,,,
imu,294.930026,0.0185427368,-9.815687448000002,1.3942941768,1.45062801,1.27056469,-5.24597894,,,
imu,294.938502,0.0233279592,-9.8234634344,1.4098461496,1.38333582,1.2032725,-5.328224949999999,,,
imu,294.946978,-0.0065796808,-9.853371074400002,1.4397537896,1.22632071,1.11354958,-5.14877911,,,
imu,294.955455,-0.026916876,-9.848585852000001,1.4439408592,0.88985976,1.00887284,-4.83474889,,,
imu,294.963931,-0.0406743904,-9.853969227200002,1.4361648728,0.65059864,1.28551851,-4.55062631,,,
imu,294.972407,-0.0532355992,-9.835426490400001,1.414631372,0.33656842,1.56964109,-4.21416536,,,
imu,294.980883,-0.05742266880000001,-9.828248656800001,1.417622136,0.16459949,1.9509635,-3.89265823,,,
imu,294.98936,-0.05682451600000001,-9.815089295200002,1.4164258304,0.14216876,2.20517844,-3.69078166,,,
imu,294.997836,-0.0502448352,-9.793555794400001,1.4343704144,0.007584380000000002,2.51920866,-3.83284295,,,
imu,295.006312,-0.0305057928,-9.790565030400002,1.4289870392,0.04496892999999999,2.72108523,-4.15435008,,,
imu,295.014788,-0.0197390424,-9.798341016800002,1.423603664,0.14964567,3.09493073,-4.61044159,,,
imu,295.023253,-0.0155519728,-9.844398782400003,1.429585192,0.27675314,3.26689966,-4.887087259999999,,,
imu,295.031718,0.026916876,-9.834230184800003,1.4283888864,0.33656842,3.31923803,-5.17868675,,,
imu,295.040183,0.0376836264,-9.803126239200001,1.4547076096,0.35899915,3.2220382,-5.48524006,,,
imu,295.048648,0.03110394560000001,-9.785181655200002,1.4606891376,0.38142988,3.18465365,-5.60487062,,,
imu,295.057113,0.05742266880000001,-9.805518850400002,1.4612872904,0.4861066199999999,2.9977309,-5.10391765,,,
imu,295.065577,0.07058203040000001,-9.809107767200002,1.4463334704,0.35899915,2.83323888,-4.55810322,,,
imu,295.074042,0.0257205704,-9.820472670400001,1.4559039152,0.49358353,2.63136231,-4.21416536,,,
imu,295.082507,0.07118018320000001,-9.793555794400001,1.45052054,0.26927623,2.21265535,-4.28145755,,,
imu,295.090972,0.0466559184,-9.775611210400001,1.4313796504,0.23189168,1.93600968,-4.44594957,,,
imu,295.099437,0.0257205704,-9.7750130576,1.4361648728,0.20946095,1.6518871,-4.46090339,,,
imu,295.107901,0.004785222400000001,-9.773816752000002,1.453511304,0.22441477,1.44253362,-4.692687599999999,,,
imu,295.116366,-0.005981528000000001,-9.758862932000001,1.4517168456,0.27675314,1.47991817,-4.90204108,,,
imu,295.124831,-0.0305057928,-9.748096181600001,1.4571002208,0.29918387,1.36776452,-5.021671639999999,,,
imu,295.133296,-0.0514411408,-9.7474980288,1.4439408592,0.3739529699999999,1.30047233,-4.96185636,,,
imu,295.141761,-0.04605776560000001,-9.749890640000002,1.4576983736,0.35899915,1.62945637,-4.976810179999999,,,
imu,295.150225,-0.0442633072,-9.748096181600001,1.4606891376,0.50853735,1.85376367,-4.9169949,,,
imu,295.15869,-0.0227298064,-9.7474980288,1.4553057624,0.5982602699999999,1.86124058,-4.976810179999999,,,
imu,295.167155,0.007177833600000002,-9.7702278352,1.4559039152,0.71789083,2.01077878,-4.73007215,,,
imu,295.17562,0.0245242648,-9.780396432800002,1.4523149984,0.8375213899999999,2.01825569,-4.70764142,,,
imu,295.184085,0.04366515440000001,-9.780396432800002,1.4541094568,0.97958268,1.8014253,-4.83474889,,,
imu,295.19255,0.06460050240000001,-9.7953502528,1.432575956,1.19641307,1.61450255,-4.67773378,,,
imu,295.201014,0.0675912664,-9.803126239200001,1.4373611784,1.33847436,1.46496435,-4.53567249,,,
imu,295.209479,0.05084298800000001,-9.803126239200001,1.4463334704,1.2936129,1.18831868,-4.52819558,,,
imu,295.217944,0.0352910152,-9.803126239200001,1.426594428,1.5179202,0.9640113799999996,-4.51324176,,,
imu,295.22642,-0.0017944584,-9.8043225448,1.4307814976,1.61512003,0.8219500899999996,-4.5431494,,,
imu,295.234896,-0.023926112,-9.796546558400001,1.429585192,1.71979677,0.7322271699999998,-4.49081103,,,
imu,295.243373,-0.05203929360000001,-9.797144711200001,1.4212110528,1.84690424,0.8144731799999998,-4.453426479999999,,,
imu,295.251849,-0.06460050240000001,-9.803126239200001,1.4182202888,1.93662716,0.8369039099999998,-4.5431494,,,
imu,295.260325,-0.08673215600000002,-9.802528086400002,1.4128369136,1.98896553,1.03878048,-4.55062631,,,
imu,295.268802,-0.09570444800000001,-9.825856045600002,1.4200147472,1.9665348,1.15093413,-4.715118329999999,,,
imu,295.277278,-0.116639796,-9.863539672000002,1.43556672,1.92167334,1.36028761,-4.83474889,,,
imu,295.285754,-0.110658268,-9.867128588800002,1.4463334704,1.58521239,1.58459491,-4.78988743,,,
imu,295.29423,-0.0980970592,-9.8563618384,1.4559039152,1.12912088,1.74161002,-4.84970271,,,
imu,295.302707,-0.08433954480000001,-9.825257892800002,1.4439408592,0.83004448,1.83133294,-4.86465653,,,
imu,295.311183,-0.07297464160000001,-9.818678212000002,1.4283888864,0.4711528,1.80890221,-4.89456417,,,
imu,295.319659,-0.0741709472,-9.815089295200002,1.4247999696,0.2468455,1.53973345,-5.20859439,,,
imu,295.328135,-0.0693857248,-9.776209363200001,1.4134350664,0.15712258,1.25561087,-5.32074804,,,
imu,295.336612,-0.0735727944,-9.739722042400002,1.4038646216,0.01506129,1.06868812,-5.31327113,,,
imu,295.345088,-0.08314323920000001,-9.7361331256,1.3948923296,0.007584380000000002,0.8144731799999998,-5.02914855,,,
imu,295.353564,-0.1118545736,-9.766638918400002,1.3889108016,0.26927623,0.7995193599999997,-4.5431494,,,
imu,295.36204,-0.1142471848,-9.803126239200001,1.411640608,0.44872207,0.6724118899999998,-3.98238115,,,
imu,295.370517,-0.1232194768,-9.8264541984,1.4373611784,0.56835263,0.6873657099999999,-3.50385891,,,
imu,295.378993,-0.1477437416,-9.841408018400001,1.4588946792,0.45619898,0.5153967799999997,-3.38422835,,,
imu,295.387469,-0.1609031032,-9.8593526024,1.471455888,0.36647606,0.58268897,-3.42908981,,,
imu,295.395945,-0.1752587704,-9.861147060800002,1.4786337216,0.17955331,0.56025824,-3.496382,,,
imu,295.404422,-0.1752587704,-9.852174768800001,1.4559039152,0.20946095,0.9191499199999997,-3.36179762,,,
imu,295.412898,-0.1609031032,-9.8043225448,1.438557484,0.0001074699999999984,1.07616503,-3.35432071,,,
imu,295.421374,-0.1579123392,-9.766040765600001,1.4349685672,0.20198404,1.39019525,-3.24216706,,,
imu,295.429825,-0.1495382,-9.752881404000002,1.414631372,0.21693786,1.56964109,-2.8982292,,,
imu,295.438276,-0.1280046992,-9.766040765600001,1.411640608,0.45619898,1.98087114,-2.02343073,,,
imu,295.446727,-0.09510629520000001,-9.7953502528,1.4218092056,0.68798319,2.27994754,-1.50752394,,,
imu,295.455177,-0.068787572,-9.787574266400002,1.429585192,0.9870595899999999,2.60893158,-1.43275484,,,
imu,295.463628,-0.0550300576,-9.800733628000001,1.4397537896,1.09921324,2.67622377,-1.85893871,,,
imu,295.472079,-0.062806044,-9.803126239200001,1.4343704144,1.00949032,2.76594669,-2.39727623,,,
imu,295.48053,-0.0723764888,-9.800733628000001,1.4289870392,1.08425942,2.91548489,-2.83093701,,,
imu,295.488981,-0.04725407120000001,-9.7702278352,1.4337722616,1.00201341,3.16222292,-3.15992105,,,
imu,295.497432,-0.04605776560000001,-9.7744149048,1.4277907336,0.74779847,3.08745382,-3.59358183,,,
imu,295.505882,-0.0125612088,-9.802528086400002,1.4337722616,0.8749059399999999,2.9977309,-3.76555076,,,
imu,295.514333,0.0185427368,-9.812696684000002,1.4391556368,0.74779847,2.88557725,-3.81788913,,,
imu,295.522784,0.0233279592,-9.805518850400002,1.4379593312,0.74779847,2.60893158,-3.93004278,,,
imu,295.531235,0.009570444800000001,-9.800733628000001,1.4463334704,0.71789083,2.324809,-3.96742733,,,
imu,295.539686,0.011963056,-9.803126239200001,1.4547076096,0.7403215599999999,2.1005017,-3.66087402,,,
imu,295.548137,0.0023926112,-9.798341016800002,1.4517168456,0.6281679099999999,1.8014253,-3.48890509,,,
imu,295.556587,-0.011963056,-9.801929933600002,1.4588946792,0.59078336,1.59954873,-3.3468438,,,
imu,295.565038,-0.0245242648,-9.801929933600002,1.4672688184,0.40386061,1.28551851,-3.22721324,,,
imu,295.573489,-0.04246884880000001,-9.801929933600002,1.456502068,0.29170696,1.3528107,-3.13001341,,,
imu,295.58194,-0.04486146000000001,-9.785779808000001,1.4576983736,0.36647606,1.15841104,-3.15992105,,,
imu,295.590391,-0.0442633072,-9.802528086400002,1.468465124,0.32909151,1.22570323,-3.17487487,,,
imu,295.598841,-0.04725407120000001,-9.800733628000001,1.4792318744,0.31413769,1.21074941,-3.30945925,,,
imu,295.607292,-0.0370854736,-9.792957641600001,1.4816244856,0.16459949,1.24065705,-3.33936689,,,
imu,295.615743,-0.0352910152,-9.801929933600002,1.483418944,0.20198404,1.27056469,-3.32441307,,,
imu,294.178443,,,,,,,82.1788596,-19.62310440000001,119.5146064
imu,294.280006,,,,,,,79.883906,-18.67094280000001,122.358884
imu,294.381568,,,,,,,79.5909332,-18.79301480000002,122.541992
imu,294.483284,,,,,,,79.5909332,-18.7808076,122.8105504
imu,294.584693,,,,,,,79.8350772,-18.73197880000001,122.2856408
imu,294.686286,,,,,,,80.1768788,-18.47562760000001,122.0781184
imu,294.787849,,,,,,,79.7496268,-18.62211400000002,122.0048752
imu,294.889473,,,,,,,80.81165320000001,-18.34134840000001,121.0282992
imu,295.62411,-0.03947808480000001,-9.8402117128,1.486409708,0.36647606,1.3528107,-3.24216706,,,
imu,295.633121,-0.0125612088,-9.8563618384,1.4792318744,0.41133752,1.47244126,-3.22721324,,,
imu,295.642131,-0.002990764,-9.803126239200001,1.4840170968,0.46367589,1.47991817,-3.32441307,,,
imu,295.651142,-0.0227298064,-9.803724392000001,1.4977746112,0.73284465,1.31542615,-3.45152054,,,
imu,295.660153,-0.04725407120000001,-9.805518850400002,1.4792318744,0.65807555,1.43505671,-3.2720747,,,
imu,295.669163,-0.04545961280000001,-9.805518850400002,1.4810263328,0.65807555,1.74908693,-2.68887572,,,
imu,295.678174,-0.04366515440000001,-9.789966877600001,1.4971764584,0.67302937,2.19022462,-2.24773803,,,
imu,295.687185,-0.0532355992,-9.767237071200002,1.471455888,0.57582954,2.38462428,-2.14306129,,,
imu,295.696195,-0.04127254320000001,-9.743310959200002,1.4792318744,0.63564482,2.66874686,-2.3748455,,,
imu,295.705206,-0.01495382,-9.746301723200002,1.4750448048,0.7403215599999999,3.08745382,-2.55429134,,,
imu,295.714217,0.005981528000000001,-9.7504887928,1.4732503464,0.78518302,3.24446893,-2.98795212,,,
imu,295.723227,0.0191408896,-9.748694334400001,1.48042818,0.88985976,3.28933039,-3.45152054,,,
imu,295.732238,0.04187069600000001,-9.746301723200002,1.4792318744,1.02444414,3.2220382,-3.82536604,,,
imu,295.741249,0.0592171272,-9.780396432800002,1.4810263328,1.18893616,3.31923803,-3.96742733,,,
imu,295.750259,0.0933118368,-9.7959484056,1.4810263328,1.27865908,3.15474601,-4.00481188,,,
imu,295.75927,0.1130508792,-9.788172419200002,1.4899986248,1.27118217,2.90053107,-4.0197657,,,
imu,295.76828,0.1142471848,-9.803126239200001,1.4780355688,1.20388998,2.6238854,-4.0197657,,,
imu,295.777291,0.1238176296,-9.809107767200002,1.4846152496,1.08425942,2.22760917,-3.95995042,,,
imu,295.786302,0.11963056,-9.8144911424,1.4798300272,1.01696723,1.8014253,-4.012288789999999,,,
imu,295.795312,0.1034804344,-9.808509614400002,1.4810263328,0.9347212199999999,1.47244126,-3.90761205,,,
imu,295.804323,0.07596540560000001,-9.8043225448,1.4846152496,0.8973366700000001,0.98644211,-3.76555076,,,
imu,295.813334,0.05203929360000001,-9.802528086400002,1.46547436,0.9870595899999999,0.8518577299999999,-3.60105874,,,
imu,295.822344,0.04007623760000001,-9.772022293600001,1.4576983736,0.88985976,0.4929660499999997,-3.82536604,,,
imu,295.831355,0.002990764,-9.783387196800001,1.444539012,0.9272443100000001,0.3509047599999997,-3.91508896,,,
imu,295.839646,-0.0125612088,-9.8013317808,1.444539012,1.04687487,0.27613566,-4.124442439999999,,,
imu,295.847936,-0.0221316536,-9.8043225448,1.4517168456,1.16650543,0.3284740299999998,-4.22911918,,,
imu,295.856227,-0.03289840400000001,-9.806715156000001,1.4672688184,1.11416706,0.2237972899999998,-4.4683803,,,
imu,295.864517,-0.05443190480000001,-9.8049206976,1.4630817488,1.09173633,0.2462280199999998,-4.49828794,,,
imu,295.872808,-0.007775986400000001,-9.80970592,1.453511304,1.0693056,0.4256738599999998,-4.44594957,,,
imu,295.881099,0.04007623760000001,-9.8132948368,1.4846152496,0.9571519499999999,0.3135202100000001,-4.28893446,,,
imu,295.889389,-0.004785222400000001,-9.8581562968,1.48042818,0.6954601,0.08173599999999981,-4.102011709999999,,,
imu,295.89768,0.0125612088,-9.8264541984,1.4876060136,0.71789083,-0.2023865800000002,-3.95995042,,,
imu,295.90597,-0.0251224176,-9.8264541984,1.4917930832,0.60573718,-0.3893093300000001,-3.81041222,,,
imu,295.914261,-0.04366515440000001,-9.812098531200002,1.4876060136,0.44124516,-0.6210935399999999,-3.74312003,,,
imu,295.922552,-0.08912476720000001,-9.810304072800001,1.486409708,0.30666078,-0.57623208,-3.55619728,,,
imu,295.930842,-0.110658268,-9.7953502528,1.489400472,0.16459949,-0.39678624,-3.45152054,,,
imu,295.939133,-0.1339862272,-9.7492924872,1.4876060136,-0.01484635000000001,-0.2771556799999999,-3.47395127,,,
imu,295.947424,-0.1549215752,-9.721179305600002,1.4810263328,0.05992275,0.02192071999999978,-3.46647436,,,
imu,295.955714,-0.1722680064,-9.703234721600001,1.462483596,0.3216146,0.2611818399999999,-3.61601256,,,
imu,295.964005,-0.167482784,-9.7056273328,1.4618854432,0.620691,0.6798887999999996,-3.72816621,,,
imu,295.972295,-0.1543234224,-9.728955292000002,1.4690632768,0.7552753799999999,1.17336486,-3.56367419,,,
imu,295.980586,-0.1208268656,-9.765442612800001,1.4911949304,1.12912088,1.62197946,-3.44404363,,,
imu,295.988877,-0.08912476720000001,-9.7809945856,1.4947838472,1.27118217,1.92853277,-3.67582784,,,
imu,295.997167,-0.07177833600000001,-9.769031529600001,1.5145228896,1.25622835,2.15284007,-3.69078166,,,
imu,296.005458,-0.062806044,-9.805518850400002,1.5205044176,1.33099745,2.324809,-3.60853565,,,
imu,296.013748,-0.0323002512,-9.840809865600002,1.5181118064,1.27118217,2.36967046,-3.54124346,,,
imu,296.022039,-0.0167482784,-9.818080059200001,1.498372764,1.26370526,2.2500399,-3.55619728,,,
imu,296.03033,-0.0155519728,-9.785181655200002,1.501363528,1.41324346,2.27247063,-3.42908981,,,
imu,296.038793,-0.03110394560000001,-9.7923594888,1.4690632768,1.48801256,2.3995781,-3.15992105,,,
imu,296.047257,-0.0317020984,-9.815687448000002,1.4600909848,1.56278166,2.57902394,-2.55429134,,,
imu,296.05572,-0.0245242648,-9.825856045600002,1.4738484992,1.71231986,2.81828506,-2.15801511,,,
imu,296.064184,-0.0167482784,-9.825257892800002,1.474446652,1.84690424,3.09493073,-2.11315365,,,
imu,296.072647,-0.0167482784,-9.8168837536,1.4732503464,1.78708896,3.22951511,-2.26269185,,,
imu,296.081111,-0.0263187232,-9.802528086400002,1.4648762072,1.70484295,3.38653022,-2.5991528,,,
imu,296.089574,0.0017944584,-9.7911631832,1.4636799016,1.39828964,3.58840679,-3.15244414,,,
imu,296.098038,0.0113649032,-9.776209363200001,1.4457353176,1.48053565,3.82766791,-3.68330475,,,
imu,296.106501,0.0317020984,-9.7815927384,1.4457353176,1.40576655,3.93234465,-4.35622665,,,
imu,296.114965,0.03947808480000001,-9.801929933600002,1.4547076096,1.57773548,3.85009864,-4.647826139999999,,,
imu,296.123429,0.05562821040000001,-9.80970592,1.4606891376,1.37585891,3.64822207,-4.759979789999999,,,
imu,296.131892,0.05682451600000001,-9.8228652816,1.4726521936,1.33099745,3.30428421,-4.87213344,,,
imu,296.140356,0.04964668240000001,-9.815687448000002,1.4935875416,1.09921324,3.11736146,-4.9169949,,,
imu,296.148819,0.03947808480000001,-9.805518850400002,1.507345056,0.94967504,2.61640849,-4.73007215,,,
imu,296.157283,0.0065796808,-9.8049206976,1.5145228896,0.85995212,2.34723973,-4.52819558,,,
imu,296.165746,-0.0197390424,-9.800135475200001,1.4935875416,0.71789083,2.06311715,-4.22164227,,,
imu,296.17421,-0.0550300576,-9.7780038216,1.4882041664,0.43376825,1.86124058,-3.89265823,,,
imu,296.182673,-0.0783580168,-9.748694334400001,1.4756429576,0.20198404,1.85376367,-3.51881273,,,
imu,296.191137,-0.09630260080000001,-9.752283251200002,1.474446652,0.21693786,2.11545552,-3.20478251,,,
imu,296.1996,-0.1040785872,-9.764246307200002,1.4792318744,0.44872207,2.40705501,-3.06272122,,,
imu,296.208064,-0.1154434904,-9.765442612800001,1.4822226384,0.51601426,2.81828506,-2.96552139,,,
imu,296.216528,-0.1010878232,-9.805518850400002,1.5025598336,0.63564482,3.23699202,-2.88327538,,,
imu,296.224991,-0.07297464160000001,-9.850380310400002,1.5258877928,0.5459219,3.76037572,-3.02533667,,,
imu,296.233455,-0.0376836264,-9.9012232984,1.51033582,0.56087572,4.02954448,-3.30945925,,,
imu,296.241921,0.0113649032,-9.862343366400001,1.5139247368,0.46367589,4.17908268,-3.60105874,,,
imu,296.250387,0.0346928624,-9.80970592,1.5306730152,0.49358353,4.126744309999999,-3.95995042,,,
imu,296.258853,0.0502448352,-9.805518850400002,1.5228970288,0.44872207,4.00711375,-3.96742733,,,
imu,296.267319,0.05383375200000001,-9.8061170032,1.5085413616,0.44124516,3.9697292,-3.54872037,,,
imu,296.275785,0.0753672528,-9.803126239200001,1.5025598336,0.28423005,3.65569898,-3.15244414,,,
imu,296.284251,0.07118018320000001,-9.788172419200002,1.4947838472,0.60573718,3.47625314,-2.87579847,,,
imu,296.292717,0.062806044,-9.7750130576,1.5127284312,0.6132140899999999,3.26689966,-2.71130645,,,
imu,296.301183,0.0502448352,-9.789368724800001,1.513326584,0.68798319,2.9229618,-2.78607555,,,
imu,294.998817,,,,,,,80.0425996,-18.47562760000001,121.6996952
imu,295.100349,,,,,,,82.05678759999999,-18.86625800000001,119.8075792
imu,295.201881,,,,,,,80.07922119999999,-18.40238440000002,121.687488
imu,295.303443,,,,,,,82.03237320000001,-19.3057172,119.8197864
imu,295.405006,,,,,,,79.16368119999998,-18.67094280000001,122.541992
imu,295.506568,,,,,,,79.85949160000001,-18.45121320000001,121.7851456
imu,295.609169,,,,,,,79.85949160000001,-18.51224920000001,121.9560464
imu,295.709724,,,,,,,80.1158428,-18.255898,121.8461816
imu,296.309649,0.03289840400000001,-9.785779808000001,1.5175136536,0.8449983,2.87810034,-3.06272122,,,
imu,296.318115,0.0245242648,-9.762451848800001,1.5187099592,0.6954601,2.56407012,-3.58610492,,,
imu,296.326582,0.0203371952,-9.742114653600002,1.4977746112,0.68798319,2.30985518,-4.079580979999999,,,
imu,296.335048,0.0053833752,-9.730749750400001,1.486409708,0.70293701,2.12293243,-4.6179185,,,
imu,296.343514,0.011963056,-9.718188541600002,1.4606891376,0.94219813,1.86871749,-4.83474889,,,
imu,296.35198,0.0065796808,-9.7283571392,1.4541094568,0.94967504,1.51730272,-5.02914855,,,
imu,296.360446,-0.004187069600000001,-9.737329431200001,1.4493242344,1.19641307,1.26308778,-5.11887147,,,
imu,296.368912,-0.0137575144,-9.739722042400002,1.4463334704,1.48053565,1.14345722,-4.82727198,,,
imu,296.377378,-0.0281131816,-9.751685098400001,1.438557484,1.76465823,1.07616503,-4.25902682,,,
imu,296.385844,-0.05742266880000001,-9.7923594888,1.4301833448,1.69736604,0.9640113799999996,-3.80293531,,,
imu,296.39431,-0.0663949608,-9.8061170032,1.4206129,1.68241222,1.06868812,-3.29450543,,,
imu,296.402776,-0.06998387760000001,-9.815089295200002,1.4230055112,1.71231986,1.18084177,-2.748691,,,
imu,296.411242,-0.06579680800000001,-9.828846809600002,1.4170239832,1.62259694,1.24813396,-2.50195297,,,
imu,296.419708,-0.0663949608,-9.851576616000001,1.4224073584,1.7422275,1.47991817,-2.50195297,,,
imu,296.428175,-0.06220789120000001,-9.855763685600001,1.423603664,1.70484295,1.62945637,-2.77859864,,,
imu,296.436641,-0.06699311360000001,-9.834828337600001,1.4206129,1.56278166,1.9509635,-2.9729983,,,
imu,296.445267,-0.0502448352,-9.824061587200001,1.4122387608,1.34595127,2.19022462,-3.02533667,,,
imu,296.453893,-0.03648732080000001,-9.855763685600001,1.4134350664,1.26370526,2.4743472,-3.25712088,,,
imu,296.46252,-0.011963056,-9.852174768800001,1.4379593312,1.0693056,2.57902394,-3.32441307,,,
imu,296.471146,0.0053833752,-9.857558144000002,1.459492832,0.82256757,2.7734236,-3.31693616,,,
imu,296.479772,0.0245242648,-9.837819101600003,1.4702595824,0.4711528,3.02763854,-3.26459779,,,
imu,296.488398,0.0317020984,-9.834230184800003,1.4780355688,0.31413769,3.41643786,-3.10758268,,,
imu,296.497025,0.04964668240000001,-9.811500378400002,1.4870078608,0.19450713,3.39400713,-2.95056757,,,
imu,296.505651,0.062806044,-9.802528086400002,1.5025598336,-0.03727708,3.46129932,-2.66644499,,,
imu,296.514277,0.08374139200000001,-9.800135475200001,1.5276822512,-0.19429219,3.47625314,-2.62906044,,,
imu,296.522904,0.0855358504,-9.802528086400002,1.5354582376,-0.4260764,3.27437657,-2.75616791,,,
imu,296.53153,0.0933118368,-9.803126239200001,1.5575898912,-0.66533752,3.10988455,-2.90570611,,,
imu,296.540156,0.08733030880000002,-9.803126239200001,1.5653658776,-0.84478336,2.84071579,-3.20478251,,,
imu,296.548783,0.0735727944,-9.808509614400002,1.5755344752,-0.89712173,2.61640849,-3.71321239,,,
imu,296.557409,0.05443190480000001,-9.800135475200001,1.5863012256,-0.91955246,2.33228591,-4.21416536,,,
imu,296.566035,0.0466559184,-9.756470320800002,1.5605806552,-0.7999219,1.94348659,-4.57305704,,,
imu,296.574661,0.0161501256,-9.748694334400001,1.5330656264,-0.65786061,1.56216418,-4.79736434,,,
imu,296.583288,0.0065796808,-9.738525736800002,1.52528964,-0.3513073,1.45748744,-4.72259524,,,
imu,296.591914,-0.008374139200000002,-9.765442612800001,1.5396453072,-0.15690764,1.17336486,-4.453426479999999,,,
imu,296.60054,-0.0101685976,-9.791761336000002,1.5504120576,-0.08213854000000001,1.07616503,-4.19173463,,,
imu,296.609167,-0.0245242648,-9.748694334400001,1.5647677248,0.03001510999999998,0.9640113799999996,-4.012288789999999,,,
imu,296.617793,-0.0323002512,-9.739123889600002,1.5665621832,-0.11204618,0.8892422799999999,-3.98238115,,,
imu,296.626419,-0.0323002512,-9.792957641600001,1.5563935856,0.1720764,0.7696117199999999,-3.7206893,,,
imu,296.635046,-0.0323002512,-9.83961356,1.5354582376,0.0001074699999999984,0.6350273399999997,-3.67582784,,,
imu,296.643672,-0.0251224176,-9.8132948368,1.5097376672,0.05992275,0.7471809899999999,-3.46647436,,,
imu,296.652405,-0.03887993200000001,-9.785779808000001,1.5109339728,0.21693786,0.80699627,-3.16739796,,,
imu,296.661139,-0.05084298800000001,-9.7606573904,1.4858115552,0.1720764,1.00139593,-2.83841392,,,
imu,296.669872,-0.0323002512,-9.766638918400002,1.468465124,0.55339881,1.64441019,-2.09819983,,,
imu,296.678605,-0.005981528000000001,-9.756470320800002,1.447529776,0.68798319,1.88367131,-1.72435433,,,
imu,296.687339,-0.002990764,-9.7337405144,1.4571002208,0.9646288599999999,2.14536316,-1.98604618,,,
imu,296.696072,0.0113649032,-9.724170069600001,1.4511186928,1.25622835,2.10797861,-2.63653735,,,
imu,296.704805,0.020935348,-9.745703570400002,1.4319778032,1.46558183,2.23508608,-3.38422835,,,
imu,296.713539,0.020935348,-9.762451848800001,1.4331741088,1.67493531,2.37714737,-4.15435008,,,
imu,296.722252,0.04545961280000001,-9.786976113600002,1.432575956,1.71231986,2.3995781,-4.83474889,,,
imu,296.730986,0.0592171272,-9.794153947200002,1.453511304,1.64502767,2.25751681,-5.40299405,,,
imu,296.739719,0.0855358504,-9.8270523512,1.4541094568,1.60764312,2.27247063,-5.68711663,,,
imu,296.748452,0.07656355840000001,-9.8629415192,1.4582965264,1.51044329,2.14536316,-5.851608649999999,,,
imu,296.757186,0.0502448352,-9.859950755200002,1.498372764,1.20388998,1.89114822,-5.829177919999999,,,
imu,296.765919,0.0251224176,-9.8479876992,1.5067469032,0.88985976,1.79394839,-5.58243989,,,
imu,296.774652,0.0305057928,-9.8300431152,1.5169155008,0.51601426,1.85376367,-5.1413022,,,
imu,296.783386,0.0107667504,-9.8049206976,1.5151210424,0.17955331,1.59954873,-4.7674567,,,
imu,296.792119,-0.002990764,-9.8013317808,1.516317348,-0.03727708,1.577118,-4.49081103,,,
imu,296.800852,-0.0185427368,-9.794752100000002,1.5055505976,-0.17186146,1.58459491,-4.32631901,,,
imu,296.809586,-0.026916876,-9.777405668800002,1.4977746112,-0.26158438,1.46496435,-4.21416536,,,
imu,296.818319,-0.04545961280000001,-9.762451848800001,1.5109339728,-0.127,1.59207182,-4.0945348,,,
imu,296.827052,-0.04725407120000001,-9.802528086400002,1.5324674736,-0.04475399000000001,1.45748744,-4.012288789999999,,,
imu,296.835786,-0.04545961280000001,-9.809107767200002,1.5755344752,-0.19429219,1.52477963,-3.95995042,,,
imu,296.844519,-0.0502448352,-9.849184004800001,1.5976661288,-0.24663056,1.61450255,-4.034719519999999,,,
imu,296.852971,-0.05443190480000001,-9.873110116800001,1.60005874,-0.127,1.59207182,-4.20668845,,,
imu,296.861423,-0.0376836264,-9.862343366400001,1.5827123088,-0.39616876,1.27056469,-4.46090339,,,
imu,296.869875,-0.0340947096,-9.806715156000001,1.5886938368,-0.46346095,1.32290306,-4.49081103,,,
imu,296.878328,-0.05742266880000001,-9.7845835024,1.5868993784,-0.29896893,1.38271834,-4.32631901,,,
imu,296.88678,-0.04246884880000001,-9.7744149048,1.579123392,-0.21672292,1.41262598,-3.81041222,,,
imu,296.895232,-0.0305057928,-9.7576666264,1.5593843496,-0.127,1.54721036,-3.53376655,,,
imu,296.903684,-0.03648732080000001,-9.7504887928,1.5599825024,-0.007369440000000005,1.66684092,-3.57862801,,,
imu,296.912136,-0.05443190480000001,-9.7492924872,1.5414397656,0.3216146,1.74161002,-3.56367419,,,
imu,296.920588,-0.062806044,-9.746899876,1.522298876,0.51601426,1.90610204,-3.44404363,,,
imu,296.92904,-0.07118018320000001,-9.755274015200001,1.5294767096,0.57582954,2.13788625,-3.53376655,,,
imu,296.937492,-0.06998387760000001,-9.7923594888,1.537252696,0.80761375,2.44443956,-3.67582784,,,
imu,296.945944,-0.05203929360000001,-9.802528086400002,1.54024346,0.78518302,2.75846978,-3.68330475,,,
imu,296.954396,-0.03947808480000001,-9.803126239200001,1.5384490016,0.78518302,3.06502309,-3.60853565,,,
imu,296.962849,-0.004785222400000001,-9.7959484056,1.5378508488,0.79265993,3.15474601,-3.74312003,,,
imu,296.971301,0.007775986400000001,-9.802528086400002,1.5276822512,0.7702292,3.11736146,-3.83284295,,,
imu,296.979753,0.02990764000000001,-9.8198745176,1.5270840984,0.7403215599999999,2.99025399,-4.04967334,,,
imu,296.988205,0.05084298800000001,-9.824659740000001,1.5270840984,0.56087572,2.6986545,-4.11696553,,,
imu,296.996657,0.07058203040000001,-9.818080059200001,1.534261932,0.36647606,2.2500399,-4.28893446,,,
imu,297.005109,0.07118018320000001,-9.825856045600002,1.54024346,0.20198404,2.01077878,-4.22164227,,,
imu,297.013561,0.0514411408,-9.840809865600002,1.5468231408,0.02253820000000001,1.59954873,-4.13939626,,,
imu,297.022013,0.0143556672,-9.8527729216,1.5474212936,-0.24663056,1.33037997,-3.90013514,,,
imu,297.030465,-0.004187069600000001,-9.815687448000002,1.5587861968,-0.5681376899999999,1.30047233,-3.71321239,,,
imu,297.038917,-0.0173464312,-9.802528086400002,1.5707492528,-0.60552224,1.16588795,-3.33936689,,,
imu,297.047369,-0.04187069600000001,-9.802528086400002,1.5659640304,-0.7401066199999999,1.21822632,-3.21973633,,,
imu,297.05583,-0.0592171272,-9.797144711200001,1.5629732664,-0.93450628,1.28551851,-3.29450543,,,
imu,297.064291,-0.062806044,-9.766040765600001,1.5767307808,-0.9943215599999999,1.39019525,-3.43656672,,,
imu,297.072752,-0.08433954480000001,-9.7534795568,1.576132628,-0.77001426,1.53973345,-3.42908981,,,
imu,297.081213,-0.0855358504,-9.737329431200001,1.5827123088,-0.67281443,1.80890221,-3.5711511,,,
imu,297.089674,-0.08314323920000001,-9.713403319200001,1.5647677248,-0.6279529699999999,2.15284007,-3.69825857,,,
imu,297.098135,-0.08433954480000001,-9.709216249600003,1.5707492528,-0.38121494,2.19022462,-3.74312003,,,
imu,297.106596,-0.07716171120000001,-9.708019944000002,1.5827123088,-0.11204618,2.31733209,-3.7954584,,,
imu,297.115057,-0.07955432240000002,-9.7128051664,1.5863012256,-0.17186146,2.68370068,-3.66835093,,,
imu,297.123518,-0.0675912664,-9.737329431200001,1.582114156,0.14216876,3.01268472,-3.39918217,,,
imu,295.811251,,,,,,,80.1646716,-18.09720440000002,122.5908208
imu,295.912814,,,,,,,80.372194,-17.60891640000002,121.5898304
imu,296.014376,,,,,,,80.09142840000001,-18.0605828,121.5287944
imu,296.115908,,,,,,,82.691562,-18.9150868,119.8075792
imu,296.217501,,,,,,,80.0425996,-18.45121320000001,122.0414968
imu,296.319064,,,,,,,83.02115640000001,-18.70756440000001,119.7587504
imu,296.420626,,,,,,,79.85949160000001,-17.62112360000001,122.3344696
imu,296.522189,,,,,,,79.56651880000001,-17.95071800000001,120.9916776
imu,297.131979,-0.0532355992,-9.7809945856,1.60005874,0.23189168,3.19213056,-3.45899745,,,
imu,297.14044,-0.03887993200000001,-9.8043225448,1.6132181016,0.23189168,3.32671494,-3.39170526,,,
imu,297.148901,-0.007775986400000001,-9.867128588800002,1.6341534496,0.20198404,3.31923803,-3.59358183,,,
imu,297.157362,-0.0137575144,-9.879689797600001,1.656883256,0.03749201999999999,3.27437657,-3.72816621,,,
imu,297.165823,-0.005981528000000001,-9.8886620896,1.65987402,-0.29149202,3.19960747,-3.85527368,,,
imu,297.174284,0.005981528000000001,-9.853371074400002,1.6652573952,-0.71767589,3.20708438,-3.87770441,,,
imu,297.182745,0.017944584,-9.815687448000002,1.638938672,-0.79244499,3.22951511,-3.98238115,,,
imu,297.191206,0.009570444800000001,-9.767835224,1.647910964,-0.88964482,3.0725,-4.079580979999999,,,
imu,297.199667,0.007177833600000002,-9.752881404000002,1.6443220472,-1.03918302,2.97530017,-3.81041222,,,
imu,297.208128,-0.0005981528000000001,-9.779200127200001,1.6191996296,-0.90459864,2.94539253,-3.59358183,,,
imu,297.216589,0.0017944584,-9.756470320800002,1.5988624344,-0.79244499,2.82576197,-3.59358183,,,
imu,297.22505,0.0011963056,-9.692467971200001,1.6550887976,-0.83730645,2.66126995,-3.73564312,,,
imu,297.233511,-0.0131593616,-9.706823638400001,1.65987402,-0.77001426,2.65379304,-3.88518132,,,
imu,297.241972,-0.005981528000000001,-9.789966877600001,1.6138162544,-0.60552224,2.5491163,-3.84031986,,,
imu,297.250433,-0.0017944584,-9.788172419200002,1.61501256,-0.51579932,2.34723973,-3.73564312,,,
imu,297.258839,-0.002990764,-9.7492924872,1.6233866992,-0.29896893,2.14536316,-3.75059694,,,
imu,297.267244,-0.007177833600000002,-9.755274015200001,1.6168070184,-0.08213854000000001,2.20517844,-3.496382,,,
imu,297.275649,-0.023926112,-9.745105417600001,1.612021796,0.20198404,2.25751681,-2.71878336,,,
imu,297.284054,-0.03349655680000001,-9.746301723200002,1.6227885464,0.56087572,2.36219355,-2.13558438,,,
imu,297.292459,-0.0113649032,-9.769031529600001,1.6281719216,0.56835263,2.45191647,-2.11315365,,,
imu,297.300864,-0.004785222400000001,-9.768433376800001,1.6293682272,0.71789083,2.49677793,-2.28512258,,,
imu,297.309269,-0.0023926112,-9.766638918400002,1.620994088,0.88985976,2.53416248,-2.5991528,,,
imu,297.317674,0.0005981528000000001,-9.7570684736,1.6245830048,0.8823828499999999,2.58650085,-3.1973056,,,
imu,297.326079,0.002990764,-9.755274015200001,1.6311626856,0.8823828499999999,2.61640849,-3.84031986,,,
imu,297.334484,0.0137575144,-9.7534795568,1.6191996296,0.8449983,2.57154703,-4.28145755,,,
imu,297.342889,0.0317020984,-9.761853696000001,1.6263774632,0.79265993,2.63136231,-4.47585721,,,
imu,297.351294,0.03349655680000001,-9.802528086400002,1.6263774632,0.70293701,2.57154703,-4.57305704,,,
imu,297.359699,0.0382817792,-9.798341016800002,1.6413312832,0.5982602699999999,2.42948574,-4.58053395,,,
imu,297.368104,0.0382817792,-9.780396432800002,1.6526961864,0.5459219,2.14536316,-4.55810322,,,
imu,297.376509,0.02990764000000001,-9.797742864000002,1.6526961864,0.53096808,1.92105586,-4.363703559999999,,,
imu,297.384914,0.0305057928,-9.780396432800002,1.6754259928,0.52349117,1.61450255,-4.11696553,,,
imu,297.393319,0.023926112,-9.7606573904,1.6640610896,0.21693786,1.34533379,-3.93751969,,,
imu,297.401724,0.0011963056,-9.749890640000002,1.6670518536,0.14964567,1.14345722,-3.70573548,,,
imu,297.410129,-0.003588916800000001,-9.745703570400002,1.6544906448,0.11226112,1.21822632,-3.44404363,,,
imu,297.418534,-0.009570444800000001,-9.739722042400002,1.6485091168,0.19450713,1.25561087,-3.13749032,,,
imu,297.426939,-0.0167482784,-9.7163940832,1.6682481592,0.16459949,1.41262598,-3.10758268,,,
imu,297.435345,-0.03349655680000001,-9.752283251200002,1.6939687296,0.14964567,1.59954873,-3.05524431,,,
imu,297.44375,-0.0221316536,-9.7474980288,1.7155022304,0.02253820000000001,1.64441019,-2.99542903,,,
imu,297.452155,-0.0173464312,-9.7953502528,1.7149040776,0.03749201999999999,1.75656384,-3.27955161,,,
imu,297.460627,-0.0317020984,-9.8300431152,1.7035391744,0.14216876,1.83133294,-3.78798149,,,
imu,297.4691,-0.0167482784,-9.8210708232,1.6993521048,0.16459949,1.89862513,-4.17678081,,,
imu,297.477572,-0.0197390424,-9.766638918400002,1.7059317856,0.3739529699999999,2.05564024,-4.341272829999999,,,
imu,297.486044,-0.0167482784,-9.752283251200002,1.7023428688,0.45619898,2.00330187,-4.41604193,,,
imu,297.494517,-0.0167482784,-9.783985349600002,1.6945668824,0.7702292,2.0257326,-3.93751969,,,
imu,297.502989,0.0,-9.76484446,1.68978166,0.8749059399999999,2.06311715,-3.59358183,,,
imu,297.511462,0.003588916800000001,-9.7283571392,1.6921742712,0.91229049,2.13040934,-3.35432071,,,
imu,297.519934,0.0340947096,-9.713403319200001,1.6826038264,1.25622835,2.25751681,-3.13001341,,,
imu,297.528407,0.02990764000000001,-9.715795930400002,1.668846312,1.36090509,2.1005017,-3.1225365,,,
imu,297.536879,0.0155519728,-9.713403319200001,1.6437238944,1.43567419,2.01077878,-3.28702852,,,
imu,297.545352,0.0317020984,-9.699645804800001,1.6437238944,1.5179202,2.09302479,-3.33188998,,,
imu,297.553824,0.0191408896,-9.713403319200001,1.6293682272,1.68241222,1.92853277,-3.44404363,,,
imu,297.562296,0.03110394560000001,-9.745703570400002,1.5988624344,1.88428879,1.97339423,-3.55619728,,,
imu,297.570769,0.023926112,-9.746899876,1.6042458096,1.92167334,1.98087114,-3.55619728,,,
imu,297.579241,0.0251224176,-9.7504887928,1.6293682272,2.14598064,2.18274771,-3.57862801,,,
imu,297.587714,0.0293094872,-9.780396432800002,1.6293682272,2.13850373,2.04816333,-3.84779677,,,
imu,297.596186,0.0221316536,-9.8043225448,1.6275737688,2.01139626,1.91357895,-3.92256587,,,
imu,297.604659,0.0197390424,-9.7995373224,1.6227885464,1.9665348,1.74161002,-4.08705789,,,
imu,297.613131,0.0125612088,-9.812098531200002,1.6132181016,1.8169966,1.43505671,-4.04219643,,,
imu,297.621603,0.005981528000000001,-9.825257892800002,1.6293682272,1.58521239,1.2780416,-4.079580979999999,,,
imu,297.630076,0.0101685976,-9.8330338792,1.6473128112,1.2936129,1.2032725,-3.93751969,,,
imu,297.638548,-0.003588916800000001,-9.858754449600001,1.6497054224,0.9945364999999999,1.10607267,-3.7206893,,,
imu,297.647021,-0.007177833600000002,-9.835426490400001,1.6365460608,0.80761375,1.03878048,-3.53376655,,,
imu,297.655493,-0.0167482784,-9.818080059200001,1.6407331304,0.53844499,1.06868812,-3.35432071,,,
imu,297.664302,-0.04187069600000001,-9.821668976000002,1.6443220472,0.27675314,1.03878048,-3.31693616,,,
imu,297.673111,-0.04486146000000001,-9.813892989600001,1.6485091168,0.20946095,1.15093413,-3.28702852,,,
imu,297.68192,-0.0562263632,-9.803126239200001,1.6473128112,0.23189168,1.32290306,-3.33188998,,,
imu,297.690729,-0.06699311360000001,-9.802528086400002,1.6574814088,0.17955331,1.46496435,-3.60853565,,,
imu,297.699538,-0.07596540560000001,-9.803126239200001,1.6634629368,0.06739966,1.77151766,-3.69078166,,,
imu,297.708347,-0.0592171272,-9.802528086400002,1.65987402,0.08983038999999998,2.2500399,-3.54124346,,,
imu,297.717156,-0.04366515440000001,-9.763050001600002,1.677818604,-0.13447691,2.66126995,-3.51881273,,,
imu,297.725965,-0.023926112,-9.765442612800001,1.67482784,-0.11204618,3.03511545,-3.45899745,,,
imu,297.734774,0.0185427368,-9.727160833600001,1.6497054224,0.05992275,3.31923803,-3.36927453,,,
imu,297.743583,0.06579680800000001,-9.714599624800002,1.6425275888,0.10478421,3.41643786,-3.60105874,,,
imu,297.752392,0.0933118368,-9.727160833600001,1.635947908,0.2468455,3.16969983,-4.06462716,,,
imu,297.761201,0.1268083936,-9.739123889600002,1.6443220472,0.45619898,2.90053107,-4.363703559999999,,,
imu,297.77001,0.1417622136,-9.746301723200002,1.6604721728,0.53096808,2.37714737,-4.64034923,,,
imu,297.778819,0.1471455888,-9.748694334400001,1.653892492,0.68798319,1.74908693,-4.83474889,,,
imu,297.787628,0.1178361016,-9.772620446400001,1.6544906448,0.97958268,1.01634975,-4.887087259999999,,,
imu,297.796437,0.09151737840000002,-9.805518850400002,1.6676500064,0.94967504,0.35838167,-4.73007215,,,
imu,297.805246,0.04545961280000001,-9.8629415192,1.6855945904,0.74779847,-0.06780220000000003,-4.22911918,,,
imu,297.813962,0.0005981528000000001,-9.879091644800003,1.7244745224,0.59078336,-0.3594016900000003,-3.98238115,,,
imu,297.822771,-0.04486146000000001,-9.855165532800001,1.7418209536,0.36647606,-0.57623208,-3.70573548,,,
imu,297.83158,-0.0747691,-9.834828337600001,1.7430172592,0.05992275,-0.6210935399999999,-3.73564312,,,
imu,297.840389,-0.1154434904,-9.8198745176,1.7507932456,-0.38121494,-0.68090882,-3.7954584,,,
imu,297.849198,-0.1513326584,-9.824659740000001,1.7274652864,-0.55318387,-0.4416477000000003,-4.034719519999999,,,
imu,297.858007,-0.1351825328,-9.765442612800001,1.7161003832,-0.63542988,0.006966899999999665,-4.13191935,,,
imu,297.866487,-0.1662864784,-9.696655040800001,1.6909779656,-0.47841477,0.4705353199999998,-4.19173463,,,
imu,297.874967,-0.1842310624,-9.6643547896,1.6832019792,-0.34383039,1.06121121,-3.82536604,,,
imu,297.883447,-0.1830347568,-9.6709344704,1.6736315344,0.05992275,1.59954873,-3.14496723,,,
imu,297.891927,-0.1543234224,-9.672130776000001,1.6772204512,0.57582954,2.26499372,-2.62906044,,,
imu,297.900407,-0.1244157824,-9.706225485600001,1.6885853544,0.8749059399999999,2.76594669,-2.53933752,,,
imu,297.908887,-0.1022841288,-9.7193848472,1.6706407704,1.34595127,3.17717674,-2.86832156,,,
imu,297.917367,-0.08673215600000002,-9.725964528,1.6712389232,1.47305874,3.54354533,-3.17487487,,,
imu,297.925847,-0.06101158560000001,-9.741516500800001,1.6766222984,1.60764312,3.82766791,-3.52628964,,,
imu,297.934327,-0.04785222400000001,-9.789966877600001,1.6820056736,1.55530475,4.01459066,-4.034719519999999,,,
imu,297.942808,0.0023926112,-9.820472670400001,1.7101188552,1.54782784,4.28375942,-4.146873169999999,,,
imu,296.623751,,,,,,,79.72521239999999,-18.19486200000002,122.8349648
imu,296.726443,,,,,,,80.07922119999999,-17.97513240000001,122.3710912
imu,296.826937,,,,,,,80.0425996,-18.19486200000002,122.236812
imu,296.928439,,,,,,,80.1036356,-17.46243,121.8339744
imu,297.030001,,,,,,,80.38440120000001,-18.07279000000002,120.710912
imu,297.131564,,,,,,,80.31115799999999,-17.828646,121.5165872
imu,297.233614,,,,,,,81.9957516,-18.53666360000001,119.7221288
imu,297.334689,,,,,,,79.82287,-17.87747480000002,121.321272
imu,297.951288,0.0215335008,-9.845595088000001,1.7101188552,1.16650543,4.53797436,-4.21416536,,,
imu,297.959768,0.07118018320000001,-9.847389546400002,1.7053336328,0.80013684,4.530497449999999,-4.18425772,,,
imu,297.968248,0.116639796,-9.824659740000001,1.6915761184,0.65807555,4.40338998,-3.95247351,,,
imu,297.976728,0.1483418944,-9.803126239200001,1.6730333816,0.29170696,4.15665195,-3.8702275,,,
imu,297.985208,0.1860255208,-9.766638918400002,1.6682481592,0.18703022,3.76785263,-3.70573548,,,
imu,297.993688,0.2081571744,-9.7331423616,1.6544906448,0.05244583999999999,3.07997691,-3.47395127,,,
imu,297.436246,,,,,,,82.3741748,-18.45121320000001,119.2094264
imu,297.537778,,,,,,,79.4322396,-17.90188920000002,120.710912
imu,297.63934,,,,,,,79.151474,-17.36477240000001,119.0263184
imu,297.740872,,,,,,,78.9927804,-17.85306040000001,121.0282992
imu,297.842465,,,,,,,79.5421044,-17.56008760000001,121.4555512
imu,297.944028,,,,,,,79.78624839999999,-17.52346600000001,121.7607312
