Type,Timestamp,Data Accelerometer X,Data Accelerometer Y,Data Accelerometer Z,Data Gyroscope X,Data Gyroscope Y,Data Gyroscope Z,Data Magnetometer X,Data Magnetometer Y,Data Magnetometer Z
imu,324.106803,-0.1728661592,-9.637437913600001,2.801747715200001,0.70293701,1.58459491,-3.84779677,,,
imu,324.115263,-0.19439966,-9.651195428000001,2.805336632,0.53844499,1.48739508,-3.84031986,,,
imu,324.123723,-0.1860255208,-9.667943706400001,2.8011495624,0.41881443,1.56964109,-3.76555076,,,
imu,324.132182,-0.1758569232,-9.635643455200002,2.7915791176,0.35152224,1.67431783,-3.66835093,,,
imu,324.140642,-0.182436604,-9.625474857600002,2.8077292432,0.19450713,1.6518871,-3.74312003,,,
imu,324.149102,-0.1866236736,-9.6643547896,2.825075674400001,-0.04475399000000001,1.71917929,-3.63844329,,,
imu,324.157562,-0.1806421456,-9.696655040800001,2.8280664384,-0.44850713,1.56216418,-3.85527368,,,
imu,324.166021,-0.1740624648,-9.709216249600003,2.8095237016,-0.64290679,1.45001053,-4.0945348,,,
imu,324.174481,-0.17944584,-9.7331423616,2.814308924,-1.13638285,1.47991817,-4.27398064,,,
imu,324.182941,-0.1776513816,-9.743909112,2.8400294944,-1.74201256,1.67431783,-4.22164227,,,
imu,324.191401,-0.1800439928,-9.738525736800002,2.8328516608,-2.25044244,1.71917929,-3.9449966,,,
imu,324.19986,-0.1788476872,-9.721179305600002,2.8394313416,-2.60933412,1.76404075,-3.82536604,,,
imu,324.20832,-0.188418132,-9.711608860800002,2.8310572024,-3.14019473,1.65936401,-3.92256587,,,
imu,324.21678,-0.2075590216,-9.694860582400002,2.8328516608,-3.31216366,1.58459491,-4.04967334,,,
imu,324.225239,-0.248233412,-9.681103068,2.822084910400001,-3.70843989,1.59207182,-4.15435008,,,
imu,324.233699,-0.2966837888,-9.682897526400001,2.82627198,-3.85050118,1.8761944,-3.98238115,,,
imu,324.242159,-0.3882011672000001,-9.701440263200002,2.856777772800001,-4.02247011,2.34723973,-3.8702275,,,
imu,324.250619,-0.6113121616,-9.758264779200001,2.9004429272,-4.53089999,3.17717674,-3.95995042,,,
imu,324.259078,-0.9038088808000001,-9.892849159200003,2.979997249600001,-5.40569846,4.88938913,-4.034719519999999,,,
imu,324.267538,-1.3135435488,-10.0262372336,2.895657704800001,-6.661819339999999,8.2315679,-4.25902682,,,
imu,324.275998,-1.80941222,-10.0710986936,2.8149070768,-8.538523750000001,13.90654259,-3.66835093,,,
imu,324.284458,-2.15335008,-10.1632142248,2.8298608968,-11.48442629,21.45074478,-2.75616791,,,
imu,324.292917,-2.216156124,-10.2308054912,2.7939717288,-14.66211304,30.27349858,-3.13749032,,,
imu,324.301377,-2.1754817336,-10.2816484792,2.7359509072,-17.8472767,39.42523642,-5.2908404,,,
imu,324.309837,-2.072001299200001,-10.237385172,2.6803226968,-20.88290216,48.17322111999999,-8.42366569,,,
imu,324.318244,-1.9206686408,-10.1231379872,2.648022445600001,-23.7540356,56.06883808,-11.45181424,,,
imu,324.326652,-1.6694444648,-10.0525559568,2.652807668,-26.15412371,62.93264146,-14.45753206,,,
imu,324.33506,-1.4032664688,-9.969412717600003,2.652807668,-28.15045868,68.65995452,-17.32118859,,,
imu,324.343467,-1.1329014032,-9.821668976000002,2.6402464592,-29.52621012,73.18348507,-19.4222003,,,
imu,324.351875,-0.8691160184000001,-9.687084596000002,2.694678364,-30.30380876,76.85464788,-20.8428132,,,
imu,324.360282,-0.5778156048000002,-9.593772759200002,2.75150288,-30.31128567,79.49399711000001,-21.67275021,,,
imu,324.36869,-0.2942911776,-9.533359326400001,2.8394313416,-29.87762489,80.95947147,-22.14379554,,,
imu,324.377097,-0.07596540560000001,-9.486105255200002,2.9153967472,-29.46639484,81.46042444,-22.38305666,,,
imu,324.385505,0.09630260080000001,-9.453805004000001,3.0230642512,-29.08507243,81.28845551,-22.02416498,,,
imu,324.393913,0.2799355104,-9.4041583216,3.105609337600001,-28.6887962,80.30150339000001,-21.13441269,,,
imu,324.40232,0.4749333232000001,-9.3006778872,3.163630159200001,-28.07568958,78.90332122000001,-20.08016838,,,
imu,324.410728,0.6005454112,-9.239068148800001,3.225838050400001,-27.63455189,76.75744805000001,-19.09321626,,,
imu,324.419135,0.6956517064000001,-9.224712481600001,3.2910367056,-27.02144527,74.12557573000001,-17.6277419,,,
imu,324.427475,0.7722152648000001,-9.187627008000002,3.349655680000001,-26.296185,71.30678066,-16.02768316,,,
imu,324.435883,0.8248527112,-9.158915673600001,3.399900515200001,-25.48120181,68.42817031,-14.54725498,,,
imu,324.44429,0.8577511152000001,-9.104483768800002,3.456725031200001,-24.69612626,65.45236013,-13.35842629,,,
imu,324.452698,0.8715086296000001,-9.051248169600001,3.5273070616,-23.8288047,62.18495046,-12.5434431,,,
imu,324.461105,0.8643307960000001,-9.073977976,3.6194225928,-22.80446803,58.98483297999999,-11.84809047,,,
imu,324.469513,0.8380120728000001,-9.108072685600002,3.6684711224,-21.89976192,55.85200768999999,-11.45929115,,,
imu,324.477921,0.8326286976000001,-9.100894852000001,3.7169214992,-21.12964019,52.90610514999999,-11.30975295,,,
imu,324.486328,0.8517695872000001,-9.098502240800002,3.7797275432,-20.38194919,49.87047969,-11.21255312,,,
imu,324.494736,0.8547603512000002,-9.115250519200002,3.8562911016,-19.57444291,46.85728495999999,-11.50415261,,,
imu,324.503143,0.8541621984000002,-9.109867144,3.949004785600001,-18.93890556,43.85904404999999,-11.83313665,,,
imu,324.511551,0.8116933496000001,-9.108072685600002,4.027960955200001,-18.35570658,41.04772589,-11.66864463,,,
imu,324.519999,0.7602522088000001,-9.066201989600001,4.0728224152,-17.64540013,38.41585357,-11.1975993,,,
imu,324.528448,0.6998387760000001,-9.03210728,4.088374388000001,-17.12949334,36.09801147,-10.47233903,,,
imu,324.536896,0.6430142600000001,-9.007583015200002,4.1194783336,-16.61358655,34.14653796,-9.95643224,,,
imu,324.545344,0.6268641344,-8.976479069600002,4.148189668000001,-16.11263358,32.46423321,-9.53772528,,,
imu,324.553792,0.6358364264000002,-8.9226453176,4.1942474336,-15.52195769,30.92398975,-9.178833599999999,,,
imu,324.562241,0.601143564,-8.886157996800002,4.246286727200001,-14.69949759,29.36879247,-8.79751119,,,
imu,324.570689,0.5275707696,-8.837707620000002,4.262436852800001,-13.9592835,28.02294867,-8.44609642,,,
imu,324.579137,0.4270810992000001,-8.802416604800001,4.2863629648,-13.15177722,26.93131981,-8.21431221,,,
imu,324.587586,0.352910152,-8.780883104,4.273801756000001,-12.09753291,26.31821319,-7.735789969999999,,,
imu,324.596034,0.3170209840000001,-8.7497791584,4.297129715200001,-11.1928268,26.01913679,-7.15259099,,,
imu,324.604482,0.251224176,-8.758751450400002,4.339598564,-10.16101322,26.1013828,-6.54696128,,,
imu,324.61293,0.20935348,-8.768920048000002,4.3539542312,-9.06938436,26.55747431,-6.28526943,,,
imu,324.621379,0.1752587704,-8.750377311200001,4.369506204,-7.93289404,27.26030385,-6.14320814,,,
imu,324.629827,0.1417622136,-8.768321895200001,4.3916378576,-6.781449899999999,28.13510232,-6.053485220000001,,,
imu,324.638275,0.122621324,-8.810790744000002,4.419152886400001,-5.87674379,29.241685,-6.068439039999999,,,
imu,324.646724,0.07177833600000001,-8.795836924000001,4.4095824416,-5.00194532,30.63239026,-6.053485220000001,,,
imu,324.655172,0.0065796808,-8.764732978400001,4.424536261600001,-4.14210067,32.03057243,-6.120777410000001,,,
imu,324.66362,-0.0681894192,-8.761144061600001,4.4113769,-3.15514855,33.8773692,-6.068439039999999,,,
imu,324.672068,-0.1423603664,-8.8179685776,4.380272954400001,-2.20558098,36.04567309999999,-6.06096213,,,
imu,324.680517,-0.161501256,-8.838305772800002,4.3659172872,-1.4728438,38.79717598,-6.1880696,,,
imu,324.688965,-0.09690075360000001,-8.835913161600002,4.325242896800001,-1.07656757,41.60101723,-6.337607799999999,,,
imu,324.697413,0.0215335008,-8.8275390224,4.319859521600001,-0.49336859,44.16559736,-6.71893021,,,
imu,324.705861,0.1656883256,-8.863428190400002,4.3557486896,0.01506129,46.22922452,-7.24231391,,,
imu,324.71431,0.2942911776,-8.913673025600001,4.352757925600001,0.41133752,47.71712960999999,-7.8329898,,,
imu,324.723127,0.4288755576000001,-8.931617609600002,4.324644744,0.81509066,48.55454353,-8.67040372,,,
imu,324.731944,0.5616654792000001,-8.928028692800002,4.3120835352,1.26370526,48.78632774,-9.45547927,,,
imu,324.740761,0.6729219000000001,-8.921449012000002,4.304307548800001,1.57773548,48.681651,-9.97138606,,,
imu,324.749577,0.7811875568000001,-8.951954804800001,4.285166659200001,2.06373463,48.30032859,-10.24803173,,,
imu,324.758394,0.9044070336000001,-8.982460597600001,4.288755576000001,2.62450288,47.43300703,-10.20317027,,,
imu,324.767211,1.0401877192,-8.999807028800001,4.2582497832,2.92357928,46.04977868,-10.15830881,,,
imu,324.776028,1.1412755424,-8.9956199592,4.259446088800001,3.37967079,44.53944285999999,-10.01624752,,,
imu,324.784845,1.193314836,-9.011770084800002,4.228940296,3.70865483,42.7748921,-9.64240202,,,
imu,324.793662,1.2567190328,-9.0225368352,4.214584628800001,4.15726943,40.81594167999999,-9.201264329999999,,,
imu,324.802479,1.3123472432,-9.027322057600001,4.184078836,4.40400746,38.60277632,-8.81246501,,,
imu,324.811296,1.3584050088,-9.0464629472,4.1685268632,4.41148437,36.05315001,-8.55077316,,,
imu,324.820113,1.3685736064,-9.0303128216,4.144002598400001,4.54606875,33.36893932,-8.565726979999999,,,
imu,324.82893,1.3679754536,-9.053042628,4.105122666400001,4.68065313,30.85669756,-8.55077316,,,
imu,324.837747,1.3811348152,-9.073977976,4.082392860000001,4.79280678,28.15753305,-8.59563462,,,
imu,324.846564,1.3715643704,-9.097305935200001,4.076411332000001,4.69560695,25.69015275,-8.5059117,,,
imu,324.855381,1.3482364112,-9.106876380000001,4.051288914400001,4.68813004,23.05828043,-8.34141968,,,
imu,324.864198,1.3177306184,-9.1200357416,4.0447092336,4.87505279,20.56099249,-8.09468165,,,
imu,324.873014,1.2991878816,-9.139774784,4.027362802400001,4.83766824,18.22071966,-7.690928509999999,,,
imu,324.881831,1.30098234,-9.166093507200001,4.0267646496,4.84514515,16.09727722,-7.496528849999999,,,
imu,324.890648,1.2710747,-9.1960011472,4.0177923576,4.68065313,13.88411186,-7.30212919,,,
imu,324.899465,1.2375781432,-9.1965993,4.030353566400001,4.42643819,11.73823869,-6.85351459,,,
imu,324.908282,1.1795573216,-9.208562356000002,4.0327461776,4.1348387,9.65965771,-6.576868919999999,,,
imu,324.917099,1.1323032504,-9.191215924800002,4.0249701912,3.99277741,7.80538403,-6.28526943,,,
imu,324.925577,1.0754787344,-9.188823313600002,4.0034366904,3.90305449,6.45954023,-5.76936264,,,
imu,324.934054,1.0330098856,-9.157719368,3.992669940000001,3.85819303,5.023973509999999,-5.34317877,,,
imu,324.942532,1.0054948568,-9.1224283528,3.964556758400001,3.85819303,3.82766791,-4.98428709,,,
imu,324.951009,0.980970592,-9.103885616000001,3.9615659944,4.25446926,2.96034635,-4.363703559999999,,,
imu,324.959487,0.9480721880000001,-9.090128101600001,3.945415868800001,4.54606875,1.98834805,-3.9449966,,,
imu,324.967964,0.9259405344000001,-9.093717018400001,3.9334528128,4.9572988,1.25561087,-3.42908981,,,
imu,324.976442,0.9229497704,-9.0817539624,3.920293451200001,5.46572868,0.70231953,-2.98047521,,,
imu,324.984919,0.8954347416000001,-9.094913324,3.907134089600001,5.95920474,0.04435144999999974,-2.71878336,,,
imu,324.993397,0.8954347416000001,-9.129606186400002,3.8981617976,6.31809642,-0.6883857300000003,-2.63653735,,,
imu,325.001874,0.8912476720000001,-9.1619064376,3.909526700800001,6.47511153,-1.19681561,-2.65896808,,,
imu,325.010352,0.8810790744000001,-9.1654953544,3.890983964000001,6.40034243,-1.6379533,-2.62158353,,,
imu,325.018829,0.8577511152000001,-9.187627008000002,3.879020908000001,6.65455737,-1.87721442,-2.59167589,,,
imu,325.027307,0.8344231560000002,-9.217534648,3.8706467688,6.56483445,-2.05666026,-2.62906044,,,
imu,325.035784,0.8475825176000001,-9.2139457312,3.8664596992,6.28071187,-2.31835211,-2.56924516,,,
imu,325.044262,0.8505732816000001,-9.2001882168,3.876030144,6.25080423,-2.40059812,-2.65896808,,,
imu,325.05274,0.8559566568000001,-9.2157401896,3.880815366400001,6.02649693,-2.6099516,-2.8234601,,,
imu,325.061217,0.8966310472000002,-9.247442288000002,3.883806130400001,5.66012834,-2.79687435,-2.83841392,,,
imu,325.069695,0.9157719368000001,-9.2486385936,3.889189505600001,5.30123666,-3.03613547,-2.92065993,,,
imu,325.078172,0.9396980488000001,-9.262994260800001,3.8867968944,5.17412919,-3.30530423,-2.92813684,,,
imu,325.08665,0.9869521200000001,-9.249236746400001,3.869450463200001,4.80028369,-3.98570304,-2.95804448,,,
imu,325.095127,1.037795108,-9.228899551200001,3.867656004800001,4.74046841,-4.66610185,-2.8234601,,,
imu,325.103605,1.09162886,-9.215142036800001,3.857487407200001,4.822714420000001,-5.735299980000001,-2.8982292,,,
imu,325.112082,1.1556312096,-9.2133475784,3.854496643200001,4.94982189,-6.871790300000001,-2.8234601,,,
imu,325.12056,1.2148483368,-9.1924122304,3.84313174,5.21151374,-8.35969539,-2.66644499,,,
imu,325.129027,1.2866266728,-9.166093507200001,3.8353557536,5.36105194,-10.29621508,-2.47204533,,,
imu,325.137495,1.3625920784,-9.1302043392,3.819205628,5.76480508,-12.41965752,-2.20287657,,,
imu,325.145962,1.4391556368,-9.1122597552,3.813224100000001,6.16108131,-15.04405293,-2.27764567,,,
imu,325.154429,1.498372764,-9.111661602400002,3.8030555024,6.54988063,-18.06472457,-2.1505382,,,
imu,325.162897,1.5306730152,-9.1014930048,3.793485057600001,7.15551034,-21.3022266,-1.71687742,,,
imu,325.171364,1.5653658776,-9.090128101600001,3.7875035296,7.62655567,-24.80142048,-1.32060119,,,
imu,325.179831,1.5922827536,-9.093118865600001,3.770157098400001,8.12003173,-28.20341453,-0.7224483899999998,,,
imu,325.188299,1.609031032,-9.097305935200001,3.7546051256,8.763045989999998,-31.75494678,0.1149655300000001,,,
imu,325.196766,1.6024513512,-9.090726254400002,3.7402494584,9.353721879999998,-35.48592487,0.9822870900000003,,,
imu,325.205233,1.5934790592,-9.110465296800001,3.7456328336,9.79485957,-39.16456459,1.94680848,,,
imu,325.213701,1.573141864,-9.160111979200002,3.714528888000001,10.5649813,-42.52169718,2.97114515,,,
imu,325.222168,1.5205044176,-9.172673188000001,3.706752901600001,11.0135959,-46.21529072,4.032866370000001,,,
imu,325.230635,1.4720540408,-9.1924122304,3.713332582400001,11.4622105,-49.77429988,4.83289574,,,
imu,325.239103,1.3919015656,-9.188823313600002,3.7019676792,11.61922561,-53.21367848,5.318894889999999,,,
imu,325.24757,1.2884211312,-9.229497704000002,3.678639720000001,12.04540948,-56.48108815,5.954432239999999,,,
imu,325.256037,1.1891277664,-9.2480404408,3.6230115096,12.18747077,-59.50175979,6.35818538,,,
imu,325.264505,1.1023956104,-9.240264454400002,3.602674314400001,12.41925498,-62.16353975000001,6.75446161,,,
imu,325.272972,0.9971207176000002,-9.211553120000001,3.5925057168,12.62113155,-64.43652039,6.978768909999999,,,
imu,325.28144,0.8553585040000001,-9.243853371200002,3.573962980000001,12.83796194,-66.49267064,7.307752950000001,,,
imu,325.289907,0.7333353328000001,-9.309052026400002,3.5015864912,13.23423817,-68.18992920999999,7.614306260000001,,,
imu,325.298374,0.6137047728000001,-9.3269966104,3.4806511432,13.36882255,-69.22921969999999,7.66664463,,,
imu,325.306842,0.499457588,-9.33118368,3.5015864912,13.46602238,-69.85728013999999,7.69655227,,,
imu,325.315309,0.3965753064,-9.352119028,3.5153440056,13.36134564,-70.03672598,7.65169081,,,
imu,325.323776,0.2936930248,-9.411934308000001,3.5243162976,13.00245396,-70.05167979999999,7.74141373,,,
imu,325.332244,0.221316536,-9.440047489600001,3.4896234352,12.50150099,-69.67035738999999,7.883475020000001,,,
imu,325.340711,0.1878199792,-9.435860420000001,3.5039791024,12.12017858,-68.96005093999999,7.71150609,,,
imu,325.349178,0.1250139352,-9.444832712,3.52910152,11.75380999,-68.35442123,7.419906600000001,,,
imu,325.357646,0.0197390424,-9.5004609224,3.548840562400001,10.9388268,-67.66654550999999,7.09839947,,,
imu,325.366113,-0.08314323920000001,-9.538742701600002,3.52910152,10.34815091,-66.58987047,7.397475870000001,,,
imu,325.37458,-0.185427368,-9.538742701600002,3.5039791024,9.503260079999999,-64.84775044,7.793752100000001,,,
imu,325.383048,-0.2643835376,-9.5118258256,3.5015864912,8.64341543,-62.76916945999999,7.95076721,,,
imu,325.391515,-0.3481249296000001,-9.471151435200001,3.490221588,7.888247519999999,-60.36908135,7.831136649999999,,,
imu,325.399983,-0.3810233336,-9.440645642400002,3.4806511432,7.31252545,-57.87179341,7.32270677,,,
imu,325.40845,-0.4181088072000001,-9.408345391200001,3.478258532,6.9012954,-55.14272126,6.51520049,,,
imu,325.416917,-0.4354552384000001,-9.377241445600001,3.4758659208,6.43025007,-52.73515624,5.206741239999999,,,
imu,325.425385,-0.424688488,-9.348530111200002,3.4686880872,6.12369676,-50.37992959,3.89828199,,,
imu,325.433852,-0.415716196,-9.335370749600001,3.4734733096,6.04145075,-47.95741075,2.485146,,,
imu,325.442319,-0.4049494456000001,-9.323407693600002,3.4824456016,5.98911238,-45.99098342,1.3636095,,,
imu,325.450787,-0.4384460024000001,-9.323407693600002,3.5009883384,6.22089659,-43.91240244,0.6308723199999999,,,
imu,325.459254,-0.4659610312,-9.3455393472,3.515942158400001,6.13865058,-41.96840584,0.1074886200000003,,,
imu,325.467721,-0.4827093096,-9.385017432000001,3.5129513944,6.1536044,-39.70290211,-0.01214194000000002,,,
imu,325.476189,-0.4976631296000001,-9.3838211264,3.509960630400001,5.96668165,-37.41496765,-0.09438795,,,
imu,325.484656,-0.5287670752,-9.3868118904,3.515942158400001,5.90686637,-34.89524898,-0.25887997,,,
imu,325.493123,-0.5317578392000001,-9.3766432928,3.5177366168,5.80218963,-32.42786868,-0.1990646899999999,,,
imu,325.501591,-0.5197947832,-9.384419279200001,3.523119992000001,5.75732817,-30.11002658,-0.32617216,,,
imu,325.510058,-0.499457588,-9.380830362400001,3.511156936,5.84705109,-27.97163032,-0.66263311,,,
imu,324.120257,,,,,,,84.5104348,-39.13021000000001,115.8036176
imu,324.22185,,,,,,,82.1788596,-39.24007480000002,118.5258232
imu,324.323382,,,,,,,83.99773239999999,-39.49642600000001,115.7914104
imu,324.424975,,,,,,,79.09043799999999,-37.54327400000002,116.133212
imu,324.526538,,,,,,,77.51570919999999,-36.7009772,111.8851064
imu,324.62807,,,,,,,75.9531876,-36.32255400000002,110.8719088
imu,324.729632,,,,,,,75.11089079999999,-35.17507720000002,109.4436664
imu,325.518437,-0.4809148512,-9.3838211264,3.5093624776,5.839574180000001,-25.87809552,-1.26078591,,,
imu,325.526904,-0.4689517952000001,-9.393391571200002,3.511156936,5.87695873,-24.07616021,-1.76921579,,,
imu,325.535434,-0.4587831976000001,-9.3718580704,3.5015864912,5.88443564,-22.38637855,-2.34493786,,,
imu,325.543964,-0.43366078,-9.378437751200002,3.5069698664,6.07135839,-20.73398144,-2.63653735,,,
imu,325.552493,-0.4366515440000001,-9.388008196000001,3.508166172,6.07135839,-19.32832236,-3.13001341,,,
imu,325.561023,-0.4462219888000001,-9.404756474400001,3.508166172,6.1536044,-17.87032491,-3.35432071,,,
imu,325.569553,-0.4779240872000001,-9.435860420000001,3.5069698664,6.08631221,-16.50205038,-3.36927453,,,
imu,325.578082,-0.49347606,-9.443038253600001,3.484240060000001,6.06388148,-14.75993035,-3.28702852,,,
imu,325.586612,-0.4976631296000001,-9.4322715032,3.4818474488,5.96668165,-12.98790268,-3.3468438,,,
imu,325.595142,-0.5209910888,-9.46576806,3.4997920328,5.66760525,-11.33550557,-3.66087402,,,
imu,325.603671,-0.5491042704000001,-9.5040498392,3.5057735608,5.27880593,-9.79526211,-4.18425772,,,
imu,325.612201,-0.5820026744000001,-9.4974701584,3.484240060000001,4.87505279,-8.08304972,-4.670256869999999,,,
imu,325.620731,-0.6149010784000001,-9.507040603200002,3.4639028648,4.31428454,-6.09419166,-5.05157928,,,
imu,325.62926,-0.631051204,-9.553696521600001,3.457921336800001,3.7609932,-4.21748725,-5.612347529999999,,,
imu,325.63779,-0.6454068712000001,-9.589585689600002,3.4525379616,3.26004023,-2.28844447,-5.896470109999999,,,
imu,325.64632,-0.6483976352,-9.5776226336,3.4238266272,2.72170271,-0.25472495,-6.337607799999999,,,
imu,325.654849,-0.6561736216000001,-9.5602762024,3.4130598768,2.08616536,1.59954873,-6.920806779999999,,,
imu,325.663379,-0.6884738728,-9.561472508000001,3.3951152928,1.57025857,3.69308353,-7.234837000000001,,,
imu,325.671909,-0.7123999848000001,-9.5776226336,3.3927226816,0.94219813,5.71184923,-7.279698460000001,,,
imu,325.680438,-0.708811068,-9.596165370400001,3.3897319176,0.18703022,7.75304566,-7.01800661,,,
imu,325.688968,-0.6890720256,-9.612913648800001,3.3831522368,-0.6503837,9.77181136,-6.89089914,,,
imu,325.697498,-0.646005024,-9.605735815200001,3.3837503896,-1.3233056,11.53636212,-6.75631476,,,
imu,325.706027,-0.5963583416000001,-9.593772759200002,3.3813577784,-1.82425857,13.34577434,-6.49462291,,,
imu,325.714557,-0.5473098120000001,-9.582407856000001,3.3783670144,-2.5196112,14.90097162,-6.14320814,,,
imu,325.723087,-0.481513004,-9.5566872856,3.381955931200001,-2.98317962,16.38887671,-5.477763149999999,,,
imu,325.731616,-0.4031549872,-9.526181492800001,3.377768861600001,-3.43927113,17.57022849,-5.16373293,,,
imu,325.740359,-0.3289840400000001,-9.486105255200002,3.397507904,-3.78320899,18.38521168,-4.887087259999999,,,
imu,325.749102,-0.272159524,-9.443038253600001,3.395713445600001,-4.1645314,18.87121083,-4.64034923,,,
imu,325.757844,-0.2057645632,-9.426289975200001,3.399900515200001,-4.20191595,19.21514869,-4.430995749999999,,,
imu,325.766587,-0.1471455888,-9.399971252000002,3.3927226816,-4.20191595,19.28244088,-4.30388828,,,
imu,325.775329,-0.09450814240000002,-9.3832229736,3.3951152928,-4.299115779999999,19.00579521,-4.22911918,,,
imu,325.784072,-0.04785222400000001,-9.3628857784,3.4100691128,-4.17200831,18.85625701,-4.15435008,,,
imu,325.792815,-0.004785222400000001,-9.3592968616,3.4339952248,-4.07480848,18.49736533,-4.146873169999999,,,
imu,325.801557,0.0340947096,-9.377839598400001,3.457921336800001,-4.02994702,17.96650472,-3.92256587,,,
imu,325.8103,0.0735727944,-9.373054376,3.456126878400001,-4.02247011,17.34592119,-3.77302767,,,
imu,325.819043,0.107667504,-9.3754469872,3.4740714624,-4.02247011,16.54589182,-3.66835093,,,
imu,325.827785,0.1507345056,-9.391597112800001,3.512353241600001,-4.08228539,15.65613953,-3.62348947,,,
imu,325.836528,0.1800439928,-9.3993730992,3.5314941312,-4.0897623,14.61684904,-3.65339711,,,
imu,325.84527,0.1932033544,-9.410139849600002,3.5398682704,-4.12714685,13.53269709,-3.72816621,,,
imu,325.854013,0.200381188,-9.404756474400001,3.5536257848,-4.351454149999999,12.46349896,-3.81788913,,,
imu,325.862756,0.2147368552,-9.405354627200001,3.581140813600001,-4.43370016,11.31953173,-3.7954584,,,
imu,325.871498,0.19439966,-9.3963823352,3.5871223416,-4.3140696,10.18304141,-3.73564312,,,
imu,325.880241,0.1961941184,-9.385615584800002,3.5925057168,-4.29163887,9.098889459999999,-3.7206893,,,
imu,325.888984,0.2015774936,-9.368269153600002,3.6104503008,-4.2393005,8.10446043,-3.51133582,,,
imu,325.897726,0.19439966,-9.367072848000001,3.6266004264,-4.02994702,7.057693029999999,-3.18982869,,,
imu,325.906469,0.1740624648,-9.372456223200002,3.636769024,-3.95517792,5.92867962,-3.0477674,,,
imu,325.915211,0.1495382,-9.364082084000001,3.639161635200001,-3.98508556,5.136127159999999,-2.75616791,,,
imu,325.923954,0.137575144,-9.328791068800001,3.665480358400001,-3.82059354,4.44077453,-2.35241477,,,
imu,325.932697,0.1262102408,-9.342548583200001,3.692995387200001,-3.865455,3.85757555,-2.13558438,,,
imu,325.94117,0.1184342544,-9.350922722400002,3.6917990816,-3.91779337,3.21456129,-2.05333837,,,
imu,325.949644,0.1028822816,-9.3652783896,3.7031639848,-4.14210067,2.61640849,-2.001,,,
imu,325.958118,0.1238176296,-9.335968902400001,3.726491944,-4.28416196,2.09302479,-2.08324601,,,
imu,325.966592,0.1124527264,-9.325202152000001,3.7569977368,-4.66548437,1.82385603,-2.11315365,,,
imu,325.975065,0.08194693360000001,-9.3383615136,3.7569977368,-4.82997639,1.33785688,-1.9262309,,,
imu,325.983539,0.0735727944,-9.309650179200002,3.7665681816,-5.129052789999999,1.15093413,-1.72435433,,,
imu,325.992013,0.0562263632,-9.2929019008,3.770157098400001,-5.315975539999999,1.14345722,-1.78416961,,,
imu,326.000486,0.04366515440000001,-9.262396108,3.772549709600001,-5.27859099,1.18084177,-1.70940051,,,
imu,326.00896,0.0490485296,-9.2510312048,3.7821201544,-5.15896043,1.09859576,-1.7019236,,,
imu,326.017434,0.06041343280000001,-9.225908787200002,3.770157098400001,-5.06923751,1.17336486,-1.98604618,,,
imu,326.025908,0.06519865520000001,-9.2480404408,3.8024573496,-4.93465313,1.34533379,-2.001,,,
imu,326.034381,0.05981528000000001,-9.2139457312,3.8024573496,-4.75520729,1.29299542,-2.18792275,,,
imu,326.042855,0.04127254320000001,-9.157719368,3.825785308800001,-4.45613089,1.31542615,-2.39727623,,,
imu,326.051329,0.0562263632,-9.119437588800002,3.825187156000001,-4.03742393,1.24813396,-2.5991528,,,
imu,326.059802,0.0442633072,-9.1409710896,3.840140976,-3.7159168,1.22570323,-2.69635263,,,
imu,326.068276,0.05682451600000001,-9.140372936800002,3.8509077264,-3.20001001,1.10607267,-2.74121409,,,
imu,326.07675,0.08673215600000002,-9.140372936800002,3.8646652408,-2.93084125,1.19579559,-2.73373718,,,
imu,326.085224,0.1100601152,-9.152335992800001,3.876628296800001,-2.28782699,1.18831868,-2.69635263,,,
imu,326.093697,0.1244157824,-9.1511396872,3.901750714400001,-1.8466893,1.15841104,-2.51690679,,,
imu,326.102171,0.1417622136,-9.155326756800001,3.909526700800001,-1.4728438,0.9415806499999997,-2.32250713,,,
imu,326.110645,0.1680809368,-9.1648972016,3.9107230064,-1.18872122,0.5677351499999999,-2.36736859,,,
imu,326.119118,0.185427368,-9.154728604,3.917900840000001,-0.82982954,0.1864127399999997,-2.23278421,,,
imu,326.127592,0.1920070488,-9.148747076000001,3.93285466,-0.4260764,-0.2248173100000002,-2.33746095,,,
imu,326.136066,0.2087553272,-9.163102743200001,3.9364435768,0.0001074699999999984,-0.76315483,-2.42718387,,,
imu,326.144529,0.2237091472,-9.142765548000002,3.925676826400001,0.5010604399999999,-1.3388769,-2.3000764,,,
imu,326.152993,0.2548130928,-9.13678402,3.929863896000001,0.9197674,-1.91459897,-2.16549202,,,
imu,326.161456,0.2554112456,-9.141569242400001,3.953790008,1.30108981,-2.69219761,-2.13558438,,,
imu,326.16992,0.275150288,-9.142167395200001,3.9519955496,1.60764312,-3.38007333,-2.14306129,,,
imu,326.178384,0.2996745528,-9.1224283528,3.944817716,2.13102682,-4.14271815,-2.27764567,,,
imu,326.186847,0.2996745528,-9.1122597552,3.941826952000001,2.57216451,-5.08480881,-2.48699915,,,
imu,326.195311,0.3062542336,-9.1026893104,3.912517464800001,3.11050203,-5.996991830000001,-2.64401426,,,
imu,326.203774,0.3194135952000001,-9.138578478400001,3.90294702,3.72360865,-6.7970212,-2.64401426,,,
imu,326.212238,0.3493212352000001,-9.1224283528,3.920293451200001,4.21708471,-7.90360388,-2.72626027,,,
imu,326.220701,0.3535083048,-9.1290080336,3.908330395200001,4.71056077,-9.05504802,-2.86832156,,,
imu,326.229165,0.3517138464,-9.169084271200001,3.905937784,5.18908301,-10.36350727,-3.22721324,,,
imu,326.237628,0.3331711096,-9.135587714400002,3.904741478400001,5.71246671,-11.71682798,-3.39918217,,,
imu,326.246092,0.2847207328,-9.1409710896,3.9053396312,6.05640457,-13.06267178,-3.70573548,,,
imu,326.254555,0.245242648,-9.183439938400001,3.8867968944,6.44520389,-14.15430064,-3.85527368,,,
imu,326.263019,0.1800439928,-9.175663952,3.8658615464,6.87886467,-15.08143748,-3.72816621,,,
imu,326.271483,0.1184342544,-9.145756312000001,3.8616744768,7.20784871,-15.71697483,-3.39170526,,,
imu,326.279946,0.09151737840000002,-9.139774784,3.8425335872,7.79104769,-16.43475819,-2.84589083,,,
imu,326.28841,0.05084298800000001,-9.171476882400002,3.8180093224,8.164893189999999,-16.71888077,-2.38979932,,,
imu,326.296873,0.002990764,-9.194804841600002,3.7946813632,8.65836925,-17.03291099,-1.94866163,,,
imu,326.305337,-0.0352910152,-9.1684861184,3.7456328336,9.301383509999999,-17.29460284,-1.48509321,,,
imu,326.3138,-0.09091922560000001,-9.137980325600001,3.723501180000001,9.77990575,-17.4890025,-0.9766633299999998,,,
imu,326.322264,-0.1591086448,-9.184038091200001,3.7139307352,10.22104344,-17.31703357,-0.3859874399999998,,,
imu,326.330727,-0.188418132,-9.173869493600002,3.688210164800001,10.76685787,-17.18244919,0.07758098000000002,,,
imu,324.831195,,,,,,,75.28179159999999,-34.40602360000003,107.3806496
imu,324.932788,,,,,,,74.9155756,-34.16187960000001,105.390876
imu,325.03432,,,,,,,75.24517,-33.86890680000001,104.841552
imu,325.135882,,,,,,,75.2329628,-33.78345640000002,105.2810112
imu,325.237445,,,,,,,77.74764599999999,-34.88210440000002,104.6828584
imu,325.338976,,,,,,,75.5625572,-34.13746520000001,109.7122248
imu,325.44057,,,,,,,79.578726,-36.49345480000002,110.4812784
imu,325.542163,,,,,,,79.78624839999999,-37.3967876,114.6805552
imu,326.339191,-0.2225128416,-9.193608536000001,3.6774434144,11.52950269,-17.14506464,0.5785339500000002,,,
imu,326.347713,-0.248233412,-9.254021968800002,3.6660785112,11.85100982,-16.90580352,0.8028412500000002,,,
imu,326.356235,-0.2733558296,-9.300079734400002,3.6433487048,12.23233223,-16.48709656,1.22154821,,,
imu,326.364757,-0.2673743016,-9.332978138400001,3.6170299816,12.56879318,-16.15063561,1.62530135,,,
imu,326.373279,-0.2560093984,-9.357502403200002,3.6056650784,12.53140863,-15.6945441,1.82717792,,,
imu,326.381801,-0.2560093984,-9.4113361552,3.6020761616,12.42673189,-15.32817551,2.14868505,,,
imu,326.390323,-0.2619909264,-9.4729458936,3.626002273600001,12.00054802,-14.87956091,2.37299235,,,
imu,326.398845,-0.2446444952,-9.533359326400001,3.634974565600001,11.12574955,-14.33374648,2.44028454,,,
imu,326.407367,-0.2284943696,-9.5656595776,3.6283948848,10.17618198,-13.9000857,2.35056162,,,
imu,326.415889,-0.2195220776,-9.573435564,3.5990853976,9.136891489999998,-13.58605548,1.94680848,,,
imu,326.424411,-0.2290925224000001,-9.566257730400002,3.581738966400001,8.262093019999998,-13.34679436,1.40847096,,,
imu,326.432933,-0.2266999112,-9.5447242296,3.5661869936,7.44710983,-13.14491779,0.9000410799999998,,,
imu,326.441455,-0.227298064,-9.513620284000002,3.526110756,6.87138776,-13.02528723,0.2944113700000002,,,
imu,326.449977,-0.2021756464,-9.481918185600001,3.486632671200001,6.40034243,-12.8533183,-0.2738337899999999,,,
imu,326.458499,-0.1830347568,-9.440645642400002,3.445360128,6.03397384,-12.66639555,-0.8944173199999998,,,
imu,326.467021,-0.1489400472,-9.393989724,3.399900515200001,6.01154311,-12.35236533,-1.05143243,,,
imu,326.475543,-0.1010878232,-9.3694654592,3.3771707088,6.27323496,-12.4047037,-1.32060119,,,
imu,326.484065,-0.08673215600000002,-9.3904008072,3.3508519856,6.62464973,-12.45704207,-1.75426197,,,
imu,326.492587,-0.08792846160000001,-9.395186029600001,3.3251314152,7.17794107,-12.35236533,-2.06081528,,,
imu,326.501109,-0.06519865520000001,-9.385615584800002,3.3191498872,7.52935584,-12.42713443,-2.24773803,,,
imu,326.509632,-0.04725407120000001,-9.388008196000001,3.3215424984,7.73123241,-12.60658027,-2.29259949,,,
imu,326.518154,-0.06160973840000001,-9.399971252000002,3.301803456,8.04526263,-12.81593375,-2.33746095,,,
imu,326.526676,-0.04605776560000001,-9.429280739200001,3.3024016088,8.187323919999999,-12.96547195,-2.50942988,,,
imu,326.535198,-0.02871133440000001,-9.452010545600002,3.3000089976,8.194800829999998,-13.24959453,-2.80102937,,,
imu,326.54372,-0.0293094872,-9.403560168800002,3.2910367056,8.277046839999999,-13.5262402,-3.03281358,,,
imu,326.55231,-0.0317020984,-9.4460290176,3.314364664800001,8.35181594,-13.88513188,-3.15244414,,,
imu,326.560901,-0.0197390424,-9.487899713600001,3.3065886784,8.22470847,-14.23654665,-3.39918217,,,
imu,326.569492,-0.0023926112,-9.457992073600002,3.262923524000001,8.0228319,-14.73002271,-3.75807385,,,
imu,326.578082,0.0352910152,-9.3694654592,3.2150713,7.89572443,-15.05152984,-4.10948862,,,
imu,326.586673,0.1603049504,-9.364082084000001,3.1827710488,8.2471392,-15.55995972,-4.51324176,,,
imu,326.595264,0.3295821928000001,-9.395784182400002,3.1301336024,8.733138349999999,-16.56186566,-4.79736434,,,
imu,326.603855,0.4569887392,-9.475936657600002,3.1325262136,9.346244969999999,-18.12453985,-4.87213344,,,
imu,326.612354,0.5921712720000001,-9.493283088800002,3.1474800336,9.413537159999999,-20.30779757,-5.09644074,,,
imu,326.620945,0.7195778184000001,-9.479525574400002,3.1504707976,9.660275189999998,-23.40323831,-5.20111748,,,
imu,326.629535,0.7877672376000001,-9.479525574400002,3.142694811200001,9.854674849999999,-27.16412404,-5.05157928,,,
imu,326.638126,0.8416009896000001,-9.492086783200001,3.1397040472,10.20608962,-31.23156308,-4.453426479999999,,,
imu,326.646717,0.8810790744000001,-9.487899713600001,3.1211613104,10.43039692,-35.90463183,-3.80293531,,,
imu,326.655307,0.8715086296000001,-9.501657228000001,3.1068056432,10.60984276,-40.5926544,-3.0477674,,,
imu,326.663898,0.8350213088000001,-9.530966715200002,3.0768980032,10.76685787,-45.29563079,-1.91127708,,,
imu,326.672489,0.7793930984000002,-9.574631869600001,3.0661312528,10.70704259,-49.98365336,-0.6102947399999998,,,
imu,326.68108,0.6998387760000001,-9.6117173432,3.054168196800001,10.55002748,-54.39503026,0.5934877699999999,,,
imu,326.68967,0.5658525488000001,-9.647606511200001,3.032634696,10.06402833,-58.42508475,1.59539371,,,
imu,326.698261,0.4121272792,-9.6709344704,3.011699348,9.56307536,-61.94670936000001,2.60477656,,,
imu,326.706852,0.2237091472,-9.710412555200001,2.999138139200001,8.83781509,-64.91504262999999,3.42723666,,,
imu,326.715442,0.03588916800000001,-9.743310959200002,2.9650434296,8.06769336,-67.08334653,4.28708131,,,
imu,326.724033,-0.08673215600000002,-9.706823638400001,2.9441080816,7.25271017,-68.54882088999999,4.773080459999999,,,
imu,326.732624,-0.2141387024,-9.690673512800002,2.9530803736,6.40781934,-69.35632716999999,5.00486467,,,
imu,326.741214,-0.3481249296000001,-9.644017594400001,2.9560711376,5.44329795,-69.68531121,4.989910849999999,,,
imu,326.749805,-0.4857000736000001,-9.656578803200002,2.9644452768,4.80028369,-69.47595772999999,4.78055737,,,
imu,326.758431,-0.646005024,-9.659569567200002,2.957267443200001,4.374099820000001,-68.82546656,4.885234110000001,,,
imu,326.767057,-0.7949450712000001,-9.678710456800001,2.9333413312,3.9105314,-67.72636078999999,4.81046501,,,
imu,326.775683,-0.8990236584000001,-9.6523917336,2.933939484000001,3.3123786,-65.97676385,4.61606535,,,
imu,326.784309,-1.0054948568,-9.565061424800001,2.9530803736,2.68431816,-63.86079831999999,4.137543109999999,,,
imu,326.792934,-1.0784694984,-9.5590798968,2.9596600544,2.51982614,-61.27378746,3.78612834,,,
imu,326.80156,-1.0688990536,-9.675719692800001,2.931546872800001,2.52730305,-58.51480767,3.35994447,,,
imu,326.810186,-1.0910307072,-9.642223136000002,2.928556108800001,2.00391935,-56.00256591,2.96366824,,,
imu,326.818812,-1.184342544,-9.5010590752,2.9889695416,1.368382,-53.48284724,2.52253055,,,
imu,326.827438,-1.2004926696,-9.513022131200001,2.999138139200001,1.48801256,-50.74629818,2.0365314,,,
imu,326.836064,-1.2280076984,-9.562070660800002,2.9626508184,1.48053565,-47.94245693,1.64025517,,,
imu,326.84469,-1.3087583264,-9.528574104,2.971024957600001,1.37585891,-45.04141585,1.79727028,,,
imu,326.853315,-1.3243102992,-9.529770409600001,3.0039233616,1.22632071,-41.88615983,1.87951629,,,
imu,326.861941,-1.3470401056,-9.575230022400001,3.001530750400001,1.27865908,-38.76081145,1.70007045,,,
imu,326.870567,-1.333880744,-9.5776226336,2.9943529168,1.36090509,-35.50087869,1.49071697,,,
imu,326.879193,-1.3972849408,-9.516012895200001,3.011699348,0.8823828499999999,-32.27085357,1.22902512,,,
imu,326.887819,-1.3948923296,-9.519003659200001,3.0218679456,0.9571519499999999,-29.07073609,0.9374256299999999,,,
imu,326.896445,-1.3326844384,-9.5447242296,2.9985399864,0.8973366700000001,-26.07997209,0.3317959200000002,,,
imu,326.905071,-1.3500308696,-9.528574104,3.0039233616,0.82256757,-23.08920809,-0.15420323,,,
imu,326.913696,-1.3081601736,-9.5381445488,3.0164845704,0.64312173,-20.27041302,-0.7000176599999999,,,
imu,326.922322,-1.2932063536,-9.5118258256,3.030840237600001,0.49358353,-17.81798654,-1.41780102,,,
imu,326.930948,-1.2674857832,-9.5154147424,3.0260550152,0.6954601,-15.17863731,-1.84398489,,,
imu,326.939574,-1.2435596712,-9.505844297600001,3.0218679456,0.58330645,-13.01781032,-2.31503022,,,
imu,326.9482,-1.1951092944,-9.477132963200003,3.0134938064,0.65807555,-10.94670625,-2.80102937,,,
imu,326.95668,-1.1562293624,-9.481320032800001,3.0188771816,0.70293701,-9.04757111,-3.38422835,,,
imu,326.96516,-1.1532385984,-9.508835061600001,3.041606988,0.80013684,-7.31292799,-3.6459202,,,
imu,326.97364,-1.1478552232,-9.536948243200001,3.047588516000001,0.77770611,-5.72034616,-3.86275059,,,
imu,326.98212,-1.1215365,-9.519003659200001,3.047588516000001,0.65059864,-4.15019506,-4.04219643,,,
imu,326.9906,-1.1053863744,-9.507638756,3.0439995992,0.7104139199999999,-2.59499778,-3.97490424,,,
imu,326.99908,-1.0958159296,-9.544126076800001,3.05057928,0.9347212199999999,-1.12204651,-4.11696553,,,
imu,327.00756,-1.0880399432,-9.534555632000002,3.0481866688,1.11416706,0.3808123999999999,-4.146873169999999,,,
imu,327.01604,-1.0790676512,-9.499862769600002,3.0374199184,1.19641307,1.62945637,-4.25154991,,,
imu,325.643641,,,,,,,80.4576444,-37.9216972,116.6215
imu,325.745173,,,,,,,79.578726,-37.54327400000002,116.987716
imu,325.847011,,,,,,,79.700798,-37.62872440000002,115.6937528
imu,325.948298,,,,,,,79.1392668,-36.85967080000001,115.889068
imu,326.049861,,,,,,,79.3101676,-36.23710360000001,114.8392488
imu,326.151423,,,,,,,78.62656439999999,-36.33476120000001,115.5716808
imu,326.253016,,,,,,,81.9347156,-37.47003080000002,114.5584832
imu,326.354548,,,,,,,79.84728439999999,-36.37138280000001,116.2186624
imu,327.024521,-1.0539452336,-9.490292324800002,3.0254568624,1.30108981,2.99025399,-4.48333412,,,
imu,327.033001,-1.0605249144,-9.486703408,3.0051196672,1.58521239,4.13422122,-4.81231816,,,
imu,327.041481,-1.034804344,-9.4490197816,2.999736292,1.79456587,5.12865025,-5.03662546,,,
imu,327.049961,-1.0060930096,-9.456795768000001,2.9811935552,2.14598064,6.22027911,-5.11139456,,,
imu,327.058441,-0.9971207176000002,-9.478927421600002,2.9704268048,2.4151494,7.02778539,-5.29831731,,,
imu,327.066921,-1.0132708432,-9.493283088800002,2.9566692904,2.64693361,7.767999479999999,-5.40299405,,,
imu,327.075401,-1.0371969552,-9.509433214400001,2.9835861664,2.75908726,8.635321040000001,-5.29831731,,,
imu,327.083881,-1.049758164,-9.531564868,2.9811935552,2.80394872,9.39796586,-5.25345585,,,
imu,327.092361,-1.0730861232,-9.5459205352,2.9835861664,2.82637945,10.3998718,-5.17868675,,,
imu,327.100841,-1.112564208,-9.5877912312,3.0009325976,2.76656417,11.36439319,-5.11139456,,,
imu,327.109321,-1.1508459872,-9.603343204000002,2.997941833600001,2.39271867,12.55322188,-4.78241052,,,
imu,327.117801,-1.1867351552,-9.634447149600001,3.0134938064,1.89924261,13.99626551,-4.53567249,,,
imu,327.126281,-1.2304003096,-9.6523917336,3.0045215144,1.4431511,15.64118571,-4.28893446,,,
imu,327.134761,-1.2902155896,-9.633250844,2.979997249600001,1.03192105,17.41321338,-4.18425772,,,
imu,327.143242,-1.3231139936,-9.626671163200001,2.9949510696,0.4861066199999999,19.4469329,-4.07210407,,,
imu,327.151722,-1.3374696608,-9.6470083584,2.968632346400001,0.08235347999999998,21.70495972,-4.31136519,,,
imu,327.16018,-1.3572087032,-9.655980650400002,2.9752120272,-0.52327623,24.12000165,-4.55810322,,,
imu,327.168639,-1.3643865368,-9.620091482400001,2.959061901600001,-0.9943215599999999,26.70701251,-5.09644074,,,
imu,327.177097,-1.3530216336,-9.6470083584,2.942911776,-1.29339796,29.32393101,-5.76936264,,,
imu,327.185555,-1.3087583264,-9.638634219200002,2.931546872800001,-1.6971511,31.9333726,-6.44976145,,,
imu,327.194014,-1.2698783944,-9.5907819952,2.924369039200001,-1.87659694,34.46804509,-7.04791425,,,
imu,327.202472,-1.238176296,-9.534555632000002,2.9046299968,-1.98127368,36.75597955,-7.50400576,,,
imu,327.210931,-1.1807536272,-9.5489112992,2.918985664,-2.01118132,38.81212979999999,-7.8329898,,,
imu,327.219389,-1.0748805816,-9.557883591200001,2.9058263024,-1.9962275,40.86080313999999,-8.22926603,,,
imu,327.227848,-0.9845595088000001,-9.5602762024,2.9159949,-2.01865823,42.46833879,-8.54329625,,,
imu,327.236306,-0.8996218112000001,-9.547714993600001,2.9321450256,-1.86912003,43.73941349,-8.64797299,,,
imu,327.244765,-0.8206656416,-9.550705757600001,2.963847124,-1.9214584,44.72636560999999,-8.55077316,,,
imu,327.253223,-0.7560651392000002,-9.554892827200002,2.990764,-2.02613514,45.37685678,-8.19935839,,,
imu,327.261682,-0.6884738728,-9.553696521600001,3.0039233616,-2.13081188,45.82547138,-7.668497779999999,,,
imu,327.27014,-0.6172936896000001,-9.5501076048,3.011699348,-2.38502682,45.95257884999999,-7.30212919,,,
imu,327.278598,-0.5431227424,-9.5429297712,3.0182790288,-2.40745755,46.0647325,-6.838560769999999,,,
imu,327.287057,-0.4886908376000001,-9.501657228000001,3.0134938064,-2.46727283,46.02734795,-6.636684199999999,,,
imu,327.295515,-0.4175106544000001,-9.4729458936,3.021269792800001,-2.39250373,45.71331773,-6.43480763,,,
imu,327.303974,-0.3666676664,-9.4735440464,3.032634696,-2.20558098,45.21236476,-6.487145999999999,,,
imu,327.312432,-0.2918985664000001,-9.4490197816,3.014690112,-2.16071952,44.65159651,-6.69649948,,,
imu,327.320891,-0.2219146888,-9.4244955168,3.0164845704,-1.89902767,43.65716748,-6.91332987,,,
imu,327.329349,-0.1573141864,-9.385615584800002,3.0099048896,-1.36816706,42.46086188,-7.122683349999999,,,
imu,327.337808,-0.09630260080000001,-9.385615584800002,3.0182790288,-0.60552224,41.18978718,-7.13763717,,,
imu,327.346266,-0.08194693360000001,-9.398774946400001,3.0410088352,0.06739966,39.63458989999999,-7.18249863,,,
imu,327.354725,-0.06160973840000001,-9.4412437952,3.073309086400001,0.43376825,38.01210043,-7.257267730000001,,,
imu,327.363188,-0.04486146000000001,-9.441841948000002,3.089459212,0.8973366700000001,36.45690315,-6.83108386,,,
imu,327.371652,-0.03648732080000001,-9.4591883792,3.1050111848,1.09921324,34.91665969,-6.47966909,,,
imu,327.380115,-0.0275150288,-9.5004609224,3.1295354496,1.20388998,33.41380078,-6.053485220000001,,,
imu,327.388579,-0.0197390424,-9.5172092008,3.1271428384,1.25622835,31.9333726,-5.806747189999999,,,
imu,327.397042,-0.03289840400000001,-9.4974701584,3.128339144,1.2936129,30.55014425,-5.567486069999999,,,
imu,327.405506,-0.0550300576,-9.4843107968,3.1247502272,1.31604363,29.15196208,-5.38056332,,,
imu,327.413969,-0.06699311360000001,-9.5357519376,3.1444892696,1.27865908,27.85097974,-5.27588658,,,
imu,327.422433,-0.0783580168,-9.550705757600001,3.1379095888,1.27118217,26.57990504,-5.26840967,,,
imu,327.430896,-0.08314323920000001,-9.5082369088,3.109796407200001,1.18145925,25.55556837,-5.12634838,,,
imu,327.43936,-0.0903210728,-9.479525574400002,3.108001948800001,1.12912088,24.44898569,-5.20111748,,,
imu,327.447823,-0.09390998960000001,-9.5118258256,3.1205631576,1.35342818,23.46203357,-5.216071299999999,,,
imu,327.456287,-0.09749890640000002,-9.514218436800002,3.1032167264,1.54782784,22.51994291,-5.09644074,,,
imu,327.464751,-0.1088638096,-9.499264616800001,3.098431504000001,1.39828964,21.6152368,-5.07401001,,,
imu,327.473214,-0.09570444800000001,-9.513022131200001,3.123553921600001,1.48801256,20.83763816,-4.8422258,,,
imu,327.481678,-0.09390998960000001,-9.5291722568,3.1319280608,1.42819728,19.95536278,-4.78988743,,,
imu,327.490141,-0.101685976,-9.516611048000001,3.1181705464,1.19641307,19.11047195,-4.67773378,,,
imu,327.498605,-0.08493769760000001,-9.531564868,3.1444892696,1.20388998,18.28053494,-4.53567249,,,
imu,327.507068,-0.08493769760000001,-9.539939007200001,3.15525602,0.94967504,17.40573647,-4.51324176,,,
imu,327.515532,-0.06579680800000001,-9.470553282400001,3.115179782400001,0.88985976,16.77767603,-4.318842099999999,,,
imu,327.523995,-0.06160973840000001,-9.443636406400001,3.1743969096,0.8449983,16.01503121,-4.19921154,,,
imu,327.532459,-0.0382817792,-9.616502565600001,3.191145188000001,1.12912088,15.05050982,-4.102011709999999,,,
imu,327.540922,-0.009570444800000001,-9.5381445488,3.136115130400001,0.9945364999999999,14.04860388,-4.012288789999999,,,
imu,327.549386,-0.007775986400000001,-9.446627170400001,3.149274492,0.73284465,13.23362069,-3.90013514,,,
imu,327.55785,0.0005981528000000001,-9.464571754400001,3.1696116872,0.620691,12.50088351,-3.86275059,,,
imu,327.566646,-0.0113649032,-9.455001309600002,3.159443089600001,0.7104139199999999,11.6709465,-3.54872037,,,
imu,327.575443,0.0,-9.523190728800001,3.1510689504,0.91229049,10.7737173,-3.42908981,,,
imu,327.58424,0.008374139200000002,-9.456795768000001,3.1211613104,0.80761375,9.85405737,-3.63844329,,,
imu,327.593036,-0.005981528000000001,-9.423299211200002,3.15525602,0.85995212,8.92692053,-3.77302767,,,
imu,327.601833,-0.0005981528000000001,-9.468758824,3.1767895208,1.15902852,8.06707588,-3.69078166,,,
imu,327.61063,0.0023926112,-9.453805004000001,3.1456855752,1.32352054,7.14741595,-3.93004278,,,
imu,327.619426,-0.0125612088,-9.460384684800001,3.161237548,1.4431511,6.12307928,-4.08705789,,,
imu,327.628223,-0.03887993200000001,-9.5184055064,3.179780284800001,1.82447351,5.27071154,-4.07210407,,,
imu,327.63702,-0.03947808480000001,-9.5429297712,3.167817228800001,1.97401171,4.51554363,-3.84779677,,,
imu,327.645816,-0.06579680800000001,-9.550705757600001,3.170807992800001,1.92915025,4.02206757,-3.60853565,,,
imu,327.654613,-0.09929336480000002,-9.4974701584,3.1391058944,1.95158098,3.48373005,-3.20478251,,,
imu,327.66341,-0.1172379488,-9.458590226400002,3.1355169776,1.9665348,3.03511545,-3.02533667,,,
imu,327.672207,-0.1441548248,-9.516611048000001,3.140302200000001,2.23570356,2.70613141,-2.98047521,,,
imu,327.681003,-0.1537252696,-9.5010590752,3.1062074904,2.20579592,2.44443956,-2.83841392,,,
imu,327.6898,-0.1495382,-9.5004609224,3.1032167264,2.31047266,2.30985518,-2.8982292,,,
imu,327.698597,-0.1698753952,-9.502853533600002,3.1205631576,2.25813429,2.18274771,-3.05524431,,,
imu,327.707312,-0.1985867296,-9.477132963200003,3.119366852000001,2.14598064,2.03320951,-3.27955161,,,
imu,327.716109,-0.2231109944,-9.4765348104,3.1295354496,2.2656112,2.01077878,-3.15992105,,,
imu,327.724906,-0.218325772,-9.516611048000001,3.1145816296,2.13850373,2.16779389,-3.09262886,,,
imu,327.733702,-0.230288828,-9.513620284000002,3.104413032,2.16841137,2.42200883,-2.83841392,,,
imu,327.742499,-0.2404574256,-9.516611048000001,3.101422268000001,2.16841137,2.61640849,-2.748691,,,
imu,327.751296,-0.2446444952,-9.51062952,3.1109927128,2.116073,2.9229618,-2.68887572,,,
imu,327.760092,-0.2338777448,-9.510031367200002,3.092449976,2.12354991,3.06502309,-2.74121409,,,
imu,327.768889,-0.2308869808,-9.481918185600001,3.078094308800001,2.28056502,3.3715764,-2.77859864,,,
imu,327.777381,-0.2350740504,-9.487899713600001,3.0697201696,2.5646876,3.54354533,-2.81598319,,,
imu,327.785873,-0.2374666616,-9.512423978400001,3.0739072392,2.67684125,3.64074516,-3.02533667,,,
imu,327.794365,-0.2249054528,-9.524387034400002,3.063738641600001,2.88619473,3.69308353,-3.46647436,,,
imu,327.802856,-0.2237091472,-9.527377798400002,3.0667294056,2.83385636,3.63326825,-3.83284295,,,
imu,327.811348,-0.2338777448,-9.554892827200002,3.078094308800001,2.80394872,3.5958837,-4.13191935,,,
imu,327.81984,-0.2350740504,-9.539939007200001,3.0667294056,2.92357928,3.61831443,-4.363703559999999,,,
imu,327.828332,-0.2530186344000001,-9.538742701600002,3.051775585600001,2.96844074,3.47625314,-4.56558013,,,
imu,327.836824,-0.2500278704,-9.573435564,3.059551572000001,2.96844074,3.47625314,-4.70016451,,,
imu,326.45608,,,,,,,83.5094444,-37.59210280000001,114.5584832
imu,326.557673,,,,,,,81.21449080000001,-37.32354440000001,117.8300128
imu,326.659755,,,,,,,81.43422039999999,-37.67755320000001,116.4139776
imu,326.760829,,,,,,,84.30291240000001,-37.36016600000001,120.710912
imu,326.862361,,,,,,,87.3791268,-38.56867880000001,121.992668
imu,326.963923,,,,,,,89.2468284,-39.21566040000002,122.7006856
imu,327.065486,,,,,,,89.405522,-39.02034520000002,122.8105504
imu,327.167048,,,,,,,88.56322519999999,-38.95930920000001,122.0781184
imu,327.845316,-0.2398592728,-9.571042952800001,3.0511774328,2.87871782,3.5211146,-4.73007215,,,
imu,327.853808,-0.2386629672,-9.555490980000002,3.0332328488,2.78151799,3.49120696,-4.61044159,,,
imu,327.862299,-0.2548130928,-9.5213962704,3.0320365432,2.67684125,3.3715764,-4.53567249,,,
imu,327.870791,-0.2524204816,-9.550705757600001,3.0368217656,2.67684125,3.34914567,-4.33379592,,,
imu,327.879283,-0.2308869808,-9.562070660800002,3.0188771816,2.89367164,3.43139168,-4.057150249999999,,,
imu,327.887775,-0.2326814392,-9.554892827200002,3.017082723200001,2.78151799,3.31176112,-4.06462716,,,
imu,327.896267,-0.2237091472,-9.530368562400001,3.024260556800001,2.65441052,3.10240764,-4.079580979999999,,,
imu,327.904759,-0.2314851336,-9.550705757600001,3.044597752,2.51982614,2.98277708,-3.90013514,,,
imu,327.91325,-0.245242648,-9.626671163200001,3.05057928,2.23570356,2.96034635,-3.6459202,,,
imu,327.921742,-0.236270356,-9.618895176800002,3.0278494736,2.09364227,2.96782326,-3.41413599,,,
imu,327.930234,-0.242251884,-9.5877912312,3.0284476264,1.91419643,2.86314652,-3.39918217,,,
imu,327.938726,-0.260196468,-9.590183842400002,3.0248587096,1.62259694,2.90800798,-3.45152054,,,
imu,327.947218,-0.2530186344000001,-9.5776226336,3.011699348,1.36090509,2.8481927,-3.32441307,,,
imu,327.95571,-0.245242648,-9.576426328,3.002727056,1.10669015,2.8481927,-3.47395127,,,
imu,327.964202,-0.2566075512,-9.578220786400001,2.999138139200001,1.09921324,2.86314652,-3.48142818,,,
imu,327.972661,-0.2404574256,-9.568052188800001,3.0021289032,0.8674290299999999,2.81080815,-3.78050458,,,
imu,327.981121,-0.2296906752000001,-9.572239258400002,2.999138139200001,0.82256757,2.85566961,-3.85527368,,,
imu,327.989581,-0.2380648144,-9.567454036,2.9901658472,0.620691,2.86314652,-3.89265823,,,
imu,327.99804,-0.2368685088,-9.536948243200001,2.9883713888,0.38142988,2.83323888,-3.8702275,,,
imu,328.0065,-0.2554112456,-9.5447242296,2.9943529168,0.34404533,2.87062343,-3.80293531,,,
imu,328.01496,-0.2757484408,-9.5566872856,2.9985399864,0.44124516,2.87810034,-3.81788913,,,
imu,328.02342,-0.2560093984,-9.559678049600002,3.012895653600001,0.44124516,3.05006927,-3.69825857,,,
imu,328.031879,-0.2261017584,-9.5357519376,3.0230642512,0.31413769,3.28933039,-3.39918217,,,
imu,328.040339,-0.2105497856,-9.517807353600002,3.0284476264,0.32909151,3.40148404,-3.01785976,,,
imu,328.048799,-0.1908107432,-9.459786532,3.021269792800001,0.36647606,3.47625314,-2.80102937,,,
imu,328.057259,-0.1752587704,-9.540537160000001,3.0852721424,0.60573718,3.22951511,-2.85336774,,,
imu,328.065718,-0.1339862272,-9.583604161600002,3.0457940576,0.68798319,3.13231528,-2.92065993,,,
imu,328.074178,-0.1417622136,-9.4699551296,3.0254568624,0.35899915,2.96782326,-2.89075229,,,
imu,328.082638,-0.1830347568,-9.474740352000001,3.0852721424,0.53096808,2.64631613,-3.1225365,,,
imu,328.091097,-0.2105497856,-9.505246144800001,3.088861059200001,0.79265993,2.30985518,-3.39170526,,,
imu,328.099557,-0.2015774936,-9.499862769600002,3.0481866688,1.11416706,2.22013226,-3.73564312,,,
imu,328.108017,-0.2135405496,-9.531564868,3.051775585600001,1.17398234,2.40705501,-3.87770441,,,
imu,328.116477,-0.2296906752000001,-9.553696521600001,3.054168196800001,1.10669015,2.4743472,-3.53376655,,,
imu,328.124936,-0.230288828,-9.547116840800001,3.075103544800001,1.11416706,2.80333124,-3.22721324,,,
imu,328.133396,-0.2219146888,-9.552500216,3.0900573648,0.9197674,3.24446893,-3.18982869,,,
imu,328.141856,-0.2075590216,-9.536948243200001,3.087066600800001,0.80761375,3.41643786,-3.30945925,,,
imu,328.150316,-0.203371952,-9.544126076800001,3.0721127808,0.8823828499999999,3.6706528,-3.17487487,,,
imu,328.158775,-0.188418132,-9.520798117600002,3.061944183200001,0.8749059399999999,3.85009864,-3.25712088,,,
imu,328.167235,-0.1692772424,-9.526181492800001,3.0858702952,0.66555246,3.91739083,-3.51881273,,,
imu,328.175696,-0.1573141864,-9.513620284000002,3.0703183224,0.91229049,4.02206757,-3.57862801,,,
imu,328.184157,-0.1561178808,-9.4831144912,3.063738641600001,0.8375213899999999,4.03702139,-3.65339711,,,
imu,328.192618,-0.1303973104,-9.474142199200001,3.055962655200001,1.01696723,4.22394414,-3.67582784,,,
imu,328.201079,-0.1232194768,-9.474142199200001,3.0697201696,1.2936129,4.05197521,-3.81041222,,,
imu,328.20954,-0.1244157824,-9.502853533600002,3.0679257112,1.45062801,3.97720611,-4.18425772,,,
imu,328.218001,-0.1172379488,-9.502255380800001,3.0691220168,1.57025857,3.82766791,-4.3936112,,,
imu,328.226462,-0.1208268656,-9.469356976800002,3.0589534192,1.65998149,3.76037572,-4.52819558,,,
imu,328.234923,-0.1363788384,-9.457393920800001,3.0439995992,1.65998149,3.55102224,-4.625395409999999,,,
imu,328.243384,-0.1507345056,-9.4962738528,3.0511774328,1.9665348,3.5958837,-4.48333412,,,
imu,328.251845,-0.131593616,-9.529770409600001,3.0410088352,2.14598064,3.5211146,-4.386134289999999,,,
imu,328.260306,-0.1208268656,-9.4938812416,3.0332328488,2.3403803,3.43139168,-4.43847266,,,
imu,328.268767,-0.1363788384,-9.468758824,3.03562546,2.37776485,3.10988455,-4.53567249,,,
imu,328.277228,-0.1513326584,-9.443038253600001,3.0523737384,2.33290339,3.02016163,-4.57305704,,,
imu,328.285689,-0.1459492832,-9.444832712,3.0260550152,2.58711833,2.82576197,-4.4683803,,,
imu,328.29415,-0.1543234224,-9.4801237272,3.0284476264,3.00582529,2.70613141,-4.602964679999999,,,
imu,328.302611,-0.1770532288,-9.490292324800002,3.05057928,3.19274804,2.51920866,-4.58053395,,,
imu,328.311072,-0.1752587704,-9.512423978400001,3.0439995992,3.49182444,2.26499372,-4.43847266,,,
imu,328.319533,-0.1860255208,-9.554294674400001,3.0463922104,3.73856247,2.28742445,-4.19173463,,,
imu,328.327994,-0.1878199792,-9.567454036,3.0428032936,3.88810067,2.24256299,-3.75059694,,,
imu,328.336455,-0.1938015072,-9.553098368800002,3.03562546,4.0600696,2.37714737,-3.37675144,,,
imu,328.344916,-0.1955959656,-9.5393408544,3.0320365432,4.19465398,2.40705501,-3.29450543,,,
imu,328.353377,-0.1949978128,-9.510031367200002,3.0009325976,4.29185381,2.42200883,-3.46647436,,,
imu,328.361838,-0.200381188,-9.5010590752,3.005717820000001,4.44886892,2.42948574,-3.58610492,,,
imu,328.370299,-0.1902125904,-9.4980683112,2.9955492224,4.46382274,2.30237827,-3.60105874,,,
imu,328.378761,-0.1985867296,-9.6745233872,3.1474800336,4.68813004,2.27994754,-3.41413599,,,
imu,328.387223,-0.1812402984,-9.6775141512,2.9291542616,4.20213089,2.39210119,-3.2720747,,,
imu,328.395686,-0.167482784,-9.3557079448,2.8938632464,3.50677826,2.33976282,-3.22721324,,,
imu,328.404148,-0.2117460912,-9.471151435200001,3.0392143768,3.46939371,2.16779389,-3.30945925,,,
imu,328.41261,-0.2129423968,-9.614708107200002,2.9943529168,3.64883955,2.22013226,-3.14496723,,,
imu,328.421073,-0.1812402984,-9.636839760800001,2.948893304,3.43948607,2.08554788,-3.29450543,,,
imu,328.429535,-0.1991848824,-9.575230022400001,2.9470988456,3.15536349,2.25751681,-3.28702852,,,
imu,328.437997,-0.2195220776,-9.551902063200002,2.9883713888,2.84133327,2.324809,-3.38422835,,,
imu,328.446459,-0.221316536,-9.571641105600001,2.9734175688,3.07311748,2.48930102,-3.27955161,,,
imu,328.454922,-0.2075590216,-9.565061424800001,2.9554729848,3.02825602,2.50425484,-3.33188998,,,
imu,328.463384,-0.2177276192,-9.530966715200002,2.93094872,2.80394872,2.6238854,-3.7206893,,,
imu,328.471846,-0.2284943696,-9.558481744000002,2.963847124,2.77404108,2.6238854,-4.04967334,,,
imu,328.480308,-0.20935348,-9.575828175200002,2.9441080816,2.863764,2.73603905,-4.034719519999999,,,
imu,328.488771,-0.2057645632,-9.5812115504,2.939921012000001,2.87871782,2.86314652,-3.91508896,,,
imu,328.497233,-0.19439966,-9.567454036,2.9393228592,2.72917962,2.94539253,-3.87770441,,,
imu,328.505695,-0.185427368,-9.5501076048,2.9207801224,2.69179507,3.20708438,-3.84031986,,,
imu,328.514158,-0.200381188,-9.572837411200002,2.9159949,2.73665653,3.31176112,-3.7206893,,,
imu,328.52262,-0.1991848824,-9.6015487456,2.908218913600001,2.84881018,3.46877623,-3.71321239,,,
imu,328.531082,-0.1782495344,-9.593174606400002,2.8974521632,2.89367164,3.4463455,-3.86275059,,,
imu,328.539544,-0.1938015072,-9.583006008800002,2.904031844000001,2.87124091,3.61083752,-3.89265823,,,
imu,328.548007,-0.200381188,-9.556089132800002,2.917789358400001,2.62450288,3.61083752,-3.86275059,,,
imu,328.556469,-0.1686790896,-9.5698466472,2.8974521632,2.77404108,3.57345297,-3.84031986,,,
imu,328.564931,-0.1561178808,-9.5907819952,2.899246621600001,2.87124091,3.36409949,-3.99733497,,,
imu,328.573393,-0.1842310624,-9.618297024,2.9022373856,2.81890254,3.3715764,-4.124442439999999,,,
imu,328.582212,-0.1848292152,-9.620091482400001,2.896854010400001,2.87871782,3.2968073,-3.90013514,,,
imu,328.59103,-0.1692772424,-9.614109954400002,2.8717315928,2.81142563,3.3715764,-3.70573548,,,
imu,328.599848,-0.1728661592,-9.618895176800002,2.8633574536,2.76656417,3.34914567,-3.77302767,,,
imu,328.608666,-0.1949978128,-9.599156134400001,2.8609648424,2.63197979,3.34166876,-3.75807385,,,
imu,328.617485,-0.1710717008,-9.5949690648,2.874124204,2.51982614,3.40896095,-3.75807385,,,
imu,328.626303,-0.1698753952,-9.61530626,2.8543851616,2.407672489999999,3.28185348,-3.76555076,,,
imu,328.635121,-0.1979885768,-9.593772759200002,2.831655355200001,2.34785721,3.21456129,-3.86275059,,,
imu,328.643939,-0.1776513816,-9.575828175200002,2.8238793688,2.4151494,3.28933039,-4.00481188,,,
imu,328.652758,-0.1896144376,-9.5865949256,2.833449813600001,2.30299575,3.31176112,-4.169303899999999,,,
imu,327.268537,,,,,,,87.35471240000001,-39.11800280000002,122.1269472
imu,327.370099,,,,,,,87.98948680000001,-39.54525480000002,120.1982096
imu,327.471662,,,,,,,83.5826876,-38.66633640000001,119.5268136
imu,327.573224,,,,,,,85.34052439999999,-39.48421880000001,116.8168152
imu,327.674787,,,,,,,82.7403908,-38.15363400000003,119.0751472
imu,327.776349,,,,,,,82.630526,-39.069174,116.6092928
imu,327.877912,,,,,,,82.935706,-38.61750760000002,118.9896968
imu,327.979474,,,,,,,82.8990844,-38.6785436,118.574652
imu,328.661576,-0.2141387024,-9.592576453600001,2.8238793688,2.43010322,3.28185348,-4.18425772,,,
imu,328.670394,-0.1932033544,-9.584800467200001,2.8208886048,2.29551884,3.36409949,-4.102011709999999,,,
imu,328.679212,-0.203371952,-9.5907819952,2.8238793688,2.31794957,3.45382241,-3.77302767,,,
imu,328.688031,-0.2105497856,-9.597361676,2.8244775216,2.32542648,3.69308353,-3.55619728,,,
imu,328.696849,-0.19439966,-9.5985579816,2.8101218544,2.14598064,3.77532954,-3.58610492,,,
imu,328.705667,-0.1955959656,-9.592576453600001,2.798756951200001,2.04878081,3.71551426,-3.59358183,,,
imu,328.714485,-0.2225128416,-9.620091482400001,2.8346461192,2.01139626,3.73046808,-3.31693616,,,
imu,328.723304,-0.2159331608,-9.627269316000001,2.8256738272,1.86933497,3.73046808,-3.27955161,,,
imu,328.732122,-0.1842310624,-9.6326526912,2.8286645912,1.7422275,3.90991392,-3.24216706,,,
imu,328.74094,-0.176455076,-9.627867468800002,2.8370387304,1.52539711,4.104313579999999,-3.31693616,,,
imu,328.749758,-0.1752587704,-9.6284656216,2.838833188800001,1.37585891,4.11179049,-3.18235178,,,
imu,328.758577,-0.1662864784,-9.6159044128,2.8226830632,1.39081273,4.1192674,-3.17487487,,,
imu,328.767395,-0.1609031032,-9.605735815200001,2.835244272,1.30856672,4.05197521,-3.14496723,,,
imu,328.776213,-0.1519308112,-9.6296619272,2.8507962448,1.09921324,4.03702139,-3.13001341,,,
imu,328.784738,-0.1573141864,-9.616502565600001,2.8400294944,0.9870595899999999,4.13422122,-3.23469015,,,
imu,328.793262,-0.1495382,-9.592576453600001,2.8400294944,0.78518302,4.13422122,-3.32441307,,,
imu,328.801887,-0.1130508792,-9.588389384000001,2.853188856,0.68798319,3.95477538,-3.37675144,,,
imu,328.810412,-0.1052748928,-9.557883591200001,2.8424221056,0.7104139199999999,3.88748319,-3.24216706,,,
imu,328.818936,-0.1034804344,-9.655980650400002,2.920181969600001,0.620691,3.68560662,-3.1973056,,,
imu,328.827461,-0.0783580168,-9.597959828800002,2.8346461192,0.57582954,3.63326825,-3.31693616,,,
imu,328.835985,-0.1034804344,-9.478329268800001,2.8005514096,0.36647606,3.35662258,-3.45899745,,,
imu,328.84451,-0.1142471848,-9.478329268800001,2.838833188800001,0.9048135799999999,3.19213056,-3.68330475,,,
imu,328.853035,-0.09749890640000002,-9.5213962704,2.8364405776,1.37585891,3.1472691,-3.90013514,,,
imu,328.861559,-0.09091922560000001,-9.577024480800002,2.856777772800001,1.64502767,2.99025399,-3.95995042,,,
imu,328.870084,-0.101685976,-9.599754287200001,2.873526051200001,1.67493531,2.84071579,-4.02724261,,,
imu,328.878608,-0.0980970592,-9.614708107200002,2.880105732000001,1.68241222,2.63136231,-4.26650373,,,
imu,328.887133,-0.1040785872,-9.638634219200002,2.8908724824,1.76465823,2.41453192,-4.5431494,,,
imu,328.895657,-0.1148453376,-9.648204664000001,2.898050316,1.56278166,2.30237827,-4.72259524,,,
imu,328.904182,-0.1268083936,-9.651793580800001,2.892068788,1.48053565,2.1752708,-4.80484125,,,
imu,328.912707,-0.128602852,-9.630858232800001,2.8807038848,1.26370526,2.05564024,-4.78988743,,,
imu,328.921231,-0.1262102408,-9.593772759200002,2.8633574536,1.12912088,1.99582496,-4.52071867,,,
imu,328.929756,-0.1537252696,-9.580613397600002,2.874124204,0.9197674,1.96591732,-4.341272829999999,,,
imu,328.93828,-0.1728661592,-9.5907819952,2.8717315928,0.9646288599999999,1.92853277,-4.169303899999999,,,
imu,328.946805,-0.155519728,-9.573435564,2.852590703200001,1.00201341,1.79394839,-4.19921154,,,
imu,328.955329,-0.1597067976,-9.531564868,2.8436184112,1.03192105,1.8014253,-4.43847266,,,
imu,328.963854,-0.1908107432,-9.5213962704,2.8579740784,1.08425942,1.63693328,-4.55810322,,,
imu,328.972379,-0.1997830352,-9.551902063200002,2.862161148000001,1.25622835,1.83133294,-4.30388828,,,
imu,328.980903,-0.197390424,-9.557883591200001,2.841225800000001,1.33847436,1.93600968,-4.15435008,,,
imu,328.989321,-0.206362716,-9.5566872856,2.8495999392,1.45062801,1.99582496,-4.08705789,,,
imu,328.997739,-0.2356722032,-9.5800152448,2.8633574536,1.52539711,2.30237827,-3.89265823,,,
imu,329.006157,-0.2356722032,-9.587193078400002,2.856777772800001,1.42072037,2.58650085,-3.59358183,,,
imu,329.014574,-0.2308869808,-9.5704448,2.845412869600001,1.51044329,2.89305416,-3.21973633,,,
imu,329.022992,-0.2296906752000001,-9.553696521600001,2.8484036336,1.5179202,3.17717674,-3.10758268,,,
imu,329.03141,-0.2219146888,-9.558481744000002,2.8466091752,1.58521239,3.53606842,-3.16739796,,,
imu,329.039828,-0.203371952,-9.572837411200002,2.8274682856,1.41324346,3.87252937,-3.07767504,,,
imu,329.048245,-0.17944584,-9.577024480800002,2.819692299200001,1.42819728,3.99215993,-3.27955161,,,
imu,329.056663,-0.176455076,-9.578818939200001,2.8304590496,1.2936129,4.13422122,-3.38422835,,,
imu,329.065081,-0.1549215752,-9.578220786400001,2.825075674400001,1.20388998,4.18655959,-3.55619728,,,
imu,329.073499,-0.152528964,-9.597959828800002,2.8436184112,1.08425942,4.05945212,-3.65339711,,,
imu,329.081916,-0.137575144,-9.619493329600001,2.8537870088,0.74779847,3.99963684,-3.69825857,,,
imu,329.090334,-0.1214250184,-9.637437913600001,2.8507962448,0.5982602699999999,4.01459066,-3.54124346,,,
imu,329.098752,-0.1088638096,-9.639232372,2.8669463704,0.51601426,4.11179049,-3.28702852,,,
imu,328.081037,,,,,,,82.3985892,-38.7762012,118.7943816
imu,328.182599,,,,,,,82.49624680000001,-38.34894920000001,118.5990664
imu,328.284162,,,,,,,82.447418,-38.49543560000001,118.208436
imu,328.393567,,,,,,,82.508454,-38.30012040000001,118.5502376
imu,328.495099,,,,,,,82.09340920000001,-38.16584120000002,118.4403728
imu,328.596692,,,,,,,84.8644436,-39.3621468,116.0355544
imu,328.698224,,,,,,,82.1666524,-38.48322840000002,118.2206432
imu,328.799787,,,,,,,83.11881400000001,-39.28890360000001,115.4374016
imu,328.901522,,,,,,,82.20327400000001,-38.38557080000002,118.5624448
imu,329.003084,,,,,,,81.89809400000001,-38.47102120000001,118.1229856
