Type,Timestamp,Data Accelerometer X,Data Accelerometer Y,Data Accelerometer Z,Data Gyroscope X,Data Gyroscope Y,Data Gyroscope Z,Data Magnetometer X,Data Magnetometer Y,Data Magnetometer Z
imu,385.240157,-0.3511156936,-9.493283088800002,3.0164845704,0.7104139199999999,3.08745382,-3.21973633,,,
imu,385.248615,-0.3475267768,-9.5004609224,3.026653168000001,0.7552753799999999,2.84071579,-3.40665908,,,
imu,385.257074,-0.3559009160000001,-9.535153784800002,3.044597752,1.00201341,2.75099287,-3.50385891,,,
imu,385.265532,-0.3331711096,-9.561472508000001,3.033831001600001,1.11416706,2.44443956,-3.78050458,,,
imu,385.273991,-0.3313766512,-9.551303910400001,3.040410682400001,1.1440747,2.31733209,-3.74312003,,,
imu,385.282449,-0.3541064576,-9.52558334,3.0434014464,1.06182869,2.19022462,-3.81788913,,,
imu,385.290908,-0.3487230824000001,-9.537546396000002,3.030840237600001,1.04687487,2.03320951,-3.75059694,,,
imu,385.299366,-0.3421434016,-9.532163020800002,3.0350273072,1.03192105,1.96591732,-3.70573548,,,
imu,385.307827,-0.3535083048,-9.5213962704,3.036223612800001,1.04687487,1.56964109,-4.04967334,,,
imu,385.316288,-0.3493212352000001,-9.513022131200001,3.0434014464,1.00201341,1.27056469,-4.37118047,,,
imu,385.324749,-0.3576953744,-9.530966715200002,3.0350273072,1.08425942,1.12102649,-4.37118047,,,
imu,385.33321,-0.3846122504,-9.527975951200002,3.02067164,1.15155161,0.9640113799999996,-4.23659609,,,
imu,385.341671,-0.4175106544000001,-9.520199964800002,3.0368217656,1.03192105,0.7696117199999999,-4.19921154,,,
imu,385.350132,-0.4199032656,-9.555490980000002,3.0350273072,1.17398234,0.7770886299999997,-4.06462716,,,
imu,385.358593,-0.406743904,-9.5842023144,3.023662404,1.10669015,0.7471809899999999,-3.71321239,,,
imu,385.367054,-0.4163143488000001,-9.6015487456,3.0284476264,1.31604363,0.7097964399999999,-3.54124346,,,
imu,385.375515,-0.4468201416000001,-9.5638651192,3.0093067368,1.27118217,0.7471809899999999,-3.54872037,,,
imu,385.383976,-0.4533998224,-9.536350090400001,2.9943529168,1.33099745,0.7097964399999999,-3.48890509,,,
imu,385.392437,-0.4342589328000001,-9.527975951200002,2.9925584584,1.64502767,0.8817653699999997,-3.28702852,,,
imu,385.400898,-0.424688488,-9.528574104,2.9913621528,1.72727368,0.9116730099999999,-3.3468438,,,
imu,385.409359,-0.4264829464000001,-9.533359326400001,2.9913621528,1.68241222,0.80699627,-3.55619728,,,
imu,385.41782,-0.424688488,-9.520199964800002,2.9871750832,1.57773548,0.80699627,-3.81788913,,,
imu,385.426281,-0.4354552384000001,-9.541135312800002,2.997941833600001,1.38333582,0.9041961000000001,-3.76555076,,,
imu,385.434742,-0.4354552384000001,-9.5632669664,3.0093067368,1.2936129,0.7322271699999998,-3.69825857,,,
imu,385.443203,-0.4420349192,-9.559678049600002,3.017082723200001,0.9571519499999999,0.8294269999999999,-3.81788913,,,
imu,385.451664,-0.4456238360000001,-9.5590798968,3.02067164,0.7403215599999999,0.9565344699999998,-3.8702275,,,
imu,385.460125,-0.4390441552000001,-9.551902063200002,3.0260550152,0.73284465,1.12102649,-3.65339711,,,
imu,385.468586,-0.4300718632,-9.554892827200002,3.0164845704,0.5459219,1.25561087,-3.39170526,,,
imu,385.477047,-0.4187069600000001,-9.547714993600001,3.010503042400001,0.40386061,1.39767216,-3.42908981,,,
imu,385.485508,-0.4193051128000001,-9.5566872856,3.0182790288,0.29170696,1.43505671,-3.35432071,,,
imu,385.493969,-0.3876030144000001,-9.547116840800001,3.02067164,0.33656842,1.59207182,-3.36179762,,,
imu,385.50243,-0.3762381112000001,-9.5237888816,3.026653168000001,0.43376825,1.7266562,-3.24216706,,,
imu,385.510891,-0.376836264,-9.526181492800001,3.0278494736,0.46367589,1.69674856,-3.33188998,,,
imu,385.519352,-0.3684621248000001,-9.531564868,3.038018071200001,0.56087572,1.56964109,-3.52628964,,,
imu,385.527813,-0.3660695136000001,-9.538742701600002,3.056560808,0.56835263,1.55468727,-3.81041222,,,
imu,385.536274,-0.3642750552,-9.577024480800002,3.0691220168,0.53844499,1.41262598,-3.9449966,,,
imu,385.544735,-0.3576953744,-9.561472508000001,3.054168196800001,0.29170696,1.47244126,-3.89265823,,,
imu,385.553196,-0.361882444,-9.541733465600002,3.0631404888,-0.03727708,1.5023489,-3.9449966,,,
imu,385.561657,-0.3816214864,-9.553098368800002,3.0661312528,0.26179932,1.56964109,-3.7954584,,,
imu,385.570118,-0.3630787496,-9.572239258400002,3.051775585600001,0.23936859,1.577118,-3.75807385,,,
imu,385.578579,-0.3457323184,-9.5357519376,3.0463922104,0.41881443,1.53225654,-3.7206893,,,
imu,385.58704,-0.3445360128,-9.495077547200001,3.0643367944,0.36647606,1.47991817,-3.77302767,,,
imu,385.595501,-0.3612842912,-9.5010590752,3.062542336,0.43376825,1.40514907,-4.02724261,,,
imu,385.603962,-0.3654713608,-9.547714993600001,3.057158960800001,0.65059864,1.34533379,-4.04967334,,,
imu,385.612371,-0.3475267768,-9.557883591200001,3.0691220168,0.6281679099999999,1.15841104,-4.19173463,,,
imu,385.620832,-0.3493212352000001,-9.534555632000002,3.0858702952,0.68798319,1.00139593,-4.18425772,,,
imu,385.629293,-0.3816214864,-9.506442450400002,3.0721127808,0.60573718,0.9116730099999999,-3.98238115,,,
imu,385.637754,-0.4079402096,-9.519601812000001,3.0768980032,0.620691,0.9191499199999997,-3.86275059,,,
imu,385.646215,-0.3935845424,-9.533359326400001,3.0757016976,0.79265993,0.9714882899999999,-3.74312003,,,
imu,385.654676,-0.4121272792,-9.533359326400001,3.0882629064,0.74779847,1.18831868,-3.62348947,,,
imu,385.663137,-0.4181088072000001,-9.522592576000001,3.0786924616,0.5982602699999999,1.16588795,-3.55619728,,,
imu,385.671598,-0.4049494456000001,-9.4974701584,3.0649349472,0.66555246,1.06868812,-3.59358183,,,
imu,385.680059,-0.4127254320000001,-9.516012895200001,3.070916475200001,0.77770611,1.10607267,-3.70573548,,,
imu,385.68852,-0.400762376,-9.499264616800001,3.062542336,0.8823828499999999,1.09859576,-4.102011709999999,,,
imu,385.696981,-0.4031549872,-9.481918185600001,3.0631404888,0.8973366700000001,1.2032725,-4.32631901,,,
imu,385.705442,-0.4240903352000001,-9.4801237272,3.0577571136,1.17398234,1.24065705,-4.49081103,,,
imu,385.890625,-0.4282774048000001,-9.554892827200002,3.030840237600001,1.21136689,2.15284007,-3.67582784,,,
imu,385.899444,-0.4049494456000001,-9.553098368800002,3.0254568624,1.25622835,2.31733209,-3.87770441,,,
imu,385.908262,-0.4181088072000001,-9.526181492800001,3.0081104312,1.16650543,2.25751681,-4.0945348,,,
imu,385.917183,-0.4366515440000001,-9.52558334,3.0099048896,1.15155161,2.15284007,-4.20668845,,,
imu,385.926105,-0.4151180432000001,-9.559678049600002,3.0248587096,1.18893616,2.19770153,-4.20668845,,,
imu,385.935026,-0.4133235848,-9.568052188800001,3.0188771816,1.07678251,2.09302479,-4.25902682,,,
imu,385.943947,-0.4037531400000001,-9.557285438400001,3.02067164,1.18145925,2.06311715,-4.102011709999999,,,
imu,385.952868,-0.4037531400000001,-9.562668813600002,3.0314383904,1.01696723,2.04068642,-4.146873169999999,,,
imu,385.96179,-0.4019586816,-9.553098368800002,3.02067164,0.97210577,1.75656384,-4.146873169999999,,,
imu,385.970711,-0.4073420568000001,-9.564463272000001,3.0122975008,0.9197674,1.7266562,-4.16182699,,,
imu,385.979632,-0.4115291264,-9.5632669664,3.0158864176,0.7253677399999999,1.59207182,-4.04967334,,,
imu,385.988554,-0.430670016,-9.5357519376,3.0182790288,0.70293701,1.58459491,-3.75059694,,,
imu,385.997475,-0.4240903352000001,-9.533359326400001,3.017680876,0.7552753799999999,1.4275798,-3.65339711,,,
imu,386.006396,-0.4193051128000001,-9.553696521600001,3.012895653600001,0.76275229,1.2032725,-3.82536604,,,
imu,386.015318,-0.4276792520000001,-9.524387034400002,3.0081104312,0.76275229,1.13598031,-4.034719519999999,,,
imu,386.024239,-0.4438293776000001,-9.512423978400001,3.008708584,0.8449983,1.03130357,-4.19173463,,,
imu,386.03316,-0.4581850448000001,-9.528574104,3.022466098400001,0.9197674,0.9116730099999999,-4.408565019999999,,,
imu,386.042082,-0.4707462536000001,-9.5447242296,3.0278494736,0.8823828499999999,0.8369039099999998,-4.37865738,,,
imu,386.051003,-0.4958686712000001,-9.554294674400001,3.030840237600001,1.03192105,1.02382666,-4.06462716,,,
imu,386.059924,-0.49347606,-9.561472508000001,3.0523737384,1.01696723,1.21822632,-3.81788913,,,
imu,386.068845,-0.4958686712000001,-9.597361676,3.054168196800001,0.8449983,1.45001053,-3.44404363,,,
imu,386.077767,-0.5030465048,-9.602146898400001,3.0481866688,0.53844499,1.59954873,-3.40665908,,,
imu,386.086688,-0.502448352,-9.581809703200001,3.0434014464,0.4711528,1.77151766,-3.13749032,,,
imu,386.095609,-0.4833074624000001,-9.5566872856,3.0451959048,0.68798319,2.22013226,-2.98047521,,,
imu,386.104531,-0.4857000736000001,-9.537546396000002,3.0314383904,0.67302937,2.36967046,-3.20478251,,,
imu,386.113452,-0.46356842,-9.526181492800001,3.0230642512,0.5010604399999999,2.33228591,-3.48142818,,,
imu,386.122373,-0.4240903352000001,-9.495675700000001,3.017082723200001,0.64312173,2.46687029,-3.66087402,,,
imu,386.130394,-0.4199032656,-9.496872005600002,3.0368217656,0.76275229,2.3995781,-3.88518132,,,
imu,386.138415,-0.4276792520000001,-9.524387034400002,3.0511774328,0.68798319,2.36219355,-4.04219643,,,
imu,386.146436,-0.4115291264,-9.4944793944,3.0302420848,0.65059864,2.42200883,-4.034719519999999,,,
imu,386.154457,-0.4234921824,-9.475936657600002,3.040410682400001,0.71789083,2.37714737,-3.9449966,,,
imu,386.162478,-0.43366078,-9.499862769600002,3.049981127200001,0.80013684,2.27994754,-3.84031986,,,
imu,386.1705,-0.4294737104000001,-9.5291722568,3.0451959048,1.00949032,2.16031698,-3.78050458,,,
imu,386.178521,-0.4222958768,-9.5219944232,3.0481866688,0.88985976,1.93600968,-3.65339711,,,
imu,386.186542,-0.4133235848,-9.4980683112,3.0463922104,1.01696723,2.01077878,-3.67582784,,,
imu,386.194563,-0.4085383624000001,-9.52558334,3.0601497248,1.27865908,1.90610204,-3.53376655,,,
imu,386.202584,-0.4222958768,-9.539939007200001,3.0673275584,1.27118217,1.70422547,-3.51133582,,,
imu,386.210605,-0.4169125016,-9.5172092008,3.061346030400001,1.18893616,1.62945637,-3.59358183,,,
imu,386.218626,-0.4013605288,-9.5213962704,3.057158960800001,1.12164397,1.59954873,-3.69078166,,,
imu,386.226647,-0.4210995712,-9.529770409600001,3.0643367944,1.24127453,1.47991817,-3.67582784,,,
imu,386.234668,-0.4539979752000001,-9.5381445488,3.059551572000001,1.13659779,1.33785688,-3.66087402,,,
imu,386.242689,-0.4599795032,-9.5381445488,3.053570044,1.08425942,1.33037997,-3.66087402,,,
imu,386.25071,-0.4563905864000001,-9.551303910400001,3.0607478776,1.0693056,1.42010289,-3.73564312,,,
imu,386.258731,-0.4528016696000001,-9.571641105600001,3.0679257112,1.24127453,1.56964109,-3.75807385,,,
imu,386.266752,-0.4587831976000001,-9.574631869600001,3.0583552664,1.33099745,1.67431783,-3.77302767,,,
imu,386.274773,-0.4677554896000001,-9.557883591200001,3.056560808,1.17398234,1.73413311,-3.8702275,,,
imu,386.282794,-0.4641665728000001,-9.523190728800001,3.054168196800001,0.9347212199999999,1.89114822,-3.78798149,,,
imu,386.290815,-0.4486146000000001,-9.526181492800001,3.0649349472,0.9870595899999999,2.1752708,-3.7954584,,,
imu,386.298836,-0.4402404608,-9.547116840800001,3.0583552664,0.97958268,2.18274771,-3.81788913,,,
imu,386.306857,-0.4294737104000001,-9.547714993600001,3.0493829744,0.94219813,2.09302479,-3.88518132,,,
imu,386.314878,-0.4288755576000001,-9.520199964800002,3.053570044,0.91229049,2.09302479,-3.98238115,,,
imu,386.323342,-0.4318663216,-9.510031367200002,3.044597752,0.8973366700000001,2.09302479,-4.00481188,,,
imu,386.331805,-0.442633072,-9.496872005600002,3.0457940576,0.9870595899999999,2.13788625,-3.76555076,,,
imu,386.340269,-0.4366515440000001,-9.5213962704,3.056560808,1.12912088,2.04068642,-3.54872037,,,
imu,386.348732,-0.430670016,-9.5291722568,3.0463922104,1.21136689,2.08554788,-3.48142818,,,
imu,386.357196,-0.4384460024000001,-9.507638756,3.047588516000001,1.30108981,1.97339423,-3.54872037,,,
imu,386.365659,-0.439642308,-9.486105255200002,3.0398125296,1.33847436,2.03320951,-3.60105874,,,
imu,386.374123,-0.4378478496000001,-9.517807353600002,3.05057928,1.46558183,2.0257326,-3.71321239,,,
imu,386.382587,-0.4378478496000001,-9.536350090400001,3.0529718912,1.65998149,2.03320951,-3.71321239,,,
imu,386.39105,-0.4354552384000001,-9.5291722568,3.0392143768,1.67493531,2.04068642,-3.57862801,,,
imu,386.399514,-0.4569887392,-9.4843107968,3.0350273072,1.67493531,2.03320951,-3.7206893,,,
imu,386.407977,-0.4557924336,-9.475936657600002,3.0272513208,1.78708896,2.09302479,-3.72816621,,,
imu,386.416441,-0.451605364,-9.4974701584,3.0314383904,1.95158098,2.18274771,-3.7954584,,,
imu,386.424904,-0.46356842,-9.517807353600002,3.0164845704,2.1908421,2.28742445,-3.78798149,,,
imu,386.433368,-0.4737370176,-9.537546396000002,3.02067164,2.24318047,2.5491163,-3.75059694,,,
imu,386.441831,-0.4779240872000001,-9.5459205352,3.012895653600001,2.20579592,2.78837742,-3.69825857,,,
imu,386.450295,-0.4474182944000001,-9.526181492800001,3.0158864176,2.25065738,2.83323888,-3.81788913,,,
imu,386.458758,-0.4300718632,-9.523190728800001,3.0111011952,2.30299575,2.87062343,-3.95247351,,,
imu,386.467222,-0.4450256832000001,-9.533957479200001,2.993754764000001,2.47496468,3.02016163,-3.93751969,,,
imu,386.475685,-0.4378478496000001,-9.5489112992,3.0039233616,2.33290339,2.90800798,-4.146873169999999,,,
imu,386.484149,-0.4216977240000001,-9.5740337168,3.0093067368,2.25813429,2.9977309,-4.13191935,,,
imu,386.492613,-0.4324644744,-9.590183842400002,2.989567694400001,2.3403803,3.12483837,-4.15435008,,,
imu,386.501076,-0.4318663216,-9.573435564,2.9973436808,2.3403803,3.07997691,-4.11696553,,,
imu,386.50954,-0.4163143488000001,-9.552500216,2.9943529168,2.16093446,3.01268472,-4.13939626,,,
imu,386.518003,-0.4049494456000001,-9.543527924000001,2.9943529168,2.22074974,2.96034635,-3.96742733,,,
imu,386.526468,-0.3983697648000001,-9.588389384000001,2.9949510696,2.1908421,2.76594669,-4.012288789999999,,,
imu,386.534933,-0.4097346680000001,-9.6051376624,2.9973436808,2.18336519,2.63136231,-4.22911918,,,
imu,386.543398,-0.4025568344,-9.5704448,2.978800944,2.18336519,2.58650085,-4.13191935,,,
imu,386.551862,-0.4103328208,-9.522592576000001,2.9716231104,2.09364227,2.58650085,-4.02724261,,,
imu,386.560327,-0.4378478496000001,-9.560874355200001,2.9949510696,2.16093446,2.46687029,-4.057150249999999,,,
imu,386.568792,-0.4528016696000001,-9.5800152448,2.9913621528,2.06373463,2.45939338,-4.13939626,,,
imu,386.577257,-0.439642308,-9.5393408544,2.980595402400001,1.92167334,2.36967046,-4.124442439999999,,,
imu,386.585722,-0.4312681688,-9.554294674400001,2.9931566112,1.91419643,2.39210119,-4.15435008,,,
imu,386.594187,-0.4450256832000001,-9.580613397600002,2.999138139200001,1.85438115,2.36219355,-4.16182699,,,
imu,386.602651,-0.4408386136,-9.583604161600002,2.9770064856,1.88428879,2.27247063,-4.19173463,,,
imu,386.611116,-0.4432312248,-9.543527924000001,2.962052665600001,1.80204278,2.22013226,-4.4683803,,,
imu,386.619581,-0.4605776560000001,-9.5154147424,2.9811935552,1.80204278,2.22013226,-4.41604193,,,
imu,386.628046,-0.4528016696000001,-9.531564868,2.9722212632,1.88428879,2.26499372,-4.30388828,,,
imu,386.636511,-0.4468201416000001,-9.560874355200001,2.957865596,1.92915025,2.22760917,-4.27398064,,,
imu,386.644975,-0.4384460024000001,-9.5184055064,2.9506877624,1.98896553,2.13788625,-4.18425772,,,
imu,386.65344,-0.4480164472000001,-9.483712644000002,2.9530803736,1.89924261,1.98087114,-4.13191935,,,
imu,386.661905,-0.4629702672000001,-9.517807353600002,2.9770064856,2.116073,1.98834805,-4.11696553,,,
imu,386.67037,-0.4719425592000001,-9.532163020800002,2.9674360408,2.25813429,2.01077878,-4.10948862,,,
imu,386.678835,-0.4510072112,-9.585398620000001,2.9889695416,2.3403803,1.86124058,-4.13191935,,,
imu,386.687299,-0.4498109056,-9.594370912,2.9949510696,2.46748777,1.94348659,-3.97490424,,,
imu,386.695764,-0.4671573368000001,-9.547714993600001,2.971024957600001,2.33290339,1.83880985,-3.80293531,,,
imu,385.306949,,,,,,,80.3966084,-38.45881400000002,117.4882112
imu,385.408512,,,,,,,82.54507559999999,-39.10579560000001,115.3153296
imu,385.510074,,,,,,,80.1402572,-38.26349880000001,117.903256
imu,385.611637,,,,,,,80.1158428,-38.40998520000001,118.1474
imu,385.713199,,,,,,,80.75061720000001,-38.47102120000001,117.9398776
imu,385.814762,,,,,,,80.6651668,-38.3123276,118.1107784
imu,386.704186,-0.4892889904,-9.520199964800002,2.959061901600001,2.31047266,1.77899457,-3.99733497,,,
imu,386.712651,-0.5012520464000001,-9.519601812000001,2.972819416000001,2.51234923,1.63693328,-4.29641137,,,
imu,386.721116,-0.5227855472,-9.530368562400001,2.9554729848,2.6394567,1.96591732,-4.30388828,,,
imu,386.729941,-0.5299633808,-9.522592576000001,2.951884068,2.73665653,2.15284007,-4.10948862,,,
imu,386.738765,-0.5257763112000001,-9.519601812000001,2.9566692904,2.67684125,2.13788625,-4.034719519999999,,,
imu,386.74759,-0.5215892416000001,-9.549509452,2.953678526400001,2.82637945,2.33228591,-3.99733497,,,
imu,386.756415,-0.5245800056000001,-9.5985579816,2.9740157216,2.7889949,2.46687029,-4.06462716,,,
imu,386.76524,-0.5305615336,-9.614708107200002,2.971024957600001,2.90114855,2.6986545,-3.90013514,,,
imu,386.774065,-0.5443190480000001,-9.623082246400001,2.952482220800001,2.82637945,2.79585433,-3.81041222,,,
imu,386.78289,-0.5341504504000001,-9.635643455200002,2.953678526400001,2.89367164,3.16222292,-3.56367419,,,
imu,386.791715,-0.5347486032000001,-9.631456385600002,2.966239735200001,2.74413344,3.58092988,-3.30198234,,,
imu,386.80054,-0.5191966304000001,-9.5985579816,2.938126553600001,2.61702597,3.85757555,-3.24964397,,,
imu,386.809365,-0.4952705184000001,-9.551902063200002,2.917789358400001,2.47496468,4.08188285,-3.25712088,,,
imu,386.818189,-0.4916816016,-9.555490980000002,2.9231727336,2.51234923,4.30619015,-3.13001341,,,
imu,386.827014,-0.4581850448000001,-9.557285438400001,2.910013372,2.58711833,4.388436159999999,-3.24216706,,,
imu,386.835839,-0.4354552384000001,-9.554892827200002,2.8908724824,2.75161035,4.42582071,-3.39170526,,,
imu,386.844664,-0.4276792520000001,-9.520199964800002,2.8878817184,2.60954906,4.3435747,-3.56367419,,,
imu,386.853489,-0.4312681688,-9.492086783200001,2.8908724824,2.40019558,4.26132869,-3.60105874,,,
imu,386.862314,-0.4205014184,-9.511227672800002,2.8986484688,2.7142258,4.13422122,-3.80293531,,,
imu,386.871139,-0.4240903352000001,-9.572239258400002,2.8902743296,3.05068675,3.94729847,-3.83284295,,,
imu,386.879964,-0.4252866408000001,-9.592576453600001,2.910013372,2.98339456,3.80523718,-3.59358183,,,
imu,386.888789,-0.4073420568000001,-9.596165370400001,2.904031844000001,2.89367164,3.73046808,-3.51881273,,,
imu,386.897613,-0.3953790008,-9.572239258400002,2.896854010400001,2.84881018,3.61083752,-3.66087402,,,
imu,386.906438,-0.406743904,-9.557883591200001,2.8765168152,2.81890254,3.31176112,-3.62348947,,,
imu,386.915263,-0.4103328208,-9.5776226336,2.8878817184,2.79647181,3.13231528,-3.36927453,,,
imu,386.924088,-0.4073420568000001,-9.600352440000002,2.8842928016,2.74413344,2.9977309,-3.50385891,,,
imu,386.932562,-0.3983697648000001,-9.592576453600001,2.8789094264,2.79647181,2.81828506,-3.52628964,,,
imu,386.941036,-0.4205014184,-9.591978300800001,2.8753205096,3.02077911,2.70613141,-3.55619728,,,
imu,386.949509,-0.424688488,-9.593174606400002,2.8747223568,3.03573293,2.58650085,-3.47395127,,,
imu,386.957983,-0.4270810992000001,-9.596165370400001,2.8729278984,3.07311748,2.53416248,-3.496382,,,
imu,386.966457,-0.4510072112,-9.603343204000002,2.8747223568,2.98339456,2.5491163,-3.43656672,,,
imu,386.97493,-0.4731388648000001,-9.612315496,2.8753205096,2.85628709,2.42948574,-3.30945925,,,
imu,386.983404,-0.4653628784000001,-9.627269316000001,2.8573759256,2.7889949,2.50425484,-3.29450543,,,
imu,386.991878,-0.4300718632,-9.605735815200001,2.850198092000001,2.81142563,2.68370068,-3.27955161,,,
imu,387.000352,-0.4402404608,-9.6009505928,2.866348217600001,2.65441052,2.74351596,-3.31693616,,,
imu,387.008825,-0.4474182944000001,-9.597959828800002,2.8783112736,2.46001086,2.81080815,-3.40665908,,,
imu,387.017299,-0.4348570856000001,-9.610521037600002,2.8484036336,2.32542648,2.75099287,-3.54872037,,,
imu,387.025773,-0.4270810992000001,-9.635643455200002,2.8448147168,2.35533412,2.70613141,-3.60105874,,,
imu,387.034246,-0.4228940296000001,-9.6667474008,2.8657500648,2.16093446,2.66874686,-3.68330475,,,
imu,387.04272,-0.4360533912000001,-9.6284656216,2.8585722312,1.90671952,3.00520781,-3.43656672,,,
imu,387.051194,-0.442633072,-9.5447242296,2.8071310904,1.50296638,2.99025399,-3.35432071,,,
imu,387.059668,-0.4539979752000001,-9.553098368800002,2.8095237016,1.7422275,3.02016163,-3.24216706,,,
imu,387.068141,-0.4605776560000001,-9.608128426400002,2.833449813600001,1.88428879,2.96034635,-3.33936689,,,
imu,387.076615,-0.4605776560000001,-9.603343204000002,2.8418239528,1.82447351,3.05006927,-3.36927453,,,
imu,387.085089,-0.4563905864000001,-9.602146898400001,2.8286645912,1.57025857,3.08745382,-3.39170526,,,
imu,387.093562,-0.4486146000000001,-9.618895176800002,2.838235036,1.39828964,3.0725,-3.5711511,,,
imu,387.102036,-0.4510072112,-9.621287788000002,2.8513943976,1.42072037,3.08745382,-3.59358183,,,
imu,387.11051,-0.4611758088,-9.624278552000002,2.856777772800001,1.30108981,3.03511545,-3.45152054,,,
imu,387.118984,-0.4737370176,-9.578220786400001,2.8358424248,1.18893616,3.04259236,-3.29450543,,,
imu,387.127457,-0.4785222400000001,-9.591978300800001,2.8406276472,1.03192105,3.13231528,-3.13001341,,,
imu,387.135913,-0.4689517952000001,-9.6015487456,2.853188856,1.1440747,3.3715764,-2.94309066,,,
imu,387.144369,-0.4755314760000001,-9.597959828800002,2.8304590496,1.23379762,3.54354533,-2.59167589,,,
imu,387.152825,-0.4653628784000001,-9.5776226336,2.8340479664,1.03192105,3.67812971,-2.36736859,,,
imu,387.161281,-0.4504090584,-9.594370912,2.8400294944,1.10669015,3.94729847,-2.25521494,,,
imu,387.169737,-0.430670016,-9.6218859408,2.850198092000001,1.19641307,4.02954448,-2.32998404,,,
imu,387.178193,-0.4049494456000001,-9.608128426400002,2.844216564,1.15155161,4.08188285,-2.21035348,,,
imu,387.186649,-0.3923882368,-9.589585689600002,2.837636883200001,1.05435178,4.2688056,-2.25521494,,,
imu,387.195105,-0.3935845424,-9.591380148,2.843020258400001,1.04687487,4.29871324,-2.3000764,,,
imu,387.20356,-0.3876030144000001,-9.593772759200002,2.833449813600001,1.12912088,4.32114397,-2.32998404,,,
imu,387.212016,-0.3684621248000001,-9.620689635200002,2.838833188800001,1.07678251,4.33609779,-2.44213769,,,
imu,387.220472,-0.3421434016,-9.6637566368,2.8866854128,0.9870595899999999,4.3435747,-2.60662971,,,
imu,387.228928,-0.3337692624,-9.623082246400001,2.8513943976,0.7104139199999999,4.23142105,-2.74121409,,,
imu,387.237384,-0.3194135952000001,-9.575230022400001,2.8460110224,0.38142988,4.08935976,-2.77859864,,,
imu,387.24584,-0.3128339144,-9.5740337168,2.8609648424,0.4711528,3.94729847,-2.81598319,,,
imu,387.254296,-0.3008708584000001,-9.560874355200001,2.852590703200001,0.56087572,3.70803735,-2.98795212,,,
imu,387.262752,-0.2859170384,-9.5447242296,2.8358424248,0.7253677399999999,3.68560662,-2.77859864,,,
imu,387.271208,-0.2859170384,-9.557285438400001,2.833449813600001,0.8449983,3.46877623,-2.93561375,,,
imu,387.279664,-0.3026653168,-9.578818939200001,2.850198092000001,0.9945364999999999,3.15474601,-3.18235178,,,
imu,387.28812,-0.2883096496000001,-9.616502565600001,2.8519925504,1.16650543,3.06502309,-3.11505959,,,
imu,387.296575,-0.2835244272,-9.61530626,2.841225800000001,1.01696723,2.75846978,-3.21973633,,,
imu,387.305031,-0.2924967192,-9.584800467200001,2.8579740784,0.94219813,2.51920866,-3.33936689,,,
imu,387.313487,-0.3020671640000001,-9.5698466472,2.8543851616,0.9945364999999999,2.3995781,-3.38422835,,,
imu,387.321943,-0.3014690112,-9.577024480800002,2.8495999392,0.94219813,2.28742445,-3.40665908,,,
imu,387.330399,-0.3188154424,-9.578220786400001,2.847207328000001,1.23379762,1.99582496,-3.5711511,,,
imu,387.338861,-0.3026653168,-9.575828175200002,2.859170384,1.17398234,1.77899457,-3.80293531,,,
imu,387.347324,-0.3116376088,-9.5865949256,2.8555814672,1.17398234,1.68179474,-4.06462716,,,
imu,387.355786,-0.3271895816000001,-9.6117173432,2.843020258400001,1.21136689,1.56216418,-3.98985806,,,
imu,387.364248,-0.3427415544,-9.591978300800001,2.8448147168,1.09173633,1.64441019,-4.057150249999999,,,
imu,387.37271,-0.3367600264,-9.557883591200001,2.845412869600001,1.15902852,1.577118,-4.146873169999999,,,
imu,387.381173,-0.3582935272000001,-9.553696521600001,2.8358424248,1.24127453,1.62945637,-4.034719519999999,,,
imu,387.389635,-0.3559009160000001,-9.609324732000001,2.862161148000001,1.2188438,1.55468727,-4.0945348,,,
imu,387.398097,-0.3391526376000001,-9.578818939200001,2.852590703200001,1.17398234,1.56964109,-3.9449966,,,
imu,387.40656,-0.3259932760000001,-9.551902063200002,2.8304590496,1.16650543,1.38271834,-4.146873169999999,,,
imu,387.415022,-0.3367600264,-9.577024480800002,2.8268701328,1.24127453,1.02382666,-4.430995749999999,,,
imu,387.423484,-0.3738455000000001,-9.5949690648,2.8400294944,1.32352054,0.9565344699999998,-4.52071867,,,
imu,387.431946,-0.3714528888,-9.635045302400002,2.8484036336,1.27865908,1.15093413,-4.28893446,,,
imu,387.440409,-0.3726491944000001,-9.648204664000001,2.8364405776,1.25622835,1.07616503,-4.079580979999999,,,
imu,387.448871,-0.3905937784,-9.6499991224,2.8555814672,1.18145925,1.15093413,-4.012288789999999,,,
imu,387.457333,-0.4109309736,-9.632054538400002,2.8573759256,1.00949032,1.24065705,-4.13191935,,,
imu,387.465795,-0.4031549872,-9.638036066400002,2.8478054808,0.9646288599999999,1.29299542,-3.91508896,,,
imu,387.474258,-0.4079402096,-9.644615747200001,2.837636883200001,0.81509066,1.47244126,-3.63096638,,,
imu,387.48272,-0.4115291264,-9.610521037600002,2.837636883200001,0.83004448,1.70422547,-3.59358183,,,
imu,387.491182,-0.4085383624000001,-9.593174606400002,2.8119163128,0.9571519499999999,1.74161002,-3.73564312,,,
imu,387.499645,-0.3726491944000001,-9.612913648800001,2.798756951200001,0.8973366700000001,1.82385603,-3.84779677,,,
imu,387.508107,-0.361882444,-9.611119190400002,2.823281216,0.94219813,1.8014253,-3.89265823,,,
imu,387.516569,-0.3654713608,-9.551902063200002,2.8256738272,0.6954601,1.67431783,-4.32631901,,,
imu,385.916281,,,,,,,81.1534548,-38.21467000000001,117.8178056
imu,386.017874,,,,,,,80.78723880000001,-38.3123276,117.2562744
imu,386.119406,,,,,,,81.4830492,-37.97052600000001,116.9022656
imu,386.220968,,,,,,,80.921518,-38.65412920000002,117.6346976
imu,386.322531,,,,,,,83.5582732,-39.49642600000001,116.0355544
imu,386.424185,,,,,,,80.8726892,-38.58088600000003,117.7567696
imu,386.5259,,,,,,,83.0943996,-39.32552520000001,115.1444288
imu,386.627218,,,,,,,80.8238604,-38.38557080000002,117.598076
imu,387.525031,-0.3834159448,-9.530966715200002,2.8537870088,0.73284465,1.68927165,-4.48333412,,,
imu,387.533494,-0.3935845424,-9.564463272000001,2.837636883200001,0.8823828499999999,1.54721036,-4.35622665,,,
imu,387.541958,-0.3929863896,-9.558481744000002,2.82627198,1.06182869,1.40514907,-4.31136519,,,
imu,387.550423,-0.3870048616000001,-9.5602762024,2.8364405776,1.21136689,1.50982581,-4.30388828,,,
imu,387.558888,-0.3941826952,-9.5865949256,2.843020258400001,1.20388998,1.41262598,-4.146873169999999,,,
imu,387.567353,-0.3923882368,-9.591978300800001,2.8466091752,1.12164397,1.30794924,-4.146873169999999,,,
imu,387.575818,-0.4031549872,-9.6039413568,2.8537870088,1.00949032,1.22570323,-4.07210407,,,
imu,387.584282,-0.3893974728000001,-9.617698871200002,2.8448147168,0.94967504,1.39767216,-3.69078166,,,
imu,387.592747,-0.3929863896,-9.599156134400001,2.832253508,0.8375213899999999,1.32290306,-3.496382,,,
imu,387.601212,-0.3947808480000001,-9.5698466472,2.8089255488,1.00201341,1.25561087,-3.51133582,,,
imu,387.609677,-0.4097346680000001,-9.587193078400002,2.8190941464,1.16650543,1.13598031,-3.61601256,,,
imu,387.618142,-0.4145198904,-9.600352440000002,2.8244775216,1.24875144,0.9565344699999998,-3.71321239,,,
imu,387.626607,-0.4145198904,-9.5949690648,2.8286645912,1.30856672,0.8219500899999996,-3.81788913,,,
imu,387.635071,-0.4276792520000001,-9.593772759200002,2.825075674400001,1.30108981,0.8593346399999997,-3.93751969,,,
imu,387.643536,-0.4420349192,-9.609922884800001,2.8286645912,1.33099745,0.9789651999999998,-4.057150249999999,,,
imu,387.652001,-0.4510072112,-9.6087265792,2.831655355200001,1.18145925,0.9939190199999999,-4.00481188,,,
imu,387.660466,-0.442633072,-9.6248767048,2.8370387304,1.19641307,1.11354958,-3.92256587,,,
imu,387.668931,-0.4438293776000001,-9.6290637744,2.8418239528,1.0693056,1.28551851,-3.74312003,,,
imu,387.677395,-0.451605364,-9.618297024,2.8466091752,0.65807555,1.37524143,-3.81788913,,,
imu,387.68586,-0.4474182944000001,-9.609922884800001,2.8484036336,0.52349117,1.43505671,-3.86275059,,,
imu,387.694325,-0.4330626272,-9.614109954400002,2.8490017864,0.52349117,1.46496435,-3.99733497,,,
imu,387.70279,-0.4414367664,-9.609324732000001,2.8364405776,0.44872207,1.56964109,-4.079580979999999,,,
imu,387.711255,-0.4450256832000001,-9.596763523200002,2.8519925504,0.38142988,1.60702564,-3.8702275,,,
imu,387.719719,-0.4390441552000001,-9.600352440000002,2.832253508,0.26927623,1.71170238,-3.58610492,,,
imu,387.728184,-0.43366078,-9.6039413568,2.8490017864,0.3739529699999999,1.83880985,-3.35432071,,,
imu,387.736649,-0.4378478496000001,-9.591978300800001,2.8615629952,0.55339881,2.00330187,-3.30198234,,,
imu,387.745478,-0.442633072,-9.5865949256,2.863955606400001,0.44124516,2.01825569,-3.25712088,,,
imu,387.754307,-0.4240903352000001,-9.5812115504,2.8484036336,0.58330645,2.05564024,-3.37675144,,,
imu,387.763136,-0.4073420568000001,-9.5812115504,2.8484036336,0.50853735,2.05564024,-3.60853565,,,
imu,387.771965,-0.3977716120000001,-9.588987536800001,2.859768536800001,0.5982602699999999,2.06311715,-3.60853565,,,
imu,387.780793,-0.4013605288,-9.591380148,2.8537870088,0.64312173,2.1005017,-3.61601256,,,
imu,387.789622,-0.3977716120000001,-9.5698466472,2.844216564,0.70293701,2.08554788,-3.78050458,,,
imu,387.798763,-0.4073420568000001,-9.5381445488,2.8424221056,0.6281679099999999,2.01825569,-3.68330475,,,
imu,387.807592,-0.4175106544000001,-9.553098368800002,2.8519925504,0.83004448,2.03320951,-3.50385891,,,
imu,387.816421,-0.4181088072000001,-9.564463272000001,2.8507962448,0.9870595899999999,2.0257326,-3.57862801,,,
imu,387.82525,-0.4127254320000001,-9.574631869600001,2.8448147168,1.09921324,2.07807097,-3.51133582,,,
imu,387.834079,-0.4121272792,-9.577024480800002,2.8585722312,1.13659779,2.16779389,-3.35432071,,,
imu,387.842907,-0.4019586816,-9.564463272000001,2.853188856,1.17398234,2.07059406,-3.28702852,,,
imu,387.851736,-0.4019586816,-9.553696521600001,2.853188856,1.33099745,2.16779389,-3.24964397,,,
imu,387.860565,-0.3983697648000001,-9.5602762024,2.8406276472,1.368382,2.19022462,-3.28702852,,,
imu,387.869394,-0.3959771536000001,-9.588389384000001,2.8585722312,1.38333582,2.16779389,-3.18235178,,,
imu,387.878223,-0.3923882368,-9.608128426400002,2.8543851616,1.23379762,2.15284007,-3.13001341,,,
imu,387.887052,-0.3923882368,-9.596165370400001,2.8436184112,1.21136689,2.2500399,-3.09262886,,,
imu,387.895881,-0.3876030144000001,-9.588389384000001,2.850198092000001,1.15155161,2.30985518,-2.93561375,,,
imu,387.904709,-0.3882011672000001,-9.5907819952,2.847207328000001,1.17398234,2.38462428,-2.83093701,,,
imu,387.913538,-0.3959771536000001,-9.591380148,2.843020258400001,1.12912088,2.324809,-2.95056757,,,
imu,387.922367,-0.3893974728000001,-9.6075302736,2.835244272,1.16650543,2.29490136,-3.07767504,,,
imu,387.931196,-0.376836264,-9.612913648800001,2.838235036,1.15902852,2.53416248,-2.86832156,,,
imu,387.940025,-0.3732473472,-9.630858232800001,2.845412869600001,1.09921324,2.55659321,-2.85336774,,,
imu,387.948524,-0.3553027632,-9.664952942400001,2.85617962,0.9347212199999999,2.55659321,-2.86832156,,,
imu,387.957023,-0.3684621248000001,-9.620689635200002,2.862161148000001,0.77770611,2.56407012,-2.98047521,,,
imu,387.965522,-0.3642750552,-9.575230022400001,2.8609648424,0.63564482,2.60145467,-3.09262886,,,
imu,387.974022,-0.3630787496,-9.5800152448,2.856777772800001,0.68050628,2.60145467,-3.16739796,,,
imu,387.982521,-0.3451341656,-9.592576453600001,2.859768536800001,0.65807555,2.59397776,-3.18235178,,,
imu,387.99102,-0.3343674152,-9.594370912,2.859170384,0.65807555,2.44443956,-3.18982869,,,
imu,387.999519,-0.3415452488,-9.595567217600001,2.8573759256,0.73284465,2.48182411,-3.23469015,,,
imu,388.008018,-0.3469286240000001,-9.562070660800002,2.8513943976,0.66555246,2.40705501,-3.35432071,,,
imu,388.016517,-0.3385544848000001,-9.5566872856,2.853188856,0.8973366700000001,2.35471664,-3.32441307,,,
imu,388.025016,-0.3337692624,-9.579417092000002,2.853188856,1.05435178,2.38462428,-3.1973056,,,
imu,388.033516,-0.3313766512,-9.576426328,2.852590703200001,0.91229049,2.24256299,-3.33936689,,,
imu,388.042015,-0.331974804,-9.5632669664,2.8573759256,0.9945364999999999,2.12293243,-3.62348947,,,
imu,388.050514,-0.3355637208,-9.568650341600001,2.8495999392,1.09173633,2.05564024,-3.67582784,,,
imu,388.059013,-0.3325729568,-9.599156134400001,2.8400294944,1.13659779,2.0257326,-3.69078166,,,
imu,388.067512,-0.3289840400000001,-9.612315496,2.8519925504,1.2188438,2.01077878,-3.55619728,,,
imu,388.076011,-0.3427415544,-9.599156134400001,2.8507962448,1.1440747,1.9509635,-3.59358183,,,
imu,388.08451,-0.3451341656,-9.574631869600001,2.8358424248,0.97958268,1.9509635,-3.53376655,,,
imu,388.09301,-0.3445360128,-9.5566872856,2.8370387304,1.11416706,1.89114822,-3.68330475,,,
imu,388.101509,-0.3355637208,-9.544126076800001,2.838235036,1.17398234,1.8014253,-4.0197657,,,
imu,388.110008,-0.331974804,-9.553098368800002,2.8448147168,1.27118217,1.84628676,-4.04967334,,,
imu,388.118507,-0.3433397072,-9.583006008800002,2.859768536800001,1.33099745,1.71170238,-4.169303899999999,,,
imu,388.127006,-0.34393786,-9.6218859408,2.841225800000001,1.35342818,1.59207182,-4.17678081,,,
imu,388.135505,-0.3582935272000001,-9.624278552000002,2.850198092000001,1.27865908,1.41262598,-4.08705789,,,
imu,388.144004,-0.3666676664,-9.623082246400001,2.864553759200001,1.24875144,1.44253362,-3.87770441,,,
imu,388.152439,-0.3738455000000001,-9.605735815200001,2.8555814672,1.28613599,1.65936401,-3.54124346,,,
imu,388.160873,-0.3672658192000001,-9.617698871200002,2.8513943976,1.34595127,1.70422547,-3.2720747,,,
imu,388.169307,-0.3642750552,-9.626671163200001,2.8310572024,1.42819728,1.62945637,-3.13001341,,,
imu,388.177742,-0.3630787496,-9.595567217600001,2.832253508,1.32352054,1.52477963,-3.13749032,,,
imu,388.186176,-0.3570972216000001,-9.587193078400002,2.8340479664,1.33847436,1.55468727,-3.27955161,,,
imu,388.19461,-0.3379563320000001,-9.5812115504,2.8161033824,1.43567419,1.53225654,-3.59358183,,,
imu,388.203045,-0.3403489432000001,-9.559678049600002,2.81131816,1.48053565,1.31542615,-3.87770441,,,
imu,388.211479,-0.3391526376000001,-9.572239258400002,2.8161033824,1.38333582,1.29299542,-3.95247351,,,
imu,388.219913,-0.3684621248000001,-9.592576453600001,2.8167015352,1.368382,1.2032725,-4.04219643,,,
imu,388.228347,-0.3816214864,-9.592576453600001,2.815505229600001,1.38333582,1.31542615,-3.91508896,,,
imu,388.236782,-0.391790084,-9.591380148,2.8137107712,1.43567419,1.43505671,-3.77302767,,,
imu,388.245216,-0.3947808480000001,-9.5949690648,2.819692299200001,1.39828964,1.45748744,-3.84031986,,,
imu,388.25365,-0.3941826952,-9.605735815200001,2.8286645912,1.24127453,1.47991817,-3.74312003,,,
imu,388.262085,-0.3846122504,-9.61530626,2.8149070768,1.18145925,1.59207182,-3.6459202,,,
imu,388.270519,-0.3720510416,-9.633250844,2.8167015352,1.02444414,1.47244126,-3.54872037,,,
imu,388.278953,-0.3493212352000001,-9.630858232800001,2.8065329376,0.9571519499999999,1.37524143,-3.496382,,,
imu,388.287387,-0.3630787496,-9.594370912,2.8107200072,0.8973366700000001,1.50982581,-3.41413599,,,
imu,388.295822,-0.3672658192000001,-9.595567217600001,2.820290452000001,0.8973366700000001,1.50982581,-3.50385891,,,
imu,388.304256,-0.385808556,-9.6009505928,2.8119163128,1.09173633,1.47991817,-3.68330475,,,
imu,388.31269,-0.3923882368,-9.620091482400001,2.814308924,1.13659779,1.36028761,-3.78050458,,,
imu,388.321125,-0.3882011672000001,-9.626671163200001,2.817897840800001,0.8973366700000001,1.2780416,-3.83284295,,,
imu,388.329559,-0.3911919312,-9.592576453600001,2.8274682856,0.6954601,1.24065705,-3.82536604,,,
imu,388.337993,-0.3929863896,-9.596165370400001,2.831655355200001,0.7702292,1.44253362,-3.78050458,,,
imu,386.728781,,,,,,,80.6895812,-38.26349880000001,117.0365448
imu,386.830343,,,,,,,80.3966084,-38.4466068,117.8666344
imu,386.931936,,,,,,,80.8848964,-39.08138120000002,117.84222
imu,387.041281,,,,,,,81.04359000000001,-38.40998520000001,117.7445624
imu,387.142874,,,,,,,80.55530200000001,-38.73957960000001,116.9144728
imu,387.244406,,,,,,,80.6407524,-38.70295800000001,117.9154632
imu,387.345999,,,,,,,82.996742,-39.61849800000002,116.0843832
imu,387.447531,,,,,,,80.55530200000001,-39.19124600000001,117.3051032
imu,388.346428,-0.3995660704000001,-9.624278552000002,2.8328516608,0.8823828499999999,1.42010289,-3.7954584,,,
imu,388.35489,-0.3911919312,-9.636839760800001,2.8268701328,0.74779847,1.51730272,-3.77302767,,,
imu,388.363352,-0.3893974728000001,-9.641624983200002,2.8340479664,0.7552753799999999,1.70422547,-3.68330475,,,
imu,388.371814,-0.3923882368,-9.6009505928,2.832253508,0.53096808,1.76404075,-3.54872037,,,
imu,388.380277,-0.3929863896,-9.571042952800001,2.838235036,0.29170696,1.89862513,-3.51881273,,,
imu,388.388739,-0.385808556,-9.5865949256,2.8585722312,0.43376825,1.85376367,-3.59358183,,,
imu,388.397201,-0.3684621248000001,-9.610521037600002,2.8478054808,0.44872207,1.82385603,-3.83284295,,,
imu,388.405663,-0.3696584304000001,-9.5985579816,2.8513943976,0.29918387,1.71917929,-3.98985806,,,
imu,388.414126,-0.370854736,-9.592576453600001,2.8633574536,0.28423005,1.75656384,-4.0197657,,,
imu,388.422588,-0.3893974728000001,-9.599156134400001,2.8603666896,0.29170696,1.80890221,-3.6459202,,,
imu,388.43105,-0.3983697648000001,-9.604539509600002,2.8627593008,0.19450713,1.71170238,-3.43656672,,,
imu,388.439513,-0.3899956256000001,-9.595567217600001,2.862161148000001,0.27675314,1.82385603,-3.36927453,,,
imu,388.447975,-0.3810233336,-9.560874355200001,2.8537870088,0.25432241,1.86124058,-3.39918217,,,
imu,388.456437,-0.3744436528,-9.552500216,2.877114968,0.29918387,1.74908693,-3.57862801,,,
imu,388.464899,-0.3606861384,-9.5638651192,2.8579740784,0.5010604399999999,1.74161002,-3.59358183,,,
imu,388.473362,-0.3642750552,-9.565061424800001,2.8495999392,0.50853735,1.7266562,-3.60853565,,,
imu,388.481824,-0.3702565832000001,-9.540537160000001,2.8424221056,0.57582954,1.70422547,-3.66835093,,,
imu,388.490286,-0.3738455000000001,-9.539939007200001,2.8507962448,0.76275229,1.61450255,-3.83284295,,,
imu,388.498748,-0.3780325696000001,-9.530966715200002,2.8400294944,0.8823828499999999,1.45001053,-3.90761205,,,
imu,388.507211,-0.385808556,-9.531564868,2.831655355200001,1.03192105,1.40514907,-3.97490424,,,
imu,388.515673,-0.4049494456000001,-9.536350090400001,2.8184959936,1.20388998,1.53225654,-3.90013514,,,
imu,388.524135,-0.3911919312,-9.5602762024,2.8274682856,1.48053565,1.62945637,-3.56367419,,,
imu,388.532597,-0.385808556,-9.575828175200002,2.815505229600001,1.51044329,1.62197946,-3.44404363,,,
imu,388.54106,-0.3804251808,-9.599754287200001,2.8268701328,1.74970441,1.66684092,-3.37675144,,,
imu,388.549522,-0.3780325696000001,-9.627867468800002,2.8286645912,1.80204278,1.54721036,-3.3468438,,,
imu,388.557983,-0.376836264,-9.646410205600002,2.823281216,1.83195042,1.62945637,-3.18982869,,,
imu,388.566444,-0.3905937784,-9.66016772,2.8298608968,1.75718132,1.68179474,-3.07767504,,,
imu,388.574905,-0.3911919312,-9.676915998400002,2.832253508,1.63007385,1.70422547,-3.20478251,,,
imu,388.583366,-0.3864067088000001,-9.685888290400001,2.8448147168,1.21136689,1.62945637,-3.13749032,,,
imu,388.591827,-0.406743904,-9.6703363176,2.841225800000001,0.9571519499999999,1.59954873,-3.15244414,,,
imu,388.600288,-0.4019586816,-9.6505972752,2.8268701328,0.73284465,1.74161002,-3.07767504,,,
imu,388.608749,-0.4127254320000001,-9.678112304,2.8436184112,0.55339881,1.99582496,-2.95804448,,,
imu,388.61721,-0.4031549872,-9.658373261600001,2.8460110224,0.28423005,2.1752708,-2.92813684,,,
imu,388.625671,-0.3983697648000001,-9.599754287200001,2.845412869600001,0.05244583999999999,2.36219355,-2.95804448,,,
imu,388.634132,-0.3977716120000001,-9.591380148,2.8358424248,-0.25410747,2.48182411,-3.10010577,,,
imu,388.642593,-0.3953790008,-9.578818939200001,2.838235036,-0.11952309,2.64631613,-3.07019813,,,
imu,388.651054,-0.3899956256000001,-9.546518688,2.820290452000001,-0.29149202,2.78837742,-3.08515195,,,
imu,388.659515,-0.3804251808,-9.522592576000001,2.8274682856,-0.31392275,2.87810034,-3.31693616,,,
imu,388.667976,-0.3606861384,-9.531564868,2.852590703200001,-0.06718472,3.2220382,-3.4216129,,,
imu,388.676437,-0.3505175408000001,-9.5219944232,2.8513943976,0.03001510999999998,3.2968073,-3.4216129,,,
imu,388.684898,-0.3457323184,-9.513022131200001,2.8513943976,0.0001074699999999984,3.21456129,-3.54124346,,,
imu,388.693359,-0.3421434016,-9.524387034400002,2.854983314400001,-0.08213854000000001,3.28185348,-3.72816621,,,
imu,388.70182,-0.3283858872000001,-9.553696521600001,2.8723297456,0.21693786,3.19960747,-3.83284295,,,
imu,388.710281,-0.3092449976000001,-9.556089132800002,2.8747223568,0.35899915,3.25194584,-3.78798149,,,
imu,388.718742,-0.311039456,-9.557285438400001,2.8795075792,0.4711528,3.28185348,-3.68330475,,,
imu,388.727203,-0.296085636,-9.572239258400002,2.8932650936,0.5010604399999999,3.12483837,-3.69825857,,,
imu,388.735664,-0.2853188856,-9.575828175200002,2.88608726,0.44872207,2.90053107,-3.68330475,,,
imu,388.744125,-0.28412258,-9.5865949256,2.8944613992,0.3889067899999999,2.64631613,-3.7954584,,,
imu,388.752586,-0.2972819416,-9.599754287200001,2.8974521632,0.56087572,2.58650085,-3.72816621,,,
imu,388.761406,-0.290104108,-9.602745051200001,2.895059552,0.5982602699999999,2.37714737,-3.70573548,,,
imu,388.770225,-0.2996745528,-9.6039413568,2.8944613992,0.55339881,2.08554788,-3.84779677,,,
imu,388.779045,-0.2996745528,-9.610521037600002,2.887283565600001,0.68050628,2.06311715,-3.60853565,,,
imu,388.787864,-0.3158246784000001,-9.610521037600002,2.9046299968,0.56087572,1.66684092,-3.63096638,,,
imu,388.796684,-0.3134320672,-9.573435564,2.898050316,0.50853735,1.47244126,-4.04967334,,,
imu,388.805503,-0.3158246784000001,-9.5489112992,2.887283565600001,0.36647606,1.23318014,-4.26650373,,,
imu,388.814323,-0.3283858872000001,-9.566257730400002,2.910013372,0.3963837,1.2032725,-4.07210407,,,
imu,388.823143,-0.3451341656,-9.589585689600002,2.905228149600001,0.41133752,1.03878048,-3.91508896,,,
imu,388.831962,-0.3487230824000001,-9.573435564,2.9034336912,0.41133752,1.03878048,-3.80293531,,,
imu,388.840782,-0.3487230824000001,-9.591978300800001,2.9076207608,0.26927623,0.9565344699999998,-3.89265823,,,
imu,388.849601,-0.3714528888,-9.591380148,2.9028355384,0.35899915,1.13598031,-3.52628964,,,
imu,388.858421,-0.3822196392,-9.565061424800001,2.9064244552,0.41881443,1.26308778,-3.31693616,,,
imu,388.867241,-0.3612842912,-9.539939007200001,2.892068788,0.46367589,1.37524143,-3.20478251,,,
imu,388.87606,-0.361882444,-9.523190728800001,2.899246621600001,0.67302937,1.44253362,-3.18982869,,,
imu,388.88488,-0.3636769024000001,-9.535153784800002,2.8944613992,0.77770611,1.34533379,-3.53376655,,,
imu,388.893621,-0.3385544848000001,-9.530368562400001,2.8848909544,1.04687487,1.41262598,-3.55619728,,,
imu,388.90244,-0.3247969704000001,-9.4831144912,2.8723297456,1.02444414,1.37524143,-3.93004278,,,
imu,388.91126,-0.3259932760000001,-9.4633754488,2.8693389816,1.33099745,1.2032725,-4.26650373,,,
imu,388.92008,-0.340947096,-9.478329268800001,2.865151912,1.49548947,1.09111885,-4.52819558,,,
imu,388.928899,-0.3553027632,-9.498666464000001,2.862161148000001,1.83942733,1.09859576,-4.5431494,,,
imu,388.937719,-0.3672658192000001,-9.520798117600002,2.877713120800001,1.91419643,1.01634975,-4.78988743,,,
imu,388.946538,-0.3774344168000001,-9.553098368800002,2.88608726,1.92167334,1.06868812,-4.70016451,,,
imu,388.955358,-0.3935845424,-9.544126076800001,2.8675445232,1.89924261,1.10607267,-4.48333412,,,
imu,388.963835,-0.4037531400000001,-9.5501076048,2.87113344,2.116073,1.13598031,-4.20668845,,,
imu,388.972313,-0.3971734592000001,-9.596763523200002,2.88608726,2.28804193,1.30047233,-3.87770441,,,
imu,388.98079,-0.3726491944000001,-9.614109954400002,2.8747223568,2.2656112,1.2780416,-3.71321239,,,
imu,388.989268,-0.3756399584,-9.596763523200002,2.8789094264,2.19831901,1.37524143,-3.60853565,,,
imu,388.997746,-0.3750418056000001,-9.611119190400002,2.8813020376,2.25065738,1.51730272,-3.57862801,,,
imu,389.006223,-0.3816214864,-9.610521037600002,2.8693389816,2.07868845,1.48739508,-3.77302767,,,
imu,389.014701,-0.3804251808,-9.621287788000002,2.8699371344,2.07121154,1.45001053,-4.012288789999999,,,
imu,389.023178,-0.3870048616000001,-9.635045302400002,2.8717315928,2.07121154,1.48739508,-4.37118047,,,
imu,387.549064,,,,,,,82.691562,-39.80160600000002,115.2054648
imu,387.650596,,,,,,,80.9581396,-38.91048040000003,117.781184
imu,387.752159,,,,,,,80.9947612,-38.94710200000002,116.6337072
imu,387.853721,,,,,,,80.8848964,-38.73957960000001,117.8910488
imu,387.955284,,,,,,,80.9947612,-38.61750760000002,117.1586168
imu,388.064659,,,,,,,80.81165320000001,-38.82503000000001,117.1586168
imu,388.166282,,,,,,,81.14124760000001,-38.80061560000001,117.6713192
imu,388.267784,,,,,,,80.50647319999999,-38.71516520000002,117.1830312
imu,389.031656,-0.4049494456000001,-9.614708107200002,2.877114968,1.83942733,1.55468727,-4.66277996,,,
imu,389.040133,-0.3864067088000001,-9.578220786400001,2.8268701328,1.77213514,1.54721036,-4.737549059999999,,,
imu,389.048611,-0.3786307224000001,-9.630858232800001,2.863955606400001,1.97401171,1.6518871,-4.625395409999999,,,
imu,389.057088,-0.3989679176000001,-9.648204664000001,2.859170384,1.86185806,1.70422547,-4.49828794,,,
imu,389.065566,-0.4049494456000001,-9.6296619272,2.8615629952,1.73475059,1.75656384,-4.56558013,,,
imu,389.074043,-0.3882011672000001,-9.6039413568,2.8603666896,1.56278166,1.7266562,-4.63287232,,,
imu,389.082521,-0.3792288752000001,-9.572239258400002,2.862161148000001,1.47305874,1.81637912,-4.5431494,,,
imu,389.090998,-0.382817792,-9.567454036,2.87113344,1.33099745,1.77151766,-4.49828794,,,
imu,389.099476,-0.3911919312,-9.6009505928,2.8687408288,1.36090509,1.71170238,-4.647826139999999,,,
imu,389.107953,-0.3798270280000001,-9.617698871200002,2.854983314400001,1.37585891,1.45748744,-4.70016451,,,
imu,389.116431,-0.3852104032000001,-9.574631869600001,2.859768536800001,1.24875144,1.28551851,-4.670256869999999,,,
imu,389.124908,-0.4091365152000001,-9.531564868,2.8609648424,1.30856672,1.33037997,-4.46090339,,,
imu,389.133386,-0.4372496968000001,-9.530368562400001,2.853188856,1.39081273,1.31542615,-4.16182699,,,
imu,389.141864,-0.4294737104000001,-9.556089132800002,2.8466091752,1.63755076,1.24065705,-3.98238115,,,
imu,389.150341,-0.4372496968000001,-9.550705757600001,2.8370387304,1.85438115,1.36776452,-3.97490424,,,
imu,389.158819,-0.4462219888000001,-9.537546396000002,2.847207328000001,1.88428879,1.41262598,-4.034719519999999,,,
imu,389.167286,-0.4468201416000001,-9.585996772800002,2.8513943976,2.05625772,1.36776452,-4.244073,,,
imu,389.175753,-0.4462219888000001,-9.595567217600001,2.832253508,2.20579592,1.42010289,-4.37118047,,,
imu,389.184221,-0.4324644744,-9.554892827200002,2.8149070768,2.25813429,1.5023489,-4.33379592,,,
imu,389.192688,-0.4372496968000001,-9.5501076048,2.819692299200001,2.407672489999999,1.64441019,-4.363703559999999,,,
imu,389.201155,-0.4653628784000001,-9.569248494400002,2.8089255488,2.50487232,1.70422547,-4.49081103,,,
imu,389.209623,-0.4689517952000001,-9.6159044128,2.8190941464,2.68431816,1.89114822,-4.44594957,,,
imu,389.21809,-0.4611758088,-9.617698871200002,2.8095237016,2.52730305,2.01077878,-4.453426479999999,,,
imu,389.226557,-0.4743351704000001,-9.61530626,2.8065329376,2.52730305,2.05564024,-4.41604193,,,
imu,389.235025,-0.4623721144,-9.619493329600001,2.8119163128,2.53477996,2.21265535,-4.146873169999999,,,
imu,389.243492,-0.4557924336,-9.620689635200002,2.799355104,2.4899185,2.44443956,-3.84779677,,,
imu,389.25196,-0.4420349192,-9.61530626,2.8035421736,2.3403803,2.54163939,-3.6459202,,,
imu,389.260427,-0.4354552384000001,-9.618895176800002,2.8035421736,2.23570356,2.60893158,-3.496382,,,
imu,389.268894,-0.4300718632,-9.620091482400001,2.793373576,2.18336519,2.60893158,-3.33188998,,,
imu,389.277362,-0.4205014184,-9.6428212888,2.780812367200001,2.10859609,2.52668557,-3.30198234,,,
imu,389.285829,-0.4270810992000001,-9.651793580800001,2.7909809648,2.00391935,2.55659321,-3.32441307,,,
imu,389.294296,-0.4276792520000001,-9.658971414400002,2.7939717288,1.86933497,2.59397776,-3.36179762,,,
imu,389.302764,-0.4318663216,-9.639232372,2.7951680344,1.79456587,2.5491163,-3.32441307,,,
imu,389.311231,-0.4210995712,-9.627867468800002,2.7897846592,1.53287402,2.69117759,-3.13749032,,,
imu,389.319698,-0.4187069600000001,-9.635045302400002,2.7909809648,1.49548947,2.66874686,-3.27955161,,,
imu,389.328166,-0.4175106544000001,-9.6535880392,2.805336632,1.41324346,2.78090051,-3.30198234,,,
imu,389.336633,-0.4097346680000001,-9.6434194416,2.7927754232,1.27865908,2.90800798,-3.30945925,,,
imu,389.3451,-0.406743904,-9.634447149600001,2.78141052,1.08425942,2.90800798,-3.31693616,,,
imu,389.353568,-0.4085383624000001,-9.623082246400001,2.7867938952,0.9571519499999999,2.96034635,-3.37675144,,,
imu,389.362035,-0.391790084,-9.630260080000001,2.7826068256,1.00201341,3.03511545,-3.39918217,,,
imu,389.370495,-0.3840140976,-9.6015487456,2.787392048000001,0.9646288599999999,3.20708438,-3.45899745,,,
imu,389.378955,-0.3576953744,-9.602745051200001,2.773634533600001,1.09921324,3.2220382,-3.496382,,,
imu,389.387414,-0.3672658192000001,-9.610521037600002,2.7861957424,0.97210577,3.25942275,-3.77302767,,,
imu,389.395874,-0.361882444,-9.5985579816,2.7897846592,1.03939796,3.0725,-3.80293531,,,
imu,389.404334,-0.3523119992,-9.575828175200002,2.78141052,1.12912088,3.00520781,-3.83284295,,,
imu,389.412794,-0.3451341656,-9.589585689600002,2.790382812,1.20388998,2.82576197,-3.99733497,,,
imu,389.421253,-0.3636769024000001,-9.618297024,2.7855975896,1.2188438,2.73603905,-3.99733497,,,
imu,389.429713,-0.3535083048,-9.614708107200002,2.793373576,1.2936129,2.55659321,-4.10948862,,,
imu,389.438173,-0.3493212352000001,-9.5907819952,2.7939717288,1.15155161,2.3995781,-4.30388828,,,
imu,389.446632,-0.3636769024000001,-9.592576453600001,2.802345868,1.2188438,2.24256299,-4.27398064,,,
imu,389.455092,-0.3756399584,-9.617100718400001,2.8071310904,1.26370526,2.05564024,-4.25154991,,,
imu,389.463552,-0.3929863896,-9.6284656216,2.7927754232,1.27865908,2.01825569,-4.20668845,,,
imu,389.472012,-0.3702565832000001,-9.632054538400002,2.773634533600001,1.30856672,2.00330187,-3.9449966,,,
imu,389.480471,-0.3822196392,-9.619493329600001,2.7772234504,1.09173633,2.01825569,-3.72816621,,,
imu,389.488931,-0.4061457512000001,-9.625474857600002,2.793373576,1.00201341,1.79394839,-3.71321239,,,
imu,389.497391,-0.4163143488000001,-9.599754287200001,2.7951680344,0.9571519499999999,1.60702564,-3.96742733,,,
imu,389.50585,-0.4073420568000001,-9.5740337168,2.7748308392,0.7702292,1.62945637,-3.97490424,,,
imu,389.51431,-0.4055475984,-9.597361676,2.7766252976,0.80761375,1.58459491,-3.96742733,,,
imu,389.52277,-0.4252866408000001,-9.6290637744,2.799355104,0.9945364999999999,1.68927165,-3.95247351,,,
imu,389.53123,-0.4539979752000001,-9.599156134400001,2.81131816,0.76275229,1.68179474,-3.95247351,,,
imu,389.539689,-0.4617739616000001,-9.591380148,2.8107200072,0.79265993,1.88367131,-3.89265823,,,
imu,389.548149,-0.4510072112,-9.631456385600002,2.805336632,0.97210577,2.13040934,-3.7206893,,,
imu,389.556609,-0.4492127528000001,-9.644017594400001,2.8035421736,1.00949032,2.30985518,-3.4216129,,,
imu,389.565069,-0.4599795032,-9.630260080000001,2.804140326400001,0.8674290299999999,2.64631613,-3.26459779,,,
imu,389.573535,-0.4563905864000001,-9.6290637744,2.7999532568,0.83004448,2.93043871,-3.21973633,,,
imu,389.582001,-0.4222958768,-9.6284656216,2.7981587984,0.97210577,3.13979219,-3.28702852,,,
imu,389.590467,-0.3852104032000001,-9.621287788000002,2.79636434,0.9945364999999999,3.27437657,-3.32441307,,,
imu,389.598933,-0.3684621248000001,-9.602745051200001,2.787392048000001,0.9571519499999999,3.30428421,-3.55619728,,,
imu,389.607399,-0.3648732080000001,-9.584800467200001,2.7855975896,1.03939796,3.10988455,-3.81041222,,,
imu,389.615865,-0.35889168,-9.564463272000001,2.7838031312,0.9048135799999999,3.18465365,-3.87770441,,,
imu,389.624331,-0.3612842912,-9.5566872856,2.778419756,0.8749059399999999,2.9229618,-3.84031986,,,
imu,389.632797,-0.3594898328000001,-9.5704448,2.784401284,0.8449983,2.68370068,-3.68330475,,,
imu,389.641263,-0.3816214864,-9.5865949256,2.7879902008,0.83004448,2.51920866,-3.55619728,,,
imu,389.649729,-0.3660695136000001,-9.606932120800002,2.7915791176,0.7702292,2.43696265,-3.47395127,,,
imu,389.658196,-0.3786307224000001,-9.596763523200002,2.79636434,0.67302937,2.29490136,-3.39170526,,,
imu,389.666662,-0.3762381112000001,-9.596763523200002,2.81131816,0.64312173,2.13788625,-3.37675144,,,
imu,389.675128,-0.382817792,-9.618895176800002,2.805934784800001,0.66555246,2.04816333,-3.14496723,,,
imu,389.683594,-0.3840140976,-9.630858232800001,2.8184959936,0.7104139199999999,2.00330187,-2.91318302,,,
imu,389.69206,-0.3792288752000001,-9.6075302736,2.814308924,0.5982602699999999,1.8014253,-3.11505959,,,
imu,389.700526,-0.3959771536000001,-9.595567217600001,2.817299688,0.66555246,1.78647148,-3.21973633,,,
imu,389.708992,-0.4025568344,-9.614708107200002,2.8167015352,0.6281679099999999,1.62945637,-3.30945925,,,
imu,389.717458,-0.4264829464000001,-9.618297024,2.8208886048,0.6281679099999999,1.7266562,-3.24216706,,,
imu,389.725924,-0.4199032656,-9.6015487456,2.8101218544,0.6281679099999999,2.03320951,-3.21225942,,,
imu,389.73439,-0.4073420568000001,-9.5842023144,2.8071310904,0.51601426,2.15284007,-3.29450543,,,
imu,389.742856,-0.4037531400000001,-9.593174606400002,2.8167015352,0.60573718,2.27994754,-3.2720747,,,
imu,389.751322,-0.4019586816,-9.6159044128,2.805336632,0.4861066199999999,2.324809,-3.39170526,,,
imu,389.759789,-0.4031549872,-9.641026830400001,2.832253508,0.80761375,2.37714737,-3.496382,,,
imu,389.768255,-0.3738455000000001,-9.637437913600001,2.8184959936,0.67302937,2.46687029,-3.6459202,,,
imu,389.777089,-0.3780325696000001,-9.600352440000002,2.8274682856,0.5459219,2.56407012,-3.70573548,,,
imu,389.785923,-0.3798270280000001,-9.588987536800001,2.841225800000001,0.43376825,2.51173175,-3.63844329,,,
imu,389.794757,-0.3702565832000001,-9.604539509600002,2.8370387304,0.44872207,2.51173175,-3.59358183,,,
imu,389.803591,-0.3475267768,-9.6015487456,2.8328516608,0.59078336,2.49677793,-3.69825857,,,
imu,389.812426,-0.3523119992,-9.575828175200002,2.845412869600001,0.40386061,2.27247063,-3.6459202,,,
imu,389.82126,-0.3606861384,-9.578220786400001,2.8400294944,0.51601426,2.38462428,-3.31693616,,,
imu,389.830094,-0.3666676664,-9.573435564,2.8406276472,0.42629134,2.16779389,-2.9729983,,,
imu,389.838928,-0.35889168,-9.583006008800002,2.8358424248,0.6132140899999999,2.06311715,-2.91318302,,,
imu,388.369346,,,,,,,80.61633800000001,-38.93489480000001,117.9398776
imu,388.470909,,,,,,,82.9845348,-39.55746200000001,116.3407344
imu,388.572502,,,,,,,80.2012932,-38.27570600000001,117.903256
imu,388.674858,,,,,,,83.668138,-39.43539000000001,115.5960952
imu,388.775596,,,,,,,80.799446,-38.62971480000002,117.0731664
imu,388.877189,,,,,,,80.5675092,-38.49543560000001,115.5594736
imu,388.978721,,,,,,,80.6529596,-38.64192200000001,117.9154632
imu,389.080437,,,,,,,80.6651668,-38.93489480000001,117.4271752
imu,389.847762,-0.3553027632,-9.555490980000002,2.835244272,0.6281679099999999,2.22013226,-2.95804448,,,
imu,389.856596,-0.3343674152,-9.519003659200001,2.8364405776,0.65807555,2.1005017,-2.91318302,,,
imu,389.865431,-0.3295821928000001,-9.5184055064,2.8310572024,0.9945364999999999,2.12293243,-2.9729983,,,
imu,389.874265,-0.3367600264,-9.536948243200001,2.8208886048,1.15902852,2.0257326,-3.16739796,,,
imu,389.883099,-0.3541064576,-9.522592576000001,2.8280664384,1.15902852,1.8014253,-3.18982869,,,
imu,389.891933,-0.3702565832000001,-9.5291722568,2.843020258400001,1.45062801,1.70422547,-3.2720747,,,
imu,389.900767,-0.3624805968,-9.553098368800002,2.8340479664,1.73475059,1.78647148,-3.28702852,,,
imu,389.909601,-0.3433397072,-9.576426328,2.8394313416,1.77961205,1.71917929,-3.39170526,,,
imu,389.918436,-0.3541064576,-9.588389384000001,2.8400294944,1.97401171,1.68927165,-3.47395127,,,
imu,389.92727,-0.3780325696000001,-9.612315496,2.8400294944,1.99644244,1.64441019,-3.56367419,,,
imu,389.936104,-0.3834159448,-9.620091482400001,2.8406276472,2.0413039,1.7266562,-3.4216129,,,
imu,389.944938,-0.3630787496,-9.619493329600001,2.8358424248,1.95158098,1.81637912,-3.33188998,,,
imu,389.953772,-0.3630787496,-9.624278552000002,2.838235036,1.99644244,1.8761944,-3.36927453,,,
imu,389.962606,-0.3612842912,-9.6159044128,2.82627198,1.8917657,1.8014253,-3.55619728,,,
imu,389.971441,-0.3696584304000001,-9.609922884800001,2.8137107712,1.80204278,1.77151766,-3.57862801,,,
imu,389.979899,-0.3810233336,-9.610521037600002,2.8095237016,1.78708896,1.73413311,-3.48890509,,,
imu,389.988586,-0.382817792,-9.624278552000002,2.8077292432,1.89924261,1.95844041,-3.4216129,,,
imu,389.997045,-0.3780325696000001,-9.6284656216,2.7999532568,1.84690424,1.93600968,-3.50385891,,,
imu,390.005503,-0.3816214864,-9.596763523200002,2.7820086728,1.80951969,2.04816333,-3.44404363,,,
imu,390.013961,-0.3852104032000001,-9.597959828800002,2.779616061600001,1.86933497,2.01077878,-3.42908981,,,
imu,390.02242,-0.370854736,-9.5985579816,2.7628677832,2.13102682,2.22760917,-3.43656672,,,
imu,390.030878,-0.3594898328000001,-9.593174606400002,2.7509047272,2.116073,2.36219355,-3.5711511,,,
imu,390.039337,-0.3648732080000001,-9.6009505928,2.7646622416,2.12354991,2.4743472,-3.62348947,,,
imu,390.047795,-0.3600879856,-9.6009505928,2.7491102688,2.04878081,2.46687029,-3.73564312,,,
imu,390.056254,-0.3523119992,-9.604539509600002,2.7610733248,2.03382699,2.43696265,-3.83284295,,,
imu,390.064712,-0.3391526376000001,-9.613511801600001,2.750306574400001,2.07868845,2.45191647,-3.89265823,,,
imu,390.073171,-0.3469286240000001,-9.6326526912,2.7532973384,2.05625772,2.43696265,-4.00481188,,,
imu,390.081629,-0.3367600264,-9.635045302400002,2.746119504800001,1.95158098,2.54163939,-3.93751969,,,
imu,390.090088,-0.3212080536,-9.621287788000002,2.7449231992,1.88428879,2.48182411,-3.90013514,,,
imu,390.098546,-0.3241988176,-9.605735815200001,2.7431287408,1.64502767,2.27247063,-4.19921154,,,
imu,390.107004,-0.3271895816000001,-9.627269316000001,2.742530588,1.62259694,2.00330187,-4.25902682,,,
imu,390.115463,-0.3361618736,-9.6458120528,2.7401379768,1.57025857,1.92853277,-4.25902682,,,
imu,390.123921,-0.3355637208,-9.6494009696,2.7556899496,1.39828964,1.71917929,-4.18425772,,,
imu,390.13238,-0.3331711096,-9.671532623200001,2.747913963200001,1.38333582,1.56216418,-4.23659609,,,
imu,390.140838,-0.3313766512,-9.665551095200001,2.759877019200001,1.24875144,1.5023489,-4.124442439999999,,,
imu,390.149297,-0.3487230824000001,-9.6494009696,2.746119504800001,1.13659779,1.50982581,-3.88518132,,,
imu,390.157755,-0.3648732080000001,-9.636839760800001,2.7491102688,0.9945364999999999,1.32290306,-3.73564312,,,
imu,390.166214,-0.3576953744,-9.6296619272,2.7562881024,0.85995212,1.24813396,-3.95995042,,,
imu,390.174672,-0.3547046104000001,-9.641026830400001,2.763465936,0.7702292,0.9640113799999996,-4.22911918,,,
imu,390.183134,-0.3606861384,-9.630260080000001,2.759877019200001,0.63564482,0.8967191899999998,-4.49828794,,,
imu,390.191597,-0.3870048616000001,-9.624278552000002,2.7700456168,0.59078336,0.8742884599999998,-4.26650373,,,
imu,390.200059,-0.4073420568000001,-9.637437913600001,2.78141052,0.58330645,0.9116730099999999,-4.0197657,,,
imu,390.208521,-0.4091365152000001,-9.6667474008,2.7820086728,0.41881443,0.9714882899999999,-3.99733497,,,
imu,390.216983,-0.4139217376000001,-9.641624983200002,2.7820086728,0.28423005,1.01634975,-3.95995042,,,
imu,390.225446,-0.4270810992000001,-9.632054538400002,2.79636434,0.23189168,1.24065705,-4.012288789999999,,,
imu,390.233908,-0.4372496968000001,-9.633848996800001,2.7909809648,0.20198404,1.47991817,-3.70573548,,,
imu,389.182093,,,,,,,80.8848964,-38.95930920000001,117.9276704
imu,389.283655,,,,,,,81.01917560000001,-38.61750760000002,117.8300128
imu,389.385218,,,,,,,81.08021160000001,-38.87385880000001,117.6835264
imu,389.486811,,,,,,,81.54408520000001,-38.73957960000001,117.84222
imu,389.588343,,,,,,,83.53385879999999,-38.84944440000002,117.2562744
imu,389.689905,,,,,,,81.287734,-38.53205720000001,117.3295176
imu,389.791468,,,,,,,83.60710200000001,-39.39876840000001,114.8392488
imu,389.89303,,,,,,,81.21449080000001,-38.75178680000002,117.964292
imu,389.994593,,,,,,,81.00696839999999,-39.20345320000001,114.79042
imu,390.096857,,,,,,,80.75061720000001,-39.02034520000002,117.8788416
imu,390.197718,,,,,,,81.08021160000001,-38.4466068,117.8178056
