Type,Timestamp,Data Accelerometer X,Data Accelerometer Y,Data Accelerometer Z,Data Gyroscope X,Data Gyroscope Y,Data Gyroscope Z,Data Magnetometer X,Data Magnetometer Y,Data Magnetometer Z
imu,92.551448,-0.5778156048000002,-9.560874355200001,2.5176251352,-0.5756146,37.47376291,-6.69649948,,,
imu,92.559911,-0.5443190480000001,-9.5949690648,2.5367660248,-0.31392275,36.72607190999999,-6.83108386,,,
imu,92.568373,-0.5185984776000001,-9.642223136000002,2.566075512,-0.21672292,35.92604254,-7.145114079999999,,,
imu,92.576835,-0.5012520464000001,-9.634447149600001,2.5523179976,-0.10456927,35.10358244,-7.37689829,,,
imu,92.585297,-0.4647647256,-9.6075302736,2.5547106088,-0.04475399000000001,34.1016765,-7.67597469,,,
imu,92.59376,-0.4629702672000001,-9.612913648800001,2.5726551928,0.09730729999999999,33.14463202,-7.99000491,,,
imu,92.602222,-0.4354552384000001,-9.6224840936,2.5696644288,0.30666078,32.12029535,-7.96009727,,,
imu,92.610684,-0.3870048616000001,-9.6224840936,2.5738514984,0.23936859,30.92398975,-7.70588233,,,
imu,92.619146,-0.3499193880000001,-9.632054538400002,2.5774404152,0.35899915,29.55571522,-7.578774859999999,,,
imu,92.627609,-0.3259932760000001,-9.652989886400002,2.5941886936,0.32909151,27.87341047,-7.52643649,,,
imu,92.636071,-0.3337692624,-9.6523917336,2.578636720800001,0.2468455,26.30325937,-7.227360089999999,,,
imu,92.644533,-0.3481249296000001,-9.636241608,2.5828237904,0.23936859,24.6060008,-6.973145150000001,,,
imu,92.652996,-0.3445360128,-9.632054538400002,2.5953849992,0.08983038999999998,23.14800335,-6.43480763,,,
imu,92.661458,-0.3445360128,-9.645213900000002,2.6043572912,-0.09709236,21.54794461,-5.74693191,,,
imu,92.66992,-0.3792288752000001,-9.633848996800001,2.5828237904,-0.11952309,19.98527042,-5.29831731,,,
imu,92.678382,-0.4139217376000001,-9.6159044128,2.5702625816,-0.17186146,18.63942662,-4.93942563,,,
imu,92.686851,-0.4360533912000001,-9.597959828800002,2.588207165600001,-0.03727708,17.49545939,-4.42351884,,,
imu,92.69532,-0.4533998224,-9.623082246400001,2.607946208,0.0001074699999999984,16.63561474,-3.98238115,,,
imu,92.703788,-0.481513004,-9.630260080000001,2.6115351248,-0.18681528,15.76081627,-3.67582784,,,
imu,92.712257,-0.5048409632,-9.627867468800002,2.6157221944,-0.34383039,14.95330999,-3.30198234,,,
imu,92.720725,-0.5455153536,-9.630858232800001,2.6121332776,-0.33635348,14.45983393,-3.0477674,,,
imu,92.729194,-0.5736285352000001,-9.6296619272,2.6234981808,-0.32887657,14.32524955,-2.76364482,,,
imu,92.737663,-0.6077232448000001,-9.627269316000001,2.622900028000001,-0.38121494,14.25795736,-2.51690679,,,
imu,92.746131,-0.5999472584000001,-9.638634219200002,2.6234981808,-0.32139966,14.24300354,-2.35241477,,,
imu,92.7546,-0.6089195504,-9.6499991224,2.6252926392,-0.32139966,14.31777264,-2.24026112,,,
imu,92.763069,-0.6077232448000001,-9.6434194416,2.6324704728,-0.45598404,14.62432595,-2.13558438,,,
imu,92.771537,-0.5951620360000001,-9.6284656216,2.6336667784,-0.41859949,14.87854089,-2.14306129,,,
imu,92.780006,-0.5849934384000001,-9.6296619272,2.6534058208,-0.58309151,14.90844853,-2.3748455,,,
imu,92.788474,-0.58319898,-9.623680399200001,2.6516113624,-0.5008455,15.05798673,-2.33746095,,,
imu,92.796857,-0.5808063688,-9.6051376624,2.6492187512,-0.56066078,15.53650897,-2.48699915,,,
imu,92.805326,-0.5837971328000001,-9.606333968000001,2.649816904,-0.59056842,15.69352408,-2.50195297,,,
imu,92.813795,-0.5610673264,-9.6218859408,2.6522095152,-0.52327623,16.00007739,-2.72626027,,,
imu,92.822263,-0.5299633808,-9.6075302736,2.6635744184,-0.4260764,16.25429233,-2.80102937,,,
imu,92.830732,-0.5114206440000001,-9.5907819952,2.6581910432,-0.59056842,16.37392289,-3.04029049,,,
imu,92.8392,-0.5018501992000001,-9.581809703200001,2.652807668,-0.58309151,16.49355345,-3.26459779,,,
imu,92.847669,-0.4809148512,-9.585996772800002,2.6653688768,-0.48589168,16.58327637,-3.47395127,,,
imu,92.856138,-0.4581850448000001,-9.591380148,2.673144863200001,-0.37373803,16.66552238,-3.57862801,,,
imu,92.864606,-0.4354552384000001,-9.6009505928,2.6779300856,-0.37373803,16.33653834,-3.96742733,,,
imu,92.873075,-0.4216977240000001,-9.588987536800001,2.679724544,-0.16438455,16.22438469,-4.18425772,,,
imu,92.881544,-0.4097346680000001,-9.577024480800002,2.6743411688,-0.02232326000000001,16.20195396,-4.0945348,,,
imu,92.890355,-0.3905937784,-9.568650341600001,2.6779300856,0.08983038999999998,15.95521593,-4.18425772,,,
imu,92.899167,-0.3654713608,-9.5698466472,2.6815190024,0.20946095,15.5589397,-4.52071867,,,
imu,92.907978,-0.352910152,-9.585996772800002,2.689893141600001,0.41133752,15.16266347,-4.715118329999999,,,
imu,92.91679,-0.3570972216000001,-9.588987536800001,2.6821171552,0.63564482,14.56451067,-4.8422258,,,
imu,92.925602,-0.3427415544,-9.5776226336,2.685706072000001,0.7702292,14.13084989,-4.991764,,,
imu,92.934413,-0.3301803456000001,-9.590183842400002,2.700659892,0.97210577,13.59251237,-5.13382529,,,
imu,92.943225,-0.3277877344,-9.593174606400002,2.7048469616,1.1440747,13.00183648,-5.20859439,,,
imu,92.952037,-0.3259932760000001,-9.585996772800002,2.6988654336,1.18893616,12.38872986,-5.32074804,,,
imu,92.960848,-0.3295821928000001,-9.577024480800002,2.6904912944,1.2188438,11.62608504,-5.56000916,,,
imu,92.96966,-0.3259932760000001,-9.567454036,2.6845097664,1.28613599,10.85596331,-5.806747189999999,,,
imu,92.978471,-0.323002512,-9.5590798968,2.6880986832,1.39081273,10.01854939,-6.046008309999999,,,
imu,92.987283,-0.3493212352000001,-9.582407856000001,2.703650656000001,1.56278166,9.24095075,-5.9637623,,,
imu,92.996095,-0.3612842912,-9.6009505928,2.7024543504,1.71979677,8.69513632,-5.77683955,,,
imu,93.004906,-0.3505175408000001,-9.61530626,2.7144174064,1.68988913,8.03716824,-5.67216281,,,
imu,93.013718,-0.3582935272000001,-9.606932120800002,2.712622948,1.63007385,7.35676943,-5.39551714,,,
imu,93.02253,-0.3887993200000001,-9.6296619272,2.7180063232,1.80204278,6.863293369999999,-5.01419473,,,
imu,93.031341,-0.3899956256000001,-9.646410205600002,2.7054451144,1.76465823,6.54926315,-4.453426479999999,,,
imu,93.040153,-0.3786307224000001,-9.632054538400002,2.6875005304,1.83942733,6.25766366,-3.91508896,,,
imu,93.048964,-0.3882011672000001,-9.612913648800001,2.682715308000001,1.98148862,6.00344872,-3.54124346,,,
imu,93.057776,-0.4055475984,-9.6009505928,2.6641725712,2.00391935,5.3903421,-3.65339711,,,
imu,93.066588,-0.400762376,-9.600352440000002,2.645629834400001,2.06373463,5.03145042,-3.60853565,,,
imu,93.075399,-0.4049494456000001,-9.596763523200002,2.6486205984,2.0413039,4.739850929999999,-3.65339711,,,
imu,93.084211,-0.4139217376000001,-9.585996772800002,2.6372556952,2.05625772,4.410866889999999,-3.92256587,,,
imu,93.092798,-0.4282774048000001,-9.573435564,2.6282834032,2.17588828,4.05945212,-4.057150249999999,,,
imu,93.101385,-0.4408386136,-9.591380148,2.6474242928,2.25065738,3.87252937,-4.20668845,,,
imu,93.109972,-0.454596128,-9.609922884800001,2.6516113624,2.31047266,3.69308353,-4.22911918,,,
imu,93.118558,-0.4557924336,-9.630858232800001,2.637853848,2.33290339,3.61083752,-4.11696553,,,
imu,93.127145,-0.481513004,-9.639232372,2.6450316816,2.22822665,3.56597606,-4.11696553,,,
imu,93.135732,-0.4737370176,-9.644017594400001,2.6534058208,2.116073,3.64074516,-3.98238115,,,
imu,93.144319,-0.4599795032,-9.6494009696,2.6426390704,2.00391935,3.69308353,-3.88518132,,,
imu,93.152906,-0.4611758088,-9.630260080000001,2.624694486400001,2.01139626,3.64822207,-3.83284295,,,
imu,93.161493,-0.4641665728000001,-9.617100718400001,2.6055535968,1.86933497,3.63326825,-3.85527368,,,
imu,93.17008,-0.4839056152000001,-9.624278552000002,2.6091425136,1.79456587,3.81271409,-3.80293531,,,
imu,93.178667,-0.4892889904,-9.6458120528,2.619909264,1.90671952,3.71551426,-3.88518132,,,
imu,93.187253,-0.4791203928000001,-9.669140012000002,2.6211055696,1.83942733,3.66317589,-3.95247351,,,
imu,93.19584,-0.4707462536000001,-9.659569567200002,2.6306760144,1.54782784,3.83514482,-4.08705789,,,
imu,93.204427,-0.4821111568000001,-9.664952942400001,2.6444335288,1.5179202,3.90243701,-4.04967334,,,
imu,93.213014,-0.4916816016,-9.676317845600002,2.6432372232,1.50296638,3.98468302,-4.22911918,,,
imu,93.221601,-0.4886908376000001,-9.690075360000002,2.634264931200001,1.26370526,4.08935976,-4.31136519,,,
imu,93.230188,-0.4821111568000001,-9.692467971200001,2.646227987200001,1.0693056,4.23142105,-4.31136519,,,
imu,93.238775,-0.4779240872000001,-9.682897526400001,2.646227987200001,0.9646288599999999,4.31366706,-4.22911918,,,
imu,93.247362,-0.4671573368000001,-9.6637566368,2.64682614,0.80013684,4.37348234,-4.25154991,,,
imu,93.255949,-0.4845037680000001,-9.6326526912,2.634264931200001,0.60573718,4.35105161,-4.43847266,,,
imu,93.264535,-0.4988594352000001,-9.641624983200002,2.6516113624,0.68798319,4.36600543,-4.52819558,,,
imu,93.273122,-0.4880926848000001,-9.664952942400001,2.6492187512,0.60573718,4.23889796,-4.647826139999999,,,
imu,93.281709,-0.4809148512,-9.638634219200002,2.6486205984,0.46367589,4.16412886,-4.7674567,,,
imu,93.290296,-0.4827093096,-9.6218859408,2.6504150568,0.44124516,4.13422122,-4.715118329999999,,,
imu,93.298654,-0.4988594352000001,-9.631456385600002,2.6653688768,0.29918387,3.98468302,-4.65530305,,,
imu,93.307012,-0.5006538936,-9.6260730104,2.657592890400001,0.45619898,4.09683667,-4.32631901,,,
imu,93.31537,-0.4851019208000001,-9.613511801600001,2.64682614,0.42629134,4.194036499999999,-4.15435008,,,
imu,93.323728,-0.505439116,-9.597361676,2.668957793600001,0.22441477,4.07440594,-4.28145755,,,
imu,93.332086,-0.4862982264000001,-9.597361676,2.667163335200001,0.28423005,4.06692903,-4.20668845,,,
imu,93.340444,-0.4833074624000001,-9.597959828800002,2.6581910432,0.33656842,4.02206757,-4.169303899999999,,,
imu,93.348802,-0.4683536424000001,-9.589585689600002,2.6563965848,0.47862971,3.72299117,-4.21416536,,,
imu,93.35716,-0.4773259344000001,-9.568052188800001,2.645629834400001,0.42629134,3.34166876,-4.30388828,,,
imu,93.365518,-0.4940742128000001,-9.559678049600002,2.6360593896,0.6954601,3.08745382,-4.22911918,,,
imu,93.373876,-0.517402172,-9.5704448,2.6426390704,0.82256757,2.93791562,-4.28893446,,,
imu,93.382234,-0.5191966304000001,-9.5740337168,2.6366575424,0.8674290299999999,2.69117759,-4.40108811,,,
imu,93.390592,-0.5395338256000001,-9.571042952800001,2.6390501536,0.9197674,2.59397776,-4.42351884,,,
imu,93.39895,-0.5491042704000001,-9.557883591200001,2.637853848,1.2188438,2.51920866,-4.33379592,,,
imu,93.407308,-0.5556839512000001,-9.5740337168,2.6360593896,1.48801256,2.74351596,-4.08705789,,,
imu,93.415666,-0.5437208952000001,-9.6075302736,2.6294797088,1.62259694,2.79585433,-3.87770441,,,
imu,93.424024,-0.517402172,-9.61530626,2.640844612,1.54035093,2.69117759,-3.66835093,,,
imu,93.432382,-0.535346756,-9.612315496,2.6324704728,1.52539711,2.6986545,-3.59358183,,,
imu,93.44074,-0.5449172008000001,-9.613511801600001,2.613927736,1.63007385,2.61640849,-3.39918217,,,
imu,93.449098,-0.5467116592000001,-9.632054538400002,2.622900028000001,1.76465823,2.60893158,-3.33936689,,,
imu,93.457456,-0.5347486032000001,-9.635643455200002,2.619909264,1.70484295,2.72856214,-3.28702852,,,
imu,93.465814,-0.5275707696,-9.630260080000001,2.615124041600001,1.72727368,2.66126995,-3.29450543,,,
imu,93.474172,-0.5305615336,-9.630858232800001,2.615124041600001,1.80204278,2.57902394,-3.18982869,,,
imu,93.48253,-0.5269726168000001,-9.6499991224,2.6175166528,1.95158098,2.5491163,-3.02533667,,,
imu,93.490888,-0.5245800056000001,-9.676915998400002,2.6163203472,1.91419643,2.50425484,-3.00290594,,,
imu,93.499348,-0.5150095608,-9.672728928800002,2.610936972000001,1.68988913,2.55659321,-2.91318302,,,
imu,93.507808,-0.5090280328000001,-9.6667474008,2.607946208,1.50296638,2.52668557,-2.74121409,,,
imu,93.516267,-0.5000557408,-9.6637566368,2.6043572912,1.36090509,2.57902394,-2.65896808,,,
imu,93.524727,-0.4976631296000001,-9.6523917336,2.6025628328,1.20388998,2.4743472,-2.6739219,,,
imu,93.533187,-0.4940742128000001,-9.632054538400002,2.592992388,1.03192105,2.45939338,-2.60662971,,,
imu,93.541646,-0.4862982264000001,-9.636839760800001,2.597179457600001,1.04687487,2.56407012,-2.53186061,,,
imu,93.550106,-0.4791203928000001,-9.635045302400002,2.6025628328,0.9571519499999999,2.44443956,-2.59167589,,,
imu,93.558566,-0.4671573368000001,-9.636839760800001,2.5923942352,0.8749059399999999,2.45939338,-2.63653735,,,
imu,93.567026,-0.4659610312,-9.6428212888,2.5905997768,0.9197674,2.45939338,-2.61410662,,,
imu,93.575485,-0.4707462536000001,-9.647606511200001,2.60196468,0.73284465,2.30985518,-2.77112173,,,
imu,93.583945,-0.4605776560000001,-9.654784344800001,2.601366527200001,0.65807555,2.43696265,-2.72626027,,,
imu,93.592405,-0.4605776560000001,-9.652989886400002,2.607946208,0.6281679099999999,2.50425484,-2.73373718,,,
imu,93.600865,-0.4539979752000001,-9.6523917336,2.6085443608,0.44872207,2.33228591,-2.87579847,,,
imu,93.609324,-0.4581850448000001,-9.635643455200002,2.606749902400001,0.5010604399999999,2.33976282,-2.71878336,,,
imu,93.617784,-0.4510072112,-9.630260080000001,2.6163203472,0.35899915,2.44443956,-2.55429134,,,
imu,93.626244,-0.4456238360000001,-9.6290637744,2.6121332776,0.28423005,2.5491163,-2.51690679,,,
imu,93.634703,-0.4372496968000001,-9.633848996800001,2.6193111112,0.29918387,2.50425484,-2.65149117,,,
imu,93.643163,-0.4330626272,-9.632054538400002,2.6282834032,0.3889067899999999,2.50425484,-2.56176825,,,
imu,93.651623,-0.4205014184,-9.621287788000002,2.6091425136,0.35899915,2.68370068,-2.44213769,,,
imu,93.660083,-0.4139217376000001,-9.6284656216,2.6223018752,0.41133752,2.75099287,-2.41970696,,,
imu,93.668542,-0.4240903352000001,-9.642223136000002,2.624694486400001,0.41133752,2.7734236,-2.16549202,,,
imu,93.677002,-0.4073420568000001,-9.636839760800001,2.6252926392,0.38142988,2.86314652,-2.17296893,,,
imu,93.685462,-0.3959771536000001,-9.618297024,2.6240963336,0.23936859,2.71360832,-2.58419898,,,
imu,93.693922,-0.3965753064,-9.591380148,2.6264889448,0.27675314,2.66126995,-3.02533667,,,
imu,93.702388,-0.4205014184,-9.584800467200001,2.628881556000001,0.3739529699999999,2.72108523,-3.13001341,,,
imu,93.710854,-0.4145198904,-9.6159044128,2.6432372232,0.44124516,2.61640849,-3.18982869,,,
imu,93.71932,-0.3965753064,-9.641624983200002,2.641442764800001,0.56087572,2.76594669,-3.07767504,,,
imu,93.727786,-0.3864067088000001,-9.636241608,2.652807668,0.42629134,2.73603905,-3.25712088,,,
imu,93.736252,-0.4061457512000001,-9.645213900000002,2.664770724000001,0.42629134,2.72856214,-3.26459779,,,
imu,93.744718,-0.4013605288,-9.657775108800001,2.6665651824,0.33656842,2.79585433,-3.18982869,,,
imu,93.753184,-0.3983697648000001,-9.646410205600002,2.6629762656,0.28423005,2.9229618,-2.87579847,,,
imu,93.76165,-0.3911919312,-9.639232372,2.6641725712,0.1720764,2.9229618,-2.64401426,,,
imu,93.770116,-0.3750418056000001,-9.599754287200001,2.6504150568,0.20946095,3.02016163,-2.66644499,,,
imu,93.778582,-0.3624805968,-9.572837411200002,2.6450316816,0.34404533,3.19960747,-2.61410662,,,
imu,93.787048,-0.3451341656,-9.5501076048,2.6396483064,0.38142988,3.02016163,-2.93561375,,,
imu,93.795515,-0.3505175408000001,-9.555490980000002,2.6282834032,0.58330645,2.91548489,-3.27955161,,,
imu,93.803981,-0.3403489432000001,-9.5566872856,2.6264889448,0.85995212,2.75846978,-3.54872037,,,
imu,93.812447,-0.3421434016,-9.561472508000001,2.640844612,1.12912088,2.67622377,-3.65339711,,,
imu,93.820913,-0.3469286240000001,-9.5812115504,2.646227987200001,1.22632071,2.48182411,-3.88518132,,,
imu,93.829379,-0.3481249296000001,-9.597361676,2.6629762656,1.17398234,2.28742445,-4.00481188,,,
imu,93.837845,-0.3517138464,-9.620091482400001,2.6653688768,1.33847436,2.26499372,-3.75059694,,,
imu,93.846311,-0.3451341656,-9.591978300800001,2.6516113624,1.33099745,2.25751681,-3.63844329,,,
imu,93.854777,-0.3445360128,-9.631456385600002,2.6426390704,1.45810492,2.11545552,-3.45899745,,,
imu,93.863243,-0.3451341656,-9.658971414400002,2.6569947376,1.41324346,2.07807097,-3.40665908,,,
imu,93.871709,-0.3343674152,-9.636241608,2.648022445600001,1.34595127,1.94348659,-3.53376655,,,
imu,93.880175,-0.3535083048,-9.609324732000001,2.6504150568,1.2936129,1.82385603,-3.69078166,,,
imu,93.888541,-0.370854736,-9.6284656216,2.6516113624,1.18145925,1.6518871,-3.85527368,,,
imu,93.897007,-0.3714528888,-9.635643455200002,2.646227987200001,1.08425942,1.4275798,-3.97490424,,,
imu,93.905828,-0.3720510416,-9.623680399200001,2.637853848,1.08425942,1.30047233,-4.02724261,,,
imu,93.914649,-0.3947808480000001,-9.624278552000002,2.6450316816,1.03939796,1.19579559,-4.23659609,,,
imu,93.92347,-0.4103328208,-9.627269316000001,2.6354612368,1.00201341,1.23318014,-4.25154991,,,
imu,93.932291,-0.4085383624000001,-9.632054538400002,2.6420409176,1.03192105,1.24813396,-4.19173463,,,
imu,93.941112,-0.4097346680000001,-9.635045302400002,2.6432372232,1.07678251,1.2780416,-4.0945348,,,
imu,93.949933,-0.4139217376000001,-9.638634219200002,2.641442764800001,1.13659779,1.36776452,-4.02724261,,,
imu,93.958753,-0.4133235848,-9.6458120528,2.6366575424,1.12164397,1.39767216,-3.98238115,,,
imu,93.967574,-0.4061457512000001,-9.6009505928,2.6211055696,0.9272443100000001,1.39767216,-4.124442439999999,,,
imu,93.976395,-0.4097346680000001,-9.5949690648,2.6426390704,0.9347212199999999,1.42010289,-4.04219643,,,
imu,93.985216,-0.4228940296000001,-9.620689635200002,2.6563965848,1.16650543,1.40514907,-4.079580979999999,,,
imu,93.994037,-0.4151180432000001,-9.634447149600001,2.6354612368,1.2188438,1.41262598,-4.102011709999999,,,
imu,94.002858,-0.406743904,-9.618297024,2.6396483064,1.26370526,1.42010289,-4.02724261,,,
imu,94.011679,-0.4288755576000001,-9.603343204000002,2.6492187512,1.03939796,1.27056469,-4.28893446,,,
imu,94.0205,-0.4444275304,-9.636241608,2.6635744184,1.16650543,1.55468727,-4.17678081,,,
imu,92.63134,,,,,,,87.330298,-43.21962200000002,119.795372
imu,92.732902,,,,,,,86.56124439999999,-43.37831560000001,117.6102832
imu,92.834465,,,,,,,85.54804680000001,-43.25624360000002,119.5878496
imu,92.936027,,,,,,,85.682326,-42.98768520000002,118.3427152
imu,93.03762,,,,,,,84.47381320000001,-42.40173960000002,117.7933912
imu,93.139183,,,,,,,85.1574164,-42.90223480000002,117.3417248
imu,93.240715,,,,,,,84.3151196,-42.79237000000003,116.9388872
imu,94.029321,-0.4456238360000001,-9.633848996800001,2.6312741672,1.18145925,1.75656384,-3.98985806,,,
imu,94.038142,-0.4450256832000001,-9.613511801600001,2.627685250400001,1.19641307,1.84628676,-3.8702275,,,
imu,94.046963,-0.451605364,-9.600352440000002,2.6360593896,1.16650543,1.90610204,-4.012288789999999,,,
imu,94.055783,-0.4450256832000001,-9.6039413568,2.6234981808,1.39081273,1.95844041,-4.10948862,,,
imu,94.064604,-0.4258847936,-9.6224840936,2.6252926392,1.5179202,2.05564024,-4.22911918,,,
imu,94.073425,-0.4270810992000001,-9.639232372,2.627685250400001,1.49548947,2.04816333,-4.33379592,,,
imu,94.082246,-0.4205014184,-9.631456385600002,2.6264889448,1.38333582,2.14536316,-4.42351884,,,
imu,94.091067,-0.4312681688,-9.619493329600001,2.6252926392,1.41324346,2.07059406,-4.4683803,,,
imu,94.099888,-0.4462219888000001,-9.627269316000001,2.6121332776,1.48053565,2.03320951,-4.37118047,,,
imu,94.108359,-0.4551942808000001,-9.640428677600001,2.622900028000001,1.45062801,2.13788625,-4.28145755,,,
imu,94.11683,-0.4498109056,-9.6284656216,2.6145258888,1.30856672,2.13040934,-4.26650373,,,
imu,94.125302,-0.4420349192,-9.6290637744,2.5983757632,1.32352054,2.14536316,-4.124442439999999,,,
imu,94.133773,-0.4581850448000001,-9.638634219200002,2.5947868464,1.40576655,2.23508608,-3.91508896,,,
imu,94.142244,-0.4569887392,-9.6290637744,2.5947868464,1.34595127,2.21265535,-3.90761205,,,
imu,94.150715,-0.4510072112,-9.6218859408,2.5935905408,1.58521239,2.20517844,-3.82536604,,,
imu,94.159186,-0.4312681688,-9.618297024,2.6001702216,1.50296638,2.29490136,-3.69825857,,,
imu,94.167657,-0.4462219888000001,-9.631456385600002,2.595983152,1.4431511,2.24256299,-3.7206893,,,
imu,94.176129,-0.4611758088,-9.633250844,2.599572068800001,1.45810492,2.25751681,-3.59358183,,,
imu,94.1846,-0.4528016696000001,-9.6470083584,2.601366527200001,1.48053565,2.31733209,-3.70573548,,,
imu,94.193071,-0.4498109056,-9.636241608,2.5953849992,1.48801256,2.22013226,-3.7206893,,,
imu,94.201542,-0.4587831976000001,-9.6505972752,2.5977776104,1.58521239,2.22760917,-3.86275059,,,
imu,94.210013,-0.4539979752000001,-9.662560331200002,2.60196468,1.56278166,2.39210119,-4.012288789999999,,,
imu,94.218484,-0.4480164472000001,-9.6523917336,2.6061517496,1.41324346,2.46687029,-4.079580979999999,,,
imu,94.226956,-0.4563905864000001,-9.639232372,2.597179457600001,1.31604363,2.53416248,-4.079580979999999,,,
imu,94.235427,-0.4593813504000001,-9.630260080000001,2.590001624000001,1.32352054,2.60893158,-4.06462716,,,
imu,94.243898,-0.4390441552000001,-9.633250844,2.60196468,1.31604363,2.66126995,-4.19173463,,,
imu,94.252369,-0.4354552384000001,-9.635045302400002,2.5894034712,1.19641307,2.68370068,-4.04967334,,,
imu,94.26084,-0.4378478496000001,-9.635045302400002,2.5917960824,1.11416706,2.7734236,-3.89265823,,,
imu,94.269311,-0.430670016,-9.6326526912,2.5935905408,1.05435178,2.6238854,-3.88518132,,,
imu,94.277783,-0.4049494456000001,-9.6326526912,2.5935905408,1.04687487,2.85566961,-3.90761205,,,
imu,94.286254,-0.4103328208,-9.619493329600001,2.585814554400001,1.15902852,2.84071579,-3.81041222,,,
imu,94.294725,-0.4079402096,-9.6248767048,2.5894034712,1.15155161,2.69117759,-3.98238115,,,
imu,94.303196,-0.4109309736,-9.635643455200002,2.5726551928,1.32352054,2.78837742,-4.08705789,,,
imu,94.31167,-0.4109309736,-9.6224840936,2.5714588872,1.42072037,2.56407012,-4.22164227,,,
imu,94.320144,-0.4294737104000001,-9.6296619272,2.5852164016,1.55530475,2.52668557,-4.3936112,,,
imu,94.328617,-0.4420349192,-9.6470083584,2.6001702216,1.57773548,2.50425484,-4.53567249,,,
imu,94.337091,-0.4390441552000001,-9.634447149600001,2.5947868464,1.50296638,2.41453192,-4.66277996,,,
imu,94.345565,-0.442633072,-9.6326526912,2.597179457600001,1.51044329,2.50425484,-4.64034923,,,
imu,94.354038,-0.4384460024000001,-9.6912716656,2.590001624000001,1.33847436,2.66126995,-4.70764142,,,
imu,94.362512,-0.4372496968000001,-9.7008421104,2.5577013728,1.34595127,2.6986545,-4.55062631,,,
imu,94.370986,-0.4468201416000001,-9.6703363176,2.570860734400001,1.18145925,2.8481927,-4.28893446,,,
imu,94.37946,-0.4563905864000001,-9.648204664000001,2.5864127072,1.09921324,2.93043871,-4.0945348,,,
imu,94.387933,-0.4599795032,-9.634447149600001,2.5744496512,1.03939796,2.80333124,-4.0945348,,,
imu,94.396407,-0.4420349192,-9.633250844,2.578636720800001,0.9870595899999999,2.87062343,-4.28893446,,,
imu,94.404881,-0.4330626272,-9.651195428000001,2.587609012800001,0.91229049,2.9977309,-4.52819558,,,
imu,94.413354,-0.4366515440000001,-9.658971414400002,2.6043572912,1.09173633,3.05006927,-4.25902682,,,
imu,94.421828,-0.4486146000000001,-9.6733270816,2.6031609856,0.9197674,3.05754618,-4.18425772,,,
imu,94.430302,-0.4402404608,-9.680504915200002,2.613329583200001,0.82256757,3.16222292,-3.9449966,,,
imu,94.438776,-0.4420349192,-9.668541859200001,2.6043572912,0.73284465,3.28933039,-3.71321239,,,
imu,94.447249,-0.4348570856000001,-9.681103068,2.6169185,0.56835263,3.43886859,-3.45152054,,,
imu,94.455723,-0.4210995712,-9.687084596000002,2.6223018752,0.52349117,3.48373005,-3.1973056,,,
imu,94.464197,-0.4163143488000001,-9.671532623200001,2.613927736,0.32909151,3.47625314,-3.10010577,,,
imu,94.47267,-0.3786307224000001,-9.661962178400001,2.601366527200001,0.29170696,3.51363769,-3.02533667,,,
imu,94.481144,-0.3648732080000001,-9.636839760800001,2.6025628328,0.4711528,3.43139168,-3.07019813,,,
imu,94.489618,-0.3547046104000001,-9.6159044128,2.5852164016,0.52349117,3.33419185,-3.21225942,,,
imu,94.498092,-0.3463304712,-9.6075302736,2.5894034712,0.46367589,3.1472691,-3.36179762,,,
imu,94.506565,-0.3379563320000001,-9.597959828800002,2.6085443608,0.46367589,2.7734236,-3.43656672,,,
imu,94.515024,-0.3331711096,-9.588987536800001,2.597179457600001,0.44872207,2.30237827,-3.57862801,,,
imu,94.523482,-0.3415452488,-9.6009505928,2.613927736,0.42629134,2.04068642,-3.60853565,,,
imu,94.531941,-0.3451341656,-9.596763523200002,2.6181148056,0.3739529699999999,1.86124058,-3.55619728,,,
imu,94.540399,-0.3559009160000001,-9.603343204000002,2.610936972000001,0.30666078,1.59207182,-3.52628964,,,
imu,94.548858,-0.3582935272000001,-9.597959828800002,2.6091425136,0.35899915,1.27056469,-3.46647436,,,
imu,94.557316,-0.3606861384,-9.595567217600001,2.613329583200001,0.57582954,1.24065705,-3.38422835,,,
imu,94.565774,-0.3762381112000001,-9.591380148,2.620507416800001,0.67302937,1.00887284,-3.26459779,,,
imu,94.574233,-0.3810233336,-9.597361676,2.607946208,0.7253677399999999,0.8967191899999998,-3.22721324,,,
imu,94.582691,-0.3911919312,-9.61530626,2.6169185,0.9272443100000001,0.84438082,-3.26459779,,,
imu,94.59115,-0.4043512928,-9.627269316000001,2.615124041600001,1.04687487,0.8219500899999996,-3.46647436,,,
imu,94.599608,-0.400762376,-9.620091482400001,2.6157221944,1.03192105,0.7471809899999999,-3.7206893,,,
imu,94.608067,-0.4199032656,-9.6260730104,2.6115351248,1.06182869,0.64250425,-3.86275059,,,
imu,94.616525,-0.43366078,-9.632054538400002,2.6127314304,1.06182869,0.5378275100000001,-4.13939626,,,
imu,94.624984,-0.4354552384000001,-9.644615747200001,2.6157221944,1.18145925,0.7995193599999997,-4.318842099999999,,,
imu,94.633442,-0.4420349192,-9.652989886400002,2.6234981808,1.28613599,1.06868812,-4.32631901,,,
imu,94.641901,-0.4474182944000001,-9.654784344800001,2.6025628328,1.18893616,1.07616503,-4.33379592,,,
imu,94.650359,-0.4432312248,-9.664952942400001,2.6061517496,1.09921324,1.19579559,-4.42351884,,,
imu,94.658817,-0.4324644744,-9.66016772,2.6007683744,1.20388998,1.39019525,-4.35622665,,,
imu,94.667276,-0.4450256832000001,-9.620689635200002,2.598973916,1.03939796,1.45001053,-4.29641137,,,
imu,94.675734,-0.4420349192,-9.620689635200002,2.5947868464,0.9197674,1.56964109,-4.37865738,,,
imu,94.684193,-0.4300718632,-9.6523917336,2.5846182488,1.16650543,1.5023489,-4.363703559999999,,,
imu,94.692651,-0.4193051128000001,-9.658373261600001,2.5744496512,1.23379762,1.40514907,-4.49081103,,,
imu,94.70111,-0.4210995712,-9.648204664000001,2.587609012800001,0.94967504,1.22570323,-4.57305704,,,
imu,94.709568,-0.4450256832000001,-9.655382497600002,2.6007683744,1.00949032,1.41262598,-4.341272829999999,,,
imu,94.718382,-0.4444275304,-9.665551095200001,2.587609012800001,0.97958268,1.59207182,-3.96742733,,,
imu,94.727197,-0.4462219888000001,-9.666149248000002,2.5726551928,0.80761375,1.56216418,-3.87770441,,,
imu,94.736011,-0.4498109056,-9.658373261600001,2.570860734400001,0.78518302,1.62197946,-3.81041222,,,
imu,94.744825,-0.4581850448000001,-9.6458120528,2.5846182488,0.7403215599999999,1.58459491,-3.88518132,,,
imu,94.75364,-0.4372496968000001,-9.640428677600001,2.5798330264,0.7552753799999999,1.67431783,-3.97490424,,,
imu,94.762454,-0.4378478496000001,-9.635045302400002,2.581029332,0.620691,1.56964109,-4.06462716,,,
imu,94.771268,-0.4462219888000001,-9.6326526912,2.578038568,0.38142988,1.41262598,-4.25154991,,,
imu,94.780082,-0.4504090584,-9.638036066400002,2.5953849992,0.12721494,1.30794924,-4.37118047,,,
imu,94.788897,-0.4468201416000001,-9.623082246400001,2.5905997768,0.20946095,1.38271834,-4.37118047,,,
imu,94.797711,-0.4587831976000001,-9.614109954400002,2.5744496512,0.36647606,1.47244126,-4.363703559999999,,,
imu,94.806525,-0.4761296288000001,-9.635045302400002,2.5756459568,0.49358353,1.50982581,-4.32631901,,,
imu,94.815339,-0.4737370176,-9.6296619272,2.580431179200001,0.44872207,1.51730272,-4.102011709999999,,,
imu,94.824154,-0.4695499480000001,-9.617100718400001,2.5947868464,0.38142988,1.71170238,-4.102011709999999,,,
imu,94.832968,-0.4617739616000001,-9.623680399200001,2.5983757632,0.2468455,1.66684092,-4.0197657,,,
imu,94.841782,-0.4551942808000001,-9.6284656216,2.6091425136,0.44124516,1.65936401,-3.76555076,,,
imu,93.343803,,,,,,,86.9152532,-44.15957640000001,116.8290224
imu,93.44384,,,,,,,84.26629080000001,-42.79237000000003,117.353932
imu,93.545402,,,,,,,86.86642440000001,-43.36610840000002,114.3387536
imu,93.646965,,,,,,,83.70475960000002,-42.89002760000002,117.1952384
imu,93.748527,,,,,,,84.11980439999999,-42.9510636,114.8026272
imu,93.85009,,,,,,,83.90007479999998,-42.79237000000003,117.1464096
imu,93.952812,,,,,,,84.29070519999999,-42.38953240000001,117.170824
imu,94.053245,,,,,,,84.1808404,-42.54822600000001,117.8666344
imu,94.850597,-0.4492127528000001,-9.6296619272,2.613927736,0.36647606,1.59207182,-3.93751969,,,
imu,94.859411,-0.4575868920000001,-9.608128426400002,2.595983152,0.45619898,1.68927165,-3.76555076,,,
imu,94.868225,-0.4539979752000001,-9.602745051200001,2.5905997768,0.55339881,1.8014253,-3.67582784,,,
imu,94.877039,-0.4581850448000001,-9.599754287200001,2.5941886936,0.65059864,1.81637912,-3.63844329,,,
imu,94.885854,-0.4581850448000001,-9.610521037600002,2.595983152,0.81509066,1.92105586,-3.51881273,,,
imu,94.894668,-0.4492127528000001,-9.636241608,2.595983152,0.9272443100000001,2.01825569,-3.48142818,,,
imu,94.903482,-0.4468201416000001,-9.6470083584,2.6007683744,1.15155161,1.97339423,-3.53376655,,,
imu,94.912296,-0.4432312248,-9.6523917336,2.5953849992,1.05435178,2.05564024,-3.73564312,,,
imu,94.920782,-0.4492127528000001,-9.636241608,2.5905997768,1.00949032,2.03320951,-3.81041222,,,
imu,94.929267,-0.451605364,-9.627867468800002,2.598973916,0.8449983,2.04816333,-3.76555076,,,
imu,94.937752,-0.4372496968000001,-9.6290637744,2.5947868464,0.80761375,2.28742445,-3.62348947,,,
imu,94.946237,-0.4145198904,-9.6296619272,2.604955444,0.82256757,2.2500399,-3.78050458,,,
imu,94.954722,-0.4354552384000001,-9.641624983200002,2.6001702216,0.8375213899999999,2.19022462,-3.9449966,,,
imu,94.963207,-0.4276792520000001,-9.646410205600002,2.6055535968,0.65059864,2.16031698,-3.98238115,,,
imu,94.971693,-0.4216977240000001,-9.6505972752,2.604955444,0.65059864,2.03320951,-3.97490424,,,
imu,94.980178,-0.4109309736,-9.660765872800003,2.6043572912,0.51601426,1.91357895,-4.07210407,,,
imu,94.988571,-0.4199032656,-9.671532623200001,2.6145258888,0.46367589,1.82385603,-4.146873169999999,,,
imu,94.997056,-0.4228940296000001,-9.667943706400001,2.610936972000001,0.33656842,1.74161002,-4.13939626,,,
imu,95.005541,-0.424688488,-9.6470083584,2.6211055696,0.38142988,1.56216418,-4.08705789,,,
imu,95.014026,-0.4109309736,-9.642223136000002,2.619909264,0.34404533,1.5023489,-4.19921154,,,
imu,95.022512,-0.4270810992000001,-9.644017594400001,2.627685250400001,0.3216146,1.26308778,-4.22911918,,,
imu,95.030997,-0.4270810992000001,-9.630260080000001,2.6121332776,0.20946095,1.21074941,-4.11696553,,,
imu,95.039482,-0.4432312248,-9.631456385600002,2.6127314304,0.23189168,1.21074941,-3.93004278,,,
imu,95.047967,-0.4444275304,-9.6284656216,2.620507416800001,0.23936859,1.27056469,-3.66835093,,,
imu,95.056452,-0.4420349192,-9.613511801600001,2.6127314304,0.22441477,1.24065705,-3.47395127,,,
imu,95.064937,-0.4288755576000001,-9.597959828800002,2.619909264,0.35899915,1.03878048,-3.54872037,,,
imu,95.073423,-0.4360533912000001,-9.592576453600001,2.6121332776,0.28423005,0.8219500899999996,-4.00481188,,,
imu,95.081908,-0.4623721144,-9.5985579816,2.619909264,0.3216146,0.7097964399999999,-4.19921154,,,
imu,95.090393,-0.4683536424000001,-9.6224840936,2.6240963336,0.36647606,0.6275504299999999,-4.13939626,,,
imu,95.098878,-0.4707462536000001,-9.644615747200001,2.631872320000001,0.52349117,0.6350273399999997,-4.034719519999999,,,
imu,95.107363,-0.481513004,-9.656578803200002,2.637853848,0.44124516,0.7546578999999998,-4.124442439999999,,,
imu,95.115848,-0.4910834488,-9.652989886400002,2.6354612368,0.44872207,1.00139593,-3.95247351,,,
imu,95.124307,-0.4976631296000001,-9.6637566368,2.648022445600001,0.66555246,1.26308778,-3.66087402,,,
imu,95.132765,-0.4886908376000001,-9.661364025600001,2.6444335288,0.56835263,1.43505671,-3.496382,,,
imu,95.141224,-0.4779240872000001,-9.635643455200002,2.6324704728,0.65059864,1.54721036,-3.29450543,,,
imu,95.149682,-0.4701481008,-9.609324732000001,2.6217037224,0.73284465,1.84628676,-3.35432071,,,
imu,95.158141,-0.4569887392,-9.591380148,2.6127314304,0.78518302,1.98087114,-3.43656672,,,
imu,95.166599,-0.4480164472000001,-9.590183842400002,2.6163203472,0.83004448,2.07807097,-3.63096638,,,
imu,95.175058,-0.4282774048000001,-9.581809703200001,2.6145258888,0.9945364999999999,2.07059406,-3.69825857,,,
imu,95.183516,-0.4240903352000001,-9.6051376624,2.6043572912,1.05435178,1.98834805,-4.012288789999999,,,
imu,95.191974,-0.424688488,-9.585996772800002,2.606749902400001,0.9945364999999999,1.89862513,-4.057150249999999,,,
imu,95.200433,-0.4330626272,-9.5590798968,2.595983152,1.20388998,1.81637912,-4.11696553,,,
imu,95.208891,-0.4318663216,-9.582407856000001,2.595983152,1.31604363,1.7266562,-4.0945348,,,
imu,95.21735,-0.4366515440000001,-9.610521037600002,2.5935905408,1.38333582,1.74161002,-3.92256587,,,
imu,95.225808,-0.4330626272,-9.630858232800001,2.6091425136,1.32352054,1.59207182,-3.82536604,,,
imu,95.234267,-0.4240903352000001,-9.630260080000001,2.6169185,1.2936129,1.41262598,-3.73564312,,,
imu,95.242725,-0.4121272792,-9.617698871200002,2.6252926392,1.25622835,1.52477963,-3.59358183,,,
imu,95.251184,-0.4175106544000001,-9.632054538400002,2.6103388192,1.30856672,1.36028761,-3.39918217,,,
imu,95.259642,-0.4240903352000001,-9.667345553600002,2.5911979296,1.24127453,1.09111885,-3.4216129,,,
imu,95.268101,-0.4408386136,-9.6643547896,2.604955444,1.05435178,0.8817653699999997,-3.58610492,,,
imu,95.276559,-0.442633072,-9.6709344704,2.5977776104,0.97958268,0.64250425,-3.67582784,,,
imu,95.285017,-0.4450256832000001,-9.6643547896,2.5911979296,0.91229049,0.56025824,-3.86275059,,,
imu,95.293476,-0.4617739616000001,-9.632054538400002,2.5726551928,0.94967504,0.6724118899999998,-3.88518132,,,
imu,95.301934,-0.4755314760000001,-9.666149248000002,2.5702625816,1.10669015,0.7471809899999999,-3.87770441,,,
imu,95.310393,-0.5006538936,-9.658971414400002,2.6085443608,1.08425942,0.7397040799999997,-4.0197657,,,
imu,95.318851,-0.4970649768000001,-9.6290637744,2.6127314304,0.8973366700000001,0.80699627,-4.169303899999999,,,
imu,95.327314,-0.4797185456,-9.669140012000002,2.5911979296,0.9048135799999999,0.9341037399999998,-3.87770441,,,
imu,95.335776,-0.4952705184000001,-9.716992236000001,2.598973916,1.02444414,1.06868812,-3.75059694,,,
imu,95.344238,-0.4940742128000001,-9.6505972752,2.6001702216,0.65807555,1.08364194,-3.93004278,,,
imu,95.3527,-0.499457588,-9.609922884800001,2.619909264,0.35152224,1.16588795,-3.88518132,,,
imu,95.361163,-0.4886908376000001,-9.661364025600001,2.6181148056,0.52349117,1.2780416,-3.93004278,,,
imu,95.369625,-0.4773259344000001,-9.665551095200001,2.5905997768,0.53844499,1.2780416,-4.04967334,,,
imu,95.378087,-0.481513004,-9.6218859408,2.6007683744,0.35152224,1.14345722,-4.34874974,,,
imu,95.386549,-0.5108224912,-9.608128426400002,2.6163203472,0.42629134,1.14345722,-4.26650373,,,
imu,95.395012,-0.5257763112000001,-9.626671163200001,2.6175166528,0.53844499,1.2780416,-3.87770441,,,
imu,95.403474,-0.5257763112000001,-9.635643455200002,2.60196468,0.6281679099999999,1.34533379,-3.57862801,,,
imu,95.411936,-0.5233837000000001,-9.627269316000001,2.603759138400001,0.6281679099999999,1.56964109,-3.48142818,,,
imu,95.420399,-0.5197947832,-9.5985579816,2.6055535968,0.47862971,1.67431783,-3.66087402,,,
imu,95.428861,-0.5030465048,-9.602146898400001,2.60196468,0.73284465,1.92853277,-3.39918217,,,
imu,95.437323,-0.4970649768000001,-9.630858232800001,2.5947868464,0.8524752099999999,1.93600968,-3.45899745,,,
imu,95.445785,-0.4898871432,-9.6248767048,2.588207165600001,0.88985976,1.97339423,-3.57862801,,,
imu,95.454248,-0.5030465048,-9.618297024,2.5941886936,0.94967504,2.06311715,-3.73564312,,,
imu,95.46271,-0.5030465048,-9.636839760800001,2.6097406664,0.94967504,2.07807097,-3.9449966,,,
imu,95.471172,-0.4964668240000001,-9.6499991224,2.6043572912,0.83004448,2.06311715,-3.95247351,,,
imu,95.479634,-0.4976631296000001,-9.657775108800001,2.6031609856,0.73284465,2.0257326,-4.10948862,,,
imu,95.488097,-0.5018501992000001,-9.644017594400001,2.6061517496,0.83004448,2.25751681,-3.95247351,,,
imu,95.496559,-0.5150095608,-9.633250844,2.6001702216,0.74779847,2.34723973,-3.88518132,,,
imu,95.505021,-0.5042428104000001,-9.635045302400002,2.5941886936,0.76275229,2.57902394,-3.54872037,,,
imu,95.513484,-0.5006538936,-9.639232372,2.5965813048,0.77770611,2.6238854,-3.44404363,,,
imu,95.521946,-0.5018501992000001,-9.6499991224,2.5941886936,0.65059864,2.53416248,-3.3468438,,,
imu,95.530411,-0.49347606,-9.635045302400002,2.592992388,0.6132140899999999,2.63883922,-3.18235178,,,
imu,95.538875,-0.4910834488,-9.618895176800002,2.601366527200001,0.5459219,2.69117759,-3.24216706,,,
imu,95.54734,-0.4857000736000001,-9.623082246400001,2.6103388192,0.57582954,2.75846978,-3.27955161,,,
imu,95.555805,-0.472540712,-9.638036066400002,2.60196468,0.46367589,2.81828506,-3.13001341,,,
imu,95.56427,-0.4677554896000001,-9.630858232800001,2.6001702216,0.3739529699999999,2.94539253,-3.03281358,,,
imu,95.572735,-0.4587831976000001,-9.617698871200002,2.5935905408,0.46367589,2.9977309,-3.01785976,,,
imu,95.581199,-0.4557924336,-9.6248767048,2.603759138400001,0.3739529699999999,3.11736146,-2.86084465,,,
imu,95.589664,-0.430670016,-9.627867468800002,2.6085443608,0.29170696,3.15474601,-2.76364482,,,
imu,95.598129,-0.4228940296000001,-9.636839760800001,2.6175166528,0.23936859,3.10240764,-2.88327538,,,
imu,95.606594,-0.4121272792,-9.641624983200002,2.6336667784,0.06739966,3.11736146,-2.91318302,,,
imu,95.615059,-0.3905937784,-9.640428677600001,2.640844612,0.007584380000000002,3.06502309,-2.9729983,,,
imu,95.623524,-0.370854736,-9.6326526912,2.641442764800001,0.03749201999999999,3.01268472,-2.9729983,,,
imu,95.631988,-0.3636769024000001,-9.627269316000001,2.645629834400001,-0.02232326000000001,2.81828506,-3.0477674,,,
imu,95.640453,-0.3559009160000001,-9.6039413568,2.634264931200001,-0.007369440000000005,2.73603905,-3.09262886,,,
imu,95.648918,-0.3559009160000001,-9.6009505928,2.641442764800001,0.01506129,2.48182411,-3.1973056,,,
imu,95.657383,-0.3523119992,-9.6075302736,2.643835376000001,0.14216876,2.22760917,-3.2720747,,,
imu,94.154681,,,,,,,84.4493988,-42.62146920000001,117.1464096
imu,94.256243,,,,,,,84.5104348,-43.09755000000002,116.6947432
imu,94.357806,,,,,,,84.0831828,-42.40173960000002,116.560464
imu,94.459368,,,,,,,86.03633479999999,-43.30507240000001,117.0243376
imu,94.560931,,,,,,,84.0221468,-42.38953240000001,117.1219952
imu,94.662493,,,,,,,86.32930759999999,-43.29286520000002,114.7415912
imu,94.764056,,,,,,,84.11980439999999,-42.67029800000002,117.170824
imu,94.865588,,,,,,,84.13201160000001,-43.19520760000002,115.0833928
imu,95.665848,-0.3576953744,-9.620689635200002,2.6599855016,0.11973803,2.06311715,-3.23469015,,,
imu,95.674312,-0.3511156936,-9.623082246400001,2.6605836544,0.02253820000000001,2.04816333,-3.23469015,,,
imu,95.682777,-0.3373581792000001,-9.619493329600001,2.664770724000001,0.07487657,1.94348659,-3.22721324,,,
imu,95.691242,-0.3325729568,-9.600352440000002,2.658789196,0.06739966,1.75656384,-3.35432071,,,
imu,95.699707,-0.3463304712,-9.593772759200002,2.6516113624,0.3216146,1.59954873,-3.41413599,,,
imu,95.708172,-0.3427415544,-9.591978300800001,2.6492187512,0.4861066199999999,1.39019525,-3.51881273,,,
imu,95.716636,-0.3535083048,-9.591978300800001,2.64682614,0.56087572,1.26308778,-3.63096638,,,
imu,95.725101,-0.3636769024000001,-9.602146898400001,2.6569947376,0.7702292,1.16588795,-3.96742733,,,
imu,95.733932,-0.3804251808,-9.626671163200001,2.6534058208,0.80761375,0.8369039099999998,-4.25902682,,,
imu,95.742762,-0.3810233336,-9.633250844,2.655798432,0.91229049,0.5976427899999996,-4.25154991,,,
imu,95.751592,-0.3899956256000001,-9.6326526912,2.6546021264,0.8674290299999999,0.4854891399999999,-4.37865738,,,
imu,95.760422,-0.4013605288,-9.630858232800001,2.6581910432,0.83004448,0.4331507699999997,-4.27398064,,,
imu,95.769252,-0.4240903352000001,-9.635045302400002,2.658789196,0.7403215599999999,0.3209971199999999,-4.22911918,,,
imu,95.778082,-0.4270810992000001,-9.633250844,2.6522095152,0.91229049,0.2312741999999997,-4.33379592,,,
imu,95.786913,-0.4360533912000001,-9.580613397600002,2.624694486400001,0.8823828499999999,-0.03041764999999996,-4.51324176,,,
imu,95.795743,-0.4605776560000001,-9.552500216,2.6300778616,0.91229049,-0.1201405700000002,-4.61044159,,,
imu,95.804573,-0.4982612824000001,-9.555490980000002,2.631872320000001,0.9945364999999999,-0.17247894,-4.65530305,,,
imu,95.813403,-0.505439116,-9.589585689600002,2.6294797088,1.03192105,-0.35192478,-4.9169949,,,
imu,95.822233,-0.520392936,-9.596763523200002,2.6294797088,1.10669015,-0.17247894,-4.692687599999999,,,
imu,95.831064,-0.5389356728,-9.6087265792,2.641442764800001,1.26370526,-0.17247894,-4.58801086,,,
imu,95.839894,-0.5598710208000001,-9.608128426400002,2.655798432,1.48801256,0.1639820099999998,-4.35622665,,,
imu,95.848724,-0.5748248408000001,-9.6284656216,2.643835376000001,1.71979677,0.56025824,-3.96742733,,,
imu,95.857554,-0.5742266880000001,-9.665551095200001,2.6175166528,1.79456587,0.80699627,-3.54124346,,,
imu,95.866384,-0.5586747152,-9.6535880392,2.6025628328,1.88428879,1.25561087,-3.4216129,,,
imu,95.875215,-0.5508987288,-9.633848996800001,2.603759138400001,1.80951969,1.53973345,-3.43656672,,,
imu,95.884045,-0.5401319784,-9.630858232800001,2.613927736,1.60016621,1.77151766,-3.51881273,,,
imu,95.892875,-0.5293652280000001,-9.627269316000001,2.6127314304,1.52539711,1.92853277,-3.50385891,,,
imu,95.901705,-0.5221873944000001,-9.6248767048,2.597179457600001,1.54782784,2.23508608,-3.51133582,,,
imu,95.910535,-0.5162058664000001,-9.630858232800001,2.5911979296,1.51044329,2.06311715,-3.73564312,,,
imu,95.919366,-0.5162058664000001,-9.626671163200001,2.5947868464,1.48801256,2.16031698,-3.88518132,,,
imu,95.928196,-0.5036446576000001,-9.620689635200002,2.583421943200001,1.45062801,2.39210119,-3.81788913,,,
imu,95.936657,-0.4970649768000001,-9.630260080000001,2.584020096,1.40576655,2.55659321,-3.76555076,,,
imu,95.945118,-0.4767277816000001,-9.6326526912,2.581029332,1.4431511,2.52668557,-3.59358183,,,
imu,95.953579,-0.4593813504000001,-9.6284656216,2.5911979296,1.48801256,2.42948574,-3.53376655,,,
imu,95.96204,-0.4581850448000001,-9.638036066400002,2.5911979296,1.40576655,2.39210119,-3.36179762,,,
imu,95.970501,-0.4504090584,-9.646410205600002,2.5888053184,1.39081273,2.24256299,-3.24964397,,,
imu,95.978962,-0.430670016,-9.663158484000002,2.585814554400001,1.25622835,2.1752708,-3.10010577,,,
imu,95.987423,-0.4366515440000001,-9.646410205600002,2.581029332,1.00949032,1.91357895,-3.18235178,,,
imu,95.995884,-0.4575868920000001,-9.6523917336,2.587609012800001,1.00201341,1.66684092,-3.32441307,,,
imu,96.004345,-0.4599795032,-9.66016772,2.5792348736,0.9197674,1.5023489,-3.26459779,,,
imu,96.012806,-0.4683536424000001,-9.654784344800001,2.5911979296,0.94219813,1.4275798,-3.24964397,,,
imu,96.021267,-0.472540712,-9.654186192000001,2.5822256376,0.9347212199999999,1.29299542,-3.25712088,,,
imu,96.029728,-0.481513004,-9.654186192000001,2.5911979296,0.67302937,1.36028761,-3.21973633,,,
imu,96.038189,-0.4785222400000001,-9.6434194416,2.5941886936,0.65059864,1.51730272,-3.10758268,,,
imu,96.04665,-0.4761296288000001,-9.669738164800002,2.606749902400001,0.5459219,1.61450255,-3.03281358,,,
imu,96.055111,-0.4785222400000001,-9.683495679200002,2.610936972000001,0.44872207,1.66684092,-3.05524431,,,
imu,96.063572,-0.4677554896000001,-9.6505972752,2.60196468,0.44124516,1.73413311,-2.93561375,,,
imu,96.072033,-0.46356842,-9.5985579816,2.5953849992,0.29918387,1.77151766,-2.93561375,,,
imu,96.080429,-0.4683536424000001,-9.6015487456,2.6127314304,0.09730729999999999,1.85376367,-2.98047521,,,
imu,96.08889,-0.4510072112,-9.636839760800001,2.620507416800001,0.20198404,2.00330187,-3.06272122,,,
imu,96.097351,-0.4408386136,-9.636241608,2.6073480552,0.3739529699999999,2.03320951,-3.15992105,,,
imu,96.105812,-0.4282774048000001,-9.624278552000002,2.6282834032,0.36647606,2.03320951,-3.26459779,,,
imu,96.114273,-0.442633072,-9.627867468800002,2.645629834400001,0.30666078,2.1005017,-3.32441307,,,
imu,96.122734,-0.4354552384000001,-9.646410205600002,2.6396483064,0.2468455,2.11545552,-3.02533667,,,
imu,96.131195,-0.4384460024000001,-9.651195428000001,2.6312741672,0.2468455,2.14536316,-2.95804448,,,
imu,96.139664,-0.4234921824,-9.616502565600001,2.6360593896,0.19450713,2.24256299,-2.71130645,,,
imu,96.148132,-0.4151180432000001,-9.6087265792,2.6450316816,0.11226112,2.29490136,-2.69635263,,,
imu,96.156601,-0.3923882368,-9.599754287200001,2.6390501536,0.10478421,2.10797861,-2.84589083,,,
imu,96.16507,-0.3911919312,-9.602146898400001,2.6360593896,0.25432241,2.18274771,-2.76364482,,,
imu,96.173538,-0.3774344168000001,-9.594370912,2.638452000800001,0.41881443,2.16779389,-2.8982292,,,
imu,96.182007,-0.367863972,-9.5877912312,2.6252926392,0.5010604399999999,1.95844041,-2.98047521,,,
imu,96.190476,-0.3738455000000001,-9.577024480800002,2.6336667784,0.71789083,1.94348659,-3.13001341,,,
imu,96.198944,-0.3780325696000001,-9.5865949256,2.6360593896,0.8375213899999999,2.00330187,-3.26459779,,,
imu,96.207413,-0.3816214864,-9.5949690648,2.6354612368,1.09173633,1.91357895,-3.24216706,,,
imu,96.215881,-0.3756399584,-9.593772759200002,2.6324704728,1.19641307,1.8761944,-3.17487487,,,
imu,96.22435,-0.3798270280000001,-9.608128426400002,2.6336667784,1.37585891,1.92853277,-3.18982869,,,
imu,96.232819,-0.3720510416,-9.610521037600002,2.637853848,1.36090509,1.89114822,-3.18235178,,,
imu,96.241287,-0.3774344168000001,-9.6087265792,2.628881556000001,1.36090509,1.83880985,-3.29450543,,,
imu,96.249756,-0.3792288752000001,-9.609324732000001,2.625890792,1.40576655,1.86871749,-3.44404363,,,
imu,96.258225,-0.3750418056000001,-9.617100718400001,2.6264889448,1.41324346,1.83880985,-3.62348947,,,
imu,96.266693,-0.3816214864,-9.624278552000002,2.624694486400001,1.32352054,1.71917929,-3.82536604,,,
imu,96.275162,-0.3911919312,-9.605735815200001,2.6001702216,1.48801256,1.71917929,-3.84031986,,,
imu,96.28363,-0.3911919312,-9.625474857600002,2.613329583200001,1.52539711,1.75656384,-3.90013514,,,
imu,96.292099,-0.3893974728000001,-9.639232372,2.6187129584,1.67493531,1.88367131,-3.81788913,,,
imu,96.300568,-0.385808556,-9.662560331200002,2.603759138400001,1.63755076,1.89114822,-3.7954584,,,
imu,96.309036,-0.3905937784,-9.647606511200001,2.6061517496,1.56278166,1.98087114,-3.84031986,,,
imu,96.317505,-0.3887993200000001,-9.655980650400002,2.613927736,1.48053565,1.97339423,-3.86275059,,,
imu,96.325974,-0.3893974728000001,-9.654784344800001,2.6294797088,1.48053565,1.98834805,-3.92256587,,,
imu,96.334442,-0.3726491944000001,-9.652989886400002,2.6115351248,1.42819728,1.93600968,-3.81788913,,,
imu,96.342899,-0.3696584304000001,-9.633848996800001,2.5953849992,1.19641307,1.90610204,-3.98238115,,,
imu,96.351357,-0.3744436528,-9.612913648800001,2.5923942352,1.11416706,1.85376367,-4.17678081,,,
imu,96.359814,-0.3750418056000001,-9.618895176800002,2.5923942352,1.18893616,1.8014253,-4.318842099999999,,,
imu,96.368271,-0.3804251808,-9.6224840936,2.595983152,1.18893616,1.74161002,-4.35622665,,,
imu,96.376728,-0.3744436528,-9.605735815200001,2.5905997768,1.27865908,1.58459491,-4.37118047,,,
imu,96.385185,-0.3852104032000001,-9.602745051200001,2.6007683744,1.25622835,1.45001053,-4.56558013,,,
imu,96.393643,-0.3965753064,-9.631456385600002,2.607946208,1.43567419,1.23318014,-4.647826139999999,,,
imu,96.4021,-0.400762376,-9.642223136000002,2.6031609856,1.42072037,1.22570323,-4.70764142,,,
imu,96.410557,-0.3941826952,-9.6296619272,2.5888053184,1.55530475,1.11354958,-4.66277996,,,
imu,96.419014,-0.424688488,-9.631456385600002,2.5852164016,1.58521239,1.00139593,-4.625395409999999,,,
imu,96.427471,-0.4294737104000001,-9.630260080000001,2.5953849992,1.67493531,1.00139593,-4.602964679999999,,,
imu,96.435928,-0.4360533912000001,-9.6296619272,2.5792348736,1.86933497,1.11354958,-4.35622665,,,
imu,96.444386,-0.4384460024000001,-9.631456385600002,2.585814554400001,1.89924261,1.04625739,-4.57305704,,,
imu,96.452843,-0.4533998224,-9.632054538400002,2.57205704,1.95905789,1.00887284,-4.67773378,,,
imu,96.4613,-0.4719425592000001,-9.652989886400002,2.5828237904,1.90671952,0.9565344699999998,-4.82727198,,,
imu,96.469757,-0.4749333232000001,-9.6745233872,2.5774404152,1.83942733,0.9640113799999996,-4.80484125,,,
imu,96.478214,-0.4749333232000001,-9.671532623200001,2.5702625816,1.71231986,1.09859576,-4.61044159,,,
imu,94.975024,,,,,,,84.11980439999999,-42.48719000000001,117.109788
imu,95.076556,,,,,,,83.60710200000001,-42.59705480000002,117.0609592
imu,95.178118,,,,,,,83.71696680000001,-42.80457720000002,117.5492472
imu,95.279681,,,,,,,83.94890360000001,-42.68250520000001,117.3295176
imu,95.381213,,,,,,,83.7413812,-42.69471240000002,116.6947432
imu,95.482775,,,,,,,83.8146244,-42.48719000000001,117.1952384
imu,95.584368,,,,,,,86.1828212,-43.280658,116.8412296
imu,95.685931,,,,,,,84.0465612,-42.76795560000002,117.414968
imu,96.486672,-0.4892889904,-9.637437913600001,2.5684681232,1.48801256,1.21822632,-4.53567249,,,
imu,96.495129,-0.4940742128000001,-9.655980650400002,2.5421494,1.39828964,1.22570323,-4.363703559999999,,,
imu,96.503586,-0.49347606,-9.678710456800001,2.5367660248,1.39828964,1.2780416,-4.146873169999999,,,
imu,96.512043,-0.4857000736000001,-9.611119190400002,2.5618884424,1.25622835,1.34533379,-4.23659609,,,
imu,96.5205,-0.4958686712000001,-9.613511801600001,2.5606921368,1.30108981,1.52477963,-4.318842099999999,,,
imu,96.528957,-0.5072335744,-9.6499991224,2.5505235392,1.28613599,1.54721036,-4.169303899999999,,,
imu,96.537415,-0.4862982264000001,-9.681103068,2.545140164,1.03939796,1.44253362,-4.10948862,,,
imu,96.545878,-0.4851019208000001,-9.6709344704,2.5588976784,0.94967504,1.68179474,-4.00481188,,,
imu,96.554342,-0.5060372688000001,-9.673925234400002,2.585814554400001,0.7403215599999999,1.67431783,-4.124442439999999,,,
imu,96.562805,-0.5090280328000001,-9.7074217912,2.5798330264,0.70293701,2.04816333,-3.78798149,,,
imu,96.571269,-0.4845037680000001,-9.718786694400002,2.5738514984,0.57582954,2.11545552,-3.43656672,,,
imu,96.579732,-0.4821111568000001,-9.6912716656,2.5702625816,0.4711528,2.30237827,-3.15992105,,,
imu,96.588196,-0.481513004,-9.672130776000001,2.5642810536,0.49358353,2.7734236,-2.95804448,,,
imu,96.596659,-0.4539979752000001,-9.648802816800002,2.5582995256,0.5010604399999999,2.94539253,-2.92065993,,,
imu,96.605123,-0.4222958768,-9.636839760800001,2.5618884424,0.5010604399999999,2.72856214,-3.13749032,,,
imu,96.613587,-0.4091365152000001,-9.6296619272,2.555308761600001,0.5982602699999999,2.84071579,-3.36179762,,,
imu,96.62205,-0.3911919312,-9.614109954400002,2.555308761600001,0.57582954,2.63883922,-3.66835093,,,
imu,96.630514,-0.4013605288,-9.599754287200001,2.5565050672,0.3963837,2.39210119,-3.86275059,,,
imu,96.638977,-0.4019586816,-9.6009505928,2.5547106088,0.52349117,2.13040934,-4.00481188,,,
imu,96.647441,-0.3995660704000001,-9.624278552000002,2.5606921368,0.35899915,1.8761944,-4.20668845,,,
imu,96.655904,-0.4001642232,-9.651195428000001,2.5756459568,0.29170696,1.68179474,-4.17678081,,,
imu,96.664368,-0.4043512928,-9.6733270816,2.6061517496,0.31413769,1.48739508,-4.012288789999999,,,
imu,96.672831,-0.4091365152000001,-9.6876827488,2.6097406664,0.26179932,1.44253362,-3.68330475,,,
imu,96.681295,-0.3965753064,-9.704431027200002,2.6252926392,0.28423005,1.23318014,-3.38422835,,,
imu,96.689758,-0.400762376,-9.6912716656,2.6264889448,0.17955331,1.09859576,-3.47395127,,,
imu,96.698222,-0.4061457512000001,-9.706225485600001,2.6372556952,-0.0522309,0.78456554,-3.65339711,,,
imu,96.706685,-0.4234921824,-9.7008421104,2.6223018752,-0.04475399000000001,0.5303505999999998,-3.95247351,,,
imu,96.715149,-0.4486146000000001,-9.6494009696,2.6157221944,-0.01484635000000001,0.4929660499999997,-4.15435008,,,
imu,96.723613,-0.4785222400000001,-9.6009505928,2.6145258888,0.08235347999999998,0.2237972899999998,-4.386134289999999,,,
imu,96.732076,-0.5084298800000001,-9.612315496,2.6091425136,0.31413769,0.2462280199999998,-4.386134289999999,,,
imu,96.74054,-0.5263744640000001,-9.630858232800001,2.6223018752,0.42629134,0.35838167,-4.31136519,,,
imu,96.749379,-0.5449172008000001,-9.634447149600001,2.6097406664,0.620691,0.5976427899999996,-4.169303899999999,,,
imu,96.758219,-0.5526931872,-9.636241608,2.619909264,0.68050628,1.00887284,-4.07210407,,,
imu,96.767058,-0.550300576,-9.635045302400002,2.6211055696,0.83004448,1.36776452,-3.9449966,,,
imu,96.775898,-0.5544876456000001,-9.634447149600001,2.598973916,0.9571519499999999,1.81637912,-3.74312003,,,
imu,96.784737,-0.5305615336,-9.6326526912,2.6121332776,0.9197674,2.04816333,-3.65339711,,,
imu,96.793577,-0.5323559920000001,-9.596165370400001,2.610936972000001,0.8749059399999999,2.44443956,-3.51881273,,,
imu,96.802416,-0.5245800056000001,-9.6218859408,2.628881556000001,0.64312173,2.87062343,-3.39918217,,,
imu,96.811255,-0.4922797544,-9.635045302400002,2.6145258888,0.57582954,3.0725,-3.45899745,,,
imu,96.820095,-0.4629702672000001,-9.614708107200002,2.607946208,0.45619898,3.25942275,-3.7954584,,,
imu,96.828934,-0.4605776560000001,-9.614109954400002,2.6211055696,0.3739529699999999,3.27437657,-3.91508896,,,
imu,96.837774,-0.4611758088,-9.647606511200001,2.6426390704,0.3739529699999999,3.2220382,-3.80293531,,,
imu,96.846613,-0.4390441552000001,-9.6523917336,2.641442764800001,0.19450713,3.37905331,-3.56367419,,,
imu,96.855453,-0.4210995712,-9.618895176800002,2.6324704728,0.11973803,3.41643786,-3.44404363,,,
imu,96.864292,-0.4216977240000001,-9.577024480800002,2.6240963336,0.38142988,3.25942275,-3.44404363,,,
imu,96.873132,-0.415716196,-9.572239258400002,2.638452000800001,0.31413769,2.98277708,-3.53376655,,,
imu,96.881971,-0.3989679176000001,-9.591380148,2.6294797088,0.50853735,2.78837742,-3.60853565,,,
imu,96.890811,-0.3882011672000001,-9.593174606400002,2.607946208,0.7403215599999999,2.54163939,-3.63844329,,,
imu,96.89965,-0.3995660704000001,-9.5602762024,2.6103388192,0.9646288599999999,2.45191647,-3.50385891,,,
imu,96.90849,-0.4181088072000001,-9.540537160000001,2.6025628328,0.9945364999999999,2.16031698,-3.496382,,,
imu,96.917329,-0.4300718632,-9.552500216,2.606749902400001,1.12912088,1.97339423,-3.33936689,,,
imu,96.926169,-0.4342589328000001,-9.6015487456,2.6055535968,1.26370526,2.00330187,-3.16739796,,,
imu,96.935008,-0.4348570856000001,-9.636241608,2.6103388192,1.47305874,1.99582496,-3.09262886,,,
imu,96.943848,-0.4420349192,-9.645213900000002,2.619909264,1.40576655,1.92853277,-3.20478251,,,
imu,96.952307,-0.4402404608,-9.658373261600001,2.6330686256,1.30108981,1.9509635,-3.1973056,,,
imu,96.960767,-0.43366078,-9.685888290400001,2.6402464592,1.21136689,1.98834805,-3.18235178,,,
imu,96.969227,-0.4288755576000001,-9.700243957600001,2.6402464592,1.04687487,2.07807097,-3.10010577,,,
imu,96.977687,-0.4402404608,-9.716992236000001,2.6390501536,0.91229049,2.19022462,-3.15244414,,,
imu,96.986146,-0.4384460024000001,-9.710412555200001,2.6426390704,0.70293701,2.13040934,-3.13001341,,,
imu,96.994606,-0.4372496968000001,-9.687084596000002,2.6306760144,0.43376825,2.21265535,-3.24964397,,,
imu,97.003066,-0.4384460024000001,-9.672728928800002,2.628881556000001,0.41133752,2.34723973,-3.16739796,,,
imu,97.011526,-0.4222958768,-9.675719692800001,2.6354612368,0.38142988,2.44443956,-3.14496723,,,
imu,97.019985,-0.4145198904,-9.685290137600001,2.6336667784,0.18703022,2.51920866,-3.10758268,,,
imu,97.028445,-0.4103328208,-9.6667474008,2.6115351248,0.11973803,2.52668557,-3.07767504,,,
imu,97.036905,-0.4055475984,-9.641026830400001,2.606749902400001,0.12721494,2.48930102,-3.02533667,,,
imu,97.045364,-0.4013605288,-9.6248767048,2.598973916,0.09730729999999999,2.4743472,-2.94309066,,,
imu,97.053824,-0.3887993200000001,-9.606333968000001,2.585814554400001,0.20946095,2.52668557,-2.6739219,,,
imu,97.062284,-0.3834159448,-9.606333968000001,2.575047804,0.3216146,2.51920866,-2.47204533,,,
imu,97.070744,-0.3792288752000001,-9.61530626,2.5798330264,0.22441477,2.42200883,-2.32998404,,,
imu,97.079203,-0.3636769024000001,-9.644017594400001,2.5953849992,0.05244583999999999,2.324809,-2.21035348,,,
imu,97.087663,-0.3505175408000001,-9.656578803200002,2.5977776104,-0.02980017,2.30237827,-1.97856927,,,
imu,97.096123,-0.334965568,-9.651793580800001,2.5953849992,-0.23915365,2.13040934,-2.03838455,,,
imu,97.104583,-0.3331711096,-9.676915998400002,2.6252926392,-0.40364567,1.98087114,-2.11315365,,,
imu,97.113042,-0.3295821928000001,-9.7193848472,2.637853848,-0.62047606,1.68927165,-2.25521494,,,
imu,97.121502,-0.3176191368,-9.736731278400002,2.652807668,-0.7401066199999999,1.52477963,-2.50942988,,,
imu,97.129962,-0.3206099008000001,-9.715795930400002,2.661779960000001,-0.97189083,1.24065705,-2.89075229,,,
imu,97.138421,-0.320011748,-9.685290137600001,2.6743411688,-1.42798234,1.08364194,-3.21973633,,,
imu,97.146881,-0.3331711096,-9.669738164800002,2.6773319328,-1.48779762,0.7770886299999997,-3.30945925,,,
imu,97.15535,-0.3499193880000001,-9.654784344800001,2.6701540992,-1.48032071,0.47801223,-3.30945925,,,
imu,97.163818,-0.361882444,-9.639232372,2.667761488,-1.3980747,0.41819695,-3.25712088,,,
imu,97.172432,-0.3630787496,-9.6117173432,2.6546021264,-1.36069015,0.3284740299999998,-3.20478251,,,
imu,97.1809,-0.3822196392,-9.5949690648,2.6659670296,-1.15133667,0.04435144999999974,-3.02533667,,,
imu,97.189369,-0.3959771536000001,-9.608128426400002,2.6839116136,-1.09152139,-0.2472480400000001,-3.17487487,,,
imu,97.197838,-0.3905937784,-9.623082246400001,2.7024543504,-0.67281443,-0.25472495,-3.11505959,,,
imu,97.206306,-0.4139217376000001,-9.630858232800001,2.7054451144,-0.58309151,-0.4491246100000001,-3.1973056,,,
imu,97.214775,-0.4468201416000001,-9.6284656216,2.7150155592,-0.64290679,-0.3818324200000003,-3.07767504,,,
imu,97.223244,-0.4713444064,-9.623082246400001,2.7239878512,-0.5681376899999999,-0.2023865800000002,-2.89075229,,,
imu,97.231712,-0.4773259344000001,-9.6284656216,2.7203989344,-0.46346095,0.09668981999999993,-2.72626027,,,
imu,97.240181,-0.490485296,-9.600352440000002,2.7114266424,-0.45598404,0.4481045899999998,-2.56176825,,,
imu,97.248649,-0.4845037680000001,-9.578220786400001,2.7054451144,-0.48589168,1.02382666,-2.63653735,,,
imu,97.257118,-0.4797185456,-9.554892827200002,2.697669128,-0.13447691,1.63693328,-2.45709151,,,
imu,97.265587,-0.4737370176,-9.52558334,2.682715308000001,0.18703022,2.27247063,-2.38979932,,,
imu,97.274055,-0.4462219888000001,-9.520798117600002,2.6839116136,0.3739529699999999,2.63883922,-2.62158353,,,
imu,97.282524,-0.4199032656,-9.520798117600002,2.667163335200001,0.78518302,3.07997691,-2.87579847,,,
imu,97.290993,-0.4049494456000001,-9.510031367200002,2.657592890400001,1.11416706,3.32671494,-3.18982869,,,
imu,97.299461,-0.3738455000000001,-9.499862769600002,2.6510132096,1.1440747,3.33419185,-3.41413599,,,
imu,95.787629,,,,,,,86.414758,-43.10975720000001,114.4364112
imu,95.889253,,,,,,,84.09539,-43.5125948,114.4974472
imu,95.990815,,,,,,,83.83903880000001,-42.69471240000002,116.804608
imu,96.09253,,,,,,,83.42399400000001,-42.20642440000002,117.414968
imu,96.19391,,,,,,,84.00993960000001,-42.1942172,116.7191576
imu,96.295442,,,,,,,83.71696680000001,-42.2308388,117.170824
imu,96.397004,,,,,,,84.16863320000002,-42.54822600000001,117.048752
imu,96.498567,,,,,,,84.1808404,-42.20642440000002,117.2562744
imu,97.30793,-0.3600879856,-9.4938812416,2.6450316816,1.20388998,3.38653022,-3.78050458,,,
imu,97.316399,-0.3547046104000001,-9.495077547200001,2.6396483064,1.41324346,3.2220382,-4.02724261,,,
imu,97.324867,-0.3553027632,-9.4831144912,2.6360593896,1.41324346,3.10240764,-3.83284295,,,
imu,97.333336,-0.3457323184,-9.460384684800001,2.6211055696,1.39828964,3.06502309,-3.72816621,,,
imu,97.341804,-0.3427415544,-9.4322715032,2.604955444,1.22632071,2.79585433,-3.72816621,,,
imu,97.350273,-0.3457323184,-9.398774946400001,2.592992388,1.41324346,2.71360832,-3.45152054,,,
imu,97.358729,-0.34393786,-9.385615584800002,2.578636720800001,1.42072037,2.51920866,-3.32441307,,,
imu,97.367185,-0.340947096,-9.439449336800001,2.601366527200001,1.55530475,2.2500399,-3.15244414,,,
imu,97.375641,-0.3325729568,-9.5327611736,2.606749902400001,1.72727368,2.05564024,-2.98047521,,,
imu,97.384097,-0.3098431504,-9.591978300800001,2.6181148056,1.94410407,1.83133294,-2.87579847,,,
imu,97.392553,-0.3212080536,-9.6284656216,2.6240963336,2.16093446,1.52477963,-2.98795212,,,
imu,97.401009,-0.3445360128,-9.66016772,2.646227987200001,2.21327283,1.21822632,-3.30945925,,,
imu,97.409464,-0.35889168,-9.716992236000001,2.6504150568,2.12354991,0.9041961000000001,-3.53376655,,,
imu,97.41792,-0.3630787496,-9.765442612800001,2.6581910432,2.24318047,0.6873657099999999,-3.51881273,,,
imu,97.426376,-0.3660695136000001,-9.802528086400002,2.6755374744,2.08616536,0.5677351499999999,-3.63096638,,,
imu,97.434832,-0.3899956256000001,-9.801929933600002,2.6761356272,1.7422275,0.4481045899999998,-3.77302767,,,
imu,97.443288,-0.3905937784,-9.803126239200001,2.6725467104,1.37585891,0.29856639,-3.81788913,,,
imu,97.451744,-0.3953790008,-9.791761336000002,2.6665651824,1.18893616,0.2686587499999997,-3.67582784,,,
imu,97.4602,-0.3977716120000001,-9.7337405144,2.634863084,1.01696723,0.3434278499999999,-3.65339711,,,
imu,97.468656,-0.4049494456000001,-9.6523917336,2.6294797088,0.8823828499999999,0.3434278499999999,-3.496382,,,
imu,97.477112,-0.4127254320000001,-9.630858232800001,2.627685250400001,0.9272443100000001,0.3509047599999997,-3.52628964,,,
imu,97.485568,-0.4175106544000001,-9.633848996800001,2.6103388192,1.07678251,0.29856639,-3.66835093,,,
imu,97.494024,-0.4115291264,-9.602146898400001,2.6007683744,1.06182869,0.1490281899999997,-3.8702275,,,
imu,97.502479,-0.439642308,-9.578818939200001,2.598973916,1.18145925,0.29856639,-3.88518132,,,
imu,97.510935,-0.4665591840000001,-9.554294674400001,2.584020096,1.368382,0.6499811599999998,-3.71321239,,,
imu,97.519391,-0.4737370176,-9.572837411200002,2.5935905408,1.54035093,0.92662683,-3.36927453,,,
imu,97.527847,-0.4683536424000001,-9.6260730104,2.597179457600001,1.57025857,1.37524143,-3.21973633,,,
imu,97.536303,-0.4533998224,-9.641026830400001,2.6043572912,1.46558183,1.62197946,-3.1225365,,,
imu,97.544759,-0.4360533912000001,-9.633848996800001,2.610936972000001,1.22632071,1.94348659,-3.15992105,,,
imu,96.60016,,,,,,,86.57345160000001,-43.17079320000001,117.109788
imu,96.701722,,,,,,,83.83903880000001,-42.71912680000001,116.6703288
imu,96.803254,,,,,,,86.2804788,-43.02430680000002,115.5472664
imu,96.904817,,,,,,,83.77800280000001,-42.32849640000001,117.5736616
imu,97.006379,,,,,,,84.5714708,-43.29286520000002,115.5472664
imu,97.107942,,,,,,,83.7535884,-42.26746040000003,117.3661392
imu,97.209535,,,,,,,83.6559308,-42.56043320000003,116.8168152
imu,97.311067,,,,,,,84.09539,-41.74255080000002,117.5614544
imu,97.412532,,,,,,,84.11980439999999,-42.37732520000002,117.3295176
imu,97.521907,,,,,,,83.729174,-42.38953240000001,116.8290224
