Type,Timestamp,Data Accelerometer X,Data Accelerometer Y,Data Accelerometer Z,Data Gyroscope X,Data Gyroscope Y,Data Gyroscope Z,Data Magnetometer X,Data Magnetometer Y,Data Magnetometer Z
imu,273.2545,-0.4581850448000001,-9.633848996800001,2.7120247952,2.68431816,0.3658585799999998,-3.14496723,,,
imu,273.262977,-0.4809148512,-9.6799067624,2.7024543504,2.34785721,0.04435144999999974,-3.60105874,,,
imu,273.271455,-0.4886908376000001,-9.713403319200001,2.7108284896,1.98148862,-0.1799558500000003,-4.02724261,,,
imu,273.279932,-0.517402172,-9.714599624800002,2.7054451144,1.61512003,-0.2173404000000003,-4.430995749999999,,,
imu,273.28841,-0.5311596864,-9.645213900000002,2.7144174064,1.03192105,-0.3369709599999999,-4.75250288,,,
imu,273.296887,-0.5550857984,-9.577024480800002,2.6821171552,0.66555246,-0.2921095,-4.80484125,,,
imu,273.305365,-0.5820026744000001,-9.575828175200002,2.673743016,0.53844499,-0.2622018600000002,-4.670256869999999,,,
imu,273.313842,-0.6029380224,-9.604539509600002,2.661779960000001,0.3739529699999999,0.06678217999999969,-4.48333412,,,
imu,273.32232,-0.6304530512000001,-9.602146898400001,2.670752252,0.41133752,0.2013665599999999,-4.244073,,,
imu,273.330791,-0.6376308848000001,-9.597361676,2.680920849600001,0.29170696,0.4555814999999996,-4.04219643,,,
imu,273.339262,-0.6418179544000001,-9.596763523200002,2.694678364,0.11973803,0.7770886299999997,-3.84779677,,,
imu,273.347733,-0.6298548984000001,-9.575828175200002,2.689893141600001,0.13469185,1.08364194,-3.66087402,,,
imu,273.356205,-0.6316493568000001,-9.579417092000002,2.6880986832,0.13469185,1.39019525,-3.13001341,,,
imu,273.364676,-0.6346401208000001,-9.608128426400002,2.682715308000001,0.18703022,1.74908693,-2.92065993,,,
imu,273.373147,-0.6202844536000002,-9.611119190400002,2.6904912944,0.29918387,2.07059406,-2.56176825,,,
imu,273.381618,-0.6101158560000001,-9.571641105600001,2.6815190024,0.3963837,2.35471664,-2.20287657,,,
imu,273.390089,-0.5945638832000001,-9.5172092008,2.667761488,0.43376825,2.59397776,-1.97109236,,,
imu,273.39856,-0.5742266880000001,-9.4980683112,2.6546021264,0.66555246,2.84071579,-1.95613854,,,
imu,273.407032,-0.5610673264,-9.547116840800001,2.6534058208,0.94219813,3.02016163,-2.02343073,,,
imu,273.415503,-0.5311596864,-9.564463272000001,2.661779960000001,1.25622835,3.28185348,-2.09072292,,,
imu,273.423974,-0.5102243384,-9.527975951200002,2.6432372232,1.39081273,3.33419185,-2.18792275,,,
imu,273.432445,-0.4892889904,-9.512423978400001,2.6522095152,1.55530475,3.40148404,-2.53186061,,,
imu,273.440916,-0.4845037680000001,-9.556089132800002,2.641442764800001,1.72727368,3.25942275,-2.94309066,,,
imu,273.449387,-0.4737370176,-9.591380148,2.6522095152,1.91419643,3.19960747,-3.14496723,,,
imu,273.457859,-0.451605364,-9.561472508000001,2.6444335288,1.94410407,2.99025399,-3.47395127,,,
imu,273.46633,-0.4492127528000001,-9.557285438400001,2.6504150568,1.86933497,2.90053107,-3.72816621,,,
imu,273.474801,-0.442633072,-9.599754287200001,2.6611818072,2.13102682,2.75099287,-3.95247351,,,
imu,273.483272,-0.4216977240000001,-9.613511801600001,2.673144863200001,2.12354991,2.57154703,-4.102011709999999,,,
imu,273.491743,-0.4205014184,-9.584800467200001,2.6563965848,1.9665348,2.44443956,-4.244073,,,
imu,273.500214,-0.4127254320000001,-9.6218859408,2.6635744184,1.9665348,1.97339423,-4.28145755,,,
imu,273.508686,-0.4055475984,-9.6733270816,2.6791263912,1.93662716,1.75656384,-4.29641137,,,
imu,273.517157,-0.4085383624000001,-9.656578803200002,2.6773319328,1.73475059,1.52477963,-4.17678081,,,
imu,273.525628,-0.4163143488000001,-9.620091482400001,2.6803226968,1.45062801,1.19579559,-4.07210407,,,
imu,273.534103,-0.415716196,-9.6326526912,2.667761488,1.16650543,0.8294269999999999,-3.99733497,,,
imu,273.542578,-0.4210995712,-9.660765872800003,2.671350404800001,1.03939796,0.5752120599999997,-3.89265823,,,
imu,273.551053,-0.4474182944000001,-9.6775141512,2.667761488,0.64312173,0.1789358299999999,-3.90761205,,,
imu,273.559528,-0.4569887392,-9.6505972752,2.6719485576,0.41881443,-0.1350943900000003,-3.82536604,,,
imu,273.568003,-0.4689517952000001,-9.5949690648,2.678528238400001,0.25432241,-0.1650020300000001,-3.65339711,,,
imu,273.576478,-0.49347606,-9.593772759200002,2.671350404800001,0.13469185,-0.3294940500000001,-3.52628964,,,
imu,273.584953,-0.5209910888,-9.597361676,2.664770724000001,0.27675314,-0.4416477000000003,-3.38422835,,,
imu,273.593428,-0.5407301312,-9.5985579816,2.6492187512,0.20946095,-0.4042631500000002,-3.27955161,,,
imu,273.601903,-0.5574784096000001,-9.578220786400001,2.655200279200001,0.09730729999999999,-0.3668786000000002,-3.32441307,,,
imu,273.610378,-0.5808063688,-9.575828175200002,2.6605836544,0.16459949,-0.1949096699999999,-3.11505959,,,
imu,273.618853,-0.5951620360000001,-9.5632669664,2.6605836544,0.23936859,-0.007986920000000008,-3.00290594,,,
imu,273.627328,-0.6035361752000001,-9.554294674400001,2.655798432,0.4861066199999999,0.35838167,-2.77859864,,,
imu,273.635803,-0.6059287864000001,-9.5668558832,2.664770724000001,0.63564482,0.6350273399999997,-2.64401426,,,
imu,273.644278,-0.6113121616,-9.5949690648,2.6510132096,0.5982602699999999,1.0537343,-2.54681443,,,
imu,273.652753,-0.5969564944000001,-9.5704448,2.6522095152,0.58330645,1.52477963,-2.47952224,,,
imu,273.661228,-0.5993491056000001,-9.588389384000001,2.6492187512,0.7702292,2.00330187,-2.43466078,,,
imu,273.669703,-0.5939657304000001,-9.619493329600001,2.637853848,0.7253677399999999,2.30985518,-2.60662971,,,
imu,273.678178,-0.5826008272000001,-9.597959828800002,2.6492187512,0.8674290299999999,2.6986545,-2.48699915,,,
imu,273.686653,-0.55329134,-9.573435564,2.6492187512,0.82256757,2.9977309,-2.60662971,,,
imu,273.695128,-0.5311596864,-9.6075302736,2.6336667784,0.81509066,3.30428421,-2.98795212,,,
imu,273.703603,-0.5257763112000001,-9.642223136000002,2.6444335288,0.81509066,3.40896095,-3.38422835,,,
imu,273.712078,-0.4916816016,-9.613511801600001,2.641442764800001,0.7253677399999999,3.72299117,-3.47395127,,,
imu,273.720553,-0.4707462536000001,-9.559678049600002,2.6294797088,0.5982602699999999,3.73794499,-3.66087402,,,
imu,273.729028,-0.4647647256,-9.551303910400001,2.6546021264,0.64312173,3.70056044,-3.87770441,,,
imu,273.737471,-0.4372496968000001,-9.626671163200001,2.6611818072,0.7253677399999999,3.7454219,-4.04219643,,,
imu,273.745914,-0.439642308,-9.692467971200001,2.6641725712,0.8823828499999999,3.47625314,-4.244073,,,
imu,273.754357,-0.4414367664,-9.6984494992,2.6569947376,0.46367589,3.18465365,-4.51324176,,,
imu,273.7628,-0.4187069600000001,-9.639232372,2.6635744184,0.26927623,3.03511545,-4.625395409999999,,,
imu,273.771244,-0.4097346680000001,-9.571042952800001,2.6635744184,-0.007369440000000005,2.86314652,-4.47585721,,,
imu,273.779687,-0.4456238360000001,-9.618895176800002,2.6611818072,0.04496892999999999,2.76594669,-4.07210407,,,
imu,273.78813,-0.454596128,-9.676915998400002,2.6605836544,0.01506129,2.56407012,-3.68330475,,,
imu,273.796573,-0.4127254320000001,-9.658373261600001,2.652807668,-0.02980017,2.50425484,-3.59358183,,,
imu,273.805016,-0.3995660704000001,-9.5877912312,2.659387348800001,-0.11204618,2.33228591,-3.50385891,,,
imu,273.81346,-0.3899956256000001,-9.536350090400001,2.6522095152,-0.3513073,1.96591732,-3.56367419,,,
imu,273.821903,-0.3965753064,-9.5184055064,2.6510132096,-0.18681528,1.71917929,-3.43656672,,,
imu,273.830346,-0.4151180432000001,-9.5172092008,2.6516113624,-0.06718472,1.45001053,-3.51881273,,,
imu,273.838789,-0.4432312248,-9.519601812000001,2.631872320000001,0.07487657,1.03878048,-3.7954584,,,
imu,273.847232,-0.4623721144,-9.514218436800002,2.637853848,0.29918387,0.8892422799999999,-3.84031986,,,
imu,273.855676,-0.4809148512,-9.498666464000001,2.6360593896,0.60573718,0.86681155,-3.78798149,,,
imu,273.864119,-0.4892889904,-9.5172092008,2.6372556952,0.73284465,0.8369039099999998,-3.82536604,,,
imu,273.872562,-0.4946723656000001,-9.533957479200001,2.6444335288,0.9646288599999999,0.7770886299999997,-3.89265823,,,
imu,273.881005,-0.5168040192000001,-9.5393408544,2.6540039736,1.13659779,0.9041961000000001,-3.92256587,,,
imu,273.889448,-0.5275707696,-9.577024480800002,2.6534058208,1.47305874,1.15093413,-3.84779677,,,
imu,273.897892,-0.5341504504000001,-9.633848996800001,2.668957793600001,1.37585891,1.18831868,-4.07210407,,,
imu,273.906335,-0.5275707696,-9.6535880392,2.6845097664,1.25622835,1.28551851,-4.23659609,,,
imu,273.914778,-0.5473098120000001,-9.635045302400002,2.6934820584,0.9272443100000001,1.47244126,-4.42351884,,,
imu,273.923221,-0.5580765624000001,-9.656578803200002,2.6988654336,0.7253677399999999,1.66684092,-4.61044159,,,
imu,273.931664,-0.5485061176,-9.6954587352,2.6880986832,0.68798319,1.88367131,-4.647826139999999,,,
imu,273.940479,-0.5467116592000001,-9.713403319200001,2.697669128,0.35899915,2.0257326,-4.625395409999999,,,
imu,273.949293,-0.5473098120000001,-9.675719692800001,2.6904912944,-0.007369440000000005,2.10797861,-4.52071867,,,
imu,273.958107,-0.5467116592000001,-9.6499991224,2.692285752800001,-0.23167674,2.30985518,-4.341272829999999,,,
imu,273.966921,-0.5377393672000002,-9.632054538400002,2.6916876,-0.22419983,2.35471664,-4.13191935,,,
imu,273.975736,-0.5263744640000001,-9.639232372,2.694678364,-0.37373803,2.6238854,-3.95247351,,,
imu,273.98455,-0.5180003248000001,-9.602146898400001,2.6665651824,-0.46346095,2.5491163,-3.86275059,,,
imu,273.993364,-0.5138132552000001,-9.583006008800002,2.6988654336,-0.36626112,2.61640849,-3.78798149,,,
imu,274.002179,-0.499457588,-9.6296619272,2.689893141600001,-0.41859949,2.63883922,-3.66087402,,,
imu,274.010993,-0.4976631296000001,-9.655382497600002,2.6833134608,-0.5008455,2.59397776,-3.68330475,,,
imu,274.019807,-0.4976631296000001,-9.6326526912,2.700659892,-0.65786061,2.59397776,-3.84031986,,,
imu,274.028621,-0.4755314760000001,-9.560874355200001,2.70664142,-0.69524516,2.55659321,-3.82536604,,,
imu,274.037436,-0.4791203928000001,-9.5381445488,2.7162118648,-0.8522602699999999,2.45939338,-3.82536604,,,
imu,274.04625,-0.4946723656000001,-9.553098368800002,2.7192026288,-0.90459864,2.56407012,-3.58610492,,,
imu,274.055064,-0.5048409632,-9.5566872856,2.7024543504,-0.7401066199999999,2.61640849,-3.32441307,,,
imu,274.063878,-0.490485296,-9.5698466472,2.7048469616,-0.79244499,2.60145467,-3.27955161,,,
imu,274.072693,-0.4611758088,-9.568052188800001,2.713221100800001,-0.79244499,2.71360832,-3.20478251,,,
imu,274.081507,-0.4510072112,-9.568650341600001,2.7108284896,-0.67281443,2.66874686,-3.25712088,,,
imu,274.090321,-0.4641665728000001,-9.557883591200001,2.7144174064,-0.62047606,2.63136231,-3.33936689,,,
imu,274.099136,-0.4647647256,-9.534555632000002,2.7221933928,-0.67281443,2.44443956,-3.56367419,,,
imu,274.10795,-0.4677554896000001,-9.537546396000002,2.7138192536,-0.36626112,2.33228591,-3.66087402,,,
imu,274.116764,-0.4743351704000001,-9.562668813600002,2.7198007816,-0.22419983,2.28742445,-3.78798149,,,
imu,274.125578,-0.4886908376000001,-9.541135312800002,2.7233896984,-0.10456927,2.27247063,-3.81788913,,,
imu,274.134393,-0.5006538936,-9.5291722568,2.7209970872,-0.08961545,2.19770153,-3.75059694,,,
imu,274.142877,-0.5251781584,-9.5602762024,2.7233896984,0.02253820000000001,2.2500399,-3.74312003,,,
imu,274.15136,-0.5359449088000001,-9.555490980000002,2.7144174064,0.12721494,2.39210119,-3.69078166,,,
imu,274.159844,-0.5724322296000001,-9.538742701600002,2.7209970872,0.12721494,2.66126995,-3.66087402,,,
imu,274.168328,-0.6149010784000001,-9.5357519376,2.7233896984,0.20946095,2.91548489,-3.72816621,,,
imu,274.176812,-0.6519865520000001,-9.554294674400001,2.717408170400001,0.3739529699999999,3.31176112,-3.76555076,,,
imu,274.185296,-0.6986424704000002,-9.561472508000001,2.712622948,0.53096808,3.92486774,-3.78798149,,,
imu,274.19378,-0.8344231560000002,-9.558481744000002,2.72159524,0.64312173,4.84452767,-3.75807385,,,
imu,274.202264,-1.0479637056,-9.573435564,2.7120247952,0.60573718,6.25766366,-3.71321239,,,
imu,274.210748,-1.2848322144,-9.585996772800002,2.7078377256,0.52349117,8.597936489999999,-3.9449966,,,
imu,274.219231,-1.5623751136,-9.625474857600002,2.7150155592,-0.02232326000000001,12.1195611,-3.99733497,,,
imu,274.227715,-1.8082159144,-9.7540777096,2.706043267200001,-0.25410747,17.04684479,-3.60105874,,,
imu,274.236199,-1.8441050824,-9.859950755200002,2.713221100800001,-0.83730645,22.2133896,-3.98238115,,,
imu,274.244683,-1.80941222,-9.831837573600001,2.726978615200001,-1.54013599,27.5219957,-5.71702427,,,
imu,274.253167,-1.8476939992,-9.7492924872,2.6988654336,-2.45231901,32.86050944,-8.281604399999999,,,
imu,274.261651,-1.8638441248,-9.6912716656,2.638452000800001,-3.22991765,38.213977,-10.50224667,,,
imu,274.270135,-1.8315438736,-9.710412555200001,2.615124041600001,-3.67105534,43.61230602,-12.44624327,,,
imu,274.278619,-1.83931986,-9.702636568800001,2.634264931200001,-4.09723921,48.69660482,-14.52482425,,,
imu,274.287103,-1.7860842608,-9.671532623200001,2.619909264,-4.78511493,53.86314963,-16.53611304,,,
imu,274.295586,-1.6401349776,-9.664952942400001,2.5941886936,-4.986991499999999,58.88763315,-18.51001728,,,
imu,274.30407,-1.4738484992,-9.669738164800002,2.566673664800001,-5.49542138,63.40368678999999,-20.44653697,,,
imu,274.312554,-1.3296936744,-9.6876827488,2.6001702216,-5.89169761,67.34401836,-22.54754868,,,
imu,274.321038,-1.1616127376,-9.6643547896,2.583421943200001,-6.13095873,70.71610477,-24.05040759,,,
imu,274.329509,-0.9803724392000001,-9.6218859408,2.6085443608,-6.45994277,73.37788473,-25.42615903,,,
imu,274.337993,-0.8380120728000001,-9.616502565600001,2.637853848,-6.714157709999999,75.45646571,-27.09350996,,,
imu,274.34645,-0.6765108168000001,-9.609922884800001,2.6504150568,-6.826311359999999,77.093909,-28.37206157,,,
imu,274.354908,-0.4988594352000001,-9.5590798968,2.6605836544,-6.79640372,78.08833803,-29.70295155,,,
imu,274.363365,-0.3475267768,-9.529770409600001,2.6910894472,-6.945941919999999,78.20049168,-31.75162489,,,
imu,274.371822,-0.1782495344,-9.516012895200001,2.715613712000001,-6.803880629999999,77.80421545,-33.80029823,,,
imu,274.380279,0.007177833600000002,-9.492684936000002,2.746119504800001,-6.62443479,76.72006350000001,-35.51251061999999,,,
imu,274.388736,0.1387714496,-9.416719530400002,2.7652603944,-6.48985041,75.20225077,-36.96303116,,,
imu,274.397194,0.2350740504,-9.4005694048,2.801747715200001,-5.981420529999999,73.12366979000001,-37.68829143,,,
imu,274.405651,0.3224043592,-9.4250936696,2.825075674400001,-5.390744639999999,70.54413584000001,-37.60604541999999,,,
imu,274.414108,0.4073420568000001,-9.446627170400001,2.854983314400001,-4.67296128,67.76272532,-37.40416885,,,
imu,274.422565,0.4761296288000001,-9.4460290176,2.8693389816,-4.12714685,64.37568509,-36.85087751,,,
imu,274.431022,0.4809148512,-9.409541696800002,2.931546872800001,-3.4916095,60.92882958,-35.93869449,,,
imu,274.439479,0.5132151024,-9.414925072,2.9554729848,-2.77382614,57.2053284,-34.66761979,,,
imu,274.447937,0.5514968816000001,-9.465169907200002,2.9530803736,-2.25044244,53.19022773,-33.29186835,,,
imu,274.456394,0.4976631296000001,-9.446627170400001,3.0039233616,-1.53265908,49.06297341,-31.48245613,,,
imu,274.464851,0.4611758088,-9.4382530312,3.0553645024,-1.22610577,45.00301128,-29.49359807,,,
imu,274.473308,0.3923882368,-9.423897364000002,3.0858702952,-0.8672140899999999,41.01781825,-27.45240164,,,
imu,274.481765,0.2829262744000001,-9.443636406400001,3.100225962400001,-0.49336859,37.12982504999999,-25.41868212,,,
imu,274.490223,0.176455076,-9.488497866400001,3.1211613104,-0.21672292,33.30912404,-23.88591557,,,
imu,274.49868,0.08015247520000002,-9.536350090400001,3.1337225192,-0.17933837,29.92956072,-22.188657,,,
imu,274.507137,0.004187069600000001,-9.524387034400002,3.1295354496,-0.29896893,26.60233577,-20.58859826,,,
imu,274.515594,-0.07058203040000001,-9.5004609224,3.104413032,-0.41859949,23.64147941,-18.94367806,,,
imu,274.524051,-0.1573141864,-9.493283088800002,3.1068056432,-0.32887657,20.68062305,-17.81466465,,,
imu,274.532508,-0.2380648144,-9.486105255200002,3.0858702952,-0.15690764,17.79453579,-16.99968146,,,
imu,274.540966,-0.3170209840000001,-9.448421628800002,3.098431504000001,-0.02980017,15.00564836,-16.14731372,,,
imu,274.549427,-0.4049494456000001,-9.467562518400001,3.089459212,0.17955331,12.52331424,-15.41457654,,,
imu,274.557888,-0.4593813504000001,-9.478329268800001,3.062542336,0.28423005,10.29519506,-14.97343885,,,
imu,274.566349,-0.5150095608,-9.4250936696,3.057158960800001,0.5459219,8.01473751,-13.89676381,,,
imu,274.57481,-0.5766192992000001,-9.3718580704,3.0099048896,0.7403215599999999,6.07074091,-13.19393427,,,
imu,274.583271,-0.6220789120000001,-9.347333805600002,2.9883713888,1.07678251,4.05945212,-12.63316602,,,
imu,274.591732,-0.6328456624000001,-9.3766432928,2.996745528,1.47305874,2.0257326,-11.87799811,,,
imu,274.600193,-0.6507902464,-9.405952780000002,2.9943529168,1.98148862,-0.04537147000000008,-11.13030711,,,
imu,274.608654,-0.7064184568,-9.460982837600001,2.980595402400001,2.46748777,-2.11647554,-10.57701577,,,
imu,274.617115,-0.7722152648000001,-9.520199964800002,2.9764083328,2.80394872,-4.07542596,-9.79941713,,,
imu,274.625576,-0.7764023344000002,-9.5381445488,2.9811935552,2.84881018,-5.862407449999999,-9.03677231,,,
imu,274.634037,-0.8152822664000001,-9.502853533600002,2.966837888,2.91610237,-7.769019500000001,-8.40871187,,,
imu,274.642498,-0.8583492680000002,-9.4735440464,2.924369039200001,2.87124091,-9.54852408,-7.48157503,,,
imu,274.650959,-0.8469843648000001,-9.495675700000001,2.904031844000001,3.09554821,-11.36541321,-6.374992349999999,,,
imu,274.65942,-0.8104970440000001,-9.554294674400001,2.887283565600001,3.27499405,-13.36922509,-5.76936264,,,
imu,274.667881,-0.804515516,-9.572239258400002,2.8507962448,3.43948607,-15.44780607,-5.216071299999999,,,
imu,274.676342,-0.7913561544000001,-9.528574104,2.8400294944,3.43200916,-17.49647941,-4.3936112,,,
imu,274.684803,-0.7931506128000001,-9.477731116000001,2.829262744000001,3.26751714,-19.84422915,-3.68330475,,,
imu,274.693264,-0.8505732816000001,-9.485507102400002,2.792177270400001,3.32733242,-21.89290249,-2.94309066,,,
imu,274.701725,-0.8930421304000001,-9.5249851872,2.7580825608,3.50677826,-23.90419128,-2.01595382,,,
imu,274.710186,-0.9390998960000001,-9.531564868,2.7377453656,3.58154736,-25.64631131,-1.19349372,,,
imu,274.718647,-0.9552500216000002,-9.5219944232,2.730567532,3.49930135,-27.11178567,-0.15420323,,,
imu,274.727108,-1.00190594,-9.553098368800002,2.7138192536,3.63388573,-28.88381334,0.9224718100000002,,,
imu,273.314209,,,,,,,73.78030600000001,-21.01472520000001,125.2153688
imu,273.415771,,,,,,,72.36427080000001,-21.18562600000002,125.898972
imu,273.517303,,,,,,,72.5717932,-21.73495000000001,126.2896024
imu,273.619018,,,,,,,75.00102600000001,-21.84481480000002,123.6650544
imu,273.720428,,,,,,,72.0957124,-21.29549080000002,126.326224
imu,273.822021,,,,,,,72.9013876,-21.23445480000001,126.6191968
imu,273.923675,,,,,,,72.7549012,-21.0513468,125.8501432
imu,274.735569,-1.0605249144,-9.5501076048,2.6982672808,3.43948607,-30.31190315,1.84213174,,,
imu,274.74403,-1.1233309584,-9.627269316000001,2.696472822400001,3.37219388,-31.3960551,3.09825262,,,
imu,274.752853,-1.1789591688,-9.647606511200001,2.718604476,3.05068675,-32.01663863,3.6814516,,,
imu,274.761677,-1.1568275152,-9.669738164800002,2.730567532,2.67684125,-32.67460671,4.36932732,,,
imu,274.7705,-1.1340977088,-9.6918698184,2.731165684800001,2.07868845,-33.22042114,5.1768336,,,
imu,274.779324,-1.1107697496,-9.7163940832,2.729371226400001,1.73475059,-33.98306596,5.65535584,,,
imu,274.788147,-1.0461692472,-9.746899876,2.729371226400001,1.2936129,-34.77561842,5.94695533,,,
imu,274.796971,-0.9552500216000002,-9.7510869456,2.7467176576,1.00201341,-36.11398531,6.49276976,,,
imu,274.805795,-0.9313239096000001,-9.685888290400001,2.762269630400001,0.34404533,-37.48973675,6.68716942,,,
imu,274.814618,-0.8888550608000001,-9.638036066400002,2.7861957424,-0.13447691,-39.0972724,6.978768909999999,,,
imu,274.823442,-0.7931506128000001,-9.6470083584,2.7682511584,-0.3513073,-40.7421926,7.569444800000001,,,
imu,274.832265,-0.7106055264000001,-9.6499991224,2.747913963200001,-0.48589168,-42.54412791,8.38442799,,,
imu,274.841089,-0.7034276928000001,-9.6296619272,2.748512116,-0.74758353,-44.58532434,9.15454972,,,
imu,274.849912,-0.6920627896000001,-9.573435564,2.72159524,-1.03170611,-46.85830498,10.06673274,,,
imu,274.858736,-0.7177833600000001,-9.516012895200001,2.7419324352,-0.92702937,-48.86959377,11.14340778,,,
imu,274.867559,-0.7530743752000001,-9.478329268800001,2.739539824,-0.84478336,-50.56685234,12.47429776,,,
imu,274.876383,-0.7871690848,-9.584800467200001,2.6773319328,-0.74758353,-52.27906473,13.86500302,,,
imu,274.885207,-0.8410028368000001,-9.6876827488,2.715613712000001,-0.6503837,-53.65481617,15.29309283,,,
imu,274.89403,-0.9259405344000001,-9.61530626,2.727576768,-1.12142903,-54.73896812,16.75109028,,,
imu,274.902854,-1.0162616072,-9.520798117600002,2.736549060000001,-1.42050543,-55.49413603,17.89505751,,,
imu,274.911677,-1.1137605136,-9.516611048000001,2.745521352,-1.53265908,-56.01004282,18.84462508,,,
imu,274.920501,-1.250139352,-9.553696521600001,2.7431287408,-1.48032071,-56.03247355,19.32314732,,,
imu,274.929324,-1.3530216336,-9.575828175200002,2.7413342824,-1.65976655,-55.55395131,19.65960827,,,
imu,274.938148,-1.3990793992,-9.583604161600002,2.7580825608,-1.83921239,-54.76887576,19.79419265,,,
imu,274.946971,-1.4200147472,-9.5447242296,2.778419756,-1.95884295,-53.69967763,19.41287024,,,
imu,274.955444,-1.4612872904,-9.501657228000001,2.771241922400001,-1.98127368,-52.44355675,18.88948654,,,
imu,274.963916,-1.5109339728,-9.493283088800002,2.745521352,-2.04108896,-51.09023604,18.31376447,,,
imu,274.972389,-1.6263774632,-9.479525574400002,2.7449231992,-2.11585806,-49.45279275,17.44644291,,,
imu,274.980861,-1.7531858568,-9.516611048000001,2.761671477600001,-1.9962275,-47.14990447,16.90810539,,,
imu,274.989334,-1.803430692,-9.5237888816,2.7975606456,-1.89155076,-44.27129412,16.10807602,,,
imu,274.997806,-1.7920657888,-9.524387034400002,2.8065329376,-2.04856587,-41.33286849,15.12860081,,,
imu,275.006279,-1.7484006344,-9.504647992000002,2.8298608968,-2.13081188,-38.38696595,13.98463358,,,
imu,275.014751,-1.6694444648,-9.502853533600002,2.8286645912,-1.92893531,-35.51583251,12.81075871,,,
imu,275.023223,-1.6233866992,-9.5184055064,2.833449813600001,-1.92893531,-32.88396019,11.33033053,,,
imu,275.031696,-1.5785252392,-9.519003659200001,2.852590703200001,-1.95136604,-30.37171843,10.20879403,,,
imu,275.040168,-1.4780355688,-9.5213962704,2.8717315928,-1.88407385,-28.12864543,9.04987298,,,
imu,275.048641,-1.411640608,-9.4962738528,2.8878817184,-1.87659694,-26.06501827,8.10778232,,,
imu,275.057113,-1.3781440512,-9.479525574400002,2.895657704800001,-1.88407385,-24.2182215,7.43486042,,,
imu,275.065586,-1.348834564,-9.458590226400002,2.8884798712,-1.71210492,-22.348994,6.90399981,,,
imu,275.074058,-1.2758599224,-9.479525574400002,2.8926669408,-1.46536689,-20.4049974,6.60492341,,,
imu,275.082531,-1.259111644,-9.522592576000001,2.8932650936,-1.27844414,-18.62549282,6.42547757,,,
imu,275.091003,-1.2327929208,-9.555490980000002,2.913004136000001,-1.08404448,-16.98057262,6.36566229,,,
imu,275.099475,-1.187333308,-9.5219944232,2.899246621600001,-1.21115195,-15.41042152,6.216124090000001,,,
imu,275.107948,-1.1640053488,-9.4974701584,2.9142004416,-1.05413684,-13.92999334,6.01424752,,,
imu,275.11642,-1.1029937632,-9.516012895200001,2.910013372,-0.91207555,-12.41965752,5.89461696,,,
imu,275.124893,-1.0862454848,-9.520199964800002,2.901041080000001,-0.91207555,-11.05138299,5.520771460000001,,,
imu,275.133365,-1.088638096,-9.509433214400001,2.908218913600001,-0.80739881,-9.84012357,5.26655652,,,
imu,275.141838,-1.0599267616,-9.4944793944,2.9231727336,-0.8672140899999999,-8.67372561,4.578680800000001,,,
imu,275.15031,-1.0252338992,-9.486105255200002,2.9165930528,-0.91955246,-7.724158040000001,3.68892851,,,
imu,275.158808,-1.0001114816,-9.48072188,2.922574580800001,-0.82235263,-6.68486755,2.9337606,,,
imu,275.167306,-0.9899428840000002,-9.461580990400002,2.922574580800001,-0.81487572,-5.839976719999999,2.27579252,,,
imu,275.175804,-0.9749890640000002,-9.444234559200002,2.9447062344,-0.78496808,-4.965178249999999,1.40847096,,,
imu,275.184302,-0.9486703408000001,-9.443038253600001,2.9363320952,-0.77001426,-4.24739489,0.60844159,,,
imu,275.192799,-0.9187627008000002,-9.435860420000001,2.9273598032,-0.68029134,-3.48475007,0.002811879999999878,,,
imu,275.201297,-0.9241460760000001,-9.451412392800002,2.938126553600001,-0.54570696,-2.82678199,-0.46075654,,,
imu,275.209795,-0.9085941032000001,-9.533957479200001,2.9417154704,-0.51579932,-2.19124464,-0.9542325999999999,,,
imu,275.218293,-0.8924439776000002,-9.572837411200002,2.975810180000001,-0.50832241,-1.286538530000001,-1.08881698,,,
imu,275.226791,-0.8607418792,-9.5357519376,2.9913621528,-0.7251528,-0.6883857300000003,-1.29817046,,,
imu,275.235289,-0.8421991424,-9.5184055064,2.989567694400001,-1.00927538,-0.2771556799999999,-1.6271545,,,
imu,275.243787,-0.8248527112,-9.540537160000001,2.9793990968,-1.06909066,0.11164364,-1.78416961,,,
imu,275.252285,-0.8158804192000001,-9.5489112992,2.9680341936,-1.27844414,0.5079198699999998,-2.09072292,,,
imu,275.260782,-0.8182730304000002,-9.5154147424,2.9530803736,-1.1737674,0.94905756,-2.08324601,,,
imu,275.26928,-0.7961413768000002,-9.450216087200001,2.943509928800001,-1.00927538,1.22570323,-2.20287657,,,
imu,275.277778,-0.7811875568000001,-9.437056725600002,2.9195838168,-1.03170611,1.43505671,-2.62158353,,,
imu,275.286276,-0.7895616960000001,-9.453206851200001,2.907022608,-0.6279529699999999,1.74908693,-2.80102937,,,
imu,275.294774,-0.7793930984000002,-9.451412392800002,2.8938632464,-0.17933837,1.93600968,-3.16739796,,,
imu,275.303272,-0.7560651392000002,-9.443636406400001,2.8974521632,0.14964567,2.16031698,-3.45899745,,,
imu,275.31177,-0.7482891528000001,-9.453206851200001,2.896854010400001,0.58330645,2.26499372,-3.57862801,,,
imu,275.320268,-0.7476910000000001,-9.4496179344,2.8819001904,1.07678251,2.46687029,-3.73564312,,,
imu,275.328765,-0.7249611936,-9.435262267200002,2.883096496000001,1.27118217,2.54163939,-3.99733497,,,
imu,275.337263,-0.708811068,-9.422102905600001,2.8884798712,1.80204278,2.67622377,-4.057150249999999,,,
imu,275.345761,-0.7052221512000001,-9.426289975200001,2.877114968,2.12354991,2.72108523,-3.97490424,,,
imu,275.354259,-0.70282954,-9.457393920800001,2.8902743296,2.22074974,2.75099287,-4.20668845,,,
imu,275.362697,-0.6932590952000001,-9.4454308648,2.877114968,2.49739541,2.75846978,-4.3936112,,,
imu,275.371135,-0.6735200528,-9.4077472384,2.8699371344,2.94601001,2.93791562,-4.32631901,,,
imu,275.379573,-0.6789034280000001,-9.4077472384,2.877713120800001,3.28994787,2.83323888,-4.55062631,,,
imu,275.388012,-0.6789034280000001,-9.452010545600002,2.8657500648,3.4619168,2.75846978,-4.737549059999999,,,
imu,275.39645,-0.6878757200000001,-9.481320032800001,2.8693389816,3.7609932,2.6986545,-4.82727198,,,
imu,275.404888,-0.6824923448,-9.511227672800002,2.8723297456,3.87314685,2.57902394,-4.991764,,,
imu,275.413326,-0.6878757200000001,-9.533359326400001,2.868142676,4.17970016,2.37714737,-5.11139456,,,
imu,275.421673,-0.6783052752000002,-9.573435564,2.8519925504,4.27689999,2.324809,-5.14877911,,,
imu,275.430111,-0.6962498592000002,-9.581809703200001,2.8615629952,4.21708471,2.09302479,-5.08896383,,,
imu,275.438549,-0.6944554008000001,-9.545322382400002,2.865151912,4.0600696,2.01077878,-5.01419473,,,
imu,275.446987,-0.6992406232000001,-9.4980683112,2.85617962,4.07502342,1.98087114,-4.737549059999999,,,
imu,275.455426,-0.7225685824,-9.4974701584,2.8537870088,4.18717707,1.89862513,-4.67773378,,,
imu,275.463864,-0.7291482632,-9.597361676,2.841225800000001,4.01520814,1.577118,-4.94690254,,,
imu,275.472302,-0.7650374312,-9.7265626808,2.838235036,3.947915950000001,1.41262598,-5.08148692,,,
imu,275.48074,-0.7704208064000001,-9.748694334400001,2.844216564,3.57407045,1.34533379,-5.193640569999999,,,
imu,275.489178,-0.7680281952000001,-9.693664276800002,2.8298608968,2.96096383,1.14345722,-5.500193879999999,,,
imu,275.497616,-0.7853746264000001,-9.6326526912,2.85617962,2.77404108,1.24065705,-5.29831731,,,
imu,275.506054,-0.8332268504000001,-9.6260730104,2.82627198,2.33290339,1.4275798,-4.70764142,,,
imu,275.514492,-0.8421991424,-9.658971414400002,2.8095237016,2.22822665,1.69674856,-4.16182699,,,
imu,275.52293,-0.8433954480000001,-9.6535880392,2.7820086728,1.99644244,1.92105586,-3.97490424,,,
imu,275.531369,-0.8116933496000001,-9.599156134400001,2.7766252976,1.76465823,2.12293243,-3.65339711,,,
imu,275.539807,-0.8158804192000001,-9.528574104,2.7730363808,1.54035093,2.29490136,-3.5711511,,,
imu,275.548245,-0.8170767248000002,-9.491488630400001,2.772438228,1.45810492,2.36967046,-3.71321239,,,
imu,274.025016,,,,,,,72.742694,-21.25886920000002,125.9355936
imu,274.126579,,,,,,,72.96242360000001,-21.03913960000001,126.1309088
imu,274.228141,,,,,,,72.36427080000001,-20.89265320000002,126.0332512
imu,274.329734,,,,,,,70.6918844,-20.57526600000001,122.3710912
imu,274.431327,,,,,,,66.1630132,-20.30670760000002,119.1483904
imu,274.532859,,,,,,,66.00431959999999,-21.89364360000001,115.034564
imu,274.634391,,,,,,,62.97693399999999,-21.73495000000001,116.2674912
imu,274.735954,,,,,,,65.80900440000002,-22.72373320000001,115.4496088
imu,275.556683,-0.8164785720000002,-9.5010590752,2.7592788664,1.54782784,2.36967046,-3.78050458,,,
imu,275.565136,-0.8098988912000001,-9.502853533600002,2.7413342824,1.58521239,2.45939338,-3.91508896,,,
imu,275.57359,-0.8320305448000002,-9.487899713600001,2.7341564488,1.68988913,2.5491163,-3.97490424,,,
imu,275.582043,-0.8374139200000001,-9.495675700000001,2.7347546016,1.8169966,2.66126995,-3.93004278,,,
imu,275.590496,-0.8260490168000001,-9.510031367200002,2.7401379768,1.86933497,2.65379304,-4.012288789999999,,,
imu,275.59895,-0.8164785720000002,-9.512423978400001,2.7317638376,1.85438115,2.61640849,-3.78050458,,,
imu,275.607403,-0.8140859608000002,-9.551902063200002,2.7347546016,1.9665348,2.66874686,-3.66835093,,,
imu,275.615856,-0.8057118216000001,-9.591380148,2.7401379768,2.09364227,2.81080815,-3.63844329,,,
imu,275.62431,-0.8027210576,-9.5740337168,2.7658585472,2.05625772,2.6986545,-3.59358183,,,
imu,275.632763,-0.7919543072000002,-9.551902063200002,2.7646622416,1.87681188,2.67622377,-3.47395127,,,
imu,275.641217,-0.7943469184000002,-9.599156134400001,2.771241922400001,1.74970441,2.42200883,-3.59358183,,,
imu,275.64967,-0.7985339880000002,-9.652989886400002,2.7682511584,1.80951969,2.35471664,-3.65339711,,,
imu,275.658123,-0.7967395296000002,-9.672130776000001,2.7628677832,1.61512003,2.27994754,-3.48142818,,,
imu,275.666577,-0.7871690848,-9.6703363176,2.775428992000001,1.4431511,2.19022462,-3.38422835,,,
imu,275.67503,-0.7835801680000001,-9.655980650400002,2.7730363808,1.26370526,2.04068642,-3.36179762,,,
imu,275.683483,-0.7835801680000001,-9.685290137600001,2.761671477600001,0.97958268,1.80890221,-3.11505959,,,
imu,275.691937,-0.7835801680000001,-9.709814402400001,2.772438228,0.6954601,1.74908693,-3.18982869,,,
imu,275.70039,-0.7740097232000002,-9.686486443200002,2.7562881024,0.51601426,1.69674856,-3.16739796,,,
imu,275.708844,-0.7775986400000001,-9.623082246400001,2.7760271448,-0.007369440000000005,1.46496435,-3.07767504,,,
imu,275.717297,-0.7853746264000001,-9.573435564,2.7802142144,-0.15690764,1.55468727,-2.93561375,,,
imu,275.72575,-0.7883653904000001,-9.642223136000002,2.7509047272,-0.35878421,1.44253362,-2.86832156,,,
imu,275.734204,-0.7758041816000001,-9.7151977776,2.7706437696,-0.67281443,1.33785688,-3.00290594,,,
imu,275.742657,-0.7793930984000002,-9.675121540000001,2.7855975896,-1.06161375,1.32290306,-3.10010577,,,
imu,275.75111,-0.7692245008,-9.5632669664,2.7760271448,-1.52518217,1.22570323,-3.05524431,,,
imu,275.759564,-0.7973376824000001,-9.537546396000002,2.783204978400001,-1.89155076,1.21074941,-2.98047521,,,
imu,275.768119,-0.8380120728000001,-9.583006008800002,2.7867938952,-1.77939711,1.36776452,-2.5243837,,,
imu,275.776674,-0.8254508640000001,-9.572239258400002,2.772438228,-1.95884295,1.45748744,-2.27016876,,,
imu,275.785229,-0.8248527112,-9.527975951200002,2.778419756,-2.07847351,1.69674856,-2.31503022,,,
imu,275.793784,-0.8104970440000001,-9.489694172,2.7790179088,-2.15324261,1.7266562,-2.53933752,,,
imu,275.802339,-0.7979358352000001,-9.4765348104,2.7802142144,-1.91398149,1.99582496,-2.3748455,,,
imu,275.810894,-0.8110951968000001,-9.450814240000001,2.7802142144,-1.57004363,2.19770153,-2.34493786,,,
imu,275.819449,-0.7991321408000002,-9.444832712,2.784401284,-1.42050543,2.27247063,-2.4496146,,,
imu,275.828004,-0.7847764736,-9.448421628800002,2.792177270400001,-1.09152139,2.42200883,-2.44213769,,,
imu,275.83656,-0.7841783208,-9.453805004000001,2.8005514096,-0.64290679,2.57902394,-2.47204533,,,
imu,275.845115,-0.7722152648000001,-9.459786532,2.8107200072,-0.34383039,2.69117759,-2.57672207,,,
imu,275.85367,-0.7524762224000001,-9.4765348104,2.8256738272,0.01506129,2.84071579,-2.51690679,,,
imu,275.862225,-0.7189796656000002,-9.489694172,2.8286645912,0.32909151,2.87062343,-2.41970696,,,
imu,275.87078,-0.7046239984,-9.4801237272,2.8507962448,0.4861066199999999,2.84071579,-2.44213769,,,
imu,275.879335,-0.6866794144,-9.5010590752,2.8346461192,0.620691,2.84071579,-2.54681443,,,
imu,275.88789,-0.6693329832000001,-9.545322382400002,2.8747223568,0.8674290299999999,2.72108523,-2.39727623,,,
imu,275.896445,-0.6675385248000001,-9.552500216,2.87113344,0.8375213899999999,2.66874686,-2.43466078,,,
imu,275.905,-0.6783052752000002,-9.5357519376,2.87113344,0.82256757,2.45191647,-2.64401426,,,
imu,275.913555,-0.6747163584000001,-9.5566872856,2.883096496000001,0.81509066,2.30237827,-2.64401426,,,
imu,275.922111,-0.6657440664000001,-9.593174606400002,2.8723297456,0.9646288599999999,2.12293243,-2.76364482,,,
imu,275.930666,-0.6735200528,-9.597959828800002,2.8842928016,0.91229049,1.99582496,-2.85336774,,,
imu,275.939221,-0.6717255944000001,-9.565061424800001,2.8944613992,0.59078336,1.77899457,-3.02533667,,,
imu,275.947776,-0.6765108168000001,-9.556089132800002,2.8998447744,0.44872207,1.74161002,-3.13749032,,,
imu,275.956331,-0.6908664840000001,-9.553098368800002,2.9088170664,0.34404533,1.65936401,-3.08515195,,,
imu,275.964886,-0.6974461648000001,-9.539939007200001,2.895059552,0.31413769,1.61450255,-3.07019813,,,
imu,275.973619,-0.6980443176000002,-9.5249851872,2.880105732000001,0.12721494,1.48739508,-3.1225365,,,
imu,275.982353,-0.7058203040000001,-9.512423978400001,2.8603666896,0.28423005,1.43505671,-3.11505959,,,
imu,275.991086,-0.7207741240000002,-9.507638756,2.874124204,0.2468455,1.40514907,-3.18982869,,,
imu,275.999819,-0.7207741240000002,-9.516012895200001,2.85617962,0.25432241,1.40514907,-3.08515195,,,
imu,276.008553,-0.7309427216000001,-9.4944793944,2.8585722312,0.40386061,1.37524143,-3.01785976,,,
imu,276.017286,-0.7363260968000002,-9.4938812416,2.852590703200001,0.41133752,1.3528107,-3.02533667,,,
imu,276.026019,-0.7608503616000001,-9.4974701584,2.864553759200001,0.7104139199999999,1.38271834,-2.80850628,,,
imu,276.034753,-0.7614485144,-9.4831144912,2.859170384,0.9272443100000001,1.56216418,-2.41970696,,,
imu,276.043486,-0.7704208064000001,-9.475936657600002,2.862161148000001,0.94219813,1.55468727,-2.32250713,,,
imu,276.052219,-0.7811875568000001,-9.493283088800002,2.8573759256,1.19641307,1.7266562,-2.16549202,,,
imu,276.060953,-0.7907580016000001,-9.5010590752,2.8436184112,1.35342818,1.97339423,-1.83650798,,,
imu,276.069686,-0.8081044328000001,-9.4944793944,2.8519925504,1.4431511,2.14536316,-1.6271545,,,
imu,276.078419,-0.7991321408000002,-9.4908904776,2.8358424248,1.67493531,2.3995781,-1.61967759,,,
imu,276.087153,-0.804515516,-9.504647992000002,2.8268701328,1.8169966,2.50425484,-1.58229304,,,
imu,276.095886,-0.8051136688,-9.517807353600002,2.8065329376,2.01887317,2.78090051,-1.38789338,,,
imu,276.104619,-0.7931506128000001,-9.507638756,2.8119163128,2.25065738,3.07997691,-1.21592445,,,
imu,276.113353,-0.7919543072000002,-9.499862769600002,2.787392048000001,2.36281103,3.25942275,-1.05890934,,,
imu,276.122086,-0.780589404,-9.5004609224,2.7838031312,2.58711833,3.48373005,-0.7822636699999999,,,
imu,276.130819,-0.7692245008,-9.5327611736,2.7861957424,2.83385636,3.85009864,-0.5953409199999999,,,
imu,276.139553,-0.7423076248,-9.575828175200002,2.8137107712,2.96844074,3.93234465,-0.5878640099999999,,,
imu,276.148286,-0.7399150136000001,-9.546518688,2.792177270400001,3.05816366,4.23889796,-0.4233719899999999,,,
imu,276.157019,-0.7195778184000001,-9.540537160000001,2.7766252976,3.02825602,4.40338998,-0.32617216,,,
imu,276.165753,-0.7022313872,-9.564463272000001,2.779616061600001,2.98339456,4.552928179999999,-0.1317724999999998,,,
imu,276.174263,-0.6723237472000001,-9.585398620000001,2.7826068256,2.85628709,4.762281659999999,-0.1093417699999999,,,
imu,276.182774,-0.6525847048000001,-9.5842023144,2.775428992000001,2.76656417,4.762281659999999,-0.1915877799999999,,,
imu,276.191284,-0.6424161072,-9.591978300800001,2.7766252976,2.72917962,4.85948149,-0.15420323,,,
imu,276.199795,-0.6196863008000001,-9.568052188800001,2.7730363808,2.58711833,4.92677368,-0.14672632,,,
imu,276.208306,-0.6107140088,-9.575828175200002,2.7676530056,2.37776485,4.92677368,-0.1616801399999999,,,
imu,276.216816,-0.5957601888000001,-9.573435564,2.7646622416,2.2656112,5.001542779999999,-0.06448030999999999,,,
imu,276.225327,-0.5730303824,-9.581809703200001,2.746119504800001,2.20579592,5.05388115,-0.1018648599999998,,,
imu,276.233837,-0.5664507016000001,-9.606333968000001,2.7431287408,2.16841137,5.136127159999999,-0.17663396,,,
imu,274.837882,,,,,,,64.27089720000001,-21.94247240000002,120.2348312
imu,274.93917,,,,,,,66.76116600000002,-21.99130120000001,120.7353264
imu,275.040672,,,,,,,70.2768396,-21.40535560000001,124.86136
imu,275.142234,,,,,,,71.827154,-20.8560316,124.8979816
imu,275.243919,,,,,,,72.8769732,-20.51423000000001,125.6670352
imu,275.345359,,,,,,,73.24318919999999,-20.50202280000002,125.349648
imu,275.446922,,,,,,,72.6694508,-20.22125720000001,125.4839272
imu,275.548606,,,,,,,72.9990452,-21.00251800000002,126.3018096
imu,276.242348,-0.5371412144000001,-9.6218859408,2.740736129600001,2.00391935,5.12865025,-0.06448030999999999,,,
imu,276.250859,-0.5323559920000001,-9.6159044128,2.750306574400001,1.80951969,5.08378879,-0.02709575999999991,,,
imu,276.259369,-0.5347486032000001,-9.585996772800002,2.7521010328,1.63755076,4.979112049999999,-0.08691103999999994,,,
imu,276.26788,-0.5090280328000001,-9.600352440000002,2.7550917968,1.62259694,5.046404239999999,-0.28878761,,,
imu,276.27639,-0.4647647256,-9.611119190400002,2.7443250464,1.60016621,4.979112049999999,-0.37103362,,,
imu,276.284901,-0.4575868920000001,-9.609922884800001,2.7299693792,1.52539711,4.88191222,-0.54300255,,,
imu,276.293412,-0.4797185456,-9.5812115504,2.731165684800001,1.48053565,4.76975857,-0.57291019,,,
imu,276.301922,-0.4557924336,-9.557285438400001,2.746119504800001,1.37585891,4.75480475,-0.6701100199999999,,,
imu,276.310433,-0.4264829464000001,-9.588389384000001,2.764064088800001,1.2936129,4.552928179999999,-1.08881698,,,
imu,276.318943,-0.4288755576000001,-9.647606511200001,2.742530588,1.42819728,4.433297619999999,-1.47013939,,,
imu,276.327454,-0.4294737104000001,-9.6733270816,2.754493644000001,1.36090509,4.09683667,-1.59724686,,,
imu,276.335964,-0.3971734592000001,-9.631456385600002,2.760475172,1.13659779,3.85757555,-1.71687742,,,
imu,276.344475,-0.400762376,-9.5877912312,2.7778216032,0.7552753799999999,3.70056044,-2.18044584,,,
imu,276.352986,-0.3965753064,-9.599754287200001,2.7790179088,0.7403215599999999,3.49120696,-1.79164652,,,
imu,276.361496,-0.3870048616000001,-9.635045302400002,2.75150288,0.3963837,3.38653022,-1.22340136,,,
imu,276.370007,-0.3720510416,-9.623082246400001,2.7497084216,0.43376825,3.24446893,-1.02152479,,,
imu,276.378427,-0.3499193880000001,-9.579417092000002,2.750306574400001,0.1720764,3.00520781,-0.93927878,,,
imu,276.386847,-0.3098431504,-9.5291722568,2.7401379768,0.13469185,2.64631613,-0.77478676,,,
imu,276.395268,-0.3020671640000001,-9.507040603200002,2.745521352,0.18703022,2.21265535,-0.5579563699999999,,,
imu,276.403688,-0.3116376088,-9.5172092008,2.748512116,0.21693786,1.77151766,-0.46075654,,,
imu,276.412108,-0.3128339144,-9.5154147424,2.72159524,0.53096808,1.30047233,-0.11681868,,,
imu,276.420529,-0.3283858872000001,-9.513620284000002,2.709632184,0.64312173,0.8593346399999997,-0.2065416,,,
imu,276.428949,-0.3271895816000001,-9.551902063200002,2.72159524,0.7552753799999999,0.4854891399999999,-0.2214954199999999,,,
imu,276.437369,-0.3343674152,-9.557883591200001,2.7239878512,0.82256757,0.1041667299999998,-0.14672632,,,
imu,276.44579,-0.3182172896000001,-9.5249851872,2.7198007816,0.80013684,-0.1126636599999999,-0.1392494099999999,,,
imu,276.45421,-0.3176191368,-9.523190728800001,2.7263804624,1.03192105,-0.3369709599999999,0.02524261000000028,,,
imu,276.46263,-0.3301803456000001,-9.561472508000001,2.7341564488,1.33847436,-0.3818324200000003,0.242073,,,
imu,276.471051,-0.3475267768,-9.591978300800001,2.718604476,1.40576655,-0.4790322499999999,0.1673038999999998,,,
imu,276.479471,-0.3499193880000001,-9.581809703200001,2.745521352,1.39828964,-0.57623208,-0.07943412999999988,,,
imu,276.487891,-0.3481249296000001,-9.602745051200001,2.7521010328,1.27865908,-0.6510011800000002,-0.3934643499999999,,,
imu,276.496311,-0.3606861384,-9.631456385600002,2.757484408000001,1.22632071,-0.71829337,-0.73740221,,,
imu,276.504732,-0.3714528888,-9.619493329600001,2.757484408000001,0.9945364999999999,-0.7108164600000002,-1.20097063,,,
imu,276.513064,-0.3690602776000001,-9.5985579816,2.761671477600001,0.66555246,-0.88278539,-1.52247776,,,
imu,276.521484,-0.3822196392,-9.605735815200001,2.762269630400001,0.53844499,-0.7033395499999999,-1.79912343,,,
imu,276.529904,-0.4061457512000001,-9.627269316000001,2.7670548528,0.51601426,-0.43417079,-2.03838455,,,
imu,276.538325,-0.4073420568000001,-9.633250844,2.7748308392,0.26179932,-0.1051867500000001,-2.31503022,,,
imu,276.546745,-0.4103328208,-9.602745051200001,2.747913963200001,0.20946095,0.2013665599999999,-2.47204533,,,
imu,276.555165,-0.4121272792,-9.578220786400001,2.750306574400001,0.18703022,0.5453044199999999,-2.64401426,,,
imu,276.563586,-0.4133235848,-9.548313146400002,2.7760271448,0.23189168,0.9415806499999997,-2.75616791,,,
imu,276.572006,-0.3923882368,-9.557285438400001,2.7580825608,0.35152224,1.30794924,-3.07767504,,,
imu,276.580471,-0.4019586816,-9.603343204000002,2.7556899496,0.42629134,1.38271834,-3.33188998,,,
imu,276.588936,-0.4061457512000001,-9.6523917336,2.7652603944,0.33656842,1.6518871,-3.69825857,,,
imu,276.5974,-0.3882011672000001,-9.5865949256,2.793373576,0.19450713,1.89862513,-3.91508896,,,
imu,276.605865,-0.3864067088000001,-9.4980683112,2.79636434,-0.04475399000000001,1.98834805,-4.16182699,,,
imu,276.61433,-0.4163143488000001,-9.520798117600002,2.7927754232,0.09730729999999999,2.40705501,-4.15435008,,,
imu,276.622795,-0.406743904,-9.613511801600001,2.7927754232,0.3216146,2.6986545,-4.25902682,,,
imu,276.63126,-0.3911919312,-9.614708107200002,2.778419756,0.15712258,2.78837742,-4.22911918,,,
imu,276.639724,-0.3804251808,-9.5566872856,2.790382812,-0.06718472,3.01268472,-4.31136519,,,
imu,276.648189,-0.3594898328000001,-9.5447242296,2.790382812,-0.21672292,2.98277708,-4.318842099999999,,,
imu,276.656654,-0.3463304712,-9.537546396000002,2.769447464,-0.02232326000000001,3.1472691,-4.341272829999999,,,
imu,276.665119,-0.3487230824000001,-9.530966715200002,2.7592788664,0.08983038999999998,3.05754618,-4.32631901,,,
imu,276.673584,-0.3690602776000001,-9.546518688,2.7580825608,0.21693786,3.07997691,-4.37118047,,,
imu,276.682048,-0.3523119992,-9.556089132800002,2.7897846592,0.3216146,2.94539253,-4.50576485,,,
imu,276.690513,-0.3481249296000001,-9.52558334,2.7885883536,0.23189168,2.96782326,-4.4683803,,,
imu,276.698978,-0.3648732080000001,-9.498666464000001,2.7867938952,0.3889067899999999,2.81828506,-4.53567249,,,
imu,276.707443,-0.3726491944000001,-9.5381445488,2.7682511584,0.45619898,2.58650085,-4.40108811,,,
imu,276.715908,-0.3720510416,-9.562668813600002,2.7838031312,0.67302937,2.51173175,-4.26650373,,,
imu,276.724373,-0.3750418056000001,-9.541135312800002,2.7909809648,0.80013684,2.48930102,-4.079580979999999,,,
imu,276.732837,-0.3887993200000001,-9.529770409600001,2.787392048000001,0.9870595899999999,2.49677793,-3.90761205,,,
imu,276.741302,-0.4025568344,-9.545322382400002,2.7867938952,1.00201341,2.37714737,-3.78050458,,,
imu,276.749767,-0.4079402096,-9.553696521600001,2.78141052,1.01696723,2.52668557,-3.5711511,,,
imu,276.758232,-0.4115291264,-9.551303910400001,2.7772234504,0.8823828499999999,2.51920866,-3.54124346,,,
imu,276.766697,-0.4210995712,-9.578220786400001,2.7586807136,1.01696723,2.49677793,-3.45152054,,,
imu,276.775161,-0.4276792520000001,-9.599156134400001,2.778419756,1.04687487,2.70613141,-3.2720747,,,
imu,276.783992,-0.4372496968000001,-9.567454036,2.7826068256,1.00201341,3.08745382,-3.36927453,,,
imu,276.792822,-0.4318663216,-9.556089132800002,2.7706437696,1.06182869,3.31176112,-3.59358183,,,
imu,276.801652,-0.430670016,-9.591380148,2.7718400752,1.18145925,3.48373005,-3.54872037,,,
imu,276.810482,-0.4288755576000001,-9.639830524800002,2.759877019200001,1.08425942,3.90991392,-3.7206893,,,
imu,276.819312,-0.415716196,-9.630858232800001,2.7766252976,0.8524752099999999,4.26132869,-3.81788913,,,
imu,276.828143,-0.3989679176000001,-9.5949690648,2.7730363808,0.79265993,4.53797436,-3.90013514,,,
imu,276.836973,-0.382817792,-9.595567217600001,2.7975606456,0.65059864,4.567882,-4.124442439999999,,,
imu,276.845803,-0.3505175408000001,-9.611119190400002,2.787392048000001,0.34404533,4.63517419,-4.40108811,,,
imu,276.854633,-0.3206099008000001,-9.613511801600001,2.784999436800001,0.33656842,4.59778964,-4.48333412,,,
imu,276.863463,-0.3158246784000001,-9.5985579816,2.798756951200001,0.11226112,4.523020539999999,-4.64034923,,,
imu,276.872294,-0.2972819416,-9.5842023144,2.783204978400001,-0.14195382,4.29123633,-4.82727198,,,
imu,276.881124,-0.275150288,-9.576426328,2.784401284,-0.11952309,3.97720611,-4.909517989999999,,,
imu,276.889954,-0.263187232,-9.5800152448,2.7909809648,-0.06718472,3.81271409,-4.84970271,,,
imu,276.898784,-0.2727576768,-9.551902063200002,2.7879902008,-0.23167674,3.35662258,-4.86465653,,,
imu,276.907614,-0.2685706072,-9.507638756,2.7879902008,-0.28401511,2.93791562,-4.87213344,,,
imu,276.916445,-0.2865151912,-9.507040603200002,2.792177270400001,-0.02232326000000001,2.6986545,-4.61044159,,,
imu,276.925275,-0.3038616224,-9.562070660800002,2.7820086728,0.06739966,2.37714737,-4.49081103,,,
imu,276.934105,-0.2972819416,-9.5704448,2.783204978400001,0.05244583999999999,1.91357895,-4.386134289999999,,,
imu,276.942935,-0.2883096496000001,-9.5184055064,2.8161033824,0.08235347999999998,1.39019525,-4.318842099999999,,,
imu,276.951765,-0.3014690112,-9.507638756,2.808327396000001,0.01506129,1.09859576,-4.341272829999999,,,
imu,276.960596,-0.3259932760000001,-9.556089132800002,2.7975606456,0.2468455,0.66493498,-4.079580979999999,,,
imu,276.969426,-0.3481249296000001,-9.5656595776,2.798756951200001,0.20946095,0.4555814999999996,-3.9449966,,,
imu,276.978256,-0.352910152,-9.5501076048,2.8065329376,0.15712258,0.1639820099999998,-3.86275059,,,
imu,276.986728,-0.3696584304000001,-9.516012895200001,2.7879902008,0.3963837,0.02192071999999978,-3.67582784,,,
imu,276.995201,-0.3887993200000001,-9.5040498392,2.79636434,0.5459219,-0.06780220000000003,-3.50385891,,,
imu,277.003673,-0.4175106544000001,-9.544126076800001,2.793373576,0.7253677399999999,-0.04537147000000008,-3.42908981,,,
imu,277.012146,-0.4216977240000001,-9.547714993600001,2.79636434,0.8449983,0.0368745399999999,-3.62348947,,,
imu,277.020618,-0.4258847936,-9.526181492800001,2.7915791176,1.00949032,0.1864127399999997,-3.66835093,,,
imu,277.029091,-0.4468201416000001,-9.5423316184,2.8035421736,1.11416706,0.4032431299999999,-3.6459202,,,
imu,277.037563,-0.4504090584,-9.578818939200001,2.815505229600001,1.18893616,0.5453044199999999,-3.68330475,,,
imu,277.046035,-0.442633072,-9.574631869600001,2.8149070768,1.00949032,0.6499811599999998,-3.85527368,,,
imu,277.054508,-0.442633072,-9.551902063200002,2.7957661872,0.85995212,0.8892422799999999,-3.78798149,,,
imu,275.650011,,,,,,,75.1353052,-21.51522040000003,123.5429824
imu,275.751482,,,,,,,72.7060724,-20.97810360000001,126.3506384
imu,275.853014,,,,,,,75.04985479999999,-21.97909400000002,123.6528472
imu,275.956682,,,,,,,72.59620760000001,-20.83161720000002,125.8745576
imu,276.056475,,,,,,,73.31643240000001,-20.79499560000002,125.16654
imu,276.157732,,,,,,,73.13332439999999,-20.81941,125.6670352
imu,276.259325,,,,,,,73.12111720000001,-21.11238280000001,126.2285664
imu,276.360949,,,,,,,73.2065676,-20.20905000000002,126.0088368
imu,277.06298,-0.4522035168,-9.583604161600002,2.8029440208,0.9048135799999999,1.24065705,-3.66087402,,,
imu,277.071453,-0.4330626272,-9.597959828800002,2.822084910400001,0.8524752099999999,1.33037997,-3.61601256,,,
imu,277.079925,-0.4205014184,-9.554892827200002,2.8119163128,0.80013684,1.4275798,-3.60105874,,,
imu,277.088398,-0.4127254320000001,-9.5381445488,2.804140326400001,0.71789083,1.61450255,-3.66835093,,,
imu,277.09687,-0.3887993200000001,-9.5698466472,2.798756951200001,0.78518302,1.71917929,-3.63096638,,,
imu,277.105343,-0.376836264,-9.576426328,2.8029440208,0.82256757,1.79394839,-3.53376655,,,
imu,277.113815,-0.352910152,-9.564463272000001,2.7939717288,0.8823828499999999,1.67431783,-3.51133582,,,
imu,277.122287,-0.3541064576,-9.561472508000001,2.7957661872,0.5982602699999999,1.54721036,-3.60853565,,,
imu,277.13076,-0.3535083048,-9.545322382400002,2.7927754232,0.76275229,1.50982581,-3.51133582,,,
imu,277.139232,-0.3517138464,-9.540537160000001,2.7652603944,0.6132140899999999,1.38271834,-3.4216129,,,
imu,277.147705,-0.3600879856,-9.547714993600001,2.7897846592,0.6954601,1.36776452,-3.30198234,,,
imu,277.156177,-0.3660695136000001,-9.546518688,2.792177270400001,0.9347212199999999,1.21822632,-3.41413599,,,
imu,277.16465,-0.367863972,-9.596763523200002,2.804140326400001,0.9870595899999999,1.03130357,-3.7206893,,,
imu,277.173122,-0.3953790008,-9.675121540000001,2.7951680344,0.9048135799999999,0.80699627,-4.034719519999999,,,
imu,277.181595,-0.4055475984,-9.669738164800002,2.8065329376,0.5982602699999999,0.5453044199999999,-4.21416536,,,
imu,277.190056,-0.4300718632,-9.597361676,2.805934784800001,0.10478421,0.6499811599999998,-4.146873169999999,,,
imu,277.198517,-0.4581850448000001,-9.606333968000001,2.7981587984,-0.16438455,0.6948426199999997,-3.59358183,,,
imu,277.206978,-0.4731388648000001,-9.6954587352,2.801747715200001,-0.23915365,0.86681155,-2.89075229,,,
imu,277.215439,-0.4683536424000001,-9.7086180968,2.792177270400001,-0.48589168,1.18831868,-2.3748455,,,
imu,277.2239,-0.4533998224,-9.652989886400002,2.790382812,-0.77001426,1.33785688,-2.06081528,,,
imu,277.232361,-0.43366078,-9.585398620000001,2.7867938952,-0.94198319,1.58459491,-1.72435433,,,
imu,277.240822,-0.4199032656,-9.5357519376,2.7718400752,-1.07656757,1.77151766,-1.69444669,,,
imu,277.249283,-0.4187069600000001,-9.520199964800002,2.7688493112,-1.07656757,1.8014253,-1.88136944,,,
imu,277.257744,-0.4205014184,-9.5357519376,2.754493644000001,-1.21115195,1.83133294,-2.09819983,,,
imu,277.266205,-0.4234921824,-9.527377798400002,2.75150288,-0.9793677399999999,2.04816333,-2.2253073,,,
imu,277.274666,-0.4486146000000001,-9.4962738528,2.7586807136,-0.94198319,1.99582496,-2.51690679,,,
imu,277.283127,-0.4222958768,-9.444832712,2.7509047272,-0.66533752,2.1752708,-2.748691,,,
imu,277.291588,-0.4151180432000001,-9.4412437952,2.7521010328,-0.26906129,2.40705501,-2.91318302,,,
imu,277.300049,-0.4121272792,-9.481918185600001,2.7532973384,0.14964567,2.59397776,-2.95056757,,,
imu,277.30851,-0.4061457512000001,-9.508835061600001,2.7670548528,0.38142988,2.63136231,-3.13001341,,,
imu,277.316971,-0.3953790008,-9.4908904776,2.7885883536,0.64312173,2.72108523,-3.24216706,,,
imu,277.325432,-0.3947808480000001,-9.4962738528,2.799355104,0.8823828499999999,2.90053107,-3.48890509,,,
imu,277.333893,-0.370854736,-9.5184055064,2.8119163128,1.15902852,3.12483837,-3.6459202,,,
imu,277.342354,-0.3660695136000001,-9.545322382400002,2.8184959936,1.27118217,3.13231528,-3.66087402,,,
imu,277.350815,-0.3582935272000001,-9.556089132800002,2.8274682856,1.28613599,3.19960747,-3.7954584,,,
imu,277.359276,-0.3385544848000001,-9.559678049600002,2.833449813600001,1.19641307,3.21456129,-3.81788913,,,
imu,277.367737,-0.3092449976000001,-9.575828175200002,2.847207328000001,1.16650543,3.20708438,-3.63844329,,,
imu,277.376198,-0.3080486920000001,-9.591380148,2.859768536800001,1.12164397,3.04259236,-3.82536604,,,
imu,277.384659,-0.2829262744000001,-9.592576453600001,2.866348217600001,1.12912088,2.9977309,-3.63096638,,,
imu,277.393114,-0.2727576768,-9.6009505928,2.859768536800001,0.9870595899999999,2.78837742,-3.57862801,,,
imu,277.40157,-0.2649816904,-9.612315496,2.859170384,0.83004448,2.56407012,-3.54872037,,,
imu,277.410026,-0.2536167872,-9.591380148,2.859170384,0.56087572,2.27994754,-3.54124346,,,
imu,277.418482,-0.2500278704,-9.564463272000001,2.8884798712,0.3216146,2.07807097,-3.46647436,,,
imu,277.426938,-0.2428500368,-9.592576453600001,2.8723297456,0.35899915,1.77151766,-3.44404363,,,
imu,277.435394,-0.2566075512,-9.636241608,2.8795075792,0.27675314,1.39767216,-3.69078166,,,
imu,277.44385,-0.2679724544000001,-9.602146898400001,2.8824983432,-0.21672292,1.15841104,-4.06462716,,,
imu,277.452306,-0.2853188856,-9.541733465600002,2.883096496000001,-0.33635348,0.9041961000000001,-3.92256587,,,
imu,277.460762,-0.3241988176,-9.528574104,2.901041080000001,-0.11204618,0.84438082,-3.81788913,,,
imu,277.469218,-0.3385544848000001,-9.5489112992,2.8944613992,-0.30644584,0.84438082,-3.496382,,,
imu,277.477674,-0.331974804,-9.535153784800002,2.8729278984,-0.5307531400000001,0.9041961000000001,-3.24964397,,,
imu,277.486129,-0.3451341656,-9.5118258256,2.874124204,-0.52327623,0.9714882899999999,-3.21225942,,,
imu,277.494585,-0.3391526376000001,-9.5118258256,2.8783112736,-0.34383039,1.21822632,-3.18982869,,,
imu,277.503041,-0.3289840400000001,-9.492684936000002,2.865151912,0.01506129,1.30047233,-3.17487487,,,
imu,277.511497,-0.3158246784000001,-9.459786532,2.8585722312,0.33656842,1.33037997,-3.39170526,,,
imu,277.519953,-0.3301803456000001,-9.440047489600001,2.8609648424,0.31413769,1.27056469,-3.58610492,,,
imu,277.528409,-0.3325729568,-9.429280739200001,2.8585722312,0.6954601,1.28551851,-3.5711511,,,
imu,277.536865,-0.334965568,-9.4382530312,2.8346461192,1.10669015,1.17336486,-3.92256587,,,
imu,277.545321,-0.3152265256,-9.443038253600001,2.8340479664,1.5926893,1.29299542,-3.9449966,,,
imu,277.553777,-0.3092449976000001,-9.453206851200001,2.82627198,1.98896553,1.33785688,-3.7954584,,,
imu,277.562233,-0.3218062064,-9.477132963200003,2.8244775216,2.10859609,1.18084177,-3.73564312,,,
imu,277.570689,-0.320011748,-9.4801237272,2.829262744000001,2.45253395,1.13598031,-3.7954584,,,
imu,277.579144,-0.3164228312,-9.4974701584,2.822084910400001,2.75908726,1.06121121,-3.62348947,,,
imu,277.5876,-0.3218062064,-9.5429297712,2.8214867576,2.87871782,1.00887284,-3.75059694,,,
imu,277.596074,-0.3182172896000001,-9.583604161600002,2.8101218544,3.03573293,0.9565344699999998,-3.68330475,,,
imu,277.604613,-0.3218062064,-9.621287788000002,2.8107200072,2.82637945,0.8294269999999999,-3.77302767,,,
imu,277.613087,-0.3361618736,-9.636839760800001,2.801747715200001,2.73665653,0.8742884599999998,-3.60853565,,,
imu,277.62156,-0.3385544848000001,-9.642223136000002,2.798756951200001,2.2656112,0.6724118899999998,-3.8702275,,,
imu,277.630034,-0.340947096,-9.6505972752,2.804140326400001,2.02635008,0.6275504299999999,-3.96742733,,,
imu,277.638508,-0.3553027632,-9.6470083584,2.801747715200001,1.86185806,0.8369039099999998,-3.88518132,,,
imu,277.646982,-0.3738455000000001,-9.614109954400002,2.7820086728,1.6674584,0.9041961000000001,-3.75807385,,,
imu,277.655455,-0.3720510416,-9.613511801600001,2.779616061600001,1.45062801,0.92662683,-3.71321239,,,
imu,277.663929,-0.370854736,-9.6326526912,2.7646622416,1.2936129,0.8967191899999998,-3.8702275,,,
imu,277.672403,-0.391790084,-9.617100718400001,2.7766252976,1.27865908,1.07616503,-3.98238115,,,
imu,277.680876,-0.3977716120000001,-9.567454036,2.7700456168,1.18893616,1.15841104,-4.06462716,,,
imu,277.68935,-0.3870048616000001,-9.5590798968,2.7646622416,1.15155161,1.27056469,-4.18425772,,,
imu,277.697824,-0.3887993200000001,-9.582407856000001,2.7556899496,1.18893616,1.39767216,-4.363703559999999,,,
imu,277.706298,-0.4013605288,-9.574631869600001,2.7521010328,1.20388998,1.53973345,-4.408565019999999,,,
imu,277.714771,-0.3983697648000001,-9.573435564,2.7532973384,1.18893616,1.59207182,-4.43847266,,,
imu,277.723245,-0.3941826952,-9.573435564,2.7473158104,1.15155161,1.60702564,-4.53567249,,,
imu,277.731719,-0.3959771536000001,-9.579417092000002,2.754493644000001,0.9272443100000001,1.62197946,-4.57305704,,,
imu,277.740192,-0.4109309736,-9.571042952800001,2.7556899496,0.9870595899999999,1.68179474,-4.52071867,,,
imu,277.748666,-0.4043512928,-9.5590798968,2.7586807136,1.00201341,1.65936401,-4.52071867,,,
imu,277.75714,-0.4019586816,-9.547116840800001,2.7538954912,0.8973366700000001,1.67431783,-4.386134289999999,,,
imu,277.765614,-0.4079402096,-9.554892827200002,2.738941671200001,0.80761375,1.68179474,-4.3936112,,,
imu,277.774087,-0.4181088072000001,-9.572837411200002,2.757484408000001,0.97210577,1.62197946,-4.42351884,,,
imu,277.782561,-0.415716196,-9.559678049600002,2.757484408000001,0.83004448,1.60702564,-4.28145755,,,
imu,277.791035,-0.4175106544000001,-9.5459205352,2.747913963200001,0.88985976,1.62945637,-4.04967334,,,
imu,277.799844,-0.4312681688,-9.565061424800001,2.739539824,0.9870595899999999,1.67431783,-3.90013514,,,
imu,277.808653,-0.4432312248,-9.599156134400001,2.7449231992,0.9945364999999999,1.79394839,-3.66087402,,,
imu,277.817462,-0.4384460024000001,-9.626671163200001,2.7592788664,1.07678251,2.08554788,-3.60105874,,,
imu,277.826271,-0.4264829464000001,-9.6117173432,2.7586807136,0.8749059399999999,2.16031698,-3.61601256,,,
imu,277.83508,-0.4216977240000001,-9.577024480800002,2.7688493112,0.68050628,2.30985518,-3.61601256,,,
imu,277.843889,-0.4252866408000001,-9.5877912312,2.7766252976,0.5982602699999999,2.63136231,-3.67582784,,,
imu,277.852697,-0.4181088072000001,-9.636839760800001,2.7772234504,0.76275229,2.95286944,-3.50385891,,,
imu,277.861506,-0.4037531400000001,-9.638036066400002,2.784401284,0.29918387,3.11736146,-3.66087402,,,
imu,277.870315,-0.3864067088000001,-9.627269316000001,2.784999436800001,0.15712258,3.22951511,-3.80293531,,,
imu,276.462419,,,,,,,73.31643240000001,-20.99031080000002,126.0576656
imu,276.563982,,,,,,,73.7558916,-20.92927480000002,125.3862696
imu,276.665575,,,,,,,76.11188120000001,-21.31990520000002,123.396496
imu,276.767138,,,,,,,73.5239548,-20.63630200000002,125.47172
imu,276.8687,,,,,,,75.5381428,-21.17341880000001,122.9448296
imu,276.970232,,,,,,,73.047874,-20.47760840000002,124.8735672
imu,277.071856,,,,,,,73.4995404,-20.45319400000001,123.2378024
imu,277.173357,,,,,,,73.658234,-20.08697800000001,125.5449632
imu,277.879124,-0.3792288752000001,-9.6284656216,2.784401284,-0.16438455,3.43139168,-3.82536604,,,
imu,277.887933,-0.376836264,-9.6296619272,2.783204978400001,-0.47841477,3.4463455,-4.04967334,,,
imu,277.896742,-0.3391526376000001,-9.682299373600001,2.7778216032,-0.66533752,3.48373005,-4.16182699,,,
imu,277.905551,-0.3259932760000001,-9.776807516000002,2.762269630400001,-0.9943215599999999,3.61083752,-4.22911918,,,
imu,277.91436,-0.3427415544,-9.752881404000002,2.7778216032,-1.49527453,3.64822207,-4.30388828,,,
imu,277.923169,-0.3457323184,-9.557883591200001,2.7951680344,-2.04856587,3.66317589,-4.25902682,,,
imu,277.931978,-0.311039456,-9.422701058400001,2.783204978400001,-2.2205348,3.6706528,-4.10948862,,,
imu,277.940787,-0.2942911776,-9.3862137376,2.7879902008,-1.72705874,3.82766791,-3.77302767,,,
imu,277.949596,-0.3074505392,-9.48072188,2.8256738272,-1.10647521,3.61831443,-4.07210407,,,
imu,277.958405,-0.28412258,-9.609324732000001,2.841225800000001,-0.7999219,3.55102224,-4.37118047,,,
imu,277.967214,-0.2518223288000001,-9.5602762024,2.820290452000001,-0.90459864,3.2968073,-4.41604193,,,
imu,277.976023,-0.2069608688,-9.325202152000001,2.787392048000001,-1.03918302,3.1472691,-4.58053395,,,
imu,277.984832,-0.2284943696,-9.194804841600002,2.7120247952,-0.5307531400000001,2.76594669,-4.64034923,,,
imu,277.993641,-0.2350740504,-9.343744888800002,2.7449231992,0.620691,2.43696265,-4.53567249,,,
imu,278.002115,-0.2171294664,-9.638634219200002,2.8089255488,1.39828964,1.83880985,-4.73007215,,,
imu,278.010588,-0.1848292152,-9.6535880392,2.847207328000001,1.40576655,1.26308778,-5.05157928,,,
imu,278.019062,-0.1656883256,-9.439449336800001,2.8484036336,0.94219813,0.5752120599999997,-4.887087259999999,,,
imu,278.027536,-0.1836329096,-9.3204169296,2.8298608968,1.36090509,-0.3220171400000003,-4.89456417,,,
imu,278.03601,-0.20935348,-9.418513988800001,2.79636434,2.03382699,-1.00989286,-5.05157928,,,
imu,278.044483,-0.2536167872,-9.6284656216,2.8190941464,2.54973378,-1.75758386,-4.52071867,,,
imu,278.052957,-0.3098431504,-9.6733270816,2.822084910400001,2.45253395,-2.09404481,-3.7954584,,,
imu,278.061431,-0.3953790008,-9.526181492800001,2.796962492800001,2.24318047,-2.303398290000001,-3.20478251,,,
imu,278.069904,-0.4025568344,-9.3975786408,2.808327396000001,2.54973378,-2.58004396,-2.96552139,,,
imu,278.078378,-0.3247969704000001,-9.2917055952,2.747913963200001,3.11797894,-2.49032104,-2.55429134,,,
imu,278.086852,-0.3241988176,-9.2552182744,2.7670548528,3.82080848,-2.55013632,-2.32250713,,,
imu,278.095326,-0.4222958768,-9.380830362400001,2.7999532568,4.78532987,-2.65481306,-2.28512258,,,
imu,278.103799,-0.4629702672000001,-9.559678049600002,2.8633574536,5.64517452,-2.81182817,-2.53186061,,,
imu,278.112273,-0.3744436528,-9.671532623200001,2.904031844000001,5.80218963,-2.84921272,-3.07019813,,,
imu,278.120747,-0.3570972216000001,-9.6075302736,2.9273598032,5.1816061,-2.55761323,-3.44404363,,,
imu,278.12922,-0.5455153536,-9.6434194416,2.9207801224,4.85262206,-2.17629082,-3.55619728,,,
imu,278.137694,-0.5526931872,-9.897036228800001,2.9423136232,4.14231561,-1.78001459,-4.13191935,,,
imu,278.146168,-0.5048409632,-9.895839923200002,2.9506877624,2.61702597,-1.23420016,-4.75250288,,,
imu,278.154641,-0.5909749664,-9.6470083584,2.898050316,1.17398234,-0.39678624,-5.25345585,,,
imu,278.163115,-0.6920627896000001,-9.18164548,2.7526991856,0.4861066199999999,0.5453044199999999,-6.0385314,,,
imu,278.171589,-0.8487788232000001,-9.0638093784,2.8675445232,1.17398234,1.51730272,-6.95819133,,,
imu,278.180063,-0.9145756312000002,-9.934121702400002,3.1743969096,2.38524176,2.82576197,-8.25917367,,,
imu,278.188536,-0.8834716856000001,-9.917971576800003,3.0900573648,1.45810492,4.47068217,-9.56015601,,,
imu,278.19701,-0.7650374312,-9.8617452136,3.098431504000001,-0.31392275,6.49692478,-9.8517555,,,
imu,278.205475,-0.7644392784,-9.9012232984,2.889676176800001,-2.06351969,8.41101374,-9.08163377,,,
imu,278.21394,-0.7596540560000001,-9.427486280800002,2.801747715200001,-3.1925331,9.65965771,-7.99000491,,,
imu,278.222405,-0.6531828576,-9.2899111368,2.896854010400001,-2.84111833,10.46716399,-7.3096061,,,
imu,278.230869,-0.340947096,-9.228301398400001,3.029045779200001,-1.5476129,10.90082477,-6.703976389999999,,,
imu,278.239334,-0.4043512928,-9.5327611736,2.8824983432,-0.2765382,10.9232555,-6.17311578,,,
imu,278.247799,-0.2518223288000001,-9.889260242400002,2.9734175688,0.13469185,9.83910355,-5.784316459999999,,,
imu,277.274978,,,,,,,73.93899960000002,-20.37995080000001,125.8135216
imu,277.376388,,,,,,,73.84134200000001,-19.84283400000002,125.1787472
imu,277.477951,,,,,,,73.4018828,-20.27008600000002,124.4463152
imu,277.579483,,,,,,,73.6216124,-20.23346440000002,124.5805944
imu,277.681167,,,,,,,73.353054,-20.59968040000002,125.9478008
imu,277.782608,,,,,,,76.00201639999999,-21.57625640000001,124.2998288
imu,277.884811,,,,,,,73.047874,-20.37995080000001,125.654828
imu,277.985733,,,,,,,75.6968364,-21.22224760000002,123.0058656
imu,278.087417,,,,,,,73.48733320000001,-20.27008600000002,125.2153688
imu,278.188858,,,,,,,74.2563868,-20.61188760000001,123.7993336
