Type,Timestamp,Data Accelerometer X,Data Accelerometer Y,Data Accelerometer Z,Data Gyroscope X,Data Gyroscope Y,Data Gyroscope Z,Data Magnetometer X,Data Magnetometer Y,Data Magnetometer Z
imu,530.775086,-0.1698753952,-9.768433376800001,1.507345056,1.42072037,2.12293243,-3.80293531,,,
imu,530.783551,-0.1788476872,-9.7492924872,1.501363528,1.48053565,2.19022462,-3.88518132,,,
imu,530.792016,-0.1788476872,-9.748096181600001,1.495382,1.53287402,2.1005017,-4.034719519999999,,,
imu,530.800481,-0.1698753952,-9.766638918400002,1.5037561392,1.61512003,2.06311715,-4.11696553,,,
imu,530.808946,-0.1573141864,-9.802528086400002,1.5115321256,1.54782784,2.12293243,-4.13939626,,,
imu,530.81741,-0.1603049504,-9.822267128800002,1.5109339728,1.46558183,2.05564024,-4.15435008,,,
imu,530.825875,-0.1597067976,-9.8270523512,1.5019616808,1.41324346,2.1005017,-4.04219643,,,
imu,530.83434,-0.1531271168,-9.836622796,1.4977746112,1.49548947,2.00330187,-3.96742733,,,
imu,530.842805,-0.143556672,-9.830641268,1.5007653752,1.27865908,1.89862513,-4.0945348,,,
imu,530.85127,-0.1579123392,-9.847389546400002,1.4995690696,1.12164397,1.86124058,-4.08705789,,,
imu,530.859734,-0.176455076,-9.8467913936,1.4977746112,0.9945364999999999,1.66684092,-3.98985806,,,
imu,530.868199,-0.1650901728,-9.840809865600002,1.5228970288,0.6954601,1.58459491,-3.85527368,,,
imu,530.876664,-0.161501256,-9.8461932408,1.5109339728,0.36647606,1.51730272,-3.78050458,,,
imu,530.885129,-0.1746606176,-9.832435726400002,1.4917930832,0.11973803,1.48739508,-3.77302767,,,
imu,530.893594,-0.1752587704,-9.788770572,1.4929893888,-0.23167674,1.25561087,-3.81788913,,,
imu,530.902059,-0.1908107432,-9.7540777096,1.5085413616,-0.22419983,1.25561087,-3.76555076,,,
imu,530.910523,-0.2039701048,-9.763050001600002,1.5031579864,-0.10456927,1.36028761,-3.56367419,,,
imu,530.918988,-0.2087553272,-9.7540777096,1.4959801528,0.03001510999999998,1.50982581,-3.20478251,,,
imu,530.927457,-0.2039701048,-9.742114653600002,1.5001672224,0.11226112,1.59207182,-3.05524431,,,
imu,530.935925,-0.1979885768,-9.739722042400002,1.51033582,0.22441477,1.64441019,-3.06272122,,,
imu,530.944394,-0.2009793408,-9.751685098400001,1.5091395144,0.38142988,1.59207182,-3.21973633,,,
imu,530.952863,-0.2129423968,-9.752283251200002,1.5067469032,0.58330645,1.76404075,-3.33936689,,,
imu,530.961331,-0.2189239248,-9.763050001600002,1.5240933344,0.45619898,1.91357895,-3.39918217,,,
imu,530.9698,-0.2117460912,-9.758264779200001,1.5181118064,0.46367589,2.06311715,-3.54872037,,,
imu,530.978269,-0.2171294664,-9.752283251200002,1.5121302784,0.77770611,2.23508608,-3.51133582,,,
imu,530.986737,-0.2105497856,-9.7474980288,1.4959801528,0.83004448,2.35471664,-3.53376655,,,
imu,530.995206,-0.1997830352,-9.7510869456,1.4899986248,0.80761375,2.49677793,-3.54872037,,,
imu,531.003674,-0.1920070488,-9.7540777096,1.4888023192,0.9347212199999999,2.58650085,-3.48142818,,,
imu,531.012143,-0.1818384512,-9.766040765600001,1.4828207912,1.08425942,2.63136231,-3.32441307,,,
imu,531.020612,-0.1818384512,-9.7576666264,1.4702595824,1.08425942,2.61640849,-3.38422835,,,
imu,531.02908,-0.1830347568,-9.766638918400002,1.4756429576,1.2188438,2.57154703,-3.33188998,,,
imu,531.037549,-0.1812402984,-9.7750130576,1.4816244856,1.31604363,2.60145467,-3.30198234,,,
imu,531.046018,-0.1878199792,-9.7714241408,1.4690632768,1.30856672,2.58650085,-3.23469015,,,
imu,531.054486,-0.1967922712,-9.786377960800001,1.4750448048,1.45810492,2.60145467,-3.24216706,,,
imu,531.062955,-0.1991848824,-9.802528086400002,1.4738484992,1.48053565,2.60145467,-3.22721324,,,
imu,531.071423,-0.2141387024,-9.80970592,1.4971764584,1.42819728,2.67622377,-3.14496723,,,
imu,531.079892,-0.2129423968,-9.8234634344,1.4750448048,1.37585891,2.84071579,-3.1973056,,,
imu,531.088361,-0.2045682576000001,-9.824659740000001,1.4917930832,1.1440747,3.07997691,-3.21225942,,,
imu,531.096829,-0.1991848824,-9.825257892800002,1.483418944,0.8449983,3.11736146,-3.25712088,,,
imu,531.105298,-0.1866236736,-9.8264541984,1.4756429576,0.76275229,3.27437657,-3.20478251,,,
imu,531.113767,-0.1728661592,-9.8270523512,1.474446652,0.52349117,3.43139168,-3.1973056,,,
imu,531.122235,-0.1638938672,-9.810902225600001,1.4511186928,0.31413769,3.3715764,-3.26459779,,,
imu,531.130873,-0.1561178808,-9.802528086400002,1.4541094568,0.20946095,3.2968073,-3.23469015,,,
imu,531.139511,-0.158510492,-9.803126239200001,1.4523149984,0.17955331,3.28185348,-3.27955161,,,
imu,531.148148,-0.1597067976,-9.802528086400002,1.4618854432,0.11973803,3.13979219,-3.2720747,,,
imu,531.156786,-0.158510492,-9.803126239200001,1.4576983736,0.3216146,3.17717674,-3.13749032,,,
imu,531.165424,-0.1531271168,-9.802528086400002,1.4588946792,0.28423005,3.04259236,-3.31693616,,,
imu,531.174062,-0.1543234224,-9.801929933600002,1.477437416,0.18703022,2.9229618,-3.37675144,,,
imu,531.182699,-0.1591086448,-9.809107767200002,1.4995690696,0.17955331,2.78090051,-3.41413599,,,
imu,531.191337,-0.1722680064,-9.802528086400002,1.4726521936,-0.03727708,2.6986545,-3.45152054,,,
imu,531.199975,-0.170473548,-9.7534795568,1.4618854432,-0.08213854000000001,2.76594669,-3.43656672,,,
imu,531.208613,-0.1896144376,-9.754675862400001,1.5007653752,-0.05970781,2.60893158,-3.42908981,,,
imu,531.21725,-0.1770532288,-9.789966877600001,1.4899986248,0.03749201999999999,2.63136231,-3.33188998,,,
imu,531.225888,-0.17944584,-9.803724392000001,1.4798300272,0.23189168,2.74351596,-3.29450543,,,
imu,531.234418,-0.1890162848,-9.803724392000001,1.4792318744,0.11226112,2.66874686,-3.33936689,,,
imu,531.243056,-0.1908107432,-9.802528086400002,1.4870078608,-0.08961545,2.67622377,-3.48142818,,,
imu,531.251693,-0.2099516328,-9.800135475200001,1.4810263328,-0.01484635000000001,2.66874686,-3.36179762,,,
imu,531.260331,-0.2129423968,-9.821668976000002,1.4929893888,-0.01484635000000001,2.61640849,-3.36179762,,,
imu,531.268969,-0.2171294664,-9.822267128800002,1.4828207912,-0.04475399000000001,2.7734236,-3.36927453,,,
imu,531.277607,-0.2129423968,-9.803724392000001,1.495382,-0.20924601,2.81080815,-3.41413599,,,
imu,531.286244,-0.20935348,-9.8043225448,1.5061487504,-0.29149202,2.88557725,-3.59358183,,,
imu,531.294882,-0.191408896,-9.815089295200002,1.516317348,-0.5008455,3.05006927,-3.43656672,,,
imu,531.30352,-0.1985867296,-9.803126239200001,1.5217007232,-0.6503837,3.03511545,-3.1973056,,,
imu,531.312157,-0.1991848824,-9.844398782400003,1.5211025704,-0.82982954,2.90800798,-2.98795212,,,
imu,531.320795,-0.1866236736,-9.831837573600001,1.5276822512,-1.11395212,2.83323888,-2.95804448,,,
imu,531.329433,-0.1997830352,-9.825257892800002,1.5450286824,-1.38312088,2.76594669,-2.83093701,,,
imu,531.338065,-0.1967922712,-9.810902225600001,1.546224988,-1.68967419,2.80333124,-2.78607555,,,
imu,531.346698,-0.1896144376,-9.833632032,1.549215752,-1.85416621,2.78090051,-2.64401426,,,
imu,531.35533,-0.1830347568,-9.839015407200002,1.5288785568,-2.16819643,2.53416248,-2.85336774,,,
imu,531.363963,-0.1830347568,-9.802528086400002,1.5181118064,-2.2953039,2.4743472,-3.0477674,,,
imu,531.372595,-0.1961941184,-9.745105417600001,1.5408416128,-2.20558098,2.51173175,-2.96552139,,,
imu,531.381228,-0.2111479384,-9.731946056000002,1.543234224,-2.12333497,2.63883922,-2.63653735,,,
imu,531.38986,-0.2135405496,-9.738525736800002,1.5294767096,-1.67472037,2.75099287,-2.13558438,,,
imu,531.398493,-0.2039701048,-9.722973764,1.5199062648,-1.31582869,3.07997691,-1.88136944,,,
imu,531.407125,-0.1878199792,-9.6912716656,1.5246914872,-1.14385976,3.15474601,-1.97856927,,,
imu,531.415758,-0.1662864784,-9.668541859200001,1.5246914872,-0.59056842,3.31176112,-2.24773803,,,
imu,531.42439,-0.1597067976,-9.654784344800001,1.5228970288,-0.08961545,3.46129932,-2.68139881,,,
imu,531.433023,-0.1411640608,-9.6703363176,1.5348600848,0.3216146,3.33419185,-3.06272122,,,
imu,531.441655,-0.1208268656,-9.669140012000002,1.5384490016,0.7253677399999999,3.36409949,-3.30945925,,,
imu,531.450288,-0.1202287128,-9.6703363176,1.528280404,0.9646288599999999,3.21456129,-3.48142818,,,
imu,531.45892,-0.1094619624,-9.673925234400002,1.5270840984,1.28613599,3.21456129,-3.45152054,,,
imu,531.467553,-0.1064711984,-9.6942624296,1.5276822512,1.58521239,3.22951511,-3.496382,,,
imu,531.476185,-0.09630260080000001,-9.716992236000001,1.5240933344,1.82447351,3.22951511,-3.3468438,,,
imu,531.484818,-0.07297464160000001,-9.7265626808,1.522298876,1.95905789,3.02016163,-3.33188998,,,
imu,531.49345,-0.06699311360000001,-9.736731278400002,1.5276822512,1.9665348,2.75099287,-3.54124346,,,
imu,531.502083,-0.07118018320000001,-9.7606573904,1.5390471544,2.19831901,2.64631613,-3.43656672,,,
imu,531.510715,-0.07955432240000002,-9.802528086400002,1.5426360712,2.27308811,2.39210119,-3.51881273,,,
imu,531.519348,-0.09211553120000002,-9.811500378400002,1.5366545432,2.31047266,2.07807097,-3.78050458,,,
imu,531.52798,-0.1040785872,-9.8061170032,1.5294767096,2.16841137,1.80890221,-4.057150249999999,,,
imu,531.536457,-0.122621324,-9.8049206976,1.534261932,1.80204278,1.75656384,-4.16182699,,,
imu,531.544933,-0.1519308112,-9.8043225448,1.537252696,1.64502767,1.77151766,-4.169303899999999,,,
imu,531.553409,-0.1662864784,-9.803126239200001,1.5199062648,1.42819728,1.88367131,-4.124442439999999,,,
imu,531.561885,-0.188418132,-9.797742864000002,1.519308112,1.30856672,2.04816333,-4.012288789999999,,,
imu,531.570362,-0.1920070488,-9.8043225448,1.5348600848,1.42072037,1.96591732,-3.97490424,,,
imu,531.578838,-0.176455076,-9.822267128800002,1.5450286824,1.18893616,2.14536316,-4.08705789,,,
imu,531.587314,-0.1758569232,-9.817481906400001,1.5276822512,0.9870595899999999,2.22013226,-4.19921154,,,
imu,531.59579,-0.1758569232,-9.8198745176,1.5318693208,1.09921324,2.27994754,-4.06462716,,,
imu,531.604267,-0.1740624648,-9.813892989600001,1.5396453072,1.12912088,2.30985518,-3.95995042,,,
imu,531.612743,-0.1752587704,-9.8043225448,1.5390471544,1.15902852,2.28742445,-3.8702275,,,
imu,531.621219,-0.1632957144,-9.800733628000001,1.546224988,1.01696723,2.10797861,-3.84031986,,,
imu,531.629695,-0.1620994088,-9.803724392000001,1.5534028216,0.94219813,2.0257326,-3.80293531,,,
imu,531.638172,-0.1710717008,-9.7953502528,1.531271168,0.6954601,2.09302479,-3.66087402,,,
imu,531.646648,-0.1597067976,-9.779200127200001,1.5336637792,0.44872207,1.97339423,-3.496382,,,
imu,531.655124,-0.1740624648,-9.761853696000001,1.5246914872,0.51601426,2.04068642,-3.1973056,,,
imu,531.6636,-0.1908107432,-9.763050001600002,1.5270840984,0.43376825,1.98087114,-2.92065993,,,
imu,531.672077,-0.1979885768,-9.760059237600002,1.5151210424,0.41881443,2.06311715,-2.47952224,,,
imu,531.680553,-0.2051664104,-9.748096181600001,1.5127284312,0.47862971,2.2500399,-2.43466078,,,
imu,531.689029,-0.2015774936,-9.769031529600001,1.5127284312,0.7403215599999999,2.42948574,-2.66644499,,,
imu,531.697505,-0.2039701048,-9.767237071200002,1.5007653752,0.91229049,2.43696265,-2.9729983,,,
imu,531.705982,-0.1967922712,-9.7427128064,1.4870078608,0.81509066,2.55659321,-3.21225942,,,
imu,531.714458,-0.1961941184,-9.734936820000001,1.4977746112,0.94219813,2.59397776,-3.56367419,,,
imu,531.722934,-0.1932033544,-9.743909112,1.4941856944,1.1440747,2.72856214,-3.78050458,,,
imu,531.731411,-0.170473548,-9.744507264800001,1.4822226384,1.48053565,2.96782326,-3.91508896,,,
imu,531.739872,-0.1603049504,-9.7534795568,1.4858115552,1.55530475,2.93043871,-4.04967334,,,
imu,531.748333,-0.1626975616,-9.759461084800002,1.4929893888,1.50296638,2.96782326,-4.17678081,,,
imu,531.756794,-0.1417622136,-9.7702278352,1.4798300272,1.68988913,3.10240764,-4.08705789,,,
imu,531.765255,-0.1297991576,-9.780396432800002,1.483418944,1.71979677,3.01268472,-4.00481188,,,
imu,531.773716,-0.1178361016,-9.803126239200001,1.477437416,1.75718132,2.9229618,-3.93751969,,,
imu,531.782177,-0.1172379488,-9.807313308800001,1.4588946792,1.73475059,2.81080815,-3.78050458,,,
imu,531.790638,-0.1178361016,-9.818678212000002,1.4768392632,1.77213514,2.61640849,-3.63844329,,,
imu,531.799099,-0.1262102408,-9.825856045600002,1.459492832,1.68988913,2.31733209,-3.66087402,,,
imu,531.80756,-0.1363788384,-9.861147060800002,1.453511304,1.43567419,1.99582496,-3.63844329,,,
imu,531.816021,-0.1471455888,-9.853969227200002,1.4618854432,1.27118217,1.86124058,-3.60853565,,,
imu,531.824482,-0.1549215752,-9.8330338792,1.4582965264,1.12164397,1.6518871,-3.56367419,,,
imu,531.832943,-0.167482784,-9.830641268,1.4648762072,1.08425942,1.52477963,-3.43656672,,,
imu,531.841404,-0.1866236736,-9.8210708232,1.4732503464,0.82256757,1.50982581,-3.41413599,,,
imu,531.849865,-0.2027737992,-9.8043225448,1.4618854432,0.6132140899999999,1.5023489,-3.51133582,,,
imu,531.858326,-0.2129423968,-9.787574266400002,1.4672688184,0.34404533,1.44253362,-3.54124346,,,
imu,531.866786,-0.1967922712,-9.767237071200002,1.4768392632,0.35899915,1.63693328,-3.41413599,,,
imu,531.875247,-0.2207183832,-9.793555794400001,1.4870078608,0.29170696,1.73413311,-3.36927453,,,
imu,531.883708,-0.2081571744,-9.7923594888,1.4822226384,0.18703022,1.76404075,-3.45899745,,,
imu,531.892169,-0.206362716,-9.800135475200001,1.504354292,0.21693786,1.76404075,-3.63096638,,,
imu,531.90063,-0.206362716,-9.801929933600002,1.519308112,0.34404533,1.74908693,-3.75807385,,,
imu,531.909091,-0.2117460912,-9.7845835024,1.5019616808,0.22441477,1.74161002,-3.81041222,,,
imu,531.917552,-0.2159331608,-9.769629682400002,1.4935875416,0.16459949,1.73413311,-3.75807385,,,
imu,531.926013,-0.2201202304,-9.746899876,1.4858115552,0.22441477,1.74161002,-3.77302767,,,
imu,531.934474,-0.2404574256,-9.744507264800001,1.4899986248,0.35152224,1.85376367,-3.57862801,,,
imu,531.942938,-0.2446444952,-9.7504887928,1.483418944,0.56835263,1.99582496,-3.47395127,,,
imu,531.951402,-0.2488315648,-9.746301723200002,1.4636799016,0.88985976,2.19022462,-3.26459779,,,
imu,531.959865,-0.236270356,-9.755872168000002,1.4732503464,1.03939796,2.45191647,-3.2720747,,,
imu,531.968329,-0.2165313136,-9.769629682400002,1.459492832,1.28613599,2.63136231,-3.4216129,,,
imu,531.976792,-0.2087553272,-9.786976113600002,1.4696614296,1.48801256,2.84071579,-3.36927453,,,
imu,531.985256,-0.2027737992,-9.8049206976,1.4666706656,1.60016621,3.05006927,-3.24216706,,,
imu,531.993719,-0.1836329096,-9.810902225600001,1.4606891376,1.60764312,3.32671494,-3.11505959,,,
imu,532.002183,-0.1662864784,-9.810902225600001,1.4481279288,1.40576655,3.51363769,-3.13749032,,,
imu,532.010646,-0.146547436,-9.809107767200002,1.4499223872,1.30856672,3.57345297,-3.30945925,,,
imu,532.01911,-0.1202287128,-9.802528086400002,1.4499223872,1.2936129,3.56597606,-3.38422835,,,
imu,532.027573,-0.09151737840000002,-9.797144711200001,1.4391556368,1.19641307,3.68560662,-3.47395127,,,
imu,532.036037,-0.0783580168,-9.803126239200001,1.4588946792,1.07678251,3.53606842,-3.496382,,,
imu,532.044501,-0.0741709472,-9.802528086400002,1.4642780544,1.05435178,3.51363769,-3.4216129,,,
imu,530.794829,,,,,,,-81.8248724,167.9283164,116.1576264
imu,530.895049,,,,,,,-83.96113240000001,168.9903428,117.9764992
imu,530.996611,,,,,,,-83.94892520000002,168.0625956,115.7547888
imu,531.099059,,,,,,,-83.6681596,168.5508836,117.5614544
imu,531.199736,,,,,,,-83.92451080000001,168.8316492,117.9398776
imu,531.301299,,,,,,,-83.6681596,168.8316492,117.476004
imu,532.052964,-0.0723764888,-9.806715156000001,1.483418944,0.8973366700000001,3.23699202,-3.41413599,,,
imu,532.061428,-0.07775986400000001,-9.80970592,1.5061487504,0.60573718,3.09493073,-3.29450543,,,
imu,532.069891,-0.07118018320000001,-9.815687448000002,1.516317348,0.28423005,2.83323888,-3.52628964,,,
imu,532.078355,-0.0783580168,-9.830641268,1.5121302784,0.07487657,2.55659321,-3.73564312,,,
imu,532.086818,-0.1010878232,-9.8168837536,1.4965783056,-0.14195382,2.25751681,-3.95995042,,,
imu,532.095282,-0.1124527264,-9.803126239200001,1.5097376672,-0.26158438,2.16779389,-3.99733497,,,
imu,532.103745,-0.1411640608,-9.801929933600002,1.5145228896,-0.13447691,2.24256299,-3.7206893,,,
imu,532.112209,-0.1668846312,-9.801929933600002,1.5079432088,0.10478421,2.33976282,-3.4216129,,,
imu,532.120672,-0.1955959656,-9.782789044000001,1.4941856944,0.16459949,2.48930102,-3.18235178,,,
imu,532.129136,-0.1896144376,-9.746301723200002,1.4822226384,0.15712258,2.68370068,-3.09262886,,,
imu,532.137599,-0.1806421456,-9.742114653600002,1.4792318744,0.71789083,2.83323888,-3.24216706,,,
imu,532.146069,-0.1662864784,-9.7283571392,1.4666706656,0.8973366700000001,2.83323888,-3.63096638,,,
imu,532.154539,-0.1776513816,-9.744507264800001,1.4870078608,1.08425942,2.78090051,-3.90761205,,,
imu,532.163009,-0.1716698536,-9.728955292000002,1.4696614296,1.27118217,2.78837742,-4.08705789,,,
imu,532.171479,-0.167482784,-9.694860582400002,1.462483596,1.12164397,2.6986545,-4.37118047,,,
imu,532.179949,-0.16449202,-9.739722042400002,1.4600909848,1.35342818,2.55659321,-4.48333412,,,
imu,532.188419,-0.170473548,-9.788172419200002,1.4451371648,1.31604363,2.49677793,-4.386134289999999,,,
imu,532.196889,-0.1656883256,-9.786377960800001,1.4397537896,1.30856672,2.42200883,-4.25902682,,,
imu,532.205359,-0.170473548,-9.783387196800001,1.4463334704,1.18893616,2.1752708,-4.08705789,,,
imu,532.213829,-0.1788476872,-9.7989391696,1.4457353176,1.24127453,2.07807097,-3.80293531,,,
imu,532.222298,-0.1842310624,-9.8043225448,1.4481279288,1.21136689,1.92105586,-3.54124346,,,
imu,532.230768,-0.1752587704,-9.8198745176,1.4451371648,1.06182869,1.82385603,-3.36927453,,,
imu,532.239238,-0.1967922712,-9.830641268,1.4409500952,0.9945364999999999,1.74161002,-3.37675144,,,
imu,532.247708,-0.2159331608,-9.839015407200002,1.4421464008,0.8375213899999999,1.58459491,-3.48890509,,,
imu,532.256178,-0.2410555784,-9.842006171200001,1.4481279288,0.65807555,1.49487199,-3.63844329,,,
imu,532.264648,-0.2464389536,-9.836622796,1.4409500952,0.5010604399999999,1.64441019,-3.67582784,,,
imu,532.273118,-0.2554112456,-9.840809865600002,1.4457353176,0.45619898,1.74161002,-3.66835093,,,
imu,532.281588,-0.251224176,-9.824061587200001,1.4427445536,0.29918387,1.94348659,-3.69825857,,,
imu,532.290058,-0.2530186344000001,-9.822267128800002,1.4541094568,0.08983038999999998,2.09302479,-3.59358183,,,
imu,532.298528,-0.2428500368,-9.828846809600002,1.453511304,0.17955331,2.42948574,-3.44404363,,,
imu,532.306997,-0.2278962168,-9.825257892800002,1.4379593312,0.05992275,2.72108523,-3.54872037,,,
imu,532.315467,-0.2075590216,-9.807313308800001,1.426594428,-0.14943073,2.67622377,-3.54124346,,,
imu,532.323846,-0.2039701048,-9.743310959200002,1.4331741088,-0.09709236,2.81080815,-3.62348947,,,
imu,532.332315,-0.188418132,-9.745703570400002,1.4576983736,-0.01484635000000001,2.84071579,-3.7954584,,,
imu,532.340785,-0.1722680064,-9.810304072800001,1.4421464008,0.11973803,2.70613141,-4.10948862,,,
imu,532.349597,-0.1752587704,-9.803126239200001,1.4277907336,0.14216876,2.57902394,-4.30388828,,,
imu,532.358409,-0.1632957144,-9.762451848800001,1.453511304,0.05244583999999999,2.36967046,-4.25902682,,,
imu,532.36722,-0.1776513816,-9.740918348000001,1.46547436,-0.08961545,2.23508608,-4.22164227,,,
imu,532.376032,-0.1902125904,-9.754675862400001,1.4696614296,0.01506129,2.22013226,-3.99733497,,,
imu,532.384843,-0.200381188,-9.773816752000002,1.4618854432,0.04496892999999999,2.12293243,-3.75807385,,,
imu,532.393655,-0.2057645632,-9.779200127200001,1.477437416,0.14216876,2.16031698,-3.51133582,,,
imu,532.402467,-0.2075590216,-9.8013317808,1.474446652,0.19450713,2.08554788,-3.51881273,,,
imu,532.411278,-0.2147368552,-9.803126239200001,1.4618854432,0.05992275,2.16031698,-3.62348947,,,
imu,532.42009,-0.2117460912,-9.8013317808,1.447529776,-0.22419983,2.10797861,-3.63844329,,,
imu,532.428902,-0.2219146888,-9.7809945856,1.4499223872,-0.07466163,2.13040934,-3.66835093,,,
imu,532.437713,-0.233279592,-9.7714241408,1.453511304,0.007584380000000002,2.06311715,-3.76555076,,,
imu,532.446525,-0.2398592728,-9.7540777096,1.4397537896,0.2468455,2.20517844,-3.84031986,,,
imu,532.455336,-0.2374666616,-9.76484446,1.4403519424,0.18703022,2.19022462,-3.84779677,,,
imu,532.464148,-0.2524204816,-9.779798280000001,1.4529131512,0.56835263,2.3995781,-3.85527368,,,
imu,532.47296,-0.2416537312,-9.790565030400002,1.4481279288,0.44872207,2.34723973,-3.81788913,,,
imu,532.481771,-0.2344758976,-9.7780038216,1.4541094568,0.57582954,2.44443956,-3.60105874,,,
imu,532.490583,-0.236270356,-9.7821908912,1.4606891376,0.64312173,2.51920866,-3.58610492,,,
imu,532.499394,-0.2374666616,-9.7953502528,1.48042818,0.80761375,2.63136231,-3.30198234,,,
imu,532.508206,-0.2398592728,-9.8079114616,1.4792318744,0.66555246,2.73603905,-3.24964397,,,
imu,532.517018,-0.251224176,-9.80970592,1.4666706656,0.73284465,2.6986545,-3.10010577,,,
imu,532.525829,-0.248233412,-9.803126239200001,1.4708577352,0.79265993,2.7734236,-3.02533667,,,
imu,532.534641,-0.2536167872,-9.803126239200001,1.4720540408,0.7104139199999999,2.83323888,-2.94309066,,,
imu,532.543453,-0.2494297176,-9.803126239200001,1.462483596,0.56835263,3.01268472,-2.8982292,,,
imu,532.551928,-0.2398592728,-9.802528086400002,1.4541094568,0.3739529699999999,3.24446893,-2.84589083,,,
imu,532.560403,-0.236270356,-9.8049206976,1.4481279288,0.28423005,3.35662258,-2.74121409,,,
imu,532.568878,-0.2320832864,-9.803126239200001,1.4469316232,0.28423005,3.40148404,-2.65896808,,,
imu,532.577353,-0.2135405496,-9.786377960800001,1.4421464008,0.23189168,3.48373005,-2.68887572,,,
imu,532.585827,-0.2045682576000001,-9.776209363200001,1.4349685672,0.1720764,3.37905331,-2.90570611,,,
imu,532.594302,-0.2027737992,-9.7815927384,1.4481279288,0.35152224,3.46877623,-3.10010577,,,
imu,532.602777,-0.2045682576000001,-9.7714241408,1.45052054,0.30666078,3.38653022,-3.17487487,,,
imu,532.611252,-0.1985867296,-9.766040765600001,1.4463334704,0.34404533,3.40148404,-3.18235178,,,
imu,532.619727,-0.1955959656,-9.7510869456,1.4553057624,0.29170696,3.33419185,-3.28702852,,,
imu,532.628202,-0.2039701048,-9.758264779200001,1.4588946792,0.44124516,3.33419185,-3.18982869,,,
imu,532.636677,-0.2057645632,-9.76484446,1.477437416,0.43376825,3.41643786,-3.01785976,,,
imu,532.645152,-0.1920070488,-9.779200127200001,1.471455888,0.43376825,3.40896095,-2.8982292,,,
imu,532.653627,-0.1908107432,-9.788172419200002,1.4870078608,0.5010604399999999,3.53606842,-2.92813684,,,
imu,532.662102,-0.1872218264,-9.791761336000002,1.4792318744,0.58330645,3.45382241,-2.93561375,,,
imu,532.670577,-0.1920070488,-9.800733628000001,1.4935875416,0.65059864,3.39400713,-2.96552139,,,
imu,532.679052,-0.1938015072,-9.803126239200001,1.4917930832,0.64312173,3.46129932,-3.10758268,,,
imu,532.687527,-0.1979885768,-9.8043225448,1.4726521936,0.9272443100000001,3.40148404,-3.06272122,,,
imu,532.696002,-0.1938015072,-9.803724392000001,1.4768392632,0.6954601,3.31923803,-3.10010577,,,
imu,532.704477,-0.1985867296,-9.805518850400002,1.4858115552,0.59078336,3.2968073,-3.25712088,,,
imu,532.712952,-0.19439966,-9.803126239200001,1.4732503464,0.68050628,3.25194584,-3.23469015,,,
imu,532.721427,-0.1812402984,-9.8210708232,1.4571002208,0.7403215599999999,3.21456129,-3.45152054,,,
imu,532.729902,-0.1740624648,-9.803724392000001,1.4541094568,0.53096808,3.2220382,-3.66835093,,,
imu,532.738377,-0.1740624648,-9.788770572,1.4433427064,0.41133752,3.19213056,-3.68330475,,,
imu,532.746852,-0.1716698536,-9.766040765600001,1.4517168456,0.56087572,3.10988455,-3.48890509,,,
imu,532.755318,-0.1716698536,-9.776807516000002,1.4642780544,0.74779847,3.06502309,-3.31693616,,,
imu,532.763784,-0.1908107432,-9.748694334400001,1.45052054,0.65059864,2.84071579,-3.496382,,,
imu,532.77225,-0.1938015072,-9.727758986400001,1.4660725128,0.5459219,2.60145467,-3.42908981,,,
imu,532.780717,-0.2027737992,-9.756470320800002,1.4822226384,0.56087572,2.3995781,-3.57862801,,,
imu,532.789183,-0.2099516328,-9.8049206976,1.468465124,0.66555246,2.39210119,-3.58610492,,,
imu,532.797649,-0.2219146888,-9.810902225600001,1.4792318744,0.63564482,2.22013226,-3.51881273,,,
imu,532.806115,-0.2320832864,-9.802528086400002,1.4732503464,0.46367589,2.20517844,-3.33188998,,,
imu,532.814581,-0.2488315648,-9.798341016800002,1.4792318744,0.41133752,2.33228591,-2.88327538,,,
imu,532.823047,-0.2590001624000001,-9.805518850400002,1.4541094568,0.44124516,2.66874686,-2.21783039,,,
imu,532.831513,-0.2506260232,-9.8210708232,1.4439408592,0.34404533,2.93043871,-1.76173888,,,
imu,532.839979,-0.2542149400000001,-9.803126239200001,1.4391556368,0.53096808,3.34914567,-1.44770866,,,
imu,532.848445,-0.2314851336,-9.800135475200001,1.4271925808,0.45619898,3.43886859,-1.6271545,,,
imu,532.856911,-0.2015774936,-9.776209363200001,1.4158276776,0.4711528,3.6706528,-1.94118472,,,
imu,532.865377,-0.1890162848,-9.773816752000002,1.4068553856,0.77770611,3.93982156,-2.21035348,,,
imu,531.402786,,,,,,,-84.5348708,169.1368292,117.23186
imu,531.504349,,,,,,,-83.8634748,168.7461988,117.598076
imu,531.605911,,,,,,,-81.8981156,168.2823252,116.9633016
imu,531.707474,,,,,,,-83.91230359999999,168.9903428,117.53704
imu,531.809036,,,,,,,-81.75162920000001,168.08701,115.4251944
imu,531.918228,,,,,,,-83.8268532,168.8926852,118.1474
imu,532.012161,,,,,,,-84.00996119999999,168.1968748,115.278708
imu,532.113754,,,,,,,-84.1930692,168.4288116,117.5858688
imu,532.873843,-0.1668846312,-9.770825988000002,1.4092479968,0.76275229,3.92486774,-2.58419898,,,
imu,532.88231,-0.1411640608,-9.7845835024,1.4170239832,0.7552753799999999,3.83514482,-2.87579847,,,
imu,532.890776,-0.1292010048,-9.783387196800001,1.417622136,0.8524752099999999,3.90243701,-3.01785976,,,
imu,532.899242,-0.122621324,-9.789966877600001,1.4218092056,0.7702292,3.99963684,-3.08515195,,,
imu,532.907708,-0.110658268,-9.8013317808,1.4289870392,0.83004448,4.01459066,-3.01038285,,,
imu,532.916174,-0.08673215600000002,-9.8198745176,1.4541094568,0.6954601,4.11179049,-3.05524431,,,
imu,532.92464,-0.06220789120000001,-9.824061587200001,1.4427445536,0.73284465,3.87252937,-2.8982292,,,
imu,532.933106,-0.0592171272,-9.812696684000002,1.4337722616,0.6132140899999999,3.55849915,-2.91318302,,,
imu,532.941572,-0.05682451600000001,-9.802528086400002,1.423603664,0.29918387,3.22951511,-3.09262886,,,
imu,532.950038,-0.0634041968,-9.7809945856,1.426594428,0.03001510999999998,2.9229618,-3.09262886,,,
imu,532.958508,-0.08673215600000002,-9.7702278352,1.4140332192,0.08235347999999998,2.61640849,-3.27955161,,,
imu,532.966978,-0.1034804344,-9.783387196800001,1.4319778032,0.02253820000000001,2.30237827,-3.48890509,,,
imu,532.975448,-0.1250139352,-9.7809945856,1.4212110528,-0.007369440000000005,2.20517844,-3.45899745,,,
imu,532.983918,-0.1459492832,-9.802528086400002,1.4373611784,0.03001510999999998,2.01825569,-3.45899745,,,
imu,532.992388,-0.1752587704,-9.8432024768,1.444539012,0.12721494,2.03320951,-3.33936689,,,
imu,533.000858,-0.1656883256,-9.790565030400002,1.4666706656,0.14216876,2.10797861,-3.29450543,,,
imu,533.009328,-0.1752587704,-9.7427128064,1.4571002208,-0.03727708,2.27994754,-3.37675144,,,
imu,533.017797,-0.1686790896,-9.749890640000002,1.4397537896,-0.11952309,2.26499372,-3.48890509,,,
imu,533.026267,-0.1531271168,-9.788172419200002,1.4343704144,0.14964567,2.38462428,-3.57862801,,,
imu,533.034737,-0.1477437416,-9.821668976000002,1.4523149984,0.30666078,2.37714737,-3.63844329,,,
imu,533.043207,-0.1381732968,-9.827650504000003,1.4576983736,0.3216146,2.24256299,-3.7206893,,,
imu,533.051677,-0.1453511304,-9.853969227200002,1.4905967776,0.28423005,2.24256299,-3.82536604,,,
imu,533.060147,-0.1238176296,-9.866530436000001,1.5181118064,-0.04475399000000001,2.16031698,-3.88518132,,,
imu,533.068617,-0.1363788384,-9.819276364800002,1.5157191952,-0.45598404,1.96591732,-3.82536604,,,
imu,533.077087,-0.1363788384,-9.818678212000002,1.4989709168,-0.69524516,1.78647148,-3.83284295,,,
imu,533.085557,-0.131593616,-9.802528086400002,1.4846152496,-0.7999219,1.67431783,-3.70573548,,,
imu,533.094027,-0.1531271168,-9.786377960800001,1.501363528,-1.00179847,1.65936401,-3.46647436,,,
imu,533.102496,-0.1632957144,-9.767237071200002,1.489400472,-0.84478336,1.66684092,-3.07019813,,,
imu,533.110966,-0.173464312,-9.752283251200002,1.4876060136,-0.82982954,1.65936401,-2.86084465,,,
imu,533.119436,-0.1776513816,-9.7504887928,1.4995690696,-1.00179847,1.63693328,-2.8234601,,,
imu,533.127906,-0.1752587704,-9.744507264800001,1.486409708,-0.76253735,1.70422547,-2.9729983,,,
imu,533.136376,-0.1866236736,-9.7403201952,1.5037561392,-0.64290679,1.76404075,-3.08515195,,,
imu,533.144846,-0.185427368,-9.7193848472,1.4941856944,-0.40364567,1.8014253,-3.24216706,,,
imu,533.153316,-0.188418132,-9.690075360000002,1.4828207912,-0.19429219,1.98087114,-3.51881273,,,
imu,533.16177,-0.1967922712,-9.690075360000002,1.4941856944,-0.007369440000000005,2.00330187,-3.72816621,,,
imu,533.170225,-0.1920070488,-9.706823638400001,1.5025598336,0.35899915,1.96591732,-3.97490424,,,
imu,533.17868,-0.1860255208,-9.720581152800001,1.4846152496,0.5982602699999999,2.07059406,-4.11696553,,,
imu,533.187134,-0.1926052016,-9.730749750400001,1.4840170968,0.97958268,2.22760917,-4.18425772,,,
imu,533.195589,-0.197390424,-9.754675862400001,1.4971764584,1.11416706,2.45939338,-4.00481188,,,
imu,533.204044,-0.1932033544,-9.763050001600002,1.492391236,1.21136689,2.55659321,-3.95247351,,,
imu,533.212498,-0.1890162848,-9.769629682400002,1.4828207912,1.39081273,2.67622377,-3.84779677,,,
imu,533.220953,-0.1860255208,-9.786377960800001,1.4720540408,1.53287402,2.72108523,-3.63844329,,,
imu,533.229408,-0.16449202,-9.783387196800001,1.4636799016,1.41324346,2.80333124,-3.5711511,,,
imu,533.237862,-0.1626975616,-9.7953502528,1.4511186928,1.51044329,2.79585433,-3.48142818,,,
imu,533.246317,-0.170473548,-9.801929933600002,1.4553057624,1.54035093,2.78090051,-3.496382,,,
imu,533.254772,-0.1722680064,-9.813892989600001,1.4541094568,1.68988913,2.81828506,-3.57862801,,,
imu,533.263226,-0.1740624648,-9.813892989600001,1.45052054,1.75718132,2.87810034,-3.56367419,,,
imu,533.271681,-0.173464312,-9.818080059200001,1.4463334704,1.69736604,2.90800798,-3.54872037,,,
imu,533.280135,-0.1686790896,-9.805518850400002,1.4409500952,1.57773548,2.7734236,-3.51133582,,,
imu,533.28859,-0.167482784,-9.8300431152,1.4433427064,1.24875144,2.87062343,-3.496382,,,
imu,533.297045,-0.1471455888,-9.8402117128,1.4313796504,1.03192105,2.87062343,-3.63096638,,,
imu,533.305499,-0.1591086448,-9.825856045600002,1.4212110528,0.97210577,2.90053107,-3.61601256,,,
imu,533.313954,-0.16449202,-9.803126239200001,1.4271925808,0.74779847,2.80333124,-3.69825857,,,
imu,533.322409,-0.1561178808,-9.8061170032,1.4343704144,0.55339881,2.66126995,-3.77302767,,,
imu,533.330863,-0.1656883256,-9.803126239200001,1.4379593312,0.6132140899999999,2.63136231,-3.78798149,,,
imu,533.339318,-0.173464312,-9.797742864000002,1.4457353176,0.3739529699999999,2.51173175,-3.80293531,,,
imu,533.347773,-0.1740624648,-9.802528086400002,1.4493242344,0.44124516,2.43696265,-3.6459202,,,
imu,533.356227,-0.1908107432,-9.803724392000001,1.4511186928,0.36647606,2.45191647,-3.496382,,,
imu,533.365052,-0.191408896,-9.801929933600002,1.447529776,0.05244583999999999,2.31733209,-3.38422835,,,
imu,533.373877,-0.1902125904,-9.7845835024,1.4547076096,-0.06718472,2.33228591,-3.33936689,,,
imu,533.382702,-0.2111479384,-9.768433376800001,1.4571002208,-0.08961545,2.4743472,-3.21973633,,,
imu,533.391527,-0.2129423968,-9.788770572,1.4457353176,-0.04475399000000001,2.5491163,-3.11505959,,,
imu,533.400352,-0.2081571744,-9.793555794400001,1.4463334704,-0.08213854000000001,2.6986545,-3.07767504,,,
imu,533.409177,-0.1932033544,-9.794153947200002,1.4487260816,0.05992275,2.79585433,-3.08515195,,,
imu,533.418327,-0.1932033544,-9.7606573904,1.43556672,0.21693786,3.00520781,-3.09262886,,,
imu,533.427152,-0.1967922712,-9.7540777096,1.4451371648,0.27675314,3.19960747,-3.1225365,,,
imu,533.435977,-0.1872218264,-9.786377960800001,1.4433427064,0.52349117,3.32671494,-3.1225365,,,
imu,533.444802,-0.170473548,-9.803126239200001,1.4493242344,0.52349117,3.31176112,-3.26459779,,,
imu,533.453627,-0.1567160336,-9.810902225600001,1.4786337216,0.3739529699999999,3.23699202,-3.57862801,,,
imu,533.462452,-0.1411640608,-9.813892989600001,1.4690632768,0.21693786,3.25194584,-3.62348947,,,
imu,533.471277,-0.131593616,-9.789966877600001,1.4732503464,0.11226112,3.25194584,-3.56367419,,,
imu,533.480101,-0.1184342544,-9.794153947200002,1.4738484992,0.01506129,2.9977309,-3.66835093,,,
imu,533.488926,-0.1202287128,-9.803126239200001,1.4696614296,0.05992275,2.87062343,-3.71321239,,,
imu,533.497751,-0.1274065464,-9.802528086400002,1.4630817488,-0.08961545,2.54163939,-3.82536604,,,
imu,533.506576,-0.122621324,-9.7780038216,1.4822226384,-0.13447691,2.22013226,-3.84779677,,,
imu,533.515401,-0.1417622136,-9.801929933600002,1.4935875416,-0.23167674,1.89114822,-3.93004278,,,
imu,533.524226,-0.1638938672,-9.803724392000001,1.48042818,-0.127,1.68179474,-4.10948862,,,
imu,533.533051,-0.1896144376,-9.789368724800001,1.4672688184,-0.23915365,1.56964109,-4.07210407,,,
imu,533.541876,-0.20935348,-9.7540777096,1.4798300272,-0.24663056,1.56964109,-3.74312003,,,
imu,533.5507,-0.2356722032,-9.7534795568,1.4882041664,0.04496892999999999,1.63693328,-3.25712088,,,
imu,533.559525,-0.2536167872,-9.779798280000001,1.4756429576,0.07487657,1.95844041,-2.93561375,,,
imu,533.567999,-0.2613927736,-9.7995373224,1.4660725128,0.41881443,2.13040934,-2.65896808,,,
imu,533.576473,-0.2613927736,-9.788770572,1.4571002208,0.5010604399999999,2.40705501,-2.64401426,,,
imu,533.584947,-0.251224176,-9.7923594888,1.4642780544,0.47862971,2.66126995,-2.80102937,,,
imu,533.59342,-0.233279592,-9.767835224,1.4469316232,0.4711528,2.96034635,-2.99542903,,,
imu,533.601894,-0.2338777448,-9.766638918400002,1.4493242344,0.56835263,3.16969983,-3.16739796,,,
imu,533.610368,-0.2051664104,-9.745105417600001,1.444539012,0.7552753799999999,3.24446893,-3.38422835,,,
imu,533.618841,-0.1926052016,-9.738525736800002,1.4403519424,0.64312173,3.40896095,-3.52628964,,,
imu,533.627315,-0.1716698536,-9.761853696000001,1.4391556368,0.77770611,3.53606842,-3.54872037,,,
imu,533.635789,-0.1495382,-9.769031529600001,1.4331741088,0.80761375,3.61831443,-3.54872037,,,
imu,533.644263,-0.1339862272,-9.7845835024,1.4379593312,0.8375213899999999,3.65569898,-3.496382,,,
imu,533.652736,-0.1172379488,-9.802528086400002,1.4403519424,0.9272443100000001,3.5958837,-3.50385891,,,
imu,533.66121,-0.09510629520000001,-9.802528086400002,1.4343704144,1.00949032,3.45382241,-3.31693616,,,
imu,533.669684,-0.09390998960000001,-9.812098531200002,1.4391556368,0.8449983,3.20708438,-3.40665908,,,
imu,533.678157,-0.09450814240000002,-9.8264541984,1.4367630256,0.7552753799999999,2.89305416,-3.37675144,,,
imu,533.686631,-0.1064711984,-9.8330338792,1.444539012,0.64312173,2.74351596,-3.56367419,,,
imu,532.215286,,,,,,,-83.8878892,168.7950276,117.6957336
imu,532.316849,,,,,,,-83.9000964,168.8438564,118.3183008
imu,532.418411,,,,,,,-83.9733396,168.4898476,117.1586168
imu,532.519943,,,,,,,-83.61933079999999,168.9293068,117.476004
imu,532.62413,,,,,,,-83.92451080000001,168.3555684,118.2328504
imu,532.723099,,,,,,,-82.0690164,167.78183,116.7801936
imu,532.824661,,,,,,,-84.08320440000001,168.69737,117.8300128
imu,532.926224,,,,,,,-81.75162920000001,168.0381812,114.668348
imu,533.695105,-0.122621324,-9.8234634344,1.4451371648,0.3963837,2.44443956,-3.69078166,,,
imu,533.703579,-0.1483418944,-9.811500378400002,1.4451371648,0.40386061,2.22013226,-3.77302767,,,
imu,533.712052,-0.1710717008,-9.802528086400002,1.4481279288,0.25432241,2.19022462,-3.59358183,,,
imu,533.720526,-0.1926052016,-9.803724392000001,1.444539012,0.25432241,2.22013226,-3.45152054,,,
imu,533.729,-0.2057645632,-9.793555794400001,1.4343704144,0.23936859,2.33976282,-3.46647436,,,
imu,533.737473,-0.2075590216,-9.787574266400002,1.4439408592,0.19450713,2.45939338,-3.53376655,,,
imu,533.745947,-0.2231109944,-9.779798280000001,1.447529776,0.03749201999999999,2.57902394,-3.53376655,,,
imu,533.754421,-0.2320832864,-9.787574266400002,1.447529776,0.04496892999999999,2.60145467,-3.5711511,,,
imu,533.762895,-0.2195220776,-9.786976113600002,1.4433427064,0.26927623,2.81828506,-3.5711511,,,
imu,533.771356,-0.2129423968,-9.7786019744,1.4678669712,0.11973803,2.93043871,-3.62348947,,,
imu,533.779817,-0.2225128416,-9.7923594888,1.4840170968,0.07487657,3.10988455,-3.62348947,,,
imu,533.788278,-0.2117460912,-9.803724392000001,1.4911949304,0.01506129,3.23699202,-3.44404363,,,
imu,533.796739,-0.188418132,-9.822267128800002,1.4965783056,0.10478421,3.31176112,-3.47395127,,,
imu,533.8052,-0.1842310624,-9.822267128800002,1.4959801528,0.03001510999999998,3.2968073,-3.5711511,,,
imu,533.813661,-0.1722680064,-9.802528086400002,1.4870078608,-0.2017691,3.2968073,-3.62348947,,,
imu,533.822122,-0.1746606176,-9.7744149048,1.4822226384,-0.32887657,3.17717674,-3.54124346,,,
imu,533.830583,-0.1686790896,-9.728955292000002,1.4798300272,-0.41112258,3.16222292,-3.23469015,,,
imu,533.839044,-0.1716698536,-9.719983000000001,1.4828207912,-0.25410747,3.02016163,-3.00290594,,,
imu,533.847505,-0.1752587704,-9.7474980288,1.4876060136,-0.18681528,3.01268472,-2.8982292,,,
imu,533.855966,-0.1632957144,-9.759461084800002,1.492391236,0.007584380000000002,2.87810034,-2.88327538,,,
imu,533.864427,-0.1626975616,-9.791761336000002,1.4977746112,0.14964567,2.90053107,-2.99542903,,,
imu,533.872888,-0.1662864784,-9.751685098400001,1.4858115552,0.23936859,2.86314652,-3.08515195,,,
imu,533.881349,-0.1800439928,-9.711010708000002,1.4935875416,0.3216146,2.66874686,-3.14496723,,,
imu,533.88981,-0.1985867296,-9.744507264800001,1.4810263328,0.41133752,2.69117759,-3.18982869,,,
imu,533.898271,-0.1878199792,-9.7122070136,1.4666706656,0.42629134,2.68370068,-3.1973056,,,
imu,533.906732,-0.1979885768,-9.710412555200001,1.4792318744,0.73284465,2.75099287,-3.28702852,,,
imu,533.915193,-0.2039701048,-9.714599624800002,1.4917930832,1.09173633,2.81828506,-3.22721324,,,
imu,533.923653,-0.2015774936,-9.767835224,1.4888023192,1.19641307,2.75846978,-3.22721324,,,
imu,533.932114,-0.1920070488,-9.8013317808,1.5007653752,1.15902852,2.87062343,-3.16739796,,,
imu,533.940575,-0.2087553272,-9.803126239200001,1.5061487504,1.17398234,3.00520781,-3.07767504,,,
imu,533.949036,-0.191408896,-9.792957641600001,1.4876060136,1.02444414,3.20708438,-2.93561375,,,
imu,533.957497,-0.1866236736,-9.7714241408,1.4690632768,0.9571519499999999,3.2220382,-2.81598319,,,
imu,533.965958,-0.1728661592,-9.776807516000002,1.4487260816,0.8749059399999999,3.20708438,-2.8234601,,,
imu,533.974422,-0.1609031032,-9.748096181600001,1.4367630256,0.94967504,3.20708438,-2.83093701,,,
imu,533.982886,-0.1692772424,-9.745105417600001,1.4439408592,1.10669015,3.28185348,-2.94309066,,,
imu,533.991349,-0.1549215752,-9.7809945856,1.4457353176,1.36090509,3.28933039,-2.96552139,,,
imu,533.999813,-0.1459492832,-9.8049206976,1.4397537896,1.52539711,3.39400713,-2.87579847,,,
imu,534.008276,-0.146547436,-9.8061170032,1.4403519424,1.39828964,3.34166876,-2.83841392,,,
imu,534.01674,-0.137575144,-9.800135475200001,1.4481279288,1.30856672,3.40896095,-2.88327538,,,
imu,534.025203,-0.1339862272,-9.7744149048,1.4493242344,1.35342818,3.49868387,-2.83841392,,,
imu,534.033667,-0.116639796,-9.7702278352,1.4403519424,1.39081273,3.51363769,-2.98047521,,,
imu,534.04213,-0.08852661440000001,-9.8079114616,1.4182202888,1.30108981,3.33419185,-3.1225365,,,
imu,534.050594,-0.08733030880000002,-9.8162856008,1.4110424552,1.51044329,3.25194584,-3.27955161,,,
imu,534.059057,-0.080750628,-9.821668976000002,1.4152295248,1.54782784,3.15474601,-3.44404363,,,
imu,534.067521,-0.07955432240000002,-9.8168837536,1.4277907336,1.17398234,2.96034635,-3.72816621,,,
imu,534.075985,-0.08733030880000002,-9.807313308800001,1.4200147472,1.03939796,2.72108523,-3.71321239,,,
imu,534.084448,-0.09510629520000001,-9.802528086400002,1.4331741088,0.8375213899999999,2.64631613,-3.81041222,,,
imu,534.092912,-0.08852661440000001,-9.791761336000002,1.4337722616,0.94219813,2.57902394,-3.78798149,,,
imu,534.101375,-0.1142471848,-9.794752100000002,1.4224073584,0.9272443100000001,2.42200883,-3.73564312,,,
imu,534.109839,-0.1154434904,-9.783985349600002,1.4098461496,0.8375213899999999,2.23508608,-3.7954584,,,
imu,534.118302,-0.1309954632,-9.760059237600002,1.4110424552,0.9347212199999999,2.1752708,-3.75807385,,,
imu,534.126766,-0.131593616,-9.751685098400001,1.4158276776,0.8973366700000001,2.13040934,-3.78050458,,,
imu,534.135229,-0.1489400472,-9.7540777096,1.4134350664,1.00949032,2.04068642,-3.78050458,,,
imu,534.143693,-0.1531271168,-9.7821908912,1.4247999696,1.13659779,2.0257326,-3.89265823,,,
imu,534.152156,-0.1632957144,-9.802528086400002,1.4319778032,1.2188438,2.07059406,-3.93004278,,,
imu,534.16062,-0.1680809368,-9.815687448000002,1.4331741088,1.24127453,2.12293243,-3.89265823,,,
imu,534.169083,-0.185427368,-9.818080059200001,1.429585192,1.20388998,2.16779389,-3.83284295,,,
imu,534.177904,-0.1955959656,-9.825257892800002,1.4313796504,1.21136689,2.27247063,-3.75807385,,,
imu,534.186725,-0.2015774936,-9.827650504000003,1.4367630256,1.08425942,2.48182411,-3.66087402,,,
imu,534.195546,-0.1961941184,-9.828846809600002,1.438557484,0.9870595899999999,2.67622377,-3.54124346,,,
imu,534.204367,-0.1776513816,-9.8270523512,1.4319778032,0.65059864,2.73603905,-3.59358183,,,
imu,534.213188,-0.1686790896,-9.825856045600002,1.4277907336,0.3739529699999999,2.90053107,-3.6459202,,,
imu,534.222009,-0.1483418944,-9.8234634344,1.4247999696,0.47862971,3.02763854,-3.5711511,,,
imu,534.23083,-0.1459492832,-9.818080059200001,1.4271925808,0.5010604399999999,2.96782326,-3.54872037,,,
imu,534.239651,-0.1351825328,-9.8043225448,1.4271925808,0.28423005,2.76594669,-3.81041222,,,
imu,534.248472,-0.1471455888,-9.783985349600002,1.4283888864,0.007584380000000002,2.52668557,-4.00481188,,,
imu,534.257293,-0.1459492832,-9.789966877600001,1.4523149984,0.0001074699999999984,2.40705501,-3.98985806,,,
imu,534.266113,-0.1417622136,-9.812098531200002,1.4553057624,-0.07466163,2.22013226,-3.97490424,,,
imu,534.274934,-0.1399677552,-9.8210708232,1.4571002208,-0.18681528,2.01825569,-4.079580979999999,,,
imu,534.283755,-0.1495382,-9.803126239200001,1.4487260816,-0.26906129,1.79394839,-4.07210407,,,
imu,534.292576,-0.1722680064,-9.782789044000001,1.4541094568,-0.3513073,1.71170238,-3.98985806,,,
imu,534.301397,-0.1866236736,-9.7809945856,1.4600909848,-0.43355331,1.58459491,-3.74312003,,,
imu,534.310218,-0.203371952,-9.796546558400001,1.4582965264,-0.24663056,1.63693328,-3.47395127,,,
imu,534.319039,-0.2087553272,-9.797144711200001,1.4391556368,0.03749201999999999,1.83133294,-3.22721324,,,
imu,534.32786,-0.215335008,-9.7911631832,1.4421464008,0.08983038999999998,1.99582496,-3.21225942,,,
imu,534.336681,-0.20935348,-9.768433376800001,1.4283888864,0.25432241,2.30237827,-3.21225942,,,
imu,534.345502,-0.2117460912,-9.759461084800002,1.4206129,0.57582954,2.27247063,-3.42908981,,,
imu,534.354323,-0.206362716,-9.746301723200002,1.4200147472,0.55339881,2.25751681,-3.68330475,,,
imu,534.363143,-0.2111479384,-9.746899876,1.408649844,0.50853735,2.46687029,-3.7206893,,,
imu,534.371964,-0.2117460912,-9.745703570400002,1.4128369136,0.6132140899999999,2.60145467,-3.72816621,,,
imu,534.380438,-0.2105497856,-9.767237071200002,1.4134350664,0.80761375,2.68370068,-3.69825857,,,
imu,534.388912,-0.1991848824,-9.766638918400002,1.4122387608,0.8674290299999999,2.65379304,-3.72816621,,,
imu,534.397386,-0.1830347568,-9.789368724800001,1.4194165944,0.80013684,2.6986545,-3.82536604,,,
imu,534.405859,-0.1812402984,-9.802528086400002,1.4080516912,0.97958268,2.7734236,-3.69078166,,,
imu,534.414333,-0.167482784,-9.818080059200001,1.4128369136,0.7403215599999999,2.81828506,-3.58610492,,,
imu,534.422807,-0.173464312,-9.827650504000003,1.414631372,0.5010604399999999,2.75099287,-3.63096638,,,
imu,534.43128,-0.1668846312,-9.8228652816,1.4170239832,0.28423005,2.60145467,-3.66087402,,,
imu,534.439754,-0.170473548,-9.825257892800002,1.4164258304,0.1720764,2.48930102,-3.66835093,,,
imu,534.448228,-0.1776513816,-9.824659740000001,1.423603664,0.11973803,2.30985518,-3.66087402,,,
imu,534.456702,-0.1890162848,-9.8581562968,1.4104443024,0.02253820000000001,2.20517844,-3.67582784,,,
imu,534.465175,-0.1949978128,-9.853371074400002,1.4080516912,-0.08961545,2.27247063,-3.61601256,,,
imu,534.473649,-0.2057645632,-9.844398782400003,1.4242018168,-0.09709236,2.30985518,-3.51881273,,,
imu,534.482123,-0.2135405496,-9.8270523512,1.4307814976,-0.5307531400000001,2.21265535,-3.39170526,,,
imu,534.490596,-0.2039701048,-9.8270523512,1.4301833448,-0.71767589,2.3995781,-3.30945925,,,
imu,534.49907,-0.2039701048,-9.8210708232,1.4200147472,-0.74758353,2.67622377,-3.25712088,,,
imu,534.507544,-0.1985867296,-9.8061170032,1.4224073584,-0.89712173,2.67622377,-3.1973056,,,
imu,533.027828,,,,,,,-84.425006,168.7950276,117.2440672
imu,533.12939,,,,,,,-84.00996119999999,168.0748028,114.6927624
imu,533.231014,,,,,,,-84.0954116,168.4898476,117.0975808
imu,533.332515,,,,,,,-84.0709972,168.6119196,117.3905536
imu,533.434078,,,,,,,-83.7658172,168.5630908,117.3783464
imu,533.53564,,,,,,,-83.65595240000002,168.9293068,117.3417248
imu,533.637203,,,,,,,-83.631538,168.8072348,117.2440672
imu,533.738765,,,,,,,-83.3751868,168.7950276,117.7323552
imu,534.516023,-0.1890162848,-9.801929933600002,1.4247999696,-0.80739881,2.73603905,-3.07019813,,,
imu,534.524496,-0.1848292152,-9.772022293600001,1.4218092056,-0.81487572,2.70613141,-3.13001341,,,
imu,534.53297,-0.185427368,-9.745105417600001,1.4122387608,-0.47093786,2.6986545,-3.11505959,,,
imu,534.541444,-0.1800439928,-9.748096181600001,1.456502068,-0.47093786,2.70613141,-3.11505959,,,
imu,534.549918,-0.17944584,-9.7845835024,1.4708577352,-0.41859949,2.63883922,-3.22721324,,,
imu,534.558391,-0.1848292152,-9.782789044000001,1.4720540408,-0.22419983,2.66874686,-3.24216706,,,
imu,534.566865,-0.1752587704,-9.749890640000002,1.4822226384,-0.28401511,2.69117759,-3.16739796,,,
imu,534.575339,-0.1782495344,-9.7295534448,1.4989709168,-0.16438455,2.81080815,-2.86832156,,,
imu,534.583814,-0.1932033544,-9.746301723200002,1.507345056,-0.17933837,2.81828506,-2.72626027,,,
imu,534.592289,-0.1752587704,-9.7702278352,1.4965783056,-0.20924601,2.85566961,-2.80850628,,,
imu,534.600764,-0.1728661592,-9.758862932000001,1.4840170968,-0.25410747,2.82576197,-2.78607555,,,
imu,534.609239,-0.1656883256,-9.745703570400002,1.4816244856,-0.15690764,3.00520781,-2.8982292,,,
imu,534.617714,-0.1650901728,-9.7301515976,1.4858115552,0.23936859,3.09493073,-2.98795212,,,
imu,534.626189,-0.1531271168,-9.743909112,1.4876060136,0.5010604399999999,3.11736146,-3.13001341,,,
imu,534.634664,-0.1519308112,-9.7301515976,1.474446652,0.70293701,3.08745382,-3.31693616,,,
imu,534.643139,-0.1537252696,-9.721179305600002,1.4696614296,0.80013684,2.94539253,-3.57862801,,,
imu,534.651614,-0.1567160336,-9.703832874400002,1.4696614296,1.03939796,2.93043871,-3.72816621,,,
imu,534.660089,-0.1567160336,-9.706823638400001,1.4678669712,1.24127453,2.90053107,-3.81041222,,,
imu,534.668563,-0.1549215752,-9.722375611200002,1.4576983736,1.71231986,2.93043871,-3.87770441,,,
imu,534.677038,-0.1626975616,-9.743909112,1.4636799016,1.97401171,2.94539253,-3.7954584,,,
imu,534.685513,-0.1609031032,-9.769629682400002,1.4582965264,2.10111918,2.90053107,-3.70573548,,,
imu,534.693988,-0.155519728,-9.786976113600002,1.4559039152,2.07868845,2.93043871,-3.61601256,,,
imu,534.702463,-0.1579123392,-9.803126239200001,1.4493242344,2.10859609,2.75846978,-3.54124346,,,
imu,534.710938,-0.16449202,-9.825856045600002,1.4553057624,2.08616536,2.76594669,-3.48890509,,,
imu,534.719413,-0.1680809368,-9.838417254400001,1.4421464008,1.89924261,2.66874686,-3.31693616,,,
imu,534.727888,-0.1716698536,-9.848585852000001,1.4361648728,1.70484295,2.60145467,-3.39170526,,,
imu,534.736363,-0.1830347568,-9.863539672000002,1.4301833448,1.36090509,2.61640849,-3.46647436,,,
imu,534.744838,-0.1770532288,-9.848585852000001,1.4140332192,1.16650543,2.5491163,-3.4216129,,,
imu,534.753313,-0.1716698536,-9.825856045600002,1.4104443024,0.9646288599999999,2.51173175,-3.24964397,,,
imu,534.761788,-0.1776513816,-9.822267128800002,1.408649844,0.8375213899999999,2.48182411,-3.26459779,,,
imu,534.770263,-0.1908107432,-9.8264541984,1.402668316,0.68798319,2.56407012,-3.17487487,,,
imu,534.778738,-0.1926052016,-9.8162856008,1.4158276776,0.57582954,2.81080815,-3.00290594,,,
imu,534.787192,-0.1746606176,-9.803126239200001,1.423603664,0.3889067899999999,2.84071579,-3.08515195,,,
imu,534.795645,-0.161501256,-9.813892989600001,1.4080516912,0.29170696,2.9977309,-3.04029049,,,
imu,534.804098,-0.158510492,-9.803724392000001,1.4062572328,0.13469185,2.98277708,-3.07019813,,,
imu,534.812552,-0.1573141864,-9.797144711200001,1.4242018168,0.16459949,3.05754618,-3.08515195,,,
imu,534.821005,-0.1417622136,-9.801929933600002,1.43556672,0.10478421,2.98277708,-3.24216706,,,
imu,534.829459,-0.1357806856,-9.794153947200002,1.4253981224,0.14964567,3.04259236,-3.24216706,,,
imu,534.837912,-0.1297991576,-9.7923594888,1.432575956,0.08983038999999998,3.00520781,-3.20478251,,,
imu,534.846365,-0.116639796,-9.790565030400002,1.4427445536,-0.08213854000000001,2.81080815,-3.37675144,,,
imu,534.854819,-0.1220231712,-9.792957641600001,1.4463334704,-0.03727708,2.79585433,-3.2720747,,,
imu,534.863272,-0.1238176296,-9.7845835024,1.4559039152,-0.11204618,2.6986545,-3.24216706,,,
imu,534.871725,-0.1232194768,-9.7923594888,1.4439408592,0.007584380000000002,2.58650085,-3.22721324,,,
imu,534.880179,-0.1202287128,-9.8013317808,1.4499223872,0.05992275,2.52668557,-3.46647436,,,
imu,534.888632,-0.1202287128,-9.812098531200002,1.456502068,0.14216876,2.33228591,-3.55619728,,,
imu,534.897085,-0.1178361016,-9.80970592,1.4606891376,0.17955331,2.23508608,-3.70573548,,,
imu,534.905539,-0.137575144,-9.801929933600002,1.4612872904,0.18703022,2.08554788,-3.73564312,,,
imu,534.913992,-0.1543234224,-9.802528086400002,1.4612872904,0.3216146,1.86871749,-3.58610492,,,
imu,534.922446,-0.1746606176,-9.800135475200001,1.4810263328,0.17955331,1.81637912,-3.73564312,,,
imu,534.930899,-0.1812402984,-9.7821908912,1.4822226384,0.14964567,1.79394839,-3.84031986,,,
imu,534.939352,-0.203371952,-9.762451848800001,1.4852134024,0.05992275,1.77151766,-3.99733497,,,
imu,534.947806,-0.203371952,-9.7492924872,1.4810263328,0.0001074699999999984,1.86124058,-3.75807385,,,
imu,534.956259,-0.212344244,-9.737927584000001,1.4618854432,-0.15690764,1.88367131,-3.67582784,,,
imu,534.964712,-0.2225128416,-9.731347903200001,1.4576983736,0.07487657,2.09302479,-3.33936689,,,
imu,534.973166,-0.227298064,-9.7331423616,1.474446652,0.46367589,2.19770153,-3.13001341,,,
imu,534.981619,-0.2314851336,-9.751685098400001,1.4708577352,0.38142988,2.35471664,-2.90570611,,,
imu,534.99008,-0.230288828,-9.7474980288,1.46547436,0.35899915,2.3995781,-2.88327538,,,
imu,534.998541,-0.2135405496,-9.752881404000002,1.4678669712,0.4861066199999999,2.46687029,-2.94309066,,,
imu,535.007002,-0.2219146888,-9.786377960800001,1.456502068,0.53096808,2.66126995,-3.10758268,,,
imu,535.015463,-0.2189239248,-9.786377960800001,1.4529131512,0.5010604399999999,2.81080815,-3.1973056,,,
imu,535.023924,-0.2135405496,-9.783985349600002,1.4559039152,0.68798319,2.89305416,-3.33188998,,,
imu,535.032385,-0.2177276192,-9.802528086400002,1.447529776,0.9945364999999999,3.18465365,-3.20478251,,,
imu,535.040846,-0.2225128416,-9.802528086400002,1.4283888864,1.31604363,3.56597606,-2.81598319,,,
imu,535.049307,-0.206362716,-9.794153947200002,1.4224073584,1.38333582,3.71551426,-2.66644499,,,
imu,535.057768,-0.185427368,-9.7780038216,1.4140332192,1.58521239,3.96225229,-2.70382954,,,
imu,535.066229,-0.1662864784,-9.789966877600001,1.4212110528,1.62259694,4.00711375,-3.06272122,,,
imu,535.07469,-0.143556672,-9.800135475200001,1.4038646216,1.84690424,3.99963684,-3.36179762,,,
imu,535.083151,-0.1262102408,-9.783387196800001,1.3978830936,1.73475059,3.9697292,-3.51881273,,,
imu,535.091612,-0.1064711984,-9.755274015200001,1.3853218848,1.57773548,3.76785263,-3.73564312,,,
imu,535.100073,-0.09869521200000002,-9.7510869456,1.372760676,1.58521239,3.51363769,-3.78050458,,,
imu,535.108534,-0.1052748928,-9.761853696000001,1.3781440512,1.40576655,3.08745382,-3.89265823,,,
imu,535.116995,-0.1154434904,-9.764246307200002,1.3835274264,1.42072037,2.83323888,-3.97490424,,,
imu,535.125456,-0.1238176296,-9.790565030400002,1.3613957728,1.61512003,2.66126995,-3.69078166,,,
imu,535.133917,-0.1333880744,-9.840809865600002,1.3596013144,1.62259694,2.46687029,-3.46647436,,,
imu,535.142378,-0.1327899216,-9.859950755200002,1.372760676,1.368382,2.22013226,-3.43656672,,,
imu,535.150839,-0.161501256,-9.857558144000002,1.3871163432,0.97958268,1.91357895,-3.4216129,,,
imu,535.1593,-0.1752587704,-9.8683248944,1.3924997184,0.73284465,1.73413311,-3.47395127,,,
imu,535.167761,-0.1997830352,-9.8778953392,1.3919015656,0.46367589,1.65936401,-3.51881273,,,
imu,535.176222,-0.2021756464,-9.863539672000002,1.3990793992,0.35152224,1.66684092,-3.58610492,,,
imu,535.184683,-0.2195220776,-9.853371074400002,1.4134350664,-0.01484635000000001,1.68927165,-3.67582784,,,
imu,535.193503,-0.2314851336,-9.851576616000001,1.4068553856,-0.2017691,1.94348659,-3.56367419,,,
imu,535.202322,-0.236270356,-9.841408018400001,1.4068553856,-0.36626112,2.13040934,-3.32441307,,,
imu,535.211142,-0.2338777448,-9.827650504000003,1.4068553856,-0.52327623,2.35471664,-3.18235178,,,
imu,535.219961,-0.2308869808,-9.807313308800001,1.4158276776,-0.6503837,2.63136231,-3.08515195,,,
imu,535.228781,-0.2219146888,-9.802528086400002,1.4164258304,-0.69524516,2.89305416,-2.9729983,,,
imu,535.237601,-0.2027737992,-9.786976113600002,1.414631372,-0.62047606,3.01268472,-2.94309066,,,
imu,535.24642,-0.1949978128,-9.780396432800002,1.4283888864,-0.55318387,3.13231528,-2.92065993,,,
imu,535.25524,-0.17944584,-9.754675862400001,1.4367630256,-0.47093786,3.16222292,-2.86832156,,,
imu,535.264059,-0.1788476872,-9.746301723200002,1.4451371648,-0.5008455,3.15474601,-2.86832156,,,
imu,535.272879,-0.1603049504,-9.755274015200001,1.447529776,-0.28401511,3.19213056,-2.88327538,,,
imu,535.281699,-0.1597067976,-9.770825988000002,1.4373611784,-0.16438455,3.10988455,-3.03281358,,,
imu,535.290518,-0.1567160336,-9.745703570400002,1.4349685672,-0.21672292,3.05006927,-3.10010577,,,
imu,535.299338,-0.1501363528,-9.731347903200001,1.4487260816,-0.19429219,2.88557725,-3.03281358,,,
imu,535.308157,-0.1483418944,-9.742114653600002,1.4487260816,0.03749201999999999,2.90800798,-2.78607555,,,
imu,535.316977,-0.1579123392,-9.7492924872,1.4588946792,-0.02980017,2.90800798,-2.65896808,,,
imu,535.325796,-0.1489400472,-9.775611210400001,1.474446652,0.05992275,3.04259236,-2.53186061,,,
imu,533.840297,,,,,,,-81.69059320000001,168.209082,116.4017704
imu,533.94189,,,,,,,-84.18086200000002,168.5508836,117.6957336
imu,534.043727,,,,,,,-81.8737012,168.0625956,115.2542936
imu,534.145015,,,,,,,-84.37617720000001,168.1968748,115.644924
imu,534.246608,,,,,,,-84.1564476,168.6729556,116.8778512
imu,534.34814,,,,,,,-84.21748360000001,168.8316492,117.4637968
imu,534.449703,,,,,,,-84.1930692,168.6119196,117.8178056
imu,534.551296,,,,,,,-83.7414028,168.5508836,117.1830312
imu,535.334616,-0.1501363528,-9.788172419200002,1.4738484992,0.04496892999999999,3.05006927,-2.50195297,,,
imu,535.343436,-0.1292010048,-9.803126239200001,1.4738484992,0.05992275,3.00520781,-2.60662971,,,
imu,535.352255,-0.1214250184,-9.827650504000003,1.4678669712,0.05992275,3.08745382,-2.65896808,,,
imu,535.361075,-0.1094619624,-9.8168837536,1.4702595824,-0.33635348,3.00520781,-3.06272122,,,
imu,535.369894,-0.1058730456,-9.789966877600001,1.4618854432,-0.29149202,2.95286944,-3.24216706,,,
imu,535.378714,-0.10467674,-9.7576666264,1.46547436,-0.2765382,2.84071579,-3.33936689,,,
imu,535.387533,-0.1082656568,-9.744507264800001,1.4630817488,-0.16438455,2.78837742,-3.37675144,,,
imu,535.396008,-0.1064711984,-9.7492924872,1.4571002208,-0.14943073,2.75099287,-3.45152054,,,
imu,535.404483,-0.1010878232,-9.731347903200001,1.4487260816,0.22441477,2.75846978,-3.36179762,,,
imu,535.412958,-0.1040785872,-9.7265626808,1.4553057624,0.22441477,2.70613141,-3.38422835,,,
imu,535.421433,-0.1178361016,-9.7301515976,1.462483596,0.44124516,2.5491163,-3.36927453,,,
imu,535.429908,-0.1214250184,-9.746899876,1.4600909848,0.68050628,2.33976282,-3.40665908,,,
imu,535.438383,-0.1190324072,-9.765442612800001,1.4630817488,0.9945364999999999,2.21265535,-3.39918217,,,
imu,535.446858,-0.1238176296,-9.7702278352,1.4571002208,1.00949032,2.18274771,-3.47395127,,,
imu,535.455333,-0.143556672,-9.7809945856,1.4582965264,1.11416706,2.09302479,-3.51133582,,,
imu,535.463808,-0.1567160336,-9.792957641600001,1.4636799016,1.22632071,2.20517844,-3.30198234,,,
imu,535.472283,-0.1543234224,-9.7995373224,1.4630817488,1.0693056,2.25751681,-3.36927453,,,
imu,535.480758,-0.1668846312,-9.801929933600002,1.4547076096,1.06182869,2.27994754,-3.4216129,,,
imu,535.489233,-0.16449202,-9.803126239200001,1.456502068,1.19641307,2.51173175,-3.54124346,,,
imu,535.497708,-0.1632957144,-9.802528086400002,1.447529776,0.94967504,2.66126995,-3.50385891,,,
imu,535.506183,-0.1620994088,-9.789966877600001,1.4349685672,0.88985976,2.79585433,-3.48890509,,,
imu,535.514658,-0.1513326584,-9.7744149048,1.4247999696,0.70293701,2.82576197,-3.56367419,,,
imu,535.523133,-0.1399677552,-9.76484446,1.426594428,0.6954601,2.84071579,-3.66835093,,,
imu,535.531608,-0.1363788384,-9.765442612800001,1.4224073584,0.91229049,2.88557725,-3.65339711,,,
imu,535.540083,-0.1274065464,-9.777405668800002,1.4158276776,1.13659779,2.93043871,-3.83284295,,,
imu,535.548558,-0.1268083936,-9.7845835024,1.414631372,0.9048135799999999,2.69117759,-3.87770441,,,
imu,535.557033,-0.1351825328,-9.7923594888,1.4044627744,1.11416706,2.71360832,-3.76555076,,,
imu,535.565508,-0.1357806856,-9.782789044000001,1.417622136,1.18893616,2.73603905,-3.63096638,,,
imu,535.573983,-0.1292010048,-9.788172419200002,1.4206129,1.38333582,2.69117759,-3.54872037,,,
imu,535.582458,-0.1411640608,-9.803126239200001,1.4206129,1.30856672,2.56407012,-3.44404363,,,
imu,535.590933,-0.1459492832,-9.8079114616,1.4092479968,1.24875144,2.50425484,-3.50385891,,,
imu,535.599398,-0.1626975616,-9.8049206976,1.4164258304,1.00949032,2.45939338,-3.45899745,,,
imu,535.607844,-0.170473548,-9.8049206976,1.4158276776,1.01696723,2.4743472,-3.3468438,,,
imu,535.616309,-0.1788476872,-9.815089295200002,1.4122387608,1.03192105,2.5491163,-3.25712088,,,
imu,535.624774,-0.1848292152,-9.821668976000002,1.3984812464,0.9571519499999999,2.68370068,-3.24216706,,,
imu,535.633239,-0.185427368,-9.8162856008,1.3942941768,0.8749059399999999,2.78090051,-3.2720747,,,
imu,535.641704,-0.1920070488,-9.8198745176,1.3919015656,0.8375213899999999,2.86314652,-3.39918217,,,
imu,535.650168,-0.1758569232,-9.8264541984,1.381732968,0.60573718,2.99025399,-3.55619728,,,
imu,535.658633,-0.1740624648,-9.824659740000001,1.384723732,0.57582954,3.06502309,-3.60853565,,,
imu,535.667098,-0.1638938672,-9.8270523512,1.3859200376,0.5459219,3.2220382,-3.66087402,,,
imu,535.675563,-0.158510492,-9.8234634344,1.3930978712,0.42629134,3.10240764,-3.7206893,,,
imu,535.684028,-0.1501363528,-9.824061587200001,1.4014720104,0.27675314,3.15474601,-3.8702275,,,
imu,535.692493,-0.1387714496,-9.80970592,1.3960886352,0.19450713,3.22951511,-3.96742733,,,
imu,535.700957,-0.125612088,-9.8228652816,1.3901071072,-0.06718472,3.19960747,-4.06462716,,,
imu,535.709422,-0.113649032,-9.815687448000002,1.4044627744,-0.17933837,3.13231528,-3.87770441,,,
imu,535.717887,-0.1058730456,-9.8079114616,1.4062572328,-0.38869185,3.07997691,-3.70573548,,,
imu,535.726352,-0.09690075360000001,-9.812696684000002,1.4122387608,-0.56066078,2.83323888,-3.69078166,,,
imu,535.734817,-0.1118545736,-9.800135475200001,1.4020701632,-0.54570696,2.52668557,-3.78798149,,,
imu,535.743281,-0.11963056,-9.766638918400002,1.4188184416,-0.78496808,2.27994754,-3.90761205,,,
imu,535.751746,-0.1184342544,-9.789368724800001,1.4307814976,-0.67281443,2.04816333,-3.91508896,,,
imu,535.760211,-0.1393696024,-9.812696684000002,1.4218092056,-0.6279529699999999,1.65936401,-3.98238115,,,
imu,535.768676,-0.1561178808,-9.802528086400002,1.4283888864,-0.67281443,1.48739508,-4.08705789,,,
imu,534.652874,,,,,,,-83.91230359999999,168.5875052,117.476004
imu,534.754406,,,,,,,-83.814646,168.1602532,117.6713192
imu,534.855968,,,,,,,-81.7638364,167.9161092,116.7679864
imu,534.957561,,,,,,,-83.7047812,168.7950276,117.5858688
imu,535.066906,,,,,,,-81.77604360000001,167.7940372,115.4129872
imu,535.168468,,,,,,,-84.18086200000002,168.5386764,117.9764992
imu,535.270031,,,,,,,-83.79023160000001,168.5386764,116.072176
imu,535.373058,,,,,,,-84.02216840000001,168.880478,117.8300128
imu,535.473156,,,,,,,-84.31514120000001,168.514262,117.8300128
imu,535.574718,,,,,,,-84.51045640000001,168.9537212,117.53704
imu,535.676281,,,,,,,-84.66914999999999,168.636334,117.353932
