Type,Timestamp,Data Accelerometer X,Data Accelerometer Y,Data Accelerometer Z,Data Gyroscope X,Data Gyroscope Y,Data Gyroscope Z,Data Magnetometer X,Data Magnetometer Y,Data Magnetometer Z
imu,113.145063,-0.5855915912,-9.000405181600001,3.0631404888,-1.8466893,3.8949601,10.89666975,,,
imu,113.153571,-0.3648732080000001,-8.941786207200002,3.021269792800001,-1.22610577,4.70994329,12.60140523,,,
imu,113.162079,-0.1483418944,-8.973488305600002,3.026653168000001,-0.91955246,5.42772665,13.75284937,,,
imu,113.170587,0.08733030880000002,-9.048855558400001,3.0667294056,-0.70272207,6.2128022,14.50801728,,,
imu,113.179095,0.2889078024000001,-9.130802492,3.012895653600001,-0.34383039,6.564216969999999,14.83700132,,,
imu,113.187603,0.4845037680000001,-9.146354464800002,3.0284476264,-0.5307531400000001,6.95301629,14.62764784,,,
imu,113.196111,0.6406216488000002,-9.203178980800002,3.054168196800001,-0.6503837,7.13993904,14.27623307,,,
imu,113.204619,0.7764023344000002,-9.266583177600001,3.0757016976,-0.65786061,7.49135381,13.38648078,,,
imu,113.213127,0.9414925072000001,-9.329987374400002,3.109796407200001,-0.7251528,7.551169089999999,12.23503664,,,
imu,113.221635,1.0389914136,-9.3652783896,3.133124366400001,-1.36069015,7.73061493,11.2331307,,,
imu,113.230143,1.1239291112,-9.405354627200001,3.1917433408,-1.53265908,7.91753768,10.7845161,,,
imu,113.238651,1.1616127376,-9.4005694048,3.1917433408,-1.59995127,8.05959897,10.28356313,,,
imu,113.247159,1.1921185304,-9.4496179344,3.200715632800001,-1.80930475,8.25399863,9.59568741,,,
imu,113.255667,1.2525319632,-9.474142199200001,3.1899488824,-2.07847351,8.22409099,8.840519500000001,,,
imu,113.264175,1.3284973688,-9.4944793944,3.233614036800001,-2.61681103,8.074552789999998,7.74141373,,,
imu,113.272683,1.3542179392,-9.606932120800002,3.2611290656,-2.67662631,7.73061493,6.70960015,,,
imu,113.281191,1.3715643704,-9.6248767048,3.270101357600001,-3.17010237,7.035262299999999,5.535725279999999,,,
imu,113.289699,1.3649846896,-9.553696521600001,3.307186831200001,-3.80563972,6.160463829999999,4.488957879999999,,,
imu,113.298207,1.3290955216,-9.5184055064,3.335898165600001,-4.26173123,5.17351171,3.77865143,,,
imu,113.306715,1.2812432976,-9.479525574400002,3.3580298192,-4.57576145,4.20899032,3.33003683,,,
imu,113.315224,1.1681924184,-9.477731116000001,3.381955931200001,-4.822499479999999,3.46877623,3.27022155,,,
imu,113.323732,1.0342061912,-9.4071490856,3.3807596256,-4.867360939999999,2.80333124,3.24031391,,,
imu,113.33224,0.9432869656,-9.3144354016,3.3987042096,-4.87483785,2.5491163,3.04591425,,,
imu,113.340748,0.9480721880000001,-9.240264454400002,3.414854335200001,-4.560807629999999,2.69117759,3.09077571,,,
imu,113.349214,1.0090837736,-9.180449174400001,3.4088728072,-4.41126943,2.71360832,2.88889914,,,
imu,113.35768,1.0581323032,-9.1026893104,3.3909282232,-3.96265483,2.60893158,2.36551544,,,
imu,113.366146,1.1179475832,-9.0823521152,3.3867411536,-3.69348607,2.24256299,1.49819388,,,
imu,113.374612,1.1532385984,-9.062613072800001,3.3670021112,-3.40188658,1.66684092,0.89256417,,,
imu,113.383078,1.1382847784,-9.048257405600001,3.354440902400001,-3.09533327,0.8219500899999996,0.52619558,,,
imu,113.391544,1.1388829312,-9.000405181600001,3.3353000128,-2.81121069,-0.06780220000000003,0.6233954100000001,,,
imu,113.40001,1.1281161808,-8.9884421256,3.3329074016,-2.32521154,-0.9500775800000003,0.6159185000000003,,,
imu,113.408476,1.1053863744,-8.9609270968,3.316757276000001,-1.9214584,-1.60056875,0.58601086,,,
imu,113.416942,1.0611230672,-9.003994098400002,3.3478612216,-1.22610577,-2.13142936,0.30188828,,,
imu,113.425409,1.0419821776,-9.042275877600002,3.355637208000001,-0.5681376899999999,-2.71462834,-0.15420323,,,
imu,113.433875,1.0371969552,-9.0673982952,3.3640113472,-0.04475399000000001,-3.18567367,-0.7598329399999999,,,
imu,113.442341,1.0473655528,-9.136185867200002,3.3897319176,0.29170696,-3.53708844,-1.44023175,,,
imu,113.450807,1.085647332,-9.216338342400002,3.3771707088,0.67302937,-3.76139574,-2.08324601,,,
imu,113.459273,1.13649032,-9.277948080800002,3.3646095,0.97210577,-4.16514888,-2.72626027,,,
imu,113.467739,1.154434904,-9.308453873600001,3.3293184848,1.28613599,-4.62124039,-3.13749032,,,
imu,113.476205,1.1263217224,-9.309650179200002,3.307186831200001,1.34595127,-5.32406993,-3.83284295,,,
imu,113.484671,1.028822816,-9.327594763200002,3.2790736496,1.57025857,-5.899792,-4.25154991,,,
imu,113.493137,0.9385017432000002,-9.364082084000001,3.2671105936,1.63007385,-6.1988684,-4.56558013,,,
imu,113.501603,0.8182730304000002,-9.417915836,3.253951232,1.73475059,-5.92222273,-4.625395409999999,,,
imu,113.510069,0.7500836112000001,-9.485507102400002,3.2922330112,1.58521239,-5.3016392,-4.85717962,,,
imu,113.518535,0.6902683312000001,-9.5357519376,3.3215424984,1.11416706,-4.56890202,-5.29831731,,,
imu,113.527002,0.6376308848000001,-9.520798117600002,3.331112943200001,0.40386061,-3.81373411,-5.93385466,,,
imu,113.535468,0.6328456624000001,-9.4215047528,3.3065886784,-0.2765382,-3.12585839,-7.11520644,,,
imu,113.543934,0.6537810104000001,-9.265386872,3.260530912800001,-0.6279529699999999,-2.04170644,-7.803082159999999,,,
imu,113.552368,0.7118018320000001,-9.2091605088,3.2294269672,-0.91207555,-1.144477240000001,-7.94514345,,,
imu,113.560802,0.7333353328000001,-9.247442288000002,3.2192583696,-0.90459864,-0.2696787700000001,-7.35446756,,,
imu,113.569237,0.7793930984000002,-9.2970889704,3.204902702400001,-0.73262971,0.2312741999999997,-6.532007459999999,,,
imu,113.577671,0.8170767248000002,-9.2935000536,3.2156694528,-0.33635348,0.3882893099999998,-6.046008309999999,,,
imu,113.586105,0.8057118216000001,-9.2994815816,3.2611290656,-0.21672292,-0.1201405700000002,-6.42733072,,,
imu,113.594539,0.7632429728000001,-9.3383615136,3.3089812896,-0.05970781,-0.5014629800000003,-6.89837605,,,
imu,113.602974,0.7608503616000001,-9.300079734400002,3.322738804,-0.31392275,-0.71829337,-6.995575880000001,,,
imu,113.611408,0.726755652,-9.188823313600002,3.331112943200001,-0.5756146,-1.04727741,-7.1600679,,,
imu,113.619842,0.7118018320000001,-9.068594600800001,3.3131683592,-0.54570696,-1.428599820000001,-7.406805929999999,,,
imu,113.628277,0.6483976352,-9.019546071200002,3.307186831200001,-0.63542988,-1.8622606,-7.37689829,,,
imu,113.636711,0.6555754688000001,-9.027920210400001,3.3119720536,-0.33635348,-2.05666026,-6.42733072,,,
imu,113.645145,0.6789034280000001,-9.0123682376,3.3179535816,-0.05970781,-1.7874915,-5.0665331,,,
imu,113.65358,0.7405131664000002,-9.0362943496,3.343674152,0.38142988,-1.51832274,-3.90761205,,,
imu,113.662014,0.7476910000000001,-9.049453711200002,3.326327720800001,1.03192105,-1.45850746,-3.16739796,,,
imu,113.670448,0.6938572480000001,-9.0787631984,3.2952237752,1.64502767,-1.67533785,-3.20478251,,,
imu,113.678882,0.5969564944000001,-9.0805576568,3.2766810384,2.31047266,-2.019275710000001,-4.27398064,,,
imu,113.687317,0.4737370176,-9.093717018400001,3.300607150400001,2.97591765,-2.06413717,-6.17311578,,,
imu,113.695751,0.4450256832000001,-9.0751742816,3.3233369568,3.34976315,-1.83235296,-7.6086825,,,
imu,113.704185,0.439642308,-9.121830200000002,3.300607150400001,3.9105314,-1.2641078,-8.633019169999999,,,
imu,113.71262,0.406743904,-9.1481489232,3.221052828,4.75542223,-0.6285704500000002,-9.0292954,,,
imu,113.721054,0.4492127528000001,-9.3108464848,3.218062064,5.5554516,0.3284740299999998,-8.99938776,,,
imu,113.729488,0.5323559920000001,-9.4286825864,3.203108244,6.01902002,1.36776452,-8.26665058,,,
imu,113.737922,0.6543791632000001,-9.540537160000001,3.227034356,6.31809642,2.21265535,-7.429236659999999,,,
imu,113.746357,0.7787949456000002,-9.637437913600001,3.217463911200001,6.40034243,2.59397776,-6.91332987,,,
imu,113.75517,0.9181645480000001,-9.722973764,3.1779858264,6.23585041,2.60145467,-6.703976389999999,,,
imu,113.763983,0.9725964528000002,-9.802528086400002,3.1779858264,5.91434328,2.43696265,-6.60677656,,,
imu,113.772796,1.004896704,-9.880886103200002,3.2372029536,4.83766824,2.48182411,-6.374992349999999,,,
imu,113.781609,1.0395895664,-9.8683248944,3.2844570248,3.12545585,2.64631613,-5.85908556,,,
imu,113.790422,1.0898344016,-9.685888290400001,3.298812692000001,1.8169966,3.16969983,-5.40299405,,,
imu,113.799234,1.13649032,-9.492086783200001,3.325729568,0.8674290299999999,3.87252937,-5.65720899,,,
imu,113.808047,1.1526404456,-9.343146736000001,3.3484593744,-0.17933837,4.62022037,-6.576868919999999,,,
imu,113.81686,1.1807536272,-9.239068148800001,3.3879374592,-1.34573633,5.442680469999999,-7.57129795,,,
imu,113.825673,1.1998945168,-9.1170449776,3.4268173912,-2.13828879,5.99597181,-8.79003428,,,
imu,113.834486,1.1699868768,-8.950160346400002,3.4387804472,-2.5943803,5.98101799,-10.99572273,,,
imu,113.843299,1.0593286088,-8.822753800000001,3.391526376000001,-2.25044244,5.56231103,-13.76965634,,,
imu,113.852112,0.900219964,-8.743797630400001,3.314364664800001,-1.48779762,4.99406587,-15.88562187,,,
imu,113.860925,0.7327371800000001,-8.715684448800001,3.2695032048,-0.33635348,4.48563599,-17.03706601,,,
imu,113.869738,0.6113121616,-8.762340367200002,3.2222491336,1.12912088,4.38095925,-17.16417348,,,
imu,113.878551,0.3816214864,-8.8562503568,3.1947341048,2.51982614,4.08188285,-16.72303579,,,
imu,113.887364,0.1447529776,-8.862231884800002,3.1109927128,4.14231561,3.78280645,-15.81832968,,,
imu,113.896177,-0.0155519728,-8.742003172,3.0194753344,5.6302207,3.87252937,-14.99586958,,,
imu,113.90499,-0.1262102408,-8.809594438400001,2.9931566112,6.96858759,4.39591307,-14.56968571,,,
imu,113.913803,-0.1728661592,-8.984255056000002,2.935733942400001,8.28452375,4.814620029999999,-14.45753206,,,
imu,113.922616,-0.215335008,-9.157719368,2.88608726,9.331291149999998,5.50997266,-14.2631324,,,
imu,113.931429,-0.1932033544,-9.403560168800002,2.9076207608,10.13879743,6.4371095,-13.91171763,,,
imu,113.940242,-0.1268083936,-9.6667474008,2.904031844000001,10.28833563,7.267046509999999,-13.33599556,,,
imu,113.949055,-0.0275150288,-9.849184004800001,2.941117317600001,10.10888979,7.76052257,-12.52101237,,,
imu,113.95768,0.0526374464,-9.9131863544,2.962052665600001,9.480829349999999,7.85024549,-12.04249013,,,
imu,113.966305,0.1250139352,-9.870119352800002,2.952482220800001,8.411631219999999,7.319384879999999,-11.90042884,,,
imu,113.97493,0.1477437416,-9.7606573904,2.9046299968,7.45458674,6.59412461,-11.66116772,,,
imu,113.983555,0.1818384512,-9.6051376624,2.8244775216,6.87886467,6.13055619,-11.45181424,,,
imu,113.99218,0.2506260232,-9.534555632000002,2.844216564,6.36295788,5.80157215,-11.32470677,,,
imu,114.000805,0.2356722032,-9.623680399200001,2.9273598032,5.99658929,5.49501884,-11.60882935,,,
imu,114.00943,0.2296906752000001,-9.7325442088,2.9566692904,5.47320559,5.36791137,-11.95276721,,,
imu,114.018055,0.2171294664,-9.745105417600001,2.9835861664,4.77037605,5.330526819999999,-12.10978232,,,
imu,114.02668,0.1830347568,-9.739722042400002,3.0302420848,4.0600696,5.3903421,-12.79765804,,,
imu,114.035305,0.1513326584,-9.746301723200002,3.0134938064,3.18527113,5.308096089999999,-14.00891746,,,
imu,114.04393,0.1184342544,-9.7283571392,2.9949510696,2.35533412,5.38286519,-15.0108234,,,
imu,114.052555,0.107667504,-9.718786694400002,2.9913621528,1.80951969,5.32304991,-15.67626839,,,
imu,114.06118,0.06400234960000001,-9.6284656216,2.943509928800001,1.32352054,5.12865025,-16.61088214,,,
imu,114.069805,-0.0011963056,-9.502853533600002,2.910013372,0.68050628,4.70994329,-17.76232628,,,
imu,114.07843,-0.06998387760000001,-9.408345391200001,2.8962558576,0.44124516,4.552928179999999,-18.62964784,,,
imu,114.087055,-0.1130508792,-9.374250681600001,2.877713120800001,0.05244583999999999,4.44077453,-18.9735857,,,
imu,114.09568,-0.1327899216,-9.4005694048,2.8908724824,-0.33635348,4.65012801,-18.77170913,,,
imu,114.104305,-0.1423603664,-9.450814240000001,2.9387247064,-0.80739881,4.8669584,-18.48010964,,,
imu,114.11293,-0.1423603664,-9.516012895200001,2.9973436808,-1.39059779,4.97163514,-18.34552526,,,
imu,114.121555,-0.1638938672,-9.536948243200001,3.008708584,-2.19062716,4.7921893,-18.48010964,,,
imu,114.13018,-0.2117460912,-9.508835061600001,3.0487848216,-2.93084125,4.27628251,-18.70441694,,,
imu,114.138805,-0.2781410520000001,-9.436458572800001,3.054168196800001,-3.79816281,3.61831443,-19.29509283,,,
imu,114.14743,-0.3834159448,-9.361091320000002,3.0607478776,-4.32902342,3.02016163,-20.00539928,,,
imu,114.156022,-0.4414367664,-9.2617979552,3.0122975008,-4.635576729999999,2.45191647,-20.82038247,,,
imu,114.164341,-0.505439116,-9.2480404408,3.0182790288,-4.38136179,1.96591732,-21.60545802,,,
imu,114.172661,-0.49347606,-9.271368400000002,3.010503042400001,-3.78320899,1.86871749,-21.75499622,,,
imu,114.180981,-0.4587831976000001,-9.3210150824,3.015288264800001,-3.17010237,1.8761944,-21.07459741,,,
imu,114.189301,-0.3983697648000001,-9.379035904000002,3.0493829744,-2.46727283,1.8014253,-19.87829181,,,
imu,114.197621,-0.3481249296000001,-9.503451686400002,3.0816832256,-1.80182784,1.46496435,-18.85395514,,,
imu,114.205941,-0.352910152,-9.6667474008,3.137311436000001,-1.19619813,1.00139593,-18.18851015,,,
imu,114.214261,-0.4324644744,-9.769031529600001,3.1259465328,-1.20367504,0.2088434699999997,-17.97915667,,,
imu,114.22258,-0.5407301312,-9.803724392000001,3.1534615616,-1.57752054,-0.59866281,-18.02401813,,,
imu,114.2309,-0.7261574992000001,-9.752881404000002,3.1397040472,-2.25791935,-1.30149235,-18.58478638,,,
imu,114.23922,-0.9103885616000001,-9.7325442088,3.1606393952,-3.11028709,-1.77253768,-19.45958485,,,
imu,114.24754,-0.9845595088000001,-9.739722042400002,3.1875562712,-4.09723921,-1.286538530000001,-19.76613816,,,
imu,114.25586,-0.9959244120000001,-9.744507264800001,3.2150713,-5.00194532,-0.3444478700000002,-19.20536991,,,
imu,114.26418,-1.0007096344,-9.6458120528,3.228828814400001,-6.25058929,0.4481045899999998,-18.48010964,,,
imu,114.2725,-0.9953262592000002,-9.5602762024,3.2898404,-6.901080459999999,1.11354958,-18.09131032,,,
imu,114.280819,-0.9558481744000001,-9.479525574400002,3.3095794424,-7.33474124,1.74161002,-17.94177212,,,
imu,114.289139,-0.8697141712000002,-9.410139849600002,3.3442723048,-7.424464159999999,2.63136231,-16.91743545,,,
imu,114.297459,-0.7949450712000001,-9.289312984,3.332309248800001,-7.282402869999999,3.09493073,-15.39214581,,,
imu,114.305779,-0.7746078760000001,-9.110465296800001,3.3012053032,-7.0805263,3.70803735,-14.53977807,,,
imu,114.314099,-0.7369242496000001,-8.966310472000002,3.275484732800001,-6.190774009999999,4.22394414,-14.34537841,,,
imu,114.322419,-0.7297464160000001,-8.911878567200002,3.252156773600001,-5.11409897,4.84452767,-14.60707026,,,
imu,114.330739,-0.6771089696000001,-8.951356652000001,3.224043592000001,-4.32902342,5.36791137,-15.0855925,,,
imu,114.339058,-0.5694414656000001,-9.058426003200001,3.2043045496,-3.50656332,6.04831018,-15.25008452,,,
imu,114.347378,-0.4749333232000001,-9.142167395200001,3.1827710488,-3.0429949,6.48197096,-15.37719199,,,
imu,114.355698,-0.4767277816000001,-9.273761011200001,3.2132768416,-2.53456502,6.09317164,-15.85571423,,,
imu,114.364159,-0.5263744640000001,-9.2851259144,3.1504707976,-2.23548862,5.263234629999999,-16.5809745,,,
imu,114.37262,-0.663949608,-9.205571592000002,3.1229557688,-2.01118132,4.27628251,-17.06697365,,,
imu,114.381081,-0.7578595976000001,-9.1792528688,3.12534838,-1.9214584,3.27437657,-17.50811134,,,
imu,114.389542,-0.8858642968000001,-9.169682424000001,3.107403796,-1.62985891,2.51173175,-17.71746482,,,
imu,114.398003,-1.0461692472,-9.190617772000001,3.0762998504,-1.45788998,1.75656384,-17.70998791,,,
imu,114.406464,-1.1699868768,-9.171476882400002,3.011699348,-0.82982954,1.30794924,-17.1791273,,,
imu,114.414925,-1.229204004,-9.150541534400002,2.9865769304,0.03749201999999999,1.33037997,-16.37909793,,,
imu,114.423386,-1.3063657152,-9.223516176,2.9931566112,0.7702292,1.68927165,-15.55663783,,,
imu,114.431847,-1.3566105504,-9.330585527200002,3.011699348,1.37585891,1.98087114,-14.65940863,,,
imu,114.440308,-1.3859200376,-9.458590226400002,3.0248587096,1.71231986,2.48930102,-13.7397487,,,
imu,114.448769,-1.4439408592,-9.578220786400001,3.080486920000001,1.68241222,3.20708438,-12.8425195,,,
imu,114.45723,-1.4786337216,-9.764246307200002,3.1737987568,1.0693056,3.95477538,-12.04996704,,,
imu,114.465691,-1.4588946792,-9.836622796,3.228828814400001,0.56087572,5.023973509999999,-11.05553801,,,
imu,114.474152,-1.4242018168,-9.877297186400002,3.274288427200001,-0.08213854000000001,5.89129507,-10.27046246,,,
imu,114.482613,-1.4361648728,-9.848585852000001,3.3000089976,-0.7550604399999999,6.818431909999999,-9.65735584,,,
imu,114.491074,-1.4289870392,-9.7923594888,3.3221406512,-1.52518217,7.73061493,-8.86480338,,,
imu,114.499535,-1.4499223872,-9.708019944000002,3.3580298192,-2.16071952,8.440921379999999,-8.109635469999999,,,
imu,114.507996,-1.441548248,-9.740918348000001,3.4046857376,-2.62428794,8.99421272,-7.65354396,,,
imu,114.516457,-1.447529776,-9.806715156000001,3.4375841416,-3.0429949,9.300766029999998,-7.69840542,,,
imu,114.524918,-1.4941856944,-9.85456738,3.4956049632,-3.64862461,9.510119509999999,-7.91523581,,,
imu,114.533379,-1.6006568928,-9.810902225600001,3.550036868,-4.9122224,9.81667282,-8.44609642,,,
imu,114.54184,-1.7101188552,-9.580613397600002,3.5823371192,-6.17582019,10.1007954,-9.04424922,,,
imu,114.550301,-1.7657470656,-9.256414580000001,3.533288589600001,-7.24501832,10.45221017,-9.41809472,,,
imu,113.230295,,,,,,,-85.0231588,179.7815076,114.2044744
imu,113.331827,,,,,,,-82.4596468,180.0012372,110.6033504
imu,113.433573,,,,,,,-83.96113240000001,181.3684436,112.9471328
imu,113.534952,,,,,,,-81.7882508,180.4651108,111.0183952
imu,113.636545,,,,,,,-83.79023160000001,180.965606,114.3265464
imu,113.738108,,,,,,,-83.0455924,180.9167772,114.241096
imu,114.558762,-1.8584607496,-8.910084108800001,3.449547197600001,-7.992709319999999,11.34943937,-9.64987893,,,
imu,114.567228,-1.8656385832,-8.6175873896,3.3759744032,-8.37403173,12.3438684,-9.50034073,,,
imu,114.575694,-1.8315438736,-8.459675050400001,3.3771707088,-8.02261696,13.50278945,-9.0292954,,,
imu,114.58416,-1.797449164,-8.480610398400001,3.405283890400001,-7.282402869999999,14.46731084,-7.8329898,,,
imu,114.592626,-1.7932620944,-8.6229707648,3.428611849600001,-6.19825092,15.02060218,-6.666591840000001,,,
imu,114.601092,-1.8548718328,-8.825744564,3.4351915304,-5.00194532,14.90844853,-6.337607799999999,,,
imu,114.609559,-1.9487818224,-8.925037928800002,3.4339952248,-3.96265483,14.11589607,-6.80117622,,,
imu,114.618025,-2.0391028952,-8.904102580800002,3.365207652800001,-3.0429949,13.07660558,-7.13763717,,,
imu,114.626491,-2.1820614144,-8.8000239936,3.2665124408,-2.04108896,12.39620677,-7.227360089999999,,,
imu,114.634957,-2.191631859200001,-8.8598392736,3.2019119384,-0.70272207,12.16442256,-6.45723836,,,
imu,114.643423,-2.0743939104,-8.9465714296,3.1026185736,0.9646288599999999,12.27657621,-4.453426479999999,,,
imu,114.651889,-1.890162848,-9.1224283528,3.113983476800001,2.32542648,12.08217655,-1.71687742,,,
imu,114.660355,-1.695763188,-9.274957316800002,3.1020204208,3.611455,11.43916229,0.89256417,,,
imu,114.668821,-1.653892492,-9.348530111200002,3.1062074904,4.359146,10.34753343,2.96366824,,,
imu,114.677287,-1.6664537008,-9.46576806,3.1145816296,5.106837000000001,9.4278735,4.72074209,,,
imu,114.685753,-1.6796130624,-9.6703363176,3.1008241152,5.5554516,8.77738233,6.14135499,,,
imu,114.694219,-1.680809368,-9.9137845072,3.096038892800001,5.51059014,8.85215143,6.978768909999999,,,
imu,114.702685,-1.731652356,-9.956851508800002,3.049981127200001,5.11431391,9.46525805,6.92643054,,,
imu,114.711152,-1.6556869504,-9.990348065600001,3.063738641600001,4.15726943,10.71390202,6.612400320000001,,,
imu,114.719618,-1.5366545432,-10.0986137224,3.1229557688,3.140409669999999,12.50088351,6.717077060000001,,,
imu,114.728084,-1.4403519424,-10.129717668,3.1726024512,1.86185806,13.89906568,6.84418453,,,
imu,114.73655,-1.3087583264,-10.0681079296,3.2593346072,0.22441477,14.84115634,6.55258504,,,
imu,114.745016,-1.157425668,-9.905410368000002,3.3329074016,-1.3980747,15.80567773,6.40304684,,,
imu,114.753482,-0.9576426328000002,-9.727758986400001,3.3783670144,-2.62428794,16.52346109,6.672215599999999,,,
imu,114.761948,-0.7536725280000001,-9.5800152448,3.4100691128,-3.51404023,16.82253749,7.10587638,,,
imu,114.770765,-0.5748248408000001,-9.422701058400001,3.432798919200001,-3.9402241,16.78515294,7.75636755,,,
imu,114.779582,-0.4474182944000001,-9.232488468000001,3.451939808800001,-3.98508556,16.34401525,8.0928285,,,
imu,114.788399,-0.3397507904000001,-8.945973276800002,3.4196395576,-3.476655679999999,15.61875498,8.3171358,,,
imu,114.797216,-0.2458408008,-8.657663627200002,3.358627972000001,-2.6691494,14.54207994,8.27975125,,,
imu,114.806033,-0.2458408008,-8.529658928000002,3.3550390552,-0.9943215599999999,13.50278945,7.875998110000001,,,
imu,114.81485,-0.176455076,-8.5858852912,3.347263068800001,0.6954601,12.41116059,7.40495278,,,
imu,114.823667,-0.1722680064,-8.591866819200002,3.27488658,2.14598064,11.3718701,6.75446161,,,
imu,114.832484,-0.2518223288000001,-8.5900723608,3.239595564800001,3.71613174,10.20547214,6.11892426,,,
imu,114.8413,-0.2703650656,-8.6732156,3.1929396464,5.46572868,9.49516569,5.61049438,,,
imu,114.850117,-0.3002727056,-8.745592088800002,3.05057928,7.2751409,9.04655109,5.81237095,,,
imu,114.858934,-0.3098431504,-8.8389039256,2.984782472,8.628461609999999,8.74747469,6.126401170000001,,,
imu,114.867751,-0.3236006648,-8.9561418744,2.936930248,9.57802918,8.36615228,6.5974465,,,
imu,114.876568,-0.2978800944000001,-9.194804841600002,2.969828652,10.38553546,8.1567988,7.031107280000001,,,
imu,114.885385,-0.2039701048,-9.385017432000001,2.975810180000001,10.70704259,8.2315679,7.569444800000001,,,
imu,114.894202,-0.248233412,-9.513022131200001,2.9883713888,10.15375125,7.999783689999999,7.66664463,,,
imu,114.903019,-0.3864067088000001,-9.6248767048,3.029643932,9.353721879999998,7.386677069999999,6.91147672,,,
imu,114.911836,-0.5293652280000001,-9.7744149048,3.0481866688,8.59855397,7.080123759999999,6.089016620000001,,,
imu,114.920653,-0.580208216,-9.886269478400003,3.017082723200001,7.54430966,7.319384879999999,5.520771460000001,,,
imu,114.92947,-0.5814045216000001,-9.955655203200001,2.975810180000001,6.40781934,7.82781476,5.259079610000001,,,
imu,114.938287,-0.5263744640000001,-10.0059000384,3.0248587096,5.28628284,8.32129082,5.214218150000001,,,
imu,114.947104,-0.4707462536000001,-10.0567430264,3.0876647536,3.97782359,8.59045958,5.31141798,,,
imu,114.95592,-0.4276792520000001,-10.069902388,3.1504707976,2.70674889,8.36615228,5.363756349999999,,,
imu,114.964737,-0.3594898328000001,-10.031022456,3.217463911200001,1.45062801,8.03716824,5.513294549999999,,,
imu,114.973224,-0.3212080536,-9.9269438688,3.272493968800001,0.02253820000000001,7.14741595,5.318894889999999,,,
imu,114.98171,-0.275150288,-9.776807516000002,3.3131683592,-1.08404448,6.3623404,5.498340730000001,,,
imu,114.990197,-0.1902125904,-9.588987536800001,3.3191498872,-1.71210492,5.592218669999999,6.31332392,,,
imu,114.998683,-0.1381732968,-9.469356976800002,3.355637208000001,-2.40745755,4.59031273,7.25541458,,,
imu,115.00717,-0.113649032,-9.3622876256,3.351450138400001,-2.87102597,3.38653022,8.0180594,,,
imu,115.015656,-0.06998387760000001,-9.201982675200002,3.3550390552,-2.84859524,2.15284007,8.30965889,,,
imu,115.024142,-0.07656355840000001,-9.093118865600001,3.340683388,-2.57942648,1.2032725,8.70593512,,,
imu,115.032629,-0.06460050240000001,-8.976479069600002,3.325729568,-1.92893531,0.21632038,8.840519500000001,,,
imu,115.041115,-0.0562263632,-8.941786207200002,3.2946256224,-0.9494601,-0.7781086500000001,8.81061186,,,
imu,115.049602,-0.1154434904,-8.95733818,3.238399259200001,-0.06718472,-1.4884151,8.37695108,,,
imu,115.058088,-0.1890162848,-8.957936332800001,3.154657867200001,0.6954601,-1.92955279,7.95076721,,,
imu,115.066575,-0.2536167872,-8.9848532088,3.133124366400001,1.57773548,-2.161337000000001,7.74141373,,,
imu,115.075061,-0.2853188856,-9.03210728,3.137311436000001,2.46748777,-2.0117988,7.487198790000001,,,
imu,115.083547,-0.3259932760000001,-9.134391408800001,3.122357616,3.0880713,-1.69776858,7.01615346,,,
imu,115.092034,-0.2978800944000001,-9.183439938400001,3.0906555176,3.55163972,-1.0398005,7.1208302,,,
imu,115.10052,-0.2470371064,-9.249834899200001,3.133124366400001,3.85819303,-0.3294940500000001,7.464768060000001,,,
imu,115.109007,-0.2111479384,-9.342548583200001,3.1420966584,3.8357623,0.4256738599999998,7.509629520000001,,,
imu,115.117493,-0.185427368,-9.399971252000002,3.1414985056,3.81333157,1.09111885,7.67412154,,,
imu,115.12598,-0.1280046992,-9.452010545600002,3.1295354496,3.55911663,1.74908693,7.8685212,,,
imu,115.134466,-0.04785222400000001,-9.489694172,3.1008241152,3.50677826,2.45939338,7.89095193,,,
imu,115.142952,-0.0011963056,-9.529770409600001,3.074505392,3.30490169,3.02763854,7.91338266,,,
imu,115.151439,0.08673215600000002,-9.534555632000002,3.053570044,3.22265568,3.65569898,7.99562867,,,
imu,115.159925,0.182436604,-9.572239258400002,3.0798887672,3.03573293,4.16412886,7.98067485,,,
imu,115.168412,0.2249054528,-9.6637566368,3.1379095888,2.5646876,4.46320526,7.532060250000001,,,
imu,115.176864,0.2536167872,-9.673925234400002,3.1271428384,2.16841137,4.07440594,6.761938520000001,,,
imu,115.185316,0.23926112,-9.648802816800002,3.1355169776,1.68241222,3.35662258,5.58806365,,,
imu,115.193768,0.2494297176,-9.561472508000001,3.1277409912,0.97210577,2.56407012,4.249696759999999,,,
imu,115.20222,0.2284943696,-9.507638756,3.117572393600001,0.63564482,1.84628676,3.28517537,,,
imu,115.210672,0.2584020096,-9.4669643656,3.11039456,0.23936859,0.9191499199999997,2.92628369,,,
imu,115.219124,0.3313766512,-9.463973601600001,3.128937296800001,-0.08961545,0.1789358299999999,3.19545245,,,
imu,115.227576,0.4127254320000001,-9.435860420000001,3.1588449368,-0.35878421,-0.5089398900000002,3.58425177,,,
imu,115.236028,0.4701481008,-9.3592968616,3.180378437600001,-0.60552224,-1.27906162,4.10763547,,,
imu,113.83964,,,,,,,-83.3507724,180.0012372,114.6805552
imu,113.941202,,,,,,,-83.44843,179.0002468,116.1820408
imu,114.042795,,,,,,,-83.52167320000001,178.6218236,116.0965904
imu,114.144419,,,,,,,-81.56852119999999,178.3044364,115.3641584
imu,114.24589,,,,,,,-84.44942040000001,177.6452476,116.072176
imu,114.347452,,,,,,,-82.1422596,176.5343924,114.1556456
imu,114.449045,,,,,,,-85.0597804,177.4011036,116.2308696
imu,114.550608,,,,,,,-84.5348708,176.8884012,113.203484
imu,115.244375,0.4886908376000001,-9.276751775200001,3.196528563200001,-0.60552224,-2.07909099,4.922618659999999,,,
imu,115.252828,0.5239818528000001,-9.235479232000001,3.1917433408,-0.48589168,-2.88659727,5.26655652,,,
imu,115.26128,0.55329134,-9.272564705600002,3.167817228800001,-0.14943073,-3.67167282,5.169356690000001,,,
imu,115.269732,0.5808063688,-9.3036686512,3.1743969096,0.1720764,-4.21748725,5.09458759,,,
imu,115.278184,0.5700396184000001,-9.3317818328,3.170807992800001,0.29918387,-4.74087095,4.556250070000001,,,
imu,115.286636,0.5999472584000001,-9.352717180800001,3.1690135344,0.20946095,-5.189485550000001,3.55434413,,,
imu,115.295088,0.5299633808,-9.347333805600002,3.1474800336,0.28423005,-5.39883903,2.79169931,,,
imu,115.30354,0.5425245896,-9.368269153600002,3.1606393952,0.05244583999999999,-5.39136212,1.99166994,,,
imu,115.311992,0.5215892416000001,-9.381428515200001,3.143292964,0.13469185,-5.077331900000001,0.9075179900000001,,,
imu,115.320444,0.5329541448,-9.416121377600001,3.1606393952,-0.05970781,-4.81564005,-0.29626452,,,
imu,115.328896,0.5323559920000001,-9.370661764800001,3.136115130400001,0.007584380000000002,-4.54647129,-1.23087827,,,
imu,115.337348,0.5281689224000001,-9.356904250400001,3.1414985056,-0.07466163,-3.99317995,-1.97109236,,,
imu,115.345801,0.5730303824,-9.287518525600001,3.1181705464,-0.007369440000000005,-3.32025805,-2.45709151,,,
imu,115.354253,0.5873860496000001,-9.274359164000002,3.136115130400001,0.1720764,-2.81930508,-2.8234601,,,
imu,115.362705,0.550300576,-9.309650179200002,3.12534838,0.33656842,-2.40807503,-3.02533667,,,
imu,115.371157,0.5425245896,-9.3210150824,3.088861059200001,0.64312173,-1.99684498,-2.99542903,,,
imu,115.379624,0.5592728680000001,-9.347333805600002,3.0457940576,0.8674290299999999,-1.712722400000001,-2.83841392,,,
imu,115.388092,0.5467116592000001,-9.33118368,2.9889695416,0.77770611,-1.30149235,-2.96552139,,,
imu,115.396559,0.5760211464000001,-9.3766432928,2.9734175688,1.01696723,-0.9500775800000003,-3.13749032,,,
imu,115.405026,0.6406216488000002,-9.436458572800001,2.941117317600001,1.23379762,-0.6061397200000003,-3.20478251,,,
imu,115.413494,0.6759126640000002,-9.538742701600002,2.9614545128,1.15902852,-0.53884753,-3.36179762,,,
imu,115.421961,0.7159889016000002,-9.642223136000002,2.9943529168,0.7403215599999999,-0.88278539,-3.62348947,,,
imu,115.430428,0.7405131664000002,-9.6918698184,3.0469903632,0.29918387,-1.6379533,-3.9449966,,,
imu,115.438896,0.7135962904,-9.742114653600002,3.0768980032,-0.5307531400000001,-2.70715143,-4.73007215,,,
imu,115.447363,0.5939657304000001,-9.706225485600001,3.071514628,-1.48032071,-3.98570304,-5.62730135,,,
imu,115.45583,0.5341504504000001,-9.552500216,3.0410088352,-2.33268845,-4.99508589,-6.0385314,,,
imu,115.464298,0.4647647256,-9.489694172,3.075103544800001,-3.11028709,-5.795115259999999,-6.14320814,,,
imu,115.472765,0.3774344168000001,-9.404756474400001,3.032634696,-3.46917877,-6.46803716,-6.225454149999999,,,
imu,115.481233,0.2584020096,-9.312042790400001,3.024260556800001,-3.476655679999999,-7.05871305,-6.2628387,,,
imu,115.4897,0.1573141864,-9.201982675200002,3.024260556800001,-3.31216366,-7.155912880000001,-6.046008309999999,,,
imu,115.498167,0.05562821040000001,-9.149345228800001,3.0254568624,-3.11028709,-7.31292799,-5.55253225,,,
imu,115.506635,0.0,-9.169084271200001,3.0398125296,-2.69905704,-7.0960976,-5.05905619,,,
imu,115.515102,-0.06998387760000001,-9.243853371200002,3.0589534192,-2.17567334,-6.67739064,-4.83474889,,,
imu,115.523569,-0.110658268,-9.2935000536,3.083477684,-1.52518217,-6.18391458,-4.57305704,,,
imu,115.532037,-0.1058730456,-9.3383615136,3.1271428384,-1.11395212,-5.668007790000001,-4.52071867,,,
imu,115.540504,-0.1172379488,-9.388008196000001,3.1534615616,-0.95693701,-5.032470440000001,-4.78988743,,,
imu,115.548971,-0.122621324,-9.403560168800002,3.182172896,-0.8821679099999999,-4.58385584,-5.27588658,,,
imu,115.557439,-0.1160416432,-9.4203084472,3.167219076,-0.89712173,-4.14271815,-5.634778259999999,,,
imu,115.565906,-0.1208268656,-9.3347725968,3.1355169776,-0.80739881,-3.56699608,-5.829177919999999,,,
imu,115.574373,-0.1381732968,-9.319818776800002,3.149274492,-0.5980453299999999,-3.23801204,-6.30022325,,,
imu,115.582831,-0.1441548248,-9.335968902400001,3.123553921600001,-0.2017691,-2.92398182,-6.89837605,,,
imu,115.591288,-0.1890162848,-9.352717180800001,3.115179782400001,0.35899915,-2.62490542,-7.294652279999999,,,
imu,115.599745,-0.2542149400000001,-9.389204501600002,3.134320672,0.8449983,-2.61742851,-7.862897439999999,,,
imu,115.608202,-0.3128339144,-9.422102905600001,3.1648264648,1.18893616,-2.43050576,-8.33394277,,,
imu,115.616659,-0.3517138464,-9.444832712,3.20011748,1.22632071,-1.99684498,-8.27412749,,,
imu,115.625117,-0.367863972,-9.447823476,3.218062064,1.42072037,-1.39869218,-7.840466709999999,,,
imu,115.633574,-0.3822196392,-9.455001309600002,3.2443807872,1.37585891,-0.6883857300000003,-7.249790819999999,,,
imu,115.642031,-0.3887993200000001,-9.490292324800002,3.256343843200001,1.30856672,-0.15004821,-6.4123769,,,
imu,115.650488,-0.4013605288,-9.499264616800001,3.2497641624,1.05435178,0.52287369,-5.61982444,,,
imu,115.658945,-0.4055475984,-9.441841948000002,3.224043592000001,0.65059864,1.38271834,-4.78241052,,,
imu,115.667402,-0.3744436528,-9.388606348800002,3.2192583696,0.13469185,1.98087114,-4.33379592,,,
imu,115.67586,-0.34393786,-9.3144354016,3.1875562712,-0.23167674,2.45191647,-4.25902682,,,
imu,115.684317,-0.3170209840000001,-9.2342829264,3.1690135344,-0.26906129,2.90800798,-4.27398064,,,
imu,115.692774,-0.2739539824000001,-9.199590064,3.128339144,-0.07466163,3.15474601,-4.32631901,,,
imu,115.701231,-0.2039701048,-9.1960011472,3.1229557688,0.07487657,3.50616078,-4.453426479999999,,,
imu,115.709688,-0.1495382,-9.184636244000002,3.1169742408,0.57582954,3.71551426,-4.46090339,,,
imu,115.718146,-0.1178361016,-9.220525412,3.143292964,1.00949032,3.55849915,-4.57305704,,,
imu,115.726603,-0.07058203040000001,-9.239666301600002,3.1737987568,1.54035093,3.5211146,-4.57305704,,,
imu,115.73506,-0.04964668240000001,-9.284527761600001,3.176191368,1.92167334,3.27437657,-4.68521069,,,
imu,115.743517,-0.0251224176,-9.307855720800001,3.156452325600001,2.13850373,3.00520781,-4.64034923,,,
imu,115.751974,-0.0161501256,-9.3443430416,3.170807992800001,2.29551884,2.72856214,-4.75250288,,,
imu,115.760431,0.0023926112,-9.391597112800001,3.1935377992,2.32542648,2.45939338,-4.92447181,,,
imu,115.768889,-0.0053833752,-9.4107380024,3.1905470352,2.37776485,2.43696265,-4.87961035,,,
imu,115.777346,-0.003588916800000001,-9.432869656000001,3.1977248688,2.60207215,2.40705501,-4.31136519,,,
imu,115.786171,0.0161501256,-9.4843107968,3.2037063968,2.5646876,2.65379304,-3.81788913,,,
imu,115.794996,0.02871133440000001,-9.5291722568,3.238997412,2.4899185,2.80333124,-3.52628964,,,
imu,115.803821,0.03947808480000001,-9.516012895200001,3.2366048008,2.08616536,2.83323888,-3.57862801,,,
imu,115.812645,0.04964668240000001,-9.482516338400002,3.2318195784,1.83195042,2.78837742,-3.7206893,,,
imu,115.82147,0.0747691,-9.437056725600002,3.231221425600001,1.72727368,2.66874686,-3.95995042,,,
imu,115.830295,0.09211553120000002,-9.4107380024,3.207893466400001,1.75718132,2.50425484,-4.44594957,,,
imu,115.83912,0.09510629520000001,-9.401167557600001,3.179182132,1.70484295,2.42200883,-5.021671639999999,,,
imu,115.847945,0.09091922560000001,-9.3628857784,3.1534615616,2.00391935,2.30985518,-5.39551714,,,
imu,115.85677,0.07297464160000001,-9.3060612624,3.1367132832,2.04878081,2.1752708,-5.739455,,,
imu,115.865595,0.07297464160000001,-9.273761011200001,3.1086001016,2.25065738,2.09302479,-5.829177919999999,,,
imu,115.87442,0.07297464160000001,-9.216338342400002,3.0577571136,2.6394567,2.06311715,-6.053485220000001,,,
imu,115.883245,0.0107667504,-9.188823313600002,3.0451959048,3.19274804,2.03320951,-6.442284539999999,,,
imu,115.892069,-0.0131593616,-9.263592413600001,3.0457940576,3.60397809,2.19022462,-6.89089914,,,
imu,115.900894,-0.0442633072,-9.340754124800002,3.0523737384,3.70117792,2.57902394,-7.15259099,,,
imu,115.909719,-0.0323002512,-9.376045140000002,3.0703183224,3.86566994,3.09493073,-7.15259099,,,
imu,115.918544,-0.0323002512,-9.450814240000001,3.096637045600001,3.43200916,3.79028336,-7.145114079999999,,,
imu,115.927369,-0.0143556672,-9.457393920800001,3.0906555176,3.19274804,4.36600543,-7.1600679,,,
imu,115.936194,-0.0191408896,-9.499264616800001,3.0798887672,2.863764,4.62022037,-7.33203683,,,
imu,115.945019,-0.0191408896,-9.506442450400002,3.05057928,2.62450288,4.70246638,-7.6834516,,,
imu,115.953844,-0.04007623760000001,-9.490292324800002,3.0344291544,2.31047266,4.814620029999999,-7.930189629999999,,,
imu,115.962668,-0.04725407120000001,-9.4621791432,3.02067164,1.83942733,4.85200458,-8.2068353,,,
imu,115.971493,-0.07656355840000001,-9.467562518400001,2.9883713888,1.75718132,4.694989469999999,-8.44609642,,,
imu,115.980318,-0.1034804344,-9.48072188,3.008708584,1.60016621,4.530497449999999,-8.84237265,,,
imu,115.988789,-0.1268083936,-9.4980683112,3.007512278400001,1.65250458,4.50806672,-8.75264973,,,
imu,115.997261,-0.1561178808,-9.529770409600001,2.9901658472,1.58521239,4.478159079999999,-8.64049608,,,
imu,116.005732,-0.1567160336,-9.5566872856,2.9949510696,1.46558183,4.53797436,-8.55825007,,,
imu,116.014203,-0.1997830352,-9.554892827200002,2.9949510696,1.30108981,4.39591307,-8.5059117,,,
imu,116.022674,-0.260196468,-9.51062952,2.9793990968,1.20388998,4.35852852,-8.26665058,,,
imu,116.031145,-0.3086468448,-9.583604161600002,2.990764,0.9571519499999999,4.27628251,-7.96757418,,,
imu,116.039616,-0.3218062064,-9.6284656216,3.017680876,0.5982602699999999,4.39591307,-7.42175975,,,
imu,116.048088,-0.3493212352000001,-9.552500216,3.049981127200001,0.0001074699999999984,4.46320526,-6.995575880000001,,,
imu,116.056559,-0.3511156936,-9.478927421600002,3.049981127200001,-0.34383039,4.672558739999999,-6.49462291,,,
imu,114.652035,,,,,,,-85.48703239999999,177.3278604,116.255284
imu,114.753689,,,,,,,-86.24387879999999,177.5353828,115.4251944
imu,114.855191,,,,,,,-86.48802280000001,177.5964188,115.2542936
imu,114.956784,,,,,,,-86.47581559999999,177.9870492,114.7415912
imu,115.058285,,,,,,,-86.2927076,178.5485804,114.0701952
imu,115.159848,,,,,,,-86.4636084,178.5607876,114.4486184
imu,115.26141,,,,,,,-83.71698839999999,178.9147964,113.1180336
imu,115.362973,,,,,,,-85.8410412,179.9035796,114.363168
imu,116.06503,-0.3385544848000001,-9.493283088800002,3.038616224000001,-0.51579932,4.91181986,-5.95628539,,,
imu,116.073501,-0.3277877344,-9.477132963200003,3.0218679456,-0.79244499,5.09874261,-5.39551714,,,
imu,116.081972,-0.3104413032000001,-9.4113361552,3.0158864176,-1.03918302,5.07631188,-4.931948719999999,,,
imu,116.090443,-0.311039456,-9.358100556000002,3.014690112,-1.11395212,4.90434295,-4.83474889,,,
imu,116.098915,-0.3122357616,-9.3174261656,3.0248587096,-1.0242292,4.70246638,-4.87213344,,,
imu,116.107386,-0.2948893304,-9.319818776800002,3.0392143768,-0.67281443,4.62022037,-4.89456417,,,
imu,116.115857,-0.2739539824000001,-9.339557819200001,3.017680876,-0.28401511,4.523020539999999,-5.12634838,,,
imu,116.124328,-0.2446444952,-9.340155972000002,3.0009325976,0.14216876,4.478159079999999,-5.05905619,,,
imu,116.132799,-0.2243073,-9.349128264,2.9949510696,0.53096808,4.30619015,-4.931948719999999,,,
imu,116.141271,-0.2201202304,-9.380830362400001,3.002727056,0.8524752099999999,4.1192674,-4.8422258,,,
imu,116.149742,-0.212344244,-9.419710294400002,3.0081104312,1.35342818,3.93982156,-4.67773378,,,
imu,116.158213,-0.2410555784,-9.450216087200001,3.017082723200001,1.32352054,3.61831443,-4.759979789999999,,,
imu,116.166684,-0.2314851336,-9.4831144912,3.032634696,1.2188438,3.2220382,-4.887087259999999,,,
imu,116.175155,-0.2380648144,-9.477731116000001,3.0320365432,1.4431511,2.83323888,-4.999240909999999,,,
imu,116.183626,-0.2637853848,-9.48072188,3.0434014464,1.28613599,2.56407012,-5.12634838,,,
imu,116.192089,-0.263187232,-9.513022131200001,3.053570044,1.00201341,2.25751681,-5.17120984,,,
imu,116.200551,-0.3008708584000001,-9.5184055064,3.054168196800001,0.9870595899999999,1.95844041,-5.11139456,,,
imu,116.209013,-0.3002727056,-9.543527924000001,3.0697201696,0.77770611,1.59954873,-5.16373293,,,
imu,116.217475,-0.3164228312,-9.545322382400002,3.0661312528,0.43376825,1.66684092,-5.08896383,,,
imu,116.225938,-0.334965568,-9.52558334,3.079290614400001,0.29918387,1.54721036,-4.931948719999999,,,
imu,116.2344,-0.3176191368,-9.503451686400002,3.0810850728,-0.03727708,1.44253362,-4.90204108,,,
imu,116.242862,-0.3397507904000001,-9.475936657600002,3.086468448,-0.40364567,1.42010289,-5.17120984,,,
imu,116.251325,-0.3493212352000001,-9.4382530312,3.074505392,-0.71019898,1.43505671,-5.27588658,,,
imu,116.259787,-0.3331711096,-9.394587876800001,3.0643367944,-0.63542988,1.50982581,-5.33570186,,,
imu,116.268249,-0.3535083048,-9.370661764800001,3.0529718912,-0.55318387,1.63693328,-5.47028624,,,
imu,116.276711,-0.3762381112000001,-9.3664746952,3.065533100000001,-0.5980453299999999,1.68927165,-5.67963972,,,
imu,116.285174,-0.400762376,-9.363483931200001,3.0631404888,-0.49336859,1.77899457,-5.68711663,,,
imu,116.293636,-0.4043512928,-9.3479319584,3.0679257112,-0.36626112,1.93600968,-5.67216281,,,
imu,116.302098,-0.4300718632,-9.329987374400002,3.05057928,-0.17186146,2.03320951,-5.70954736,,,
imu,116.31056,-0.4240903352000001,-9.346735652800001,3.0392143768,0.13469185,2.35471664,-5.60487062,,,
imu,116.319023,-0.3959771536000001,-9.352717180800001,3.0122975008,0.29918387,2.63883922,-5.4403786,,,
imu,116.327485,-0.3893974728000001,-9.380830362400001,2.993754764000001,0.50853735,2.90053107,-5.350655679999999,,,
imu,116.335897,-0.3989679176000001,-9.370063612000001,3.0134938064,0.83004448,3.1472691,-5.20859439,,,
imu,116.344359,-0.3469286240000001,-9.453805004000001,3.010503042400001,1.12912088,3.46129932,-5.17868675,,,
imu,116.352821,-0.3493212352000001,-9.519601812000001,3.020073487200001,1.41324346,3.67812971,-4.81979507,,,
imu,116.361284,-0.334965568,-9.5213962704,3.0182790288,1.21136689,3.58092988,-4.976810179999999,,,
imu,116.369746,-0.3265914288,-9.5219944232,3.017082723200001,0.8749059399999999,3.37905331,-5.29831731,,,
imu,116.378208,-0.3367600264,-9.5291722568,3.0284476264,0.68798319,3.27437657,-5.612347529999999,,,
imu,116.38667,-0.3427415544,-9.5327611736,3.0248587096,0.25432241,3.05006927,-5.67963972,,,
imu,116.39514,-0.3511156936,-9.5381445488,3.02067164,-0.10456927,2.9977309,-5.53757843,,,
imu,116.40361,-0.3487230824000001,-9.522592576000001,3.0122975008,-0.30644584,2.87062343,-5.24597894,,,
imu,116.41208,-0.3720510416,-9.530368562400001,3.040410682400001,-0.49336859,2.84071579,-4.81231816,,,
imu,116.42055,-0.3744436528,-9.520798117600002,3.0493829744,-0.77749117,2.78837742,-4.37118047,,,
imu,116.42902,-0.3822196392,-9.5172092008,3.055962655200001,-0.9943215599999999,2.75846978,-3.92256587,,,
imu,116.43749,-0.3624805968,-9.510031367200002,3.051775585600001,-1.04665993,2.86314652,-3.42908981,,,
imu,116.44596,-0.3499193880000001,-9.479525574400002,3.049981127200001,-1.29339796,2.97530017,-3.03281358,,,
imu,116.45443,-0.3463304712,-9.471151435200001,3.073309086400001,-1.50275144,3.01268472,-2.71878336,,,
imu,116.4629,-0.3361618736,-9.440645642400002,3.0786924616,-1.52518217,3.17717674,-2.28512258,,,
imu,116.471369,-0.3206099008000001,-9.4173176832,3.087066600800001,-1.59995127,3.22951511,-1.95613854,,,
imu,116.479839,-0.3253951232,-9.3628857784,3.078094308800001,-1.83173548,3.24446893,-2.001,,,
imu,116.488309,-0.3224043592,-9.298285276000001,3.0679257112,-1.78687402,3.20708438,-2.32998404,,,
imu,116.496779,-0.3247969704000001,-9.270172094400001,3.0601497248,-1.52518217,3.11736146,-2.55429134,,,
imu,116.505249,-0.3236006648,-9.253423816000002,3.0547663496,-1.2485365,3.09493073,-2.56924516,,,
imu,116.513719,-0.3295821928000001,-9.249236746400001,3.047588516000001,-0.81487572,2.93043871,-2.71130645,,,
imu,116.522189,-0.3445360128,-9.249236746400001,3.040410682400001,-0.13447691,2.88557725,-3.0477674,,,
imu,116.530659,-0.3702565832000001,-9.246245982400001,3.0344291544,0.3889067899999999,2.83323888,-3.33936689,,,
imu,116.539129,-0.3977716120000001,-9.250433052000002,3.0230642512,1.34595127,2.68370068,-3.46647436,,,
imu,116.547599,-0.4300718632,-9.328791068800001,3.0278494736,1.98148862,2.67622377,-3.63844329,,,
imu,116.556068,-0.4611758088,-9.3963823352,3.0188771816,2.32542648,2.6238854,-3.63096638,,,
imu,116.564538,-0.5197947832,-9.4412437952,3.0284476264,2.68431816,2.66874686,-3.55619728,,,
imu,116.573008,-0.5419264368000001,-9.495077547200001,3.040410682400001,2.87871782,2.67622377,-3.46647436,,,
imu,116.581478,-0.5700396184000001,-9.5638651192,3.061346030400001,2.69927198,2.93043871,-3.35432071,,,
imu,116.589948,-0.5849934384000001,-9.627269316000001,3.0673275584,2.29551884,3.19213056,-3.05524431,,,
imu,116.598407,-0.5814045216000001,-9.614109954400002,3.0583552664,1.65250458,3.36409949,-2.8234601,,,
imu,116.606865,-0.5987509528,-9.594370912,3.0727109336,0.52349117,3.65569898,-2.57672207,,,
imu,116.615323,-0.5987509528,-9.592576453600001,3.0589534192,0.06739966,3.98468302,-2.12063056,,,
imu,116.623782,-0.6041343280000001,-9.572239258400002,3.0398125296,-0.37373803,4.47068217,-1.72435433,,,
imu,116.63224,-0.5891805080000001,-9.520199964800002,3.0332328488,-0.5008455,4.8669584,-1.18601681,,,
imu,116.640699,-0.5443190480000001,-9.475936657600002,3.011699348,-0.97189083,5.09874261,-1.0290017,,,
imu,116.649157,-0.5275707696,-9.465169907200002,2.9955492224,-1.08404448,5.42772665,-0.9018942299999999,,,
imu,116.657616,-0.5006538936,-9.4753385048,2.984782472,-1.21862886,5.5398803,-1.01404788,,,
imu,116.666074,-0.4683536424000001,-9.4454308648,2.9530803736,-1.09152139,5.592218669999999,-1.01404788,,,
imu,116.674533,-0.4408386136,-9.408345391200001,2.953678526400001,-1.39059779,5.64455704,-1.22340136,,,
imu,116.682991,-0.4366515440000001,-9.403560168800002,2.951884068,-1.18872122,5.614649399999999,-1.253309,,,
imu,116.69145,-0.4378478496000001,-9.426289975200001,2.9680341936,-0.98684465,5.659510859999999,-1.13367844,,,
imu,116.699908,-0.4001642232,-9.448421628800002,3.020073487200001,-1.18124431,5.64455704,-1.01404788,,,
imu,116.708366,-0.3690602776000001,-9.4041583216,3.0314383904,-1.54013599,5.569787939999999,-1.14863226,,,
imu,116.716825,-0.3696584304000001,-9.3652783896,3.062542336,-1.54013599,5.614649399999999,-0.8719865899999999,,,
imu,116.725283,-0.3433397072,-9.356904250400001,3.071514628,-1.6971511,5.56231103,-0.7523560299999998,,,
imu,116.733742,-0.3218062064,-9.3904008072,3.088861059200001,-1.58499745,5.53240339,-0.46075654,,,
imu,116.7422,-0.3044597752,-9.377241445600001,3.0673275584,-1.27096723,5.43520356,-0.25887997,,,
imu,116.750659,-0.2990764,-9.351520875200002,3.0547663496,-1.00927538,5.36043446,-0.12429559,,,
imu,116.759117,-0.2877114968,-9.337165208000002,3.054168196800001,-0.71767589,5.12117334,-0.2289723299999999,,,
imu,116.767576,-0.2733558296,-9.4173176832,3.0667294056,-0.26906129,5.21089626,-0.1616801399999999,,,
imu,116.776034,-0.2619909264,-9.460384684800001,3.062542336,-0.007369440000000005,5.21089626,-0.09438795,,,
imu,116.784493,-0.245242648,-9.482516338400002,3.0577571136,0.23936859,5.09874261,0.05515025000000007,,,
imu,116.792951,-0.251224176,-9.474740352000001,3.059551572000001,0.25432241,5.263234629999999,0.1299193500000002,,,
imu,116.801776,-0.2296906752000001,-9.468160671200001,3.0649349472,0.29170696,5.38286519,0.4364726600000002,,,
imu,116.810601,-0.2225128416,-9.492086783200001,3.0691220168,0.02253820000000001,5.47258811,0.6757337799999998,,,
imu,116.819426,-0.1842310624,-9.526779645600001,3.0858702952,-0.17186146,5.60717249,0.8252719800000001,,,
imu,116.828251,-0.1932033544,-9.513620284000002,3.0882629064,-0.51579932,5.943633439999999,0.87013344,,,
imu,116.837075,-0.1686790896,-9.4980683112,3.101422268000001,-1.0242292,6.19784838,0.9449025400000002,,,
imu,116.8459,-0.1429585192,-9.471749588000002,3.104413032,-1.33078251,6.48197096,0.9299487200000001,,,
imu,116.854725,-0.1321917688,-9.458590226400002,3.0912536704,-1.50275144,6.818431909999999,0.9972409099999999,,,
imu,116.86355,-0.07895616960000001,-9.4412437952,3.0990296568,-1.53265908,7.012831569999999,0.9897640000000001,,,
imu,116.872375,-0.0317020984,-9.416719530400002,3.082281378400001,-1.58499745,7.02030848,0.8177950699999998,,,
imu,115.464566,,,,,,,-83.55829480000001,179.0368684,112.0071784
imu,115.566098,,,,,,,-85.27951,179.6106068,114.3997896
imu,115.668179,,,,,,,-84.9377084,179.8425436,112.8128536
imu,115.769253,,,,,,,-85.4748252,180.0256516,114.9613208
imu,115.870785,,,,,,,-85.3161316,179.5983996,114.7782128
imu,115.97247,,,,,,,-85.7555908,179.5861924,114.8148344
imu,116.073941,,,,,,,-85.90207720000001,179.1833548,115.2298792
imu,116.175473,,,,,,,-85.5480684,179.2932196,113.8504656
imu,116.8812,-0.0017944584,-9.3862137376,3.062542336,-1.37564397,6.9604932,0.60844159,,,
imu,116.890025,0.0185427368,-9.3652783896,3.0643367944,-1.31582869,6.76609354,0.2495499100000003,,,
imu,116.89885,0.03648732080000001,-9.344941194400002,3.0583552664,-1.16629049,6.66889371,0.05515025000000007,,,
imu,116.907675,0.0663949608,-9.346735652800001,3.047588516000001,-0.91207555,6.36981731,-0.05700339999999993,,,
imu,116.916499,0.08254508640000002,-9.3455393472,3.021269792800001,-0.6279529699999999,6.182894559999999,-0.15420323,,,
imu,116.925324,0.1052748928,-9.3592968616,3.012895653600001,-0.35878421,5.90624889,-0.07943412999999988,,,
imu,116.934149,0.11963056,-9.357502403200002,3.0045215144,-0.16438455,5.62960322,0.02524261000000028,,,
imu,116.942974,0.1040785872,-9.364680236800002,3.020073487200001,0.10478421,5.52492648,0.0626271599999999,,,
imu,116.951799,0.09749890640000002,-9.374848834400002,3.033831001600001,0.20198404,5.30061918,0.1074886200000003,,,
imu,116.960624,0.1112564208,-9.4244955168,3.0547663496,0.26927623,5.113696429999999,0.05515025000000007,,,
imu,116.969449,0.09869521200000002,-9.4382530312,3.0523737384,0.10478421,4.70246638,-0.29626452,,,
imu,116.978274,0.062806044,-9.4490197816,3.0697201696,-0.01484635000000001,4.31366706,-0.7074945699999999,,,
imu,116.987099,0.05562821040000001,-9.4669643656,3.0691220168,-0.47093786,4.02206757,-1.08881698,,,
imu,116.995923,0.04127254320000001,-9.450216087200001,3.0631404888,-0.59056842,3.88000628,-1.32060119,,,
imu,117.004403,0.0340947096,-9.435860420000001,3.053570044,-0.7401066199999999,3.78280645,-1.35050883,,,
imu,117.012884,0.0233279592,-9.410139849600002,3.0451959048,-0.874691,3.88000628,-1.30564737,,,
imu,117.021364,0.0305057928,-9.385615584800002,3.0368217656,-0.94198319,3.93982156,-1.21592445,,,
imu,117.029844,0.04845037680000001,-9.3963823352,3.0434014464,-1.07656757,4.02206757,-1.27573973,,,
imu,117.038324,0.0376836264,-9.435262267200002,3.0511774328,-1.00179847,4.32862088,-1.39537029,,,
imu,117.046804,0.06220789120000001,-9.4873015608,3.0691220168,-1.2485365,4.53797436,-1.60472377,,,
imu,117.055284,0.068787572,-9.5184055064,3.0948425872,-1.13638285,4.567882,-1.74678506,,,
imu,117.063764,0.09989151760000002,-9.5148165896,3.0912536704,-0.92702937,4.77723548,-1.90380017,,,
imu,117.072244,0.1178361016,-9.5040498392,3.0876647536,-1.18124431,4.552928179999999,-2.27764567,,,
imu,117.080724,0.1118545736,-9.5040498392,3.0882629064,-1.39059779,4.26132869,-2.86832156,,,
imu,117.089204,0.1130508792,-9.498666464000001,3.0768980032,-1.38312088,3.9697292,-3.1973056,,,
imu,117.097684,0.1142471848,-9.478927421600002,3.0697201696,-1.59995127,3.73046808,-3.71321239,,,
imu,117.106164,0.1028822816,-9.4591883792,3.0691220168,-1.71210492,3.22951511,-4.13939626,,,
imu,117.114644,0.09690075360000001,-9.444832712,3.070916475200001,-1.70462801,2.8481927,-4.32631901,,,
imu,117.123125,0.08912476720000001,-9.440047489600001,3.0691220168,-1.66724346,2.42200883,-4.56558013,,,
imu,117.131605,0.06998387760000001,-9.430477044800002,3.0667294056,-1.68967419,1.94348659,-4.55062631,,,
imu,117.140085,0.0346928624,-9.420906600000002,3.086468448,-1.83921239,1.39767216,-4.64034923,,,
imu,117.148565,0.011963056,-9.414925072,3.1038148792,-1.80930475,0.8219500899999996,-4.715118329999999,,,
imu,117.157045,-0.004785222400000001,-9.3904008072,3.1091982544,-1.68219728,0.3209971199999999,-4.63287232,,,
imu,117.165525,-0.04007623760000001,-9.364082084000001,3.131329908000001,-1.95136604,-0.1650020300000001,-4.72259524,,,
imu,117.174005,-0.06101158560000001,-9.364680236800002,3.1337225192,-1.90650458,-0.4640784300000003,-4.5431494,,,
imu,117.182485,-0.09570444800000001,-9.3592968616,3.142694811200001,-1.77939711,-0.7930624700000002,-4.26650373,,,
imu,117.190965,-0.1244157824,-9.346735652800001,3.1259465328,-1.65976655,-0.9725083100000003,-3.96742733,,,
imu,117.199445,-0.1519308112,-9.353315333600001,3.128339144,-1.42798234,-1.05475432,-3.60105874,,,
imu,117.207907,-0.1692772424,-9.348530111200002,3.1181705464,-1.2485365,-1.04727741,-3.21225942,,,
imu,117.21637,-0.1812402984,-9.349128264,3.1086001016,-1.12890594,-0.9949390400000002,-2.86832156,,,
imu,117.224832,-0.1842310624,-9.349128264,3.112787171200001,-0.7999219,-0.82297011,-2.39727623,,,
imu,117.233294,-0.1722680064,-9.340155972000002,3.1145816296,-0.63542988,-0.68090882,-2.09072292,,,
imu,117.241757,-0.1531271168,-9.360493167200001,3.1145816296,-0.44850713,-0.4416477000000003,-1.94866163,,,
imu,117.250219,-0.1363788384,-9.361091320000002,3.108001948800001,-0.08961545,-0.1874327600000001,-1.67201596,,,
imu,117.258681,-0.1220231712,-9.3652783896,3.108001948800001,-0.007369440000000005,0.1191205499999999,-1.51500085,,,
imu,117.267143,-0.0861340032,-9.3838211264,3.112787171200001,0.16459949,0.4032431299999999,-1.49257012,,,
imu,117.275606,-0.0514411408,-9.423897364000002,3.143292964,0.29170696,0.58268897,-1.48509321,,,
imu,117.284068,-0.0155519728,-9.479525574400002,3.1600412424,0.23936859,0.72475026,-1.51500085,,,
imu,117.29253,0.0107667504,-9.5004609224,3.166022770400001,0.07487657,0.7322271699999998,-1.7019236,,,
imu,117.300992,0.0430670016,-9.511227672800002,3.173200604000001,-0.05970781,0.6948426199999997,-2.06829219,,,
imu,117.309455,0.0747691,-9.4843107968,3.166022770400001,-0.41112258,0.3658585799999998,-2.41970696,,,
imu,117.317917,0.09749890640000002,-9.471151435200001,3.184565507200001,-0.77749117,0.21632038,-2.5991528,,,
imu,117.326379,0.1028822816,-9.443038253600001,3.188154424,-1.00927538,0.0368745399999999,-2.63653735,,,
imu,117.334841,0.1184342544,-9.447823476,3.1857618128,-1.20367504,-0.3070633200000001,-2.62906044,,,
imu,117.343304,0.1118545736,-9.4460290176,3.1899488824,-1.65228964,-0.80053938,-2.98795212,,,
imu,117.351766,0.11963056,-9.443038253600001,3.1863599656,-1.86912003,-1.286538530000001,-3.09262886,,,
imu,117.360228,0.1160416432,-9.414326919200002,3.1809765904,-1.89902767,-1.70524549,-3.31693616,,,
imu,117.368691,0.09570444800000001,-9.346735652800001,3.182172896,-1.89902767,-2.18376773,-3.69825857,,,
imu,117.377153,0.06160973840000001,-9.306659415200002,3.196528563200001,-1.622382,-2.56509014,-3.76555076,,,
imu,117.385615,0.06519865520000001,-9.315631707200001,3.198921174400001,-1.14385976,-2.74453598,-3.86275059,,,
imu,117.394077,0.0562263632,-9.360493167200001,3.2013137856,-1.15881358,-2.99127401,-4.012288789999999,,,
imu,117.40254,0.02990764000000001,-9.3586987088,3.203108244,-0.91207555,-3.11838148,-4.04967334,,,
imu,117.411005,-0.011963056,-9.3335762912,3.224043592000001,-0.7251528,-3.29782732,-4.13939626,,,
imu,117.41947,-0.0113649032,-9.3138372488,3.228828814400001,-0.69524516,-3.40250406,-4.16182699,,,
imu,117.428095,-0.04366515440000001,-9.332978138400001,3.225838050400001,-0.5980453299999999,-3.39502715,-4.21416536,,,
imu,117.43656,-0.0514411408,-9.347333805600002,3.2168657584,-0.61299915,-3.56699608,-4.27398064,,,
imu,117.445025,-0.08792846160000001,-9.3443430416,3.214473147200001,-0.62047606,-3.5819499,-4.22911918,,,
imu,117.45349,-0.09510629520000001,-9.329389221600001,3.2072953136,-0.5307531400000001,-3.60438063,-4.16182699,,,
imu,117.461955,-0.1010878232,-9.325202152000001,3.1905470352,-0.37373803,-3.56699608,-4.16182699,,,
imu,117.47042,-0.1124527264,-9.352717180800001,3.1929396464,-0.10456927,-3.36511951,-4.079580979999999,,,
imu,117.478885,-0.1124527264,-9.3652783896,3.2019119384,0.11226112,-3.38007333,-3.95995042,,,
imu,117.48735,-0.1214250184,-9.388008196000001,3.2055008552,0.11226112,-3.21558131,-3.89265823,,,
imu,117.495815,-0.116639796,-9.411934308000001,3.2114823832,0.18703022,-3.11838148,-3.81788913,,,
imu,117.50428,-0.1214250184,-9.405952780000002,3.200715632800001,0.10478421,-3.18567367,-3.89265823,,,
imu,117.512746,-0.1309954632,-9.408943544000001,3.170807992800001,-0.04475399000000001,-3.29782732,-4.00481188,,,
imu,117.521211,-0.1190324072,-9.414326919200002,3.1684153816,0.07487657,-3.2828735,-3.93004278,,,
imu,117.529676,-0.1369769912,-9.468758824,3.156452325600001,-0.04475399000000001,-3.25296586,-3.76555076,,,
imu,117.538141,-0.1626975616,-9.458590226400002,3.142694811200001,-0.29896893,-3.17819676,-3.78798149,,,
imu,117.546606,-0.1668846312,-9.443038253600001,3.1277409912,-0.44103022,-2.96136637,-3.51881273,,,
imu,117.555071,-0.1967922712,-9.4490197816,3.131329908000001,-0.40364567,-2.81930508,-3.48890509,,,
imu,117.563536,-0.2548130928,-9.3168280128,3.062542336,-0.58309151,-2.54265941,-3.45152054,,,
imu,117.572001,-0.2715613712,-9.276751775200001,3.1247502272,-0.5008455,-2.39312121,-3.66835093,,,
imu,117.580466,-0.290104108,-9.398774946400001,3.1259465328,-0.11952309,-1.96693734,-3.82536604,,,
imu,117.588932,-0.3068523864000001,-9.481918185600001,3.1696116872,-0.11952309,-1.63047639,-4.04967334,,,
imu,117.597397,-0.3241988176,-9.486703408,3.1684153816,-0.38869185,-1.32392308,-4.057150249999999,,,
imu,117.605862,-0.3535083048,-9.477731116000001,3.1630320064,-0.67281443,-0.71829337,-3.85527368,,,
imu,117.614327,-0.3481249296000001,-9.496872005600002,3.1875562712,-1.23358268,-0.2023865800000002,-3.91508896,,,
imu,117.622792,-0.3553027632,-9.524387034400002,3.2043045496,-1.55508981,0.44062768,-3.88518132,,,
imu,117.631218,-0.3301803456000001,-9.5638651192,3.1726024512,-1.93641222,0.7397040799999997,-3.91508896,,,
imu,117.639643,-0.2990764,-9.51062952,3.1438911168,-2.36259609,1.33785688,-4.102011709999999,,,
imu,117.648069,-0.3212080536,-9.478329268800001,3.179780284800001,-2.66167249,1.9509635,-4.19173463,,,
imu,117.656494,-0.3247969704000001,-9.4908904776,3.1977248688,-2.77382614,2.35471664,-4.26650373,,,
imu,117.66492,-0.2847207328,-9.4843107968,3.200715632800001,-3.13271782,2.75846978,-4.27398064,,,
imu,117.673346,-0.2954874832,-9.409541696800002,3.1743969096,-3.16262546,3.19960747,-4.102011709999999,,,
imu,117.681771,-0.2883096496000001,-9.346137500000001,3.1570504784,-3.30468675,3.49868387,-4.17678081,,,
imu,117.690197,-0.2733558296,-9.3622876256,3.172004298400001,-3.37945585,3.85009864,-4.23659609,,,
imu,116.277222,,,,,,,-85.9753204,178.9270036,115.1200144
imu,116.378754,,,,,,,-83.72919560000001,178.0236708,112.4344304
imu,116.480317,,,,,,,-85.9264916,178.7561028,115.4374016
imu,116.581879,,,,,,,-83.570502,177.791734,112.6297456
imu,116.683472,,,,,,,-85.5114468,178.7927244,115.5350592
imu,116.785035,,,,,,,-85.6213116,179.317634,114.79042
imu,116.886567,,,,,,,-85.767798,179.439706,115.0711856
imu,116.98816,,,,,,,-85.767798,179.4885348,115.0223568
imu,117.698623,-0.2494297176,-9.395186029600001,3.2043045496,-3.37945585,4.22394414,-4.19921154,,,
imu,117.707048,-0.227298064,-9.381428515200001,3.2043045496,-3.618716969999999,4.59031273,-4.10948862,,,
imu,117.715474,-0.1926052016,-9.329987374400002,3.1959304104,-3.81311663,4.979112049999999,-3.84779677,,,
imu,117.723899,-0.1896144376,-9.2935000536,3.2108842304,-3.76825517,5.136127159999999,-3.7954584,,,
imu,117.732325,-0.1710717008,-9.319220624000002,3.2372029536,-3.70096298,5.2408039,-3.6459202,,,
imu,117.740751,-0.1758569232,-9.3862137376,3.2736902744,-3.53647096,5.50997266,-3.55619728,,,
imu,117.749176,-0.1830347568,-9.441841948000002,3.3131683592,-3.74582444,5.43520356,-3.68330475,,,
imu,117.757602,-0.17944584,-9.477132963200003,3.3221406512,-3.82059354,5.57726485,-3.67582784,,,
imu,117.766028,-0.1860255208,-9.460982837600001,3.331711096,-4.254254319999999,5.831479789999999,-3.81041222,,,
imu,117.774453,-0.1866236736,-9.447823476,3.3329074016,-4.560807629999999,5.966064169999999,-3.81041222,,,
imu,117.782879,-0.2177276192,-9.4244955168,3.361020583200001,-4.942130039999999,6.08569473,-3.95247351,,,
imu,117.791304,-0.2057645632,-9.414326919200002,3.340085235200001,-5.129052789999999,6.30252512,-4.124442439999999,,,
imu,117.79973,-0.20935348,-9.370661764800001,3.3179535816,-5.45055992,6.579170789999999,-4.37865738,,,
imu,117.808156,-0.1513326584,-9.297687123200001,3.330514790400001,-5.54775975,6.773570449999999,-4.49081103,,,
imu,117.817003,-0.1351825328,-9.288116678400002,3.343674152,-5.338406269999999,7.080123759999999,-4.58053395,,,
imu,117.825851,-0.1118545736,-9.209758661600002,3.3275240264,-4.919699309999999,7.08760067,-4.50576485,,,
imu,117.834698,-0.1303973104,-9.103287463200001,3.2982145392,-4.55333072,6.848339549999999,-4.909517989999999,,,
imu,117.843546,-0.1052748928,-9.021938682400002,3.2826625664,-3.67853225,6.49692478,-5.350655679999999,,,
imu,117.852393,-0.0783580168,-8.986049514400001,3.3041960672,-2.25791935,6.227756019999999,-5.75440882,,,
imu,117.86124,-0.09390998960000001,-9.0045922512,3.3412815408,-1.00179847,5.9137258,-6.12825432,,,
imu,117.870088,-0.1112564208,-9.0362943496,3.3711891808,0.08983038999999998,5.38286519,-6.397423079999999,,,
imu,117.878935,-0.140565908,-9.1409710896,3.436387836,1.34595127,4.99406587,-6.52453055,,,
imu,117.887783,-0.1531271168,-9.2689757888,3.465697323200001,2.116073,4.76975857,-6.62920729,,,
imu,117.89663,-0.1800439928,-9.253423816000002,3.4226303216,2.42262631,4.60526655,-6.73388403,,,
imu,117.905478,-0.2207183832,-9.090726254400002,3.3909282232,2.77404108,4.47068217,-6.793699309999999,,,
imu,117.914325,-0.2075590216,-9.100296699200001,3.427415544,3.34228624,4.552928179999999,-6.82360695,,,
imu,117.923173,-0.2344758976,-9.2761536224,3.4298081552,4.03763887,4.66508183,-6.45723836,,,
imu,117.93202,-0.2320832864,-9.3796340568,3.3927226816,4.4339151,4.65760492,-5.91142393,,,
imu,117.940867,-0.182436604,-9.530966715200002,3.4010968208,4.55354566,4.63517419,-5.8142241,,,
imu,117.949715,-0.11963056,-9.685888290400001,3.3628150416,4.14231561,4.807143119999999,-5.49271697,,,
imu,117.958562,-0.10467674,-9.690075360000002,3.3454686104,3.36471697,4.500589809999999,-4.77493361,,,
imu,117.96741,-0.1680809368,-9.516012895200001,3.361020583200001,1.9665348,4.16412886,-4.04967334,,,
imu,117.976257,-0.188418132,-9.326398457600002,3.4435656696,0.38142988,3.6706528,-3.91508896,,,
imu,117.985105,-0.1459492832,-9.364680236800002,3.4160506408,0.05992275,3.36409949,-3.88518132,,,
imu,117.993952,-0.0980970592,-9.507040603200002,3.2946256224,-0.02232326000000001,3.01268472,-3.72816621,,,
imu,118.002799,-0.1650901728,-9.5357519376,3.209089772,-0.5756146,2.66126995,-3.33188998,,,
imu,118.011647,-0.1782495344,-9.569248494400002,3.2940274696,-1.15133667,2.39210119,-2.68887572,,,
imu,118.020121,-0.19439966,-9.3545116392,3.2874477888,-1.89155076,2.38462428,-2.38979932,,,
imu,118.028594,-0.206362716,-9.440645642400002,3.3592261248,-2.18315025,2.33228591,-2.27764567,,,
imu,118.037068,-0.2326814392,-9.437654878400002,3.310775748,-2.5196112,2.54163939,-2.19539966,,,
imu,118.045542,-0.2530186344000001,-9.419112141600001,3.3454686104,-3.02056417,2.64631613,-2.11315365,,,
imu,118.054016,-0.2284943696,-9.346137500000001,3.2910367056,-3.39440967,2.87810034,-2.13558438,,,
imu,118.062489,-0.2326814392,-9.249236746400001,3.3000089976,-3.46917877,3.10988455,-2.33746095,,,
imu,118.070963,-0.2326814392,-9.136185867200002,3.2946256224,-3.31964057,3.27437657,-2.5243837,,,
imu,118.079437,-0.212344244,-9.133793256,3.312570206400001,-2.63924176,3.47625314,-2.63653735,,,
imu,118.08791,-0.1949978128,-9.1475507704,3.3173554288,-1.78687402,3.48373005,-2.92813684,,,
imu,118.096384,-0.2021756464,-9.157121215200002,3.3012053032,-1.2485365,3.32671494,-3.28702852,,,
imu,118.104858,-0.2015774936,-9.198991911200002,3.3012053032,-0.7999219,3.02016163,-3.67582784,,,
imu,118.113332,-0.2625890792,-9.2719665528,3.405283890400001,-0.47093786,2.91548489,-3.93004278,,,
imu,118.121805,-0.2386629672,-9.337165208000002,3.4010968208,-0.05970781,2.79585433,-4.21416536,,,
imu,118.130279,-0.233279592,-9.261199802400002,3.3394870824,-0.0522309,2.91548489,-4.18425772,,,
imu,118.138753,-0.2296906752000001,-9.254021968800002,3.4525379616,0.05244583999999999,3.05754618,-3.84779677,,,
imu,117.089753,,,,,,,-85.88987000000002,179.6960572,114.4974472
imu,117.191498,,,,,,,-83.8634748,179.3420484,113.2278984
imu,117.292847,,,,,,,-85.5724828,180.233174,114.119024
imu,117.39441,,,,,,,-83.5949164,179.4885348,111.9583496
imu,117.495942,,,,,,,-85.30392440000001,180.1477236,114.2899248
imu,117.613099,,,,,,,-83.52167320000001,179.4030844,112.2513224
imu,117.699067,,,,,,,-85.4137892,180.2209668,114.9979424
imu,117.800629,,,,,,,-85.56027560000001,180.538354,114.4119968
imu,117.902258,,,,,,,-85.43820360000001,180.4040748,114.3265464
imu,118.00382,,,,,,,-85.7433836,180.2453812,114.1312312
imu,118.105383,,,,,,,-85.07198760000001,180.1965524,114.363168
