Type,Timestamp,Data Accelerometer X,Data Accelerometer Y,Data Accelerometer Z,Data Gyroscope X,Data Gyroscope Y,Data Gyroscope Z,Data Magnetometer X,Data Magnetometer Y,Data Magnetometer Z
imu,173.384248,0.251224176,-9.367072848000001,3.3000089976,-0.23167674,0.9116730099999999,-3.39918217,,,
imu,173.39273,0.2470371064,-9.364680236800002,3.3089812896,-0.23167674,0.56025824,-3.25712088,,,
imu,173.401213,0.2542149400000001,-9.371259917600002,3.307784984,-0.29896893,0.02939763000000006,-3.18982869,,,
imu,173.409696,0.257205704,-9.373054376,3.314962817600001,-0.5307531400000001,-0.25472495,-3.24216706,,,
imu,173.418178,0.2464389536,-9.394587876800001,3.3251314152,-0.6279529699999999,-0.5612782599999999,-3.28702852,,,
imu,173.426661,0.236270356,-9.3963823352,3.328720332000001,-0.874691,-1.00989286,-3.14496723,,,
imu,173.435143,0.230288828,-9.395186029600001,3.3353000128,-0.77749117,-1.27158471,-3.06272122,,,
imu,173.443626,0.2290925224000001,-9.3838211264,3.343674152,-1.12142903,-1.68281476,-3.05524431,,,
imu,173.452109,0.2189239248,-9.373054376,3.3574316664,-1.30087487,-1.98189116,-3.07019813,,,
imu,173.460591,0.2045682576000001,-9.3628857784,3.3628150416,-1.33078251,-2.2361061,-3.02533667,,,
imu,173.469074,0.1979885768,-9.353315333600001,3.363413194400001,-1.34573633,-2.58752087,-2.85336774,,,
imu,173.477557,0.1842310624,-9.342548583200001,3.3670021112,-1.51022835,-2.8342589,-2.88327538,,,
imu,173.486039,0.1728661592,-9.332978138400001,3.3550390552,-1.65228964,-3.1333353,-2.86084465,,,
imu,173.494522,0.1531271168,-9.3204169296,3.3580298192,-1.65976655,-3.40250406,-2.85336774,,,
imu,173.503004,0.1489400472,-9.297687123200001,3.365207652800001,-1.65976655,-3.63428827,-2.87579847,,,
imu,173.511487,0.1262102408,-9.290509289600001,3.372385486400001,-1.45788998,-3.5819499,-2.66644499,,,
imu,173.51997,0.1088638096,-9.2755554696,3.3628150416,-1.33078251,-3.70905737,-2.68887572,,,
imu,173.528413,0.0855358504,-9.263592413600001,3.375376250400001,-1.21862886,-3.91093394,-2.64401426,,,
imu,173.536856,0.0675912664,-9.267181330400001,3.3807596256,-1.18124431,-3.85859557,-2.61410662,,,
imu,173.545299,0.0634041968,-9.2785462336,3.3897319176,-1.19619813,-3.75391883,-2.71878336,,,
imu,173.553742,0.0514411408,-9.267779483200002,3.403489432,-1.16629049,-3.58942681,-2.53933752,,,
imu,173.562186,0.0376836264,-9.277948080800002,3.417246946400001,-0.8672140899999999,-3.32025805,-2.35989168,,,
imu,173.570629,0.0305057928,-9.298285276000001,3.4292100024,-0.874691,-3.08847384,-2.56924516,,,
imu,173.579072,0.03349655680000001,-9.28632222,3.4501453504,-0.82982954,-2.86416654,-2.79355246,,,
imu,173.587515,0.03648732080000001,-9.274957316800002,3.451341656,-0.79244499,-2.91650491,-3.21973633,,,
imu,173.595958,0.03648732080000001,-9.28632222,3.435789683200001,-0.58309151,-2.70715143,-3.30198234,,,
imu,173.604402,0.04187069600000001,-9.287518525600001,3.4650991704,-0.5008455,-2.49032104,-3.30198234,,,
imu,173.612845,0.0382817792,-9.282135150400002,3.453734267200001,-0.5756146,-2.35573666,-3.33936689,,,
imu,173.621288,0.0466559184,-9.2929019008,3.4650991704,-0.5307531400000001,-2.12395245,-3.26459779,,,
imu,173.629731,0.04964668240000001,-9.280938844800001,3.4549305728,-0.41859949,-1.90712206,-3.01038285,,,
imu,173.638174,0.05742266880000001,-9.280340692000001,3.4429675168,-0.29896893,-1.59309184,-2.89075229,,,
imu,173.646618,0.0562263632,-9.2707702472,3.442369364000001,0.02253820000000001,-1.37626145,-2.72626027,,,
imu,173.655061,0.05682451600000001,-9.2689757888,3.4238266272,0.05992275,-1.23420016,-2.71130645,,,
imu,173.663504,0.05383375200000001,-9.253423816000002,3.421434016000001,0.20946095,-1.05475432,-2.43466078,,,
imu,173.671947,0.04545961280000001,-9.2576108856,3.420835863200001,0.18703022,-0.86035466,-2.4496146,,,
imu,173.68039,0.05861897440000001,-9.258209038400002,3.4106672656,0.3216146,-0.7556779200000001,-2.53186061,,,
imu,173.688834,0.068787572,-9.264788719200002,3.400498668,0.56835263,-0.5313706200000001,-2.62158353,,,
imu,173.697277,0.0562263632,-9.268377636,3.393918987200001,0.78518302,-0.3444478700000002,-2.61410662,,,
imu,173.70572,0.06460050240000001,-9.272564705600002,3.3921245288,0.9870595899999999,-0.17247894,-2.74121409,,,
imu,173.714163,0.0514411408,-9.279144386400002,3.4046857376,1.03192105,-0.04537147000000008,-2.93561375,,,
imu,173.722606,0.05383375200000001,-9.284527761600001,3.3927226816,1.12164397,0.1714589200000001,-3.15244414,,,
imu,173.731066,0.04605776560000001,-9.3036686512,3.3783670144,1.18893616,0.19388965,-3.31693616,,,
imu,173.739526,0.0370854736,-9.3317818328,3.3909282232,1.00949032,0.5153967799999997,-3.58610492,,,
imu,173.747986,0.020935348,-9.340754124800002,3.3873393064,1.10669015,0.6574580699999997,-3.7206893,,,
imu,173.756445,0.007775986400000001,-9.3664746952,3.388535612000001,1.16650543,0.8593346399999997,-3.81041222,,,
imu,173.764905,0.0,-9.3694654592,3.391526376000001,1.01696723,1.08364194,-3.9449966,,,
imu,173.773365,-0.0065796808,-9.368269153600002,3.37956332,0.83004448,1.33037997,-4.0197657,,,
imu,173.781824,-0.0263187232,-9.367072848000001,3.378965167200001,0.63564482,1.47244126,-4.13939626,,,
imu,173.790284,-0.04127254320000001,-9.3664746952,3.3909282232,0.56087572,1.69674856,-4.169303899999999,,,
imu,173.798744,-0.04845037680000001,-9.3557079448,3.3837503896,0.58330645,1.97339423,-4.034719519999999,,,
imu,173.807204,-0.06041343280000001,-9.3377633608,3.381955931200001,0.45619898,2.39210119,-4.04967334,,,
imu,173.815663,-0.07177833600000001,-9.3419504304,3.3867411536,0.3216146,2.78090051,-3.97490424,,,
imu,173.824123,-0.0675912664,-9.329987374400002,3.3927226816,0.13469185,3.0725,-3.85527368,,,
imu,173.832583,-0.07656355840000001,-9.3419504304,3.4016949736,0.11973803,3.4463455,-3.76555076,,,
imu,173.841042,-0.068787572,-9.340754124800002,3.384348542400001,0.05992275,3.88748319,-3.54124346,,,
imu,173.849502,-0.05742266880000001,-9.329987374400002,3.3873393064,0.05244583999999999,4.194036499999999,-3.45899745,,,
imu,173.857962,-0.0526374464,-9.3168280128,3.3837503896,0.05244583999999999,4.48563599,-3.30198234,,,
imu,173.866422,-0.0293094872,-9.327594763200002,3.3873393064,0.08983038999999998,4.85948149,-3.21973633,,,
imu,173.874881,-0.0155519728,-9.3383615136,3.3807596256,0.27675314,5.21089626,-3.13001341,,,
imu,173.883341,0.002990764,-9.3269966104,3.386143000800001,0.34404533,5.22585008,-3.21225942,,,
imu,173.891801,0.0107667504,-9.305463109600002,3.373581792,0.29170696,5.285665359999999,-3.21973633,,,
imu,173.900261,0.0245242648,-9.322809540800002,3.393918987200001,0.28423005,5.38286519,-3.11505959,,,
imu,173.90872,0.0245242648,-9.328791068800001,3.39451714,0.29170696,5.3903421,-3.01785976,,,
imu,173.91718,0.0466559184,-9.322809540800002,3.3687965696,0.34404533,5.57726485,-2.96552139,,,
imu,173.92564,0.04785222400000001,-9.3138372488,3.3837503896,0.32909151,5.50249575,-2.92065993,,,
imu,173.934457,0.05861897440000001,-9.3269966104,3.375376250400001,0.40386061,5.51744957,-2.87579847,,,
imu,173.943274,0.0663949608,-9.328192916,3.373581792,0.40386061,5.62212631,-2.83093701,,,
imu,173.952091,0.06160973840000001,-9.3377633608,3.381955931200001,0.3963837,5.57726485,-2.83093701,,,
imu,173.960907,0.06220789120000001,-9.324005846400002,3.370591028000001,0.20946095,5.6894185,-2.90570611,,,
imu,173.969724,0.06579680800000001,-9.3246039992,3.3693947224,0.20946095,5.65203395,-3.13001341,,,
imu,173.978541,0.06579680800000001,-9.328791068800001,3.372385486400001,0.29170696,5.8389567,-3.10758268,,,
imu,173.987358,0.07656355840000001,-9.3108464848,3.367600264,0.29170696,6.05578709,-3.13749032,,,
imu,173.996175,0.07955432240000002,-9.319220624000002,3.367600264,0.34404533,6.26514057,-3.25712088,,,
imu,174.004992,0.08493769760000001,-9.330585527200002,3.372983639200001,0.35152224,6.422155679999999,-3.40665908,,,
imu,174.013809,0.1154434904,-9.319220624000002,3.375376250400001,0.19450713,6.35486349,-3.55619728,,,
imu,174.022626,0.1208268656,-9.325800304800001,3.377768861600001,0.23936859,6.45206332,-3.56367419,,,
imu,174.031443,0.1339862272,-9.328791068800001,3.3873393064,0.14216876,6.467017139999999,-3.74312003,,,
imu,174.04026,0.1483418944,-9.325800304800001,3.384348542400001,0.19450713,6.45206332,-3.90761205,,,
imu,174.049077,0.1543234224,-9.327594763200002,3.399900515200001,0.20198404,6.42963259,-4.079580979999999,,,
imu,174.057894,0.1800439928,-9.319220624000002,3.390330070400001,0.10478421,6.17541765,-4.28893446,,,
imu,174.066711,0.1949978128,-9.328791068800001,3.3867411536,0.11226112,5.99597181,-4.32631901,,,
imu,174.075528,0.188418132,-9.334174444000002,3.382554084,0.34404533,5.86886434,-4.21416536,,,
imu,174.084344,0.2069608688,-9.322809540800002,3.381955931200001,0.34404533,5.50249575,-4.21416536,,,
imu,174.093161,0.1985867296,-9.327594763200002,3.3741799448,0.23936859,5.308096089999999,-4.244073,,,
imu,174.101978,0.2039701048,-9.328791068800001,3.372983639200001,0.11226112,5.10621952,-4.20668845,,,
imu,174.110795,0.2015774936,-9.3168280128,3.3693947224,0.43376825,4.70994329,-3.97490424,,,
imu,174.119612,0.2069608688,-9.328192916,3.3711891808,0.18703022,4.410866889999999,-4.0945348,,,
imu,174.128429,0.2147368552,-9.356306097600001,3.3717873336,0.06739966,3.95477538,-3.92256587,,,
imu,174.136905,0.2045682576000001,-9.3628857784,3.375376250400001,0.04496892999999999,3.49868387,-3.73564312,,,
imu,174.145382,0.1979885768,-9.364680236800002,3.385544848,-0.10456927,3.16969983,-3.71321239,,,
imu,174.153858,0.1938015072,-9.3652783896,3.385544848,-0.18681528,2.93043871,-3.4216129,,,
imu,174.162334,0.191408896,-9.349726416800001,3.3658058056,-0.34383039,2.5491163,-3.28702852,,,
imu,174.17081,0.1686790896,-9.335370749600001,3.3699928752,-0.60552224,2.31733209,-3.23469015,,,
imu,174.179287,0.1549215752,-9.325202152000001,3.361618736,-0.63542988,2.1752708,-3.21225942,,,
imu,174.187763,0.1573141864,-9.328791068800001,3.3646095,-0.5980453299999999,1.88367131,-3.23469015,,,
imu,174.196239,0.1387714496,-9.325202152000001,3.3598242776,-0.55318387,1.70422547,-3.22721324,,,
imu,174.204715,0.1268083936,-9.323407693600002,3.367600264,-0.47093786,1.36028761,-3.40665908,,,
imu,174.213192,0.1058730456,-9.325202152000001,3.3693947224,-0.44850713,1.27056469,-3.44404363,,,
imu,174.221668,0.0933118368,-9.329987374400002,3.3442723048,-0.40364567,1.30047233,-3.50385891,,,
imu,174.230144,0.08493769760000001,-9.337165208000002,3.356833513600001,-0.38869185,1.2780416,-3.40665908,,,
imu,174.23862,0.06699311360000001,-9.335370749600001,3.3646095,-0.23167674,1.42010289,-3.38422835,,,
imu,174.247073,0.05203929360000001,-9.3622876256,3.374778097600001,-0.23915365,1.58459491,-3.31693616,,,
imu,174.255549,0.0406743904,-9.3622876256,3.3699928752,-0.39616876,1.64441019,-3.2720747,,,
imu,174.264026,0.0227298064,-9.3557079448,3.3664039584,-0.30644584,2.04816333,-3.21973633,,,
imu,174.272502,0.04246884880000001,-9.361091320000002,3.372385486400001,-0.43355331,2.33228591,-3.08515195,,,
imu,174.280978,0.0466559184,-9.340155972000002,3.3711891808,-0.6279529699999999,2.69117759,-3.01785976,,,
imu,174.289454,0.062806044,-9.337165208000002,3.388535612000001,-0.85973718,2.9977309,-3.1973056,,,
imu,174.297931,0.07716171120000001,-9.329389221600001,3.373581792,-0.91207555,3.15474601,-3.31693616,,,
imu,174.306407,0.1040785872,-9.337165208000002,3.3897319176,-0.7999219,3.27437657,-3.39170526,,,
imu,174.314883,0.1064711984,-9.3455393472,3.403489432,-0.92702937,3.33419185,-3.66087402,,,
imu,174.323359,0.11963056,-9.3269966104,3.403489432,-1.06161375,3.32671494,-3.83284295,,,
imu,174.331836,0.1202287128,-9.301874192800001,3.428611849600001,-0.98684465,3.25194584,-3.85527368,,,
imu,174.340298,0.1244157824,-9.310248332,3.445360128,-1.15133667,3.04259236,-4.08705789,,,
imu,174.34876,0.1118545736,-9.308453873600001,3.431004460800001,-1.15133667,2.87062343,-4.10948862,,,
imu,174.357222,0.110658268,-9.2958926648,3.4316026136,-1.21115195,2.87810034,-3.95247351,,,
imu,174.365685,0.1082656568,-9.264788719200002,3.423228474400001,-1.18872122,2.78837742,-3.90013514,,,
imu,174.374147,0.09690075360000001,-9.242657065600001,3.4088728072,-0.9494601,2.74351596,-3.70573548,,,
imu,174.382609,0.09091922560000001,-9.245049676800003,3.395713445600001,-0.68029134,2.81828506,-3.46647436,,,
imu,174.391071,0.08194693360000001,-9.243853371200002,3.3921245288,-0.33635348,2.83323888,-3.16739796,,,
imu,174.399534,0.09211553120000002,-9.249834899200001,3.395713445600001,-0.26906129,2.79585433,-3.16739796,,,
imu,174.407996,0.09450814240000002,-9.255816427200001,3.384348542400001,-0.07466163,2.67622377,-3.18235178,,,
imu,174.416458,0.0933118368,-9.28632222,3.396311598400001,0.29918387,2.76594669,-3.1973056,,,
imu,174.424921,0.0933118368,-9.303070498400002,3.391526376000001,0.4711528,2.66126995,-3.37675144,,,
imu,174.433383,0.09510629520000001,-9.318024318400001,3.3801614728,0.65059864,2.51920866,-3.43656672,,,
imu,174.441845,0.09151737840000002,-9.328791068800001,3.381955931200001,0.65059864,2.44443956,-3.56367419,,,
imu,174.450307,0.0861340032,-9.3419504304,3.386143000800001,0.74779847,2.40705501,-3.70573548,,,
imu,174.45877,0.07955432240000002,-9.343146736000001,3.37956332,0.64312173,2.35471664,-3.59358183,,,
imu,174.467232,0.08493769760000001,-9.361689472800002,3.386143000800001,0.6954601,2.46687029,-3.48890509,,,
imu,174.475694,0.0741709472,-9.364082084000001,3.376572556000001,0.56087572,2.53416248,-3.44404363,,,
imu,174.484156,0.05802082160000001,-9.361689472800002,3.3927226816,0.2468455,2.51173175,-3.54872037,,,
imu,174.492619,0.0592171272,-9.3664746952,3.3951152928,-0.127,2.36219355,-3.69825857,,,
imu,174.501081,0.0592171272,-9.364680236800002,3.39451714,-0.3513073,2.36967046,-3.77302767,,,
imu,174.509543,0.0532355992,-9.3586987088,3.3987042096,-0.41859949,2.4743472,-3.57862801,,,
imu,174.518006,0.0592171272,-9.342548583200001,3.395713445600001,-0.5681376899999999,2.4743472,-3.76555076,,,
imu,174.526468,0.06579680800000001,-9.336567055200002,3.399900515200001,-0.61299915,2.53416248,-3.70573548,,,
imu,174.53493,0.07058203040000001,-9.330585527200002,3.396311598400001,-0.73262971,2.70613141,-3.69078166,,,
imu,174.543399,0.07775986400000001,-9.328791068800001,3.39451714,-0.69524516,2.70613141,-3.62348947,,,
imu,174.551867,0.07955432240000002,-9.319818776800002,3.3993023624,-0.69524516,2.56407012,-3.66087402,,,
imu,174.560336,0.08015247520000002,-9.3144354016,3.4130598768,-0.5681376899999999,2.48182411,-3.60105874,,,
imu,174.568805,0.07656355840000001,-9.309650179200002,3.411863571200001,-0.60552224,2.33228591,-3.48142818,,,
imu,174.577273,0.0753672528,-9.323407693600002,3.413658029600001,-0.53823005,2.40705501,-3.48142818,,,
imu,174.585742,0.07656355840000001,-9.3204169296,3.4112654184,-0.5307531400000001,2.06311715,-3.39170526,,,
imu,174.59421,0.0723764888,-9.325202152000001,3.421434016000001,-0.47841477,1.94348659,-3.21973633,,,
imu,174.602679,0.07297464160000001,-9.325202152000001,3.4088728072,-0.66533752,1.84628676,-3.18982869,,,
imu,174.611148,0.062806044,-9.301276040000001,3.4016949736,-0.7550604399999999,1.79394839,-3.28702852,,,
imu,174.619616,0.0592171272,-9.2935000536,3.404087584800001,-0.77001426,1.7266562,-3.04029049,,,
imu,174.628085,0.0550300576,-9.2964908176,3.407676501600001,-0.62047606,1.68179474,-2.94309066,,,
imu,174.636554,0.05861897440000001,-9.294696359200001,3.4070783488,-0.56066078,1.63693328,-2.86832156,,,
imu,174.645022,0.05682451600000001,-9.2917055952,3.416648793600001,-0.49336859,1.74908693,-2.80102937,,,
imu,173.409437,,,,,,,-86.06077080000001,178.46313,113.8382584
imu,173.511152,,,,,,,-86.0851852,178.6828596,114.5706904
imu,173.612562,,,,,,,-85.8044196,178.524166,114.7782128
imu,173.714125,,,,,,,-85.340546,178.3166436,115.1078072
imu,173.815687,,,,,,,-85.49923960000001,178.1457428,114.6805552
imu,173.917311,,,,,,,-83.91230359999999,178.524166,114.302132
imu,174.653491,0.07177833600000001,-9.302472345600002,3.4238266272,-0.4260764,1.71917929,-2.83841392,,,
imu,174.661959,0.0681894192,-9.322211388000001,3.4375841416,-0.52327623,1.577118,-2.90570611,,,
imu,174.670428,0.062806044,-9.295294512000002,3.434593377600001,-0.63542988,1.45001053,-3.20478251,,,
imu,174.678897,0.0663949608,-9.288714831200002,3.4411730584,-0.65786061,1.45748744,-3.21973633,,,
imu,174.687365,0.07297464160000001,-9.3060612624,3.435789683200001,-0.45598404,1.3528107,-3.0477674,,,
imu,174.695834,0.07775986400000001,-9.319818776800002,3.4375841416,-0.46346095,1.47991817,-2.98047521,,,
imu,174.704303,0.06220789120000001,-9.304266804000001,3.4387804472,-0.41859949,1.39767216,-2.98047521,,,
imu,174.712771,0.062806044,-9.301874192800001,3.4477527392,-0.55318387,1.39019525,-2.85336774,,,
imu,174.72124,0.06998387760000001,-9.297687123200001,3.4435656696,-0.71019898,1.38271834,-2.77859864,,,
imu,174.729709,0.06519865520000001,-9.266583177600001,3.4381822944,-0.41859949,1.46496435,-2.62906044,,,
imu,174.738177,0.0693857248,-9.249834899200001,3.435789683200001,-0.17186146,1.50982581,-2.71878336,,,
imu,174.746961,0.0753672528,-9.277948080800002,3.42442478,-0.10456927,1.39019525,-2.81598319,,,
imu,174.755745,0.08194693360000001,-9.282135150400002,3.417246946400001,0.14216876,1.38271834,-2.85336774,,,
imu,174.764529,0.09929336480000002,-9.282135150400002,3.4220321688,0.18703022,1.33037997,-2.80102937,,,
imu,174.773313,0.09989151760000002,-9.267779483200002,3.416648793600001,0.42629134,1.25561087,-2.77112173,,,
imu,174.782097,0.1064711984,-9.277948080800002,3.412461724000001,0.50853735,1.24813396,-2.76364482,,,
imu,174.790881,0.1184342544,-9.289312984,3.403489432,0.65059864,1.10607267,-2.74121409,,,
imu,174.799665,0.1333880744,-9.289312984,3.4070783488,0.88985976,1.08364194,-2.68139881,,,
imu,174.808449,0.1357806856,-9.2929019008,3.395713445600001,0.8823828499999999,0.9116730099999999,-2.68139881,,,
imu,174.817233,0.1417622136,-9.301276040000001,3.396311598400001,0.91229049,0.7471809899999999,-2.74121409,,,
imu,174.826017,0.1609031032,-9.307855720800001,3.3849466952,0.9272443100000001,0.6948426199999997,-2.62158353,,,
imu,174.834801,0.1680809368,-9.303070498400002,3.395713445600001,1.13659779,0.4929660499999997,-2.54681443,,,
imu,174.843585,0.1758569232,-9.302472345600002,3.399900515200001,1.1440747,0.3209971199999999,-2.62158353,,,
imu,174.852369,0.185427368,-9.2899111368,3.4070783488,1.1440747,-0.03041764999999996,-2.69635263,,,
imu,174.861153,0.1836329096,-9.315631707200001,3.402891279200001,1.26370526,-0.3294940500000001,-2.62158353,,,
imu,174.869937,0.1890162848,-9.325202152000001,3.4130598768,1.27865908,-0.6360473600000001,-2.63653735,,,
imu,174.878721,0.1860255208,-9.319818776800002,3.413658029600001,1.06182869,-0.9949390400000002,-2.84589083,,,
imu,174.887505,0.191408896,-9.3317818328,3.423228474400001,1.1440747,-1.36878454,-2.77859864,,,
imu,174.896289,0.1985867296,-9.357502403200002,3.4250229328,1.00201341,-1.60804566,-2.80102937,,,
imu,174.905073,0.1920070488,-9.357502403200002,3.427415544,0.8973366700000001,-1.89216824,-2.91318302,,,
imu,174.913857,0.17944584,-9.349128264,3.42442478,0.83004448,-2.15386009,-2.87579847,,,
imu,174.922641,0.1782495344,-9.3269966104,3.413658029600001,0.8375213899999999,-2.47536722,-2.98795212,,,
imu,174.931425,0.1567160336,-9.3383615136,3.4238266272,0.7403215599999999,-2.86416654,-3.23469015,,,
imu,174.940209,0.1501363528,-9.3269966104,3.4088728072,0.6954601,-2.99875092,-3.30945925,,,
imu,174.948993,0.1387714496,-9.316229860000002,3.4088728072,0.64312173,-3.19315058,-3.42908981,,,
imu,174.957457,0.1309954632,-9.326398457600002,3.406480196,0.6132140899999999,-3.47727316,-3.63844329,,,
imu,174.965922,0.1262102408,-9.336567055200002,3.409470960000001,0.49358353,-3.61185754,-3.81788913,,,
imu,174.974387,0.1238176296,-9.3210150824,3.3909282232,0.59078336,-3.91093394,-3.93751969,,,
imu,174.982852,0.1112564208,-9.335370749600001,3.3987042096,0.64312173,-4.07542596,-4.04967334,,,
imu,174.991317,0.10467674,-9.347333805600002,3.386143000800001,0.5010604399999999,-4.38945618,-4.28145755,,,
imu,174.999781,0.09390998960000001,-9.3455393472,3.389133764800001,0.56087572,-4.64367112,-4.34874974,,,
imu,175.008246,0.0813487808,-9.342548583200001,3.3921245288,0.44872207,-4.76330168,-4.30388828,,,
imu,175.016711,0.0514411408,-9.346735652800001,3.398106056800001,0.28423005,-4.86050151,-4.33379592,,,
imu,175.025176,0.03349655680000001,-9.352119028,3.3969097512,0.20946095,-4.9277937,-4.22164227,,,
imu,175.033641,0.0167482784,-9.3377633608,3.391526376000001,0.08983038999999998,-5.077331900000001,-4.06462716,,,
imu,175.042106,0.005981528000000001,-9.33118368,3.393918987200001,-0.007369440000000005,-5.152101,-4.124442439999999,,,
imu,175.05057,0.0005981528000000001,-9.325800304800001,3.3909282232,-0.03727708,-5.032470440000001,-4.04219643,,,
imu,175.059035,-0.0161501256,-9.327594763200002,3.388535612000001,-0.11952309,-5.077331900000001,-3.93751969,,,
imu,175.0675,-0.0323002512,-9.3413522776,3.390330070400001,-0.31392275,-5.010039709999999,-4.02724261,,,
imu,175.075965,-0.04725407120000001,-9.327594763200002,3.3927226816,-0.41112258,-4.95022443,-4.079580979999999,,,
imu,175.08443,-0.07118018320000001,-9.3168280128,3.418443252,-0.38869185,-4.80068623,-3.89265823,,,
imu,175.092894,-0.09091922560000001,-9.3006778872,3.4280136968,-0.41859949,-4.56142511,-3.7954584,,,
imu,175.101359,-0.09869521200000002,-9.313239096000002,3.404087584800001,-0.26906129,-4.34459472,-3.7206893,,,
imu,175.109824,-0.122621324,-9.324005846400002,3.4022931264,-0.37373803,-4.1053336,-3.54872037,,,
imu,175.118289,-0.1393696024,-9.3006778872,3.42442478,-0.19429219,-3.70158046,-3.35432071,,,
imu,175.126754,-0.1447529776,-9.3006778872,3.4381822944,-0.32139966,-3.35016569,-3.36179762,,,
imu,175.135218,-0.1567160336,-9.302472345600002,3.4202377104,-0.2765382,-2.909028,-3.39170526,,,
imu,175.143683,-0.1632957144,-9.2917055952,3.448350892000001,-0.21672292,-2.43798267,-3.36927453,,,
imu,175.152148,-0.1806421456,-9.290509289600001,3.4650991704,-0.13447691,-1.98189116,-3.36179762,,,
imu,175.160741,-0.1872218264,-9.309052026400002,3.4417712112,0.07487657,-1.51084583,-3.36179762,,,
imu,175.169335,-0.19439966,-9.2935000536,3.436985988800001,0.16459949,-1.04727741,-3.45899745,,,
imu,175.177928,-0.1848292152,-9.281536997600002,3.457921336800001,0.12721494,-0.4939860700000001,-3.57862801,,,
imu,175.186521,-0.1908107432,-9.2851259144,3.456725031200001,0.12721494,-0.08275602000000015,-3.72816621,,,
imu,175.195114,-0.1932033544,-9.321613235200001,3.4645010176,0.09730729999999999,0.4854891399999999,-3.92256587,,,
imu,175.203708,-0.1836329096,-9.3317818328,3.462108406400001,0.06739966,0.9415806499999997,-4.012288789999999,,,
imu,175.212301,-0.1752587704,-9.328791068800001,3.4758659208,0.07487657,1.51730272,-3.95995042,,,
imu,175.220894,-0.170473548,-9.332379985600001,3.4734733096,-0.15690764,1.9509635,-4.057150249999999,,,
imu,175.229487,-0.161501256,-9.3413522776,3.4645010176,-0.44850713,2.27994754,-4.0197657,,,
imu,175.238081,-0.1579123392,-9.326398457600002,3.460912100800001,-0.41112258,2.73603905,-3.91508896,,,
imu,175.246674,-0.1507345056,-9.301276040000001,3.4668936288,-0.44850713,3.18465365,-3.81788913,,,
imu,175.255267,-0.1477437416,-9.297687123200001,3.4501453504,-0.6503837,3.40148404,-3.89265823,,,
imu,175.26386,-0.1262102408,-9.2719665528,3.435789683200001,-0.56066078,3.72299117,-3.80293531,,,
imu,175.272453,-0.1250139352,-9.2480404408,3.420835863200001,-0.35878421,3.87252937,-3.71321239,,,
imu,175.281047,-0.1208268656,-9.228301398400001,3.409470960000001,-0.23915365,4.02206757,-3.7206893,,,
imu,175.28964,-0.107667504,-9.2480404408,3.4088728072,-0.02980017,4.32114397,-3.68330475,,,
imu,175.298233,-0.1064711984,-9.2576108856,3.396311598400001,0.14216876,4.28375942,-3.73564312,,,
imu,175.306826,-0.1064711984,-9.283929608800001,3.4130598768,0.4711528,4.388436159999999,-3.7206893,,,
imu,175.31542,-0.1154434904,-9.295294512000002,3.4106672656,0.53844499,4.47068217,-3.78050458,,,
imu,175.324013,-0.1118545736,-9.3168280128,3.4088728072,0.55339881,4.54545127,-3.80293531,,,
imu,175.332606,-0.1190324072,-9.325800304800001,3.4016949736,0.63564482,4.54545127,-3.81788913,,,
imu,175.341531,-0.1118545736,-9.3413522776,3.403489432,0.6954601,4.56040509,-3.7954584,,,
imu,175.350124,-0.1262102408,-9.353315333600001,3.407676501600001,0.67302937,4.6426511,-3.7206893,,,
imu,175.358718,-0.1238176296,-9.356904250400001,3.4058820432,0.6281679099999999,4.807143119999999,-3.63844329,,,
imu,175.367073,-0.1351825328,-9.346735652800001,3.4070783488,0.46367589,4.95668132,-3.60853565,,,
imu,175.375428,-0.1202287128,-9.361091320000002,3.415452488,0.23936859,4.92677368,-3.63844329,,,
imu,175.383784,-0.1232194768,-9.3479319584,3.4100691128,0.23936859,5.0164966,-3.51133582,,,
imu,175.392139,-0.1202287128,-9.3545116392,3.413658029600001,-0.11952309,4.95668132,-3.48142818,,,
imu,175.400495,-0.125612088,-9.361091320000002,3.4070783488,-0.24663056,5.09874261,-3.4216129,,,
imu,175.40885,-0.1160416432,-9.357502403200002,3.4196395576,-0.2017691,5.0164966,-3.33188998,,,
imu,175.417206,-0.1118545736,-9.363483931200001,3.447154586400001,-0.17186146,5.0164966,-3.15244414,,,
imu,175.425561,-0.122621324,-9.360493167200001,3.4507435032,-0.43355331,4.99406587,-3.0477674,,,
imu,175.433917,-0.11963056,-9.3557079448,3.463304712000001,-0.7251528,5.00901969,-3.07019813,,,
imu,175.442272,-0.125612088,-9.346137500000001,3.457323184,-0.80739881,5.00901969,-2.8982292,,,
imu,175.450628,-0.125612088,-9.322211388000001,3.4489490448,-0.7999219,5.15108098,-2.47204533,,,
imu,175.458983,-0.1142471848,-9.280340692000001,3.432798919200001,-0.8672140899999999,5.41277283,-2.01595382,,,
imu,175.467338,-0.1034804344,-9.2486385936,3.4351915304,-0.62047606,5.66698777,-1.64958523,,,
imu,174.018843,,,,,,,-85.2550956,178.46313,114.6439336
imu,174.120405,,,,,,,-83.4728444,177.8771844,111.2259176
imu,174.221968,,,,,,,-85.36496040000002,178.6218236,114.3753752
imu,174.32353,,,,,,,-83.6681596,177.9870492,111.6897912
imu,174.425062,,,,,,,-85.9997348,178.6096164,113.996952
imu,174.526625,,,,,,,-85.5480684,178.9270036,114.2166816
imu,174.628187,,,,,,,-86.06077080000001,178.9025892,113.7283936
imu,174.729872,,,,,,,-85.67014040000001,178.9025892,113.9847448
imu,175.475694,-0.1028822816,-9.228899551200001,3.416648793600001,-0.29149202,6.02587945,-1.08134007,,,
imu,175.484049,-0.0855358504,-9.2336847736,3.4088728072,-0.06718472,6.52683242,-0.7299252999999999,,,
imu,175.492405,-0.06041343280000001,-9.233086620800002,3.3849466952,0.32909151,6.94553938,-0.5579563699999999,,,
imu,175.50076,-0.0275150288,-9.249834899200001,3.3801614728,0.42629134,7.2595696,-0.68506384,,,
imu,175.509116,-0.0101685976,-9.2552182744,3.368198416800001,0.73284465,7.506307629999999,-0.7523560299999998,,,
imu,175.517471,0.003588916800000001,-9.282135150400002,3.367600264,1.1440747,7.7081842,-0.8121713099999999,,,
imu,175.525827,0.01495382,-9.315033554400001,3.3699928752,1.35342818,7.767999479999999,-1.03647861,,,
imu,175.534182,0.0376836264,-9.336567055200002,3.365207652800001,1.48053565,7.80538403,-1.3280781,,,
imu,175.542538,0.05742266880000001,-9.357502403200002,3.367600264,1.54782784,7.96987605,-1.69444669,,,
imu,175.550893,0.06998387760000001,-9.350324569600001,3.3693947224,1.54035093,7.98482987,-2.04586146,,,
imu,175.559249,0.07716171120000001,-9.364680236800002,3.378965167200001,1.50296638,8.007260599999999,-2.32250713,,,
imu,175.567698,0.07895616960000001,-9.398774946400001,3.3813577784,1.26370526,7.91753768,-2.71878336,,,
imu,175.576148,0.0747691,-9.416121377600001,3.37956332,1.08425942,7.932491499999999,-2.95804448,,,
imu,175.584597,0.08852661440000001,-9.426289975200001,3.3879374592,0.7403215599999999,8.0820297,-3.21225942,,,
imu,175.593047,0.08493769760000001,-9.418513988800001,3.39451714,0.43376825,8.14932189,-3.4216129,,,
imu,175.601496,0.08912476720000001,-9.413130613600002,3.421434016000001,-0.02980017,7.93996841,-3.58610492,,,
imu,175.609946,0.08374139200000001,-9.4071490856,3.405283890400001,-0.3513073,7.85024549,-3.77302767,,,
imu,175.618395,0.09570444800000001,-9.4071490856,3.4016949736,-0.5307531400000001,7.865199309999999,-3.89265823,,,
imu,175.626845,0.1028822816,-9.382624820800002,3.4130598768,-0.68029134,7.73809184,-4.0945348,,,
imu,175.635295,0.1232194768,-9.3383615136,3.4202377104,-0.7550604399999999,7.52126145,-4.146873169999999,,,
imu,175.643744,0.1082656568,-9.33118368,3.418443252,-0.7999219,7.25209269,-4.25154991,,,
imu,175.652194,0.1172379488,-9.322211388000001,3.4112654184,-0.7999219,7.012831569999999,-4.35622665,,,
imu,175.660643,0.1297991576,-9.305463109600002,3.4100691128,-0.97189083,6.41467877,-4.49081103,,,
imu,175.669093,0.1292010048,-9.288116678400002,3.4130598768,-0.91955246,6.010925629999999,-4.55062631,,,
imu,175.677542,0.1429585192,-9.250433052000002,3.415452488,-0.7999219,5.67446468,-4.52071867,,,
imu,175.685992,0.137575144,-9.245049676800003,3.417246946400001,-0.62047606,5.30061918,-4.51324176,,,
imu,175.694441,0.1501363528,-9.246245982400001,3.4070783488,-0.22419983,4.72489711,-4.49081103,,,
imu,175.702891,0.1537252696,-9.24146076,3.4058820432,-0.05970781,4.17908268,-4.40108811,,,
imu,175.711341,0.155519728,-9.254021968800002,3.3987042096,0.23936859,3.69308353,-4.23659609,,,
imu,175.71979,0.155519728,-9.251629357600002,3.386143000800001,0.3889067899999999,3.27437657,-4.11696553,,,
imu,175.72824,0.1411640608,-9.288116678400002,3.376572556000001,0.56087572,2.75099287,-4.07210407,,,
imu,175.736689,0.1417622136,-9.3246039992,3.3831522368,0.8823828499999999,2.26499372,-3.9449966,,,
imu,175.745139,0.1292010048,-9.346137500000001,3.404087584800001,1.04687487,1.67431783,-3.76555076,,,
imu,175.753588,0.116639796,-9.3545116392,3.3993023624,1.13659779,1.02382666,-3.88518132,,,
imu,175.762038,0.08374139200000001,-9.339557819200001,3.413658029600001,1.09173633,0.5677351499999999,-3.98238115,,,
imu,175.770903,0.06101158560000001,-9.324005846400002,3.395713445600001,1.0693056,0.13407437,-3.81788913,,,
imu,175.779767,0.0215335008,-9.329389221600001,3.3993023624,1.01696723,-0.2472480400000001,-3.80293531,,,
imu,175.788632,0.0113649032,-9.334174444000002,3.396311598400001,0.8449983,-0.4117400600000001,-3.42908981,,,
imu,175.797497,-0.007177833600000002,-9.336567055200002,3.397507904,0.6132140899999999,-0.4416477000000003,-2.99542903,,,
imu,175.806361,-0.03349655680000001,-9.388008196000001,3.393918987200001,0.46367589,-0.3594016900000003,-2.56924516,,,
imu,175.815226,-0.0305057928,-9.332379985600001,3.403489432,0.38142988,-0.2023865800000002,-2.27764567,,,
imu,175.824091,-0.05742266880000001,-9.326398457600002,3.3759744032,0.35899915,0.08173599999999981,-2.2253073,,,
imu,175.832955,-0.0783580168,-9.374250681600001,3.398106056800001,0.20198404,0.29856639,-2.09819983,,,
imu,175.84182,-0.0933118368,-9.385615584800002,3.384348542400001,0.30666078,0.4481045899999998,-2.06081528,,,
imu,175.850685,-0.1052748928,-9.3766432928,3.398106056800001,0.29170696,0.70231953,-2.12810747,,,
imu,175.859549,-0.1303973104,-9.368269153600002,3.3849466952,0.35152224,1.06121121,-2.13558438,,,
imu,175.868414,-0.1303973104,-9.368269153600002,3.3897319176,0.20198404,1.46496435,-2.09072292,,,
imu,175.877279,-0.1220231712,-9.319220624000002,3.349655680000001,0.04496892999999999,1.86871749,-2.18792275,,,
imu,175.886144,-0.1357806856,-9.3592968616,3.3897319176,-0.127,2.21265535,-2.18044584,,,
imu,175.895008,-0.1112564208,-9.357502403200002,3.3646095,-0.29149202,2.72108523,-2.21783039,,,
imu,175.903873,-0.09690075360000001,-9.329389221600001,3.368198416800001,-0.38869185,3.15474601,-2.21783039,,,
imu,175.912738,-0.09151737840000002,-9.328192916,3.372983639200001,-0.46346095,3.66317589,-2.2253073,,,
imu,175.921602,-0.06998387760000001,-9.324005846400002,3.368198416800001,-0.47093786,4.08935976,-2.27016876,,,
imu,175.930467,-0.0502448352,-9.328791068800001,3.373581792,-0.37373803,4.4931129,-2.10567674,,,
imu,175.939332,-0.026916876,-9.3269966104,3.373581792,-0.47841477,4.72489711,-2.0757691,,,
imu,175.948196,0.0011963056,-9.323407693600002,3.3592261248,-0.62047606,5.03145042,-2.26269185,,,
imu,175.957061,0.0221316536,-9.3060612624,3.3574316664,-0.61299915,5.27818845,-2.12810747,,,
imu,175.965926,0.03349655680000001,-9.319818776800002,3.3646095,-0.5681376899999999,5.42772665,-2.12810747,,,
imu,175.974347,0.0592171272,-9.3108464848,3.3640113472,-0.64290679,5.41277283,-2.19539966,,,
imu,175.982769,0.07596540560000001,-9.309650179200002,3.3622168888,-0.59056842,5.41277283,-2.13558438,,,
imu,175.991191,0.07775986400000001,-9.309052026400002,3.3687965696,-0.64290679,5.41277283,-2.18792275,,,
imu,175.999612,0.0855358504,-9.3060612624,3.3711891808,-0.5980453299999999,5.42772665,-2.16549202,,,
imu,176.008034,0.08852661440000001,-9.304266804000001,3.3909282232,-0.51579932,5.308096089999999,-2.12063056,,,
imu,176.016455,0.09690075360000001,-9.307257568,3.3987042096,-0.5756146,5.21089626,-2.33746095,,,
imu,176.024877,0.0735727944,-9.3138372488,3.405283890400001,-0.41859949,5.22585008,-2.21783039,,,
imu,176.033298,0.07775986400000001,-9.335968902400001,3.4387804472,-0.67281443,5.36791137,-2.28512258,,,
imu,176.04172,0.06579680800000001,-9.469356976800002,3.490221588,-0.6503837,5.3903421,-2.3748455,,,
imu,176.050142,0.0723764888,-9.280938844800001,3.400498668,-0.8821679099999999,5.45015738,-2.48699915,,,
imu,176.058563,0.05981528000000001,-9.338959666400001,3.463304712000001,-0.9644139199999999,5.40529592,-2.6739219,,,
imu,176.066985,0.07058203040000001,-9.358100556000002,3.4615102536,-1.09152139,5.55483412,-2.80850628,,,
imu,176.075406,0.05981528000000001,-9.343146736000001,3.4435656696,-1.41302852,5.59969558,-2.9729983,,,
imu,176.083828,0.06220789120000001,-9.324005846400002,3.4507435032,-1.23358268,5.943633439999999,-2.89075229,,,
imu,176.092249,0.068787572,-9.322211388000001,3.444163822400001,-1.31582869,6.10064855,-3.00290594,,,
imu,176.100671,0.07177833600000001,-9.304266804000001,3.4375841416,-1.31582869,6.17541765,-3.02533667,,,
imu,176.109093,0.07058203040000001,-9.298883428800002,3.4339952248,-1.51022835,6.40720186,-2.95804448,,,
imu,176.117514,0.08314323920000001,-9.287518525600001,3.445360128,-1.65228964,6.564216969999999,-3.08515195,,,
imu,176.125936,0.1112564208,-9.2689757888,3.446556433600001,-1.4728438,6.80347809,-3.02533667,,,
imu,176.134357,0.1148453376,-9.266583177600001,3.4375841416,-1.5476129,6.69880135,-3.14496723,,,
imu,176.142779,0.13458438,-9.2588071912,3.4429675168,-1.52518217,6.72123208,-3.28702852,,,
imu,176.151201,0.128602852,-9.2659850248,3.4489490448,-1.45788998,6.64646298,-3.52628964,,,
imu,176.159622,0.1411640608,-9.265386872,3.460313948,-1.39059779,6.60907843,-3.68330475,,,
imu,176.168044,0.1399677552,-9.279144386400002,3.466295476,-1.21115195,6.511878599999999,-3.70573548,,,
imu,176.176517,0.1381732968,-9.266583177600001,3.4597157952,-1.23358268,6.31000203,-3.80293531,,,
imu,176.184991,0.1292010048,-9.251629357600002,3.462108406400001,-1.04665993,6.24270984,-3.86275059,,,
imu,176.193465,0.1274065464,-9.262396108,3.471678851200001,-0.8672140899999999,6.19037147,-3.89265823,,,
imu,176.201939,0.1268083936,-9.263592413600001,3.4615102536,-0.71767589,6.272617479999999,-3.87770441,,,
imu,176.210412,0.113649032,-9.2588071912,3.4615102536,-0.6503837,6.25766366,-3.82536604,,,
imu,176.218886,0.1028822816,-9.257012732800002,3.4645010176,-0.44850713,6.25766366,-3.8702275,,,
imu,176.22736,0.09630260080000001,-9.259405344000001,3.475267768000001,-0.41859949,6.09317164,-3.92256587,,,
imu,176.235833,0.092713684,-9.271368400000002,3.4836419072,-0.18681528,6.07074091,-4.034719519999999,,,
imu,176.244307,0.08673215600000002,-9.294696359200001,3.512353241600001,-0.06718472,6.09317164,-4.02724261,,,
imu,176.252781,0.08015247520000002,-9.263592413600001,3.489025282400001,0.007584380000000002,6.14551001,-4.034719519999999,,,
imu,176.261255,0.07775986400000001,-9.282135150400002,3.506371713600001,0.16459949,6.2128022,-4.034719519999999,,,
imu,176.269728,0.0747691,-9.2432552184,3.4800529904,0.16459949,6.32495585,-4.00481188,,,
imu,176.278202,0.07895616960000001,-9.269573941600001,3.5057735608,0.23936859,6.250186749999999,-4.04967334,,,
imu,176.286676,0.09510629520000001,-9.257012732800002,3.4860345184,0.27675314,6.17541765,-4.0945348,,,
imu,174.839466,,,,,,,-85.56027560000001,178.9147964,114.7171768
imu,174.941029,,,,,,,-85.56027560000001,178.8537604,114.546276
imu,175.042622,,,,,,,-83.1676644,178.646238,114.18006
imu,175.144154,,,,,,,-84.8156364,178.9392108,115.2054648
imu,175.245716,,,,,,,-82.76482680000001,178.1213284,112.7029888
imu,175.347309,,,,,,,-85.43820360000001,178.5363732,115.3275368
imu,175.448841,,,,,,,-84.8278436,178.1091212,113.3987992
imu,175.550404,,,,,,,-84.84005080000001,178.9636252,115.1810504
imu,176.295149,0.08972292000000001,-9.1918140776,3.4627065592,0.46367589,6.295048209999999,-3.80293531,,,
imu,176.303623,0.08733030880000002,-9.243853371200002,3.4854363656,0.8449983,6.28009439,-3.43656672,,,
imu,176.312097,0.09869521200000002,-9.270172094400001,3.4645010176,0.8524752099999999,6.227756019999999,-3.30945925,,,
imu,176.320571,0.09151737840000002,-9.2510312048,3.4698843928,0.80761375,6.295048209999999,-3.25712088,,,
imu,176.329044,0.080750628,-9.325800304800001,3.565588840800001,1.03192105,6.37729422,-3.15244414,,,
imu,176.337518,0.1549215752,-9.3144354016,3.4112654184,0.94219813,6.4371095,-2.99542903,,,
imu,176.345992,0.0933118368,-9.283929608800001,3.4806511432,0.73284465,6.40720186,-2.90570611,,,
imu,176.354465,0.1262102408,-9.237273690400002,3.4645010176,0.53096808,6.24270984,-2.98047521,,,
imu,176.362939,0.1244157824,-9.284527761600001,3.4393786,0.56087572,6.25766366,-2.99542903,,,
imu,176.371413,0.1357806856,-9.280340692000001,3.4220321688,0.60573718,6.37729422,-2.95056757,,,
imu,176.379874,0.1495382,-9.254021968800002,3.4088728072,0.65807555,6.50440169,-2.83841392,,,
imu,176.388335,0.1531271168,-9.264788719200002,3.407676501600001,0.83004448,6.57169388,-2.83841392,,,
imu,176.396796,0.152528964,-9.281536997600002,3.406480196,1.12164397,6.57169388,-2.72626027,,,
imu,176.405257,0.1656883256,-9.2929019008,3.403489432,1.21136689,6.80347809,-2.5991528,,,
imu,176.413718,0.1746606176,-9.322211388000001,3.3921245288,1.30108981,6.773570449999999,-2.72626027,,,
imu,176.422179,0.173464312,-9.3383615136,3.403489432,1.2936129,6.83338573,-2.80102937,,,
imu,176.430958,0.1620994088,-9.3652783896,3.4088728072,1.2188438,6.98292393,-2.86084465,,,
imu,176.439419,0.161501256,-9.373652528800001,3.4100691128,0.9571519499999999,7.04273921,-3.04029049,,,
imu,176.44788,0.1632957144,-9.384419279200001,3.416648793600001,0.73284465,7.13993904,-3.1973056,,,
imu,176.456341,0.1597067976,-9.3862137376,3.418443252,0.4711528,7.296954149999999,-3.4216129,,,
imu,176.464802,0.1567160336,-9.367671000800001,3.4178450992,0.11973803,7.439015439999999,-3.60105874,,,
imu,176.473263,0.1632957144,-9.3652783896,3.414854335200001,-0.08961545,7.65584583,-3.6459202,,,
imu,176.481724,0.1662864784,-9.368269153600002,3.4106672656,-0.32139966,7.77547639,-3.76555076,,,
imu,176.490185,0.1830347568,-9.3586987088,3.3987042096,-0.51579932,7.865199309999999,-3.91508896,,,
imu,176.498646,0.1776513816,-9.353913486400002,3.4088728072,-0.6279529699999999,7.79790712,-3.99733497,,,
imu,176.507107,0.1908107432,-9.335370749600001,3.415452488,-0.84478336,7.85024549,-4.08705789,,,
imu,176.515568,0.2015774936,-9.3144354016,3.4280136968,-0.83730645,7.99230678,-4.07210407,,,
imu,176.524029,0.1938015072,-9.306659415200002,3.433397072000001,-0.7999219,8.06707588,-4.0197657,,,
imu,176.53249,0.2177276192,-9.308453873600001,3.435789683200001,-1.04665993,7.90258386,-4.20668845,,,
imu,176.540951,0.2111479384,-9.307855720800001,3.412461724000001,-0.874691,8.007260599999999,-4.102011709999999,,,
imu,176.549412,0.218325772,-9.318024318400001,3.414854335200001,-1.03918302,7.89510695,-3.9449966,,,
imu,176.557873,0.2356722032,-9.277349928000001,3.396311598400001,-1.13638285,7.79790712,-3.8702275,,,
imu,176.566334,0.2434481896,-9.2707702472,3.407676501600001,-1.06161375,7.6334151,-3.78798149,,,
imu,176.574795,0.248233412,-9.283929608800001,3.4088728072,-0.9644139199999999,7.59603055,-3.5711511,,,
imu,176.583251,0.2757484408,-9.297687123200001,3.4238266272,-1.08404448,7.44649235,-3.52628964,,,
imu,176.591707,0.2817299688000001,-9.316229860000002,3.439976752800001,-1.00927538,7.16984668,-3.51881273,,,
imu,176.600163,0.2859170384,-9.313239096000002,3.4256210856,-0.97189083,6.80347809,-3.66835093,,,
imu,176.608619,0.2883096496000001,-9.3036686512,3.415452488,-0.74758353,6.34738658,-3.82536604,,,
imu,176.617075,0.3038616224,-9.294098206400001,3.3909282232,-0.77749117,5.95858726,-4.16182699,,,
imu,176.625531,0.3134320672,-9.298883428800002,3.4088728072,-0.68776825,5.36043446,-4.19173463,,,
imu,176.633987,0.3008708584000001,-9.283331456,3.402891279200001,-0.56066078,4.84452767,-4.18425772,,,
imu,176.642443,0.2966837888,-9.2929019008,3.4070783488,-0.4260764,4.4183438,-3.99733497,,,
imu,176.650899,0.3008708584000001,-9.288714831200002,3.389133764800001,-0.47093786,4.05945212,-3.84031986,,,
imu,176.659355,0.3086468448,-9.264788719200002,3.384348542400001,-0.31392275,3.66317589,-3.52628964,,,
imu,176.66781,0.3212080536,-9.288116678400002,3.393918987200001,-0.29896893,3.33419185,-3.33936689,,,
imu,176.676266,0.3253951232,-9.2964908176,3.390330070400001,-0.17933837,3.05006927,-3.00290594,,,
imu,176.684722,0.3421434016,-9.3126409432,3.403489432,-0.19429219,2.67622377,-2.8234601,,,
imu,176.693178,0.3289840400000001,-9.3317818328,3.403489432,-0.06718472,2.18274771,-2.8234601,,,
imu,176.701634,0.3373581792000001,-9.353315333600001,3.415452488,-0.36626112,1.7266562,-2.94309066,,,
imu,176.71009,0.3331711096,-9.372456223200002,3.4196395576,-0.45598404,1.21822632,-2.9729983,,,
imu,176.718546,0.3421434016,-9.3557079448,3.4142561824,-0.65786061,0.64250425,-3.08515195,,,
imu,176.727002,0.331974804,-9.3419504304,3.432798919200001,-0.78496808,0.2237972899999998,-3.27955161,,,
imu,176.735458,0.31403022,-9.3335762912,3.4220321688,-0.76253735,-0.1575251200000003,-3.36179762,,,
imu,176.743914,0.290104108,-9.304266804000001,3.4250229328,-1.03918302,-0.43417079,-3.45152054,,,
imu,176.75237,0.2697669128,-9.307855720800001,3.432798919200001,-1.08404448,-0.8304470200000003,-3.58610492,,,
imu,176.760826,0.2518223288000001,-9.300079734400002,3.4339952248,-0.874691,-0.9650314,-3.50385891,,,
imu,176.769281,0.2261017584,-9.272564705600002,3.431004460800001,-0.8522602699999999,-1.16690797,-3.65339711,,,
imu,176.777737,0.20935348,-9.270172094400001,3.4339952248,-0.9644139199999999,-1.43607673,-3.6459202,,,
imu,176.786558,0.1926052016,-9.280938844800001,3.4435656696,-0.8672140899999999,-1.43607673,-3.62348947,,,
imu,176.795379,0.1800439928,-9.288116678400002,3.4393786,-0.77001426,-1.40616909,-3.68330475,,,
imu,176.8042,0.17944584,-9.283331456,3.444163822400001,-0.63542988,-1.40616909,-3.81041222,,,
imu,176.813021,0.1650901728,-9.289312984,3.451939808800001,-0.71767589,-1.37626145,-3.78798149,,,
imu,176.821842,0.1728661592,-9.2929019008,3.454332420000001,-0.54570696,-1.16690797,-3.60105874,,,
imu,176.830663,0.16449202,-9.298285276000001,3.4501453504,-0.59056842,-1.08466196,-3.69078166,,,
imu,176.839484,0.1620994088,-9.325800304800001,3.4710806984,-0.51579932,-1.10709269,-3.66087402,,,
imu,176.848305,0.1603049504,-9.332379985600001,3.497997574400001,-0.54570696,-1.00989286,-3.72816621,,,
imu,176.857126,0.1513326584,-9.316229860000002,3.508166172,-0.7550604399999999,-1.08466196,-3.98238115,,,
imu,176.865946,0.1387714496,-9.295294512000002,3.511156936,-0.68029134,-1.32392308,-4.10948862,,,
imu,176.874767,0.1303973104,-9.306659415200002,3.5129513944,-1.06161375,-1.32392308,-4.13939626,,,
imu,176.883588,0.13458438,-9.2785462336,3.5195310752,-1.16629049,-1.3388769,-4.034719519999999,,,
imu,176.892409,0.1333880744,-9.2546201216,3.526110756,-1.27096723,-1.36130763,-3.93751969,,,
imu,176.90123,0.1357806856,-9.239068148800001,3.526110756,-1.21115195,-1.24915398,-3.78050458,,,
imu,176.910051,0.1393696024,-9.2169364952,3.520129228,-1.08404448,-1.18186179,-3.51133582,,,
imu,176.918872,0.1411640608,-9.224114328800002,3.520129228,-0.76253735,-1.21176943,-3.36179762,,,
imu,176.927693,0.1369769912,-9.210954967200001,3.512353241600001,-0.5756146,-1.30896926,-3.18235178,,,
imu,176.936514,0.1411640608,-9.212151272800002,3.504577255200001,-0.09709236,-1.39121527,-3.01038285,,,
imu,176.945335,0.1453511304,-9.2103568144,3.508166172,0.16459949,-1.34635381,-3.10758268,,,
imu,176.954155,0.1537252696,-9.229497704000002,3.5093624776,0.30666078,-1.428599820000001,-3.10010577,,,
imu,176.962976,0.1591086448,-9.2312921624,3.5057735608,0.41881443,-1.55570729,-3.05524431,,,
imu,176.971797,0.1519308112,-9.247442288000002,3.5069698664,0.7403215599999999,-1.7874915,-2.98047521,,,
imu,176.980618,0.1477437416,-9.2510312048,3.502184644000001,0.79265993,-1.90712206,-3.06272122,,,
imu,176.989092,0.1537252696,-9.262994260800001,3.496203116000001,0.94967504,-2.10152172,-3.06272122,,,
imu,176.997566,0.1411640608,-9.272564705600002,3.4920160464,1.01696723,-2.17629082,-2.96552139,,,
imu,177.006039,0.1423603664,-9.274359164000002,3.4836419072,1.03939796,-2.40059812,-2.92813684,,,
imu,177.014513,0.1309954632,-9.2917055952,3.4764640736,1.00949032,-2.62490542,-2.77859864,,,
imu,177.022987,0.1154434904,-9.297687123200001,3.474669615200001,0.94967504,-2.71462834,-2.90570611,,,
imu,177.03146,0.1172379488,-9.305463109600002,3.4698843928,0.9571519499999999,-2.8342589,-2.91318302,,,
imu,177.039934,0.1004896704,-9.318024318400001,3.4615102536,0.8524752099999999,-2.95388946,-2.84589083,,,
imu,177.048408,0.1028822816,-9.3144354016,3.453734267200001,0.91229049,-2.96884328,-2.80102937,,,
imu,177.056882,0.0933118368,-9.3144354016,3.4668936288,0.9272443100000001,-3.11838148,-2.72626027,,,
imu,177.065355,0.07716171120000001,-9.3335762912,3.4686880872,0.79265993,-3.19315058,-2.83841392,,,
imu,177.073829,0.06460050240000001,-9.347333805600002,3.4710806984,0.65807555,-3.08099693,-2.73373718,,,
imu,177.082303,0.06579680800000001,-9.357502403200002,3.465697323200001,0.4711528,-3.03613547,-2.56176825,,,
imu,177.090776,0.0514411408,-9.3557079448,3.463304712000001,0.35152224,-2.93893564,-2.50942988,,,
imu,177.09925,0.0466559184,-9.3557079448,3.463304712000001,0.20946095,-2.87164345,-2.44213769,,,
imu,177.107724,0.04845037680000001,-9.349726416800001,3.4549305728,-0.05970781,-2.79687435,-2.47204533,,,
imu,175.652485,,,,,,,-85.157438,178.829346,114.3875824
imu,175.753559,,,,,,,-85.07198760000001,178.707274,114.424204
imu,175.855213,,,,,,,-84.84005080000001,178.9758324,115.1200144
imu,175.956745,,,,,,,-85.1208164,179.500742,114.6561408
imu,176.058247,,,,,,,-83.5827092,178.4509228,113.7406008
imu,176.159809,,,,,,,-85.42599639999999,179.7326788,114.3509608
imu,176.261372,,,,,,,-83.5949164,178.9392108,111.5799264
imu,176.362934,,,,,,,-85.71896919999999,180.233174,114.1068168
imu,177.116198,0.0370854736,-9.3335762912,3.457921336800001,-0.21672292,-2.58004396,-2.38979932,,,
imu,177.124671,0.0317020984,-9.325202152000001,3.451341656,-0.4260764,-2.58004396,-2.56176825,,,
imu,177.133145,0.0293094872,-9.323407693600002,3.460912100800001,-0.55318387,-2.3108752,-2.56924516,,,
imu,177.141619,0.0203371952,-9.292303748000002,3.4381822944,-0.56066078,-2.10152172,-2.49447606,,,
imu,177.150092,0.0143556672,-9.281536997600002,3.456126878400001,-0.5980453299999999,-1.88469133,-2.47952224,,,
imu,177.158566,0.011963056,-9.273761011200001,3.4459582808,-0.53823005,-1.57813802,-2.41970696,,,
imu,177.16704,0.007177833600000002,-9.2689757888,3.4501453504,-0.37373803,-1.2641078,-2.50942988,,,
imu,177.175514,0.0065796808,-9.2797425392,3.448350892000001,-0.40364567,-0.9725083100000003,-2.55429134,,,
imu,177.183987,0.003588916800000001,-9.288116678400002,3.456725031200001,-0.16438455,-0.7407241,-2.60662971,,,
imu,177.19263,0.004187069600000001,-9.298883428800002,3.457921336800001,-0.007369440000000005,-0.5014629800000003,-2.74121409,,,
imu,177.201273,-0.0005981528000000001,-9.304266804000001,3.474669615200001,-0.02980017,-0.2248173100000002,-2.86832156,,,
imu,177.209916,-0.0005981528000000001,-9.308453873600001,3.4686880872,-0.19429219,-0.03789456000000024,-3.01785976,,,
imu,177.218559,-0.004785222400000001,-9.325800304800001,3.4710806984,-0.19429219,0.1864127399999997,-2.9729983,,,
imu,177.227202,-0.005981528000000001,-9.332978138400001,3.4758659208,-0.41112258,0.5976427899999996,-3.06272122,,,
imu,177.235844,-0.0143556672,-9.336567055200002,3.4818474488,-0.48589168,0.8294269999999999,-3.10758268,,,
imu,177.244487,-0.0125612088,-9.309052026400002,3.4860345184,-0.63542988,1.2780416,-3.10010577,,,
imu,177.25313,-0.008972292000000002,-9.2958926648,3.488427129600001,-0.67281443,1.59954873,-3.17487487,,,
imu,177.261773,-0.0053833752,-9.302472345600002,3.4800529904,-0.6503837,1.91357895,-3.15992105,,,
imu,177.270416,-0.0005981528000000001,-9.3138372488,3.49919388,-0.85973718,2.26499372,-3.10758268,,,
imu,177.279059,0.0023926112,-9.306659415200002,3.506371713600001,-0.93450628,2.60145467,-3.14496723,,,
imu,177.287701,0.0143556672,-9.2929019008,3.5039791024,-0.92702937,3.02016163,-3.18235178,,,
imu,177.296344,0.0281131816,-9.302472345600002,3.5093624776,-0.8672140899999999,3.15474601,-3.22721324,,,
imu,177.304987,0.0406743904,-9.298883428800002,3.511755088800001,-1.03918302,3.25942275,-3.42908981,,,
imu,177.31363,0.04785222400000001,-9.294696359200001,3.520129228,-0.90459864,3.27437657,-3.41413599,,,
imu,177.322273,0.0663949608,-9.304864956800001,3.532092284,-0.91955246,3.36409949,-3.36179762,,,
imu,177.330916,0.08254508640000002,-9.2917055952,3.5314941312,-1.10647521,3.46129932,-3.3468438,,,
imu,177.339558,0.08673215600000002,-9.288116678400002,3.5434571872,-1.13638285,3.35662258,-3.29450543,,,
imu,177.348201,0.08792846160000001,-9.288116678400002,3.5458497984,-1.12142903,3.38653022,-3.1973056,,,
imu,177.356844,0.09151737840000002,-9.2659850248,3.546447951200001,-1.25601341,3.2220382,-3.11505959,,,
imu,177.365487,0.1028822816,-9.258209038400002,3.5476442568,-1.41302852,3.27437657,-3.01038285,,,
imu,177.37413,0.09630260080000001,-9.2546201216,3.5476442568,-1.40555161,3.16969983,-2.81598319,,,
imu,177.382772,0.09450814240000002,-9.2480404408,3.5578128544,-1.21862886,3.15474601,-2.75616791,,,
imu,177.391415,0.101685976,-9.240264454400002,3.5578128544,-1.13638285,3.20708438,-2.65149117,,,
imu,177.399705,0.107667504,-9.240264454400002,3.550635020800001,-0.9943215599999999,3.32671494,-2.53186061,,,
imu,177.407994,0.1040785872,-9.211553120000001,3.5524294792,-0.874691,3.28185348,-2.41223005,,,
imu,177.416283,0.1124527264,-9.203777133600001,3.560205465600001,-0.68776825,3.19960747,-2.50195297,,,
imu,177.424573,0.110658268,-9.1965993,3.556018396000001,-0.51579932,3.32671494,-2.5991528,,,
imu,177.432862,0.1154434904,-9.2127494256,3.54405534,-0.25410747,3.49120696,-2.5991528,,,
imu,177.441151,0.1148453376,-9.221721717600001,3.546447951200001,-0.127,3.40896095,-2.75616791,,,
imu,177.449441,0.1160416432,-9.231890315200001,3.541064576,-0.14195382,3.38653022,-2.87579847,,,
imu,177.45773,0.1088638096,-9.245049676800003,3.5398682704,-0.007369440000000005,3.41643786,-3.15244414,,,
imu,177.466019,0.1232194768,-9.2552182744,3.530895978400001,-0.11204618,3.43886859,-3.57862801,,,
imu,177.474309,0.1118545736,-9.274957316800002,3.528503367200001,0.06739966,3.21456129,-3.7954584,,,
imu,177.482598,0.1082656568,-9.273162858400001,3.523718144800001,0.18703022,3.1472691,-3.86275059,,,
imu,177.490887,0.1010878232,-9.2929019008,3.523119992000001,0.34404533,3.13979219,-3.96742733,,,
imu,177.499177,0.09570444800000001,-9.304266804000001,3.5177366168,0.31413769,3.13231528,-4.07210407,,,
imu,177.507466,0.0855358504,-9.312042790400001,3.5153440056,0.1720764,2.98277708,-4.04967334,,,
imu,177.515755,0.0813487808,-9.311444637600001,3.523718144800001,0.20198404,2.93043871,-4.012288789999999,,,
imu,177.524051,0.08314323920000001,-9.297687123200001,3.5069698664,0.14216876,2.8481927,-4.012288789999999,,,
imu,177.53234,0.08912476720000001,-9.283929608800001,3.5105587832,0.21693786,2.88557725,-3.76555076,,,
imu,177.54063,0.08912476720000001,-9.279144386400002,3.507568019200001,0.05244583999999999,2.76594669,-3.69825857,,,
imu,177.548919,0.09091922560000001,-9.290509289600001,3.5195310752,0.01506129,2.65379304,-3.56367419,,,
imu,177.557208,0.08792846160000001,-9.318024318400001,3.52910152,-0.0522309,2.57154703,-3.43656672,,,
imu,177.565498,0.09211553120000002,-9.329987374400002,3.5338867424,-0.16438455,2.38462428,-3.4216129,,,
imu,177.573787,0.08493769760000001,-9.325202152000001,3.5452516456,-0.30644584,2.23508608,-3.45899745,,,
imu,177.582076,0.0735727944,-9.301874192800001,3.549438715200001,-0.43355331,1.98834805,-3.47395127,,,
imu,177.590366,0.07058203040000001,-9.322211388000001,3.5757574384,-0.5681376899999999,1.90610204,-3.42908981,,,
imu,177.598832,0.0783580168,-9.315033554400001,3.5715703688,-0.76253735,1.81637912,-3.22721324,,,
imu,177.607298,0.0634041968,-9.2917055952,3.5763555912,-0.9793677399999999,1.84628676,-2.92813684,,,
imu,177.615764,0.05084298800000001,-9.267779483200002,3.565588840800001,-1.20367504,1.86871749,-2.80102937,,,
imu,177.62423,0.0526374464,-9.247442288000002,3.548840562400001,-1.31582869,1.88367131,-2.64401426,,,
imu,177.632696,0.04964668240000001,-9.2157401896,3.5279052144,-1.15133667,2.09302479,-2.32998404,,,
imu,177.641162,0.0562263632,-9.2103568144,3.526110756,-1.03918302,2.13788625,-2.23278421,,,
imu,177.649628,0.06460050240000001,-9.2103568144,3.5165403112,-0.61299915,2.3995781,-2.1505382,,,
imu,177.658094,0.07716171120000001,-9.207366050400001,3.5195310752,-0.34383039,2.61640849,-2.16549202,,,
imu,177.66656,0.08733030880000002,-9.214543884000001,3.5105587832,-0.13447691,2.65379304,-2.58419898,,,
imu,177.675026,0.09570444800000001,-9.226506940000002,3.5129513944,0.0001074699999999984,2.69117759,-2.9729983,,,
imu,177.683492,0.107667504,-9.240264454400002,3.5207273808,0.13469185,2.75099287,-3.10758268,,,
imu,177.691959,0.1124527264,-9.249834899200001,3.517138464,0.65059864,2.86314652,-3.28702852,,,
imu,177.700425,0.1309954632,-9.260601649600002,3.525512603200001,0.83004448,3.08745382,-3.43656672,,,
imu,177.708891,0.1453511304,-9.253423816000002,3.517138464,1.02444414,3.20708438,-3.53376655,,,
imu,177.717357,0.1489400472,-9.2486385936,3.5177366168,0.8749059399999999,3.27437657,-3.50385891,,,
imu,177.725823,0.1609031032,-9.257012732800002,3.5273070616,0.8749059399999999,3.36409949,-3.53376655,,,
imu,177.734289,0.1752587704,-9.280938844800001,3.539270117600001,0.88985976,3.40896095,-3.35432071,,,
imu,177.742755,0.1926052016,-9.277948080800002,3.5302978256,0.74779847,3.33419185,-3.496382,,,
imu,177.751221,0.1955959656,-9.251629357600002,3.5482424096,0.77770611,3.25194584,-3.59358183,,,
imu,177.759687,0.2069608688,-9.240264454400002,3.5554202432,0.64312173,3.16969983,-3.66087402,,,
imu,177.768153,0.212344244,-9.245647829600001,3.5596073128,0.5982602699999999,3.06502309,-3.75807385,,,
imu,177.776619,0.2261017584,-9.239666301600002,3.5428590344,0.71789083,2.93791562,-3.8702275,,,
imu,177.785085,0.2255036056,-9.222918023200002,3.548840562400001,0.88985976,2.76594669,-3.88518132,,,
imu,177.793552,0.2320832864,-9.2133475784,3.5572147016,1.00949032,2.4743472,-4.19173463,,,
imu,177.802362,0.2243073,-9.201982675200002,3.546447951200001,1.32352054,2.20517844,-4.31136519,,,
imu,177.811172,0.2099516328,-9.163700896000002,3.554223937600001,1.35342818,1.80890221,-4.52819558,,,
imu,177.819982,0.1926052016,-9.170280576800002,3.5482424096,1.79456587,1.5023489,-4.715118329999999,,,
imu,177.828793,0.1513326584,-9.1541304512,3.5416627288,2.08616536,1.10607267,-4.887087259999999,,,
imu,177.837603,0.131593616,-9.1236246584,3.532092284,2.72170271,0.7471809899999999,-5.193640569999999,,,
imu,177.846413,0.1010878232,-9.103287463200001,3.539270117600001,3.11050203,0.2387511099999999,-5.522624609999999,,,
imu,177.855224,0.0693857248,-9.094315171200002,3.5219236864,3.79837775,0.05930526999999985,-5.67963972,,,
imu,177.864034,0.0275150288,-9.124820964000001,3.52910152,4.56849948,-0.2173404000000003,-5.70207045,,,
imu,177.872844,0.004785222400000001,-9.096707782400001,3.490221588,5.18908301,-0.4491246100000001,-5.896470109999999,,,
imu,177.881654,-0.03110394560000001,-9.121830200000002,3.5057735608,5.86200491,-0.4865091600000002,-5.918900839999999,,,
imu,177.890465,-0.0430670016,-9.135587714400002,3.511755088800001,6.66203428,-0.4117400600000001,-5.79927028,,,
imu,177.899275,-0.07118018320000001,-9.187028855200001,3.535083048000001,7.43215601,-0.3369709599999999,-5.545055339999999,,,
imu,177.908085,-0.0855358504,-9.2588071912,3.5452516456,7.50692511,-0.3594016900000003,-5.522624609999999,,,
imu,177.916896,-0.08314323920000001,-9.3210150824,3.5362793536,7.5742173,-0.2397711300000003,-5.522624609999999,,,
imu,177.925706,-0.0980970592,-9.33118368,3.5183347696,7.33495618,-0.07527911000000032,-5.4403786,,,
imu,176.464501,,,,,,,-85.767798,180.1599308,112.1414576
imu,176.566064,,,,,,,-86.072978,180.0866876,113.6795648
imu,176.667596,,,,,,,-86.2682932,179.98903,113.630736
imu,176.769189,,,,,,,-86.13401400000001,180.0988948,113.6795648
imu,176.870751,,,,,,,-86.2072572,180.0988948,114.1922672
imu,176.972344,,,,,,,-85.9997348,179.500742,112.898304
imu,177.073998,,,,,,,-85.7800052,179.6960572,113.9847448
imu,177.175439,,,,,,,-83.1188356,178.5729948,112.0804216
imu,177.934516,-0.09570444800000001,-9.378437751200002,3.481249296000001,7.05831051,-0.1350943900000003,-5.18616366,,,
imu,177.943327,-0.08733030880000002,-9.4137287664,3.457921336800001,6.54240372,0.0368745399999999,-4.98428709,,,
imu,177.952137,-0.0562263632,-9.585996772800002,3.4022931264,5.75732817,0.19388965,-4.63287232,,,
imu,177.960947,-0.0693857248,-9.420906600000002,3.412461724000001,5.02459099,0.44062768,-4.19921154,,,
imu,177.969757,-0.0663949608,-9.412532460800001,3.4088728072,4.47877656,0.4555814999999996,-4.012288789999999,,,
imu,177.978568,-0.04725407120000001,-9.496872005600002,3.3897319176,4.089977240000001,0.6125966099999998,-3.68330475,,,
imu,177.987378,-0.0323002512,-9.478927421600002,3.33470186,3.57407045,0.7995193599999997,-3.4216129,,,
imu,177.996188,-0.0221316536,-9.437056725600002,3.3329074016,3.18527113,0.7995193599999997,-3.25712088,,,
imu,178.004667,-0.0173464312,-9.417915836,3.3275240264,2.81890254,0.6724118899999998,-3.15992105,,,
imu,178.013146,-0.0107667504,-9.3993730992,3.3131683592,2.54973378,0.5976427899999996,-3.10010577,,,
imu,178.021625,-0.0065796808,-9.3975786408,3.2850551776,2.37028794,0.5527813299999997,-3.14496723,,,
imu,178.030103,0.0065796808,-9.382026668000002,3.2760828856,2.20579592,0.4107200399999997,-3.23469015,,,
imu,178.038582,0.0,-9.3802322096,3.2760828856,2.27308811,0.3434278499999999,-3.1973056,,,
imu,178.047061,0.01495382,-9.371259917600002,3.2431844816,2.32542648,0.2836125699999998,-3.27955161,,,
imu,178.05554,0.0101685976,-9.368269153600002,3.227034356,2.31794957,0.1639820099999998,-3.25712088,,,
imu,178.064019,0.004187069600000001,-9.3766432928,3.2204546752,2.25065738,0.1714589200000001,-3.24216706,,,
imu,178.072497,0.003588916800000001,-9.370063612000001,3.218062064,2.35533412,0.1265974599999997,-3.27955161,,,
imu,178.080976,0.004187069600000001,-9.378437751200002,3.2246417448,2.2656112,-0.04537147000000008,-3.4216129,,,
imu,178.089455,0.002990764,-9.403560168800002,3.225838050400001,2.1908421,-0.06780220000000003,-3.45152054,,,
imu,178.097934,-0.0005981528000000001,-9.4346641144,3.230025120000001,2.13102682,-0.1201405700000002,-3.50385891,,,
imu,178.106413,0.002990764,-9.447823476,3.242586328800001,1.95905789,-0.07527911000000032,-3.39918217,,,
imu,178.114891,0.003588916800000001,-9.4496179344,3.2413900232,1.62259694,-0.1350943900000003,-3.28702852,,,
imu,178.12337,0.007177833600000002,-9.453206851200001,3.2581383016,1.35342818,-0.1425713000000002,-3.15992105,,,
imu,178.131849,0.003588916800000001,-9.471749588000002,3.258736454400001,1.18893616,-0.02294074000000013,-3.14496723,,,
imu,178.140328,0.0023926112,-9.478329268800001,3.256343843200001,0.9048135799999999,0.02939763000000006,-3.09262886,,,
imu,178.148807,0.011963056,-9.456197615200002,3.273092121600001,0.5459219,0.11164364,-3.01785976,,,
imu,178.157285,0.0137575144,-9.440047489600001,3.272493968800001,0.25432241,0.1415512799999998,-3.06272122,,,
imu,178.165764,0.0101685976,-9.4346641144,3.2844570248,0.02253820000000001,0.2910894799999997,-3.15992105,,,
imu,178.174243,0.0065796808,-9.416719530400002,3.291634858400001,-0.2765382,0.4107200399999997,-3.18982869,,,
imu,178.182722,0.0101685976,-9.3754469872,3.2946256224,-0.6279529699999999,0.50044296,-3.26459779,,,
imu,178.191201,-0.0011963056,-9.3557079448,3.3245332624,-0.63542988,0.4555814999999996,-3.39170526,,,
imu,178.199679,0.003588916800000001,-9.382026668000002,3.305392372800001,-0.63542988,0.5677351499999999,-3.43656672,,,
imu,178.208156,-0.003588916800000001,-9.3628857784,3.3095794424,-0.73262971,0.62007352,-3.75807385,,,
imu,178.216632,-0.0155519728,-9.328791068800001,3.3251314152,-0.84478336,0.6499811599999998,-4.04967334,,,
imu,178.225108,-0.007177833600000002,-9.328192916,3.322738804,-0.69524516,0.6724118899999998,-4.17678081,,,
imu,178.233585,-0.0125612088,-9.325202152000001,3.3370944712,-0.64290679,0.7471809899999999,-4.41604193,,,
imu,178.242061,-0.0251224176,-9.300079734400002,3.3717873336,-0.63542988,0.7322271699999998,-4.48333412,,,
imu,178.250537,-0.0346928624,-9.310248332,3.3699928752,-0.83730645,0.9116730099999999,-4.59548777,,,
imu,178.259013,-0.04486146000000001,-9.3204169296,3.377768861600001,-0.76253735,1.00887284,-4.6179185,,,
imu,178.26749,-0.0562263632,-9.3108464848,3.367600264,-0.71767589,1.22570323,-4.670256869999999,,,
imu,178.275966,-0.0663949608,-9.3174261656,3.374778097600001,-0.74758353,1.33037997,-4.602964679999999,,,
imu,178.284442,-0.09091922560000001,-9.313239096000002,3.3687965696,-0.49336859,1.45748744,-4.4683803,,,
imu,178.292918,-0.09211553120000002,-9.294696359200001,3.3693947224,-0.38869185,1.63693328,-4.52819558,,,
imu,178.301395,-0.08733030880000002,-9.286920372800001,3.361618736,-0.32139966,1.86124058,-4.55062631,,,
imu,178.309871,-0.1082656568,-9.2851259144,3.3580298192,-0.22419983,1.9509635,-4.49828794,,,
imu,178.318347,-0.1327899216,-9.287518525600001,3.361020583200001,-0.17933837,2.1752708,-4.58801086,,,
imu,178.326823,-0.122621324,-9.257012732800002,3.361020583200001,-0.02232326000000001,2.33228591,-4.44594957,,,
imu,178.3353,-0.1280046992,-9.288116678400002,3.356833513600001,-0.03727708,2.44443956,-4.408565019999999,,,
imu,178.343776,-0.143556672,-9.290509289600001,3.3388889296,0.35152224,2.63136231,-4.28145755,,,
imu,178.352252,-0.1483418944,-9.291107442400001,3.3353000128,0.66555246,2.82576197,-4.21416536,,,
imu,178.360728,-0.1638938672,-9.3168280128,3.3412815408,0.97210577,2.81080815,-4.19921154,,,
imu,178.369205,-0.1782495344,-9.309052026400002,3.346066763200001,1.10669015,2.86314652,-4.034719519999999,,,
imu,178.377681,-0.1836329096,-9.325800304800001,3.346664916,1.31604363,3.13979219,-4.04219643,,,
imu,177.277978,,,,,,,-85.340546,179.9035796,114.119024
imu,177.378594,,,,,,,-83.1676644,178.7805172,110.5667288
imu,177.480126,,,,,,,-85.2428884,179.8547508,113.752808
imu,177.581689,,,,,,,-85.523654,179.6472284,114.0213664
imu,177.683282,,,,,,,-85.523654,180.0622732,114.057988
imu,177.784905,,,,,,,-85.0597804,180.0256516,114.1556456
imu,177.886407,,,,,,,-85.2917172,180.2820028,114.9002848
imu,177.987939,,,,,,,-85.645726,179.4519132,114.5340688
imu,178.089425,,,,,,,-85.01095160000001,179.2443908,113.2889344
imu,178.190987,,,,,,,-85.19405959999999,178.8415532,114.9246992
imu,178.292672,,,,,,,-82.9479348,178.2678148,112.5442952
