Type,Timestamp,Data Accelerometer X,Data Accelerometer Y,Data Accelerometer Z,Data Gyroscope X,Data Gyroscope Y,Data Gyroscope Z,Data Magnetometer X,Data Magnetometer Y,Data Magnetometer Z
imu,58.267425,-0.490485296,-9.430477044800002,2.4966897872,1.04687487,-1.39121527,-4.625395409999999,,,
imu,58.275957,-0.5144114080000001,-9.431075197600002,2.4871193424,2.17588828,-0.9874621299999999,-4.26650373,,,
imu,58.284489,-0.5084298800000001,-9.455001309600002,2.488315648,3.35724006,-0.5164168,-3.75807385,,,
imu,58.293021,-0.4731388648000001,-9.5357519376,2.499082398400001,4.30680763,0.02939763000000006,-3.16739796,,,
imu,58.301554,-0.4432312248,-9.606333968000001,2.5134380656,5.08440627,0.6798887999999996,-2.66644499,,,
imu,58.310086,-0.3893974728000001,-9.693066124000001,2.5493272336,5.46572868,1.09859576,-2.18044584,,,
imu,58.318618,-0.3367600264,-9.76484446,2.5654773592,5.53302087,1.2780416,-1.94866163,,,
imu,58.32715,-0.305057928,-9.8061170032,2.5702625816,5.00963717,1.49487199,-1.87389253,,,
imu,58.335614,-0.2918985664000001,-9.820472670400001,2.5792348736,4.2096078,1.46496435,-2.06081528,,,
imu,58.344077,-0.2715613712,-9.8079114616,2.583421943200001,3.42453225,1.48739508,-2.34493786,,,
imu,58.352541,-0.263187232,-9.798341016800002,2.5559069144,2.51982614,1.1285034,-2.98047521,,,
imu,58.361004,-0.2697669128,-9.7301515976,2.5218122048,2.03382699,0.8967191899999998,-3.59358183,,,
imu,58.369468,-0.2918985664000001,-9.6535880392,2.5146343712,1.47305874,0.5752120599999997,-4.33379592,,,
imu,58.377931,-0.3301803456000001,-9.588389384000001,2.488315648,1.23379762,0.2611818399999999,-4.991764,,,
imu,58.386395,-0.3421434016,-9.559678049600002,2.4996805512,1.43567419,0.05930526999999985,-5.70954736,,,
imu,58.394859,-0.367863972,-9.580613397600002,2.5008768568,1.56278166,-0.2023865800000002,-6.25536179,,,
imu,58.403322,-0.3876030144000001,-9.597959828800002,2.4966897872,1.368382,-0.3294940500000001,-6.636684199999999,,,
imu,58.411786,-0.3923882368,-9.597361676,2.5176251352,1.15902852,-0.4117400600000001,-6.73388403,,,
imu,58.420249,-0.4181088072000001,-9.588389384000001,2.527793732800001,0.8749059399999999,-0.5014629800000003,-6.771268579999999,,,
imu,58.428713,-0.4199032656,-9.5357519376,2.5008768568,0.620691,-0.5687551700000002,-6.74136094,,,
imu,58.437176,-0.4342589328000001,-9.4765348104,2.5074565376,0.28423005,-0.53884753,-6.51705364,,,
imu,58.44564,-0.4444275304,-9.447225323200001,2.5116436072,0.41133752,-0.35192478,-6.135731229999999,,,
imu,58.454103,-0.4378478496000001,-9.440645642400002,2.471567369600001,0.71789083,-0.2397711300000003,-5.83665483,,,
imu,58.462567,-0.442633072,-9.4322715032,2.4482394104,1.02444414,-0.2397711300000003,-5.65720899,,,
imu,58.47103,-0.4372496968000001,-9.4215047528,2.4249114512,1.34595127,-0.37435551,-5.76936264,,,
imu,58.479494,-0.4492127528000001,-9.4316733504,2.4219206872,1.77213514,-0.6285704500000002,-5.829177919999999,,,
imu,58.487957,-0.4533998224,-9.464571754400001,2.4123502424,2.57964142,-0.7108164600000002,-5.74693191,,,
imu,58.496421,-0.4492127528000001,-9.522592576000001,2.398592728,3.3123786,-0.8528777500000002,-5.589916799999999,,,
imu,58.504885,-0.4641665728000001,-9.562668813600002,2.398592728,3.925485220000001,-0.8454008399999999,-5.500193879999999,,,
imu,58.513348,-0.4575868920000001,-9.627867468800002,2.3997890336,4.41148437,-0.8080162900000003,-5.20859439,,,
imu,58.521812,-0.4408386136,-9.701440263200002,2.3973964224,4.84514515,-0.7482010100000003,-4.80484125,,,
imu,58.530275,-0.4205014184,-9.7570684736,2.3991908808,5.1816061,-0.5014629800000003,-4.33379592,,,
imu,58.538711,-0.4091365152000001,-9.80970592,2.423715145600001,5.06197554,-0.6061397200000003,-4.08705789,,,
imu,58.547146,-0.3983697648000001,-9.8593526024,2.428500368,4.7329915,-0.80053938,-3.85527368,,,
imu,58.555582,-0.3882011672000001,-9.897634381600001,2.4267059096,4.41896128,-0.7407241,-3.69078166,,,
imu,58.564017,-0.367863972,-9.9131863544,2.4249114512,3.75351629,-0.8454008399999999,-3.60853565,,,
imu,58.572453,-0.3870048616000001,-9.9030177568,2.4051724088,3.10302512,-1.1145696,-3.78050458,,,
imu,58.580889,-0.4300718632,-9.828846809600002,2.4081631728,2.2656112,-1.25663089,-4.0945348,,,
imu,58.589324,-0.4240903352000001,-9.755872168000002,2.413546548,1.32352054,-1.37626145,-4.5431494,,,
imu,58.59776,-0.4127254320000001,-9.700243957600001,2.3979945752,0.5982602699999999,-1.29401544,-4.83474889,,,
imu,58.606195,-0.4438293776000001,-9.655980650400002,2.3979945752,0.06739966,-1.46598437,-5.01419473,,,
imu,58.614631,-0.4629702672000001,-9.630260080000001,2.429696673600001,-0.23167674,-1.36878454,-4.94690254,,,
imu,58.623066,-0.4797185456,-9.6051376624,2.4356782016,-0.82235263,-1.144477240000001,-4.976810179999999,,,
imu,58.631502,-0.4713444064,-9.593174606400002,2.4362763544,-1.18872122,-0.7930624700000002,-4.92447181,,,
imu,58.639938,-0.4827093096,-9.557285438400001,2.4518283272,-1.54013599,-0.5687551700000002,-4.80484125,,,
imu,58.648373,-0.490485296,-9.533957479200001,2.464389536000001,-1.66724346,-0.2995864100000003,-4.759979789999999,,,
imu,58.656809,-0.4629702672000001,-9.516012895200001,2.491306412,-1.83921239,-0.0005100100000001717,-4.70764142,,,
imu,58.665244,-0.4719425592000001,-9.514218436800002,2.5188214408,-1.67472037,0.2836125699999998,-4.90204108,,,
imu,58.67368,-0.4737370176,-9.561472508000001,2.551121692,-1.3233056,0.47801223,-4.98428709,,,
imu,58.682115,-0.4791203928000001,-9.579417092000002,2.552916150400001,-0.91955246,0.7172733499999997,-5.16373293,,,
imu,58.690551,-0.5066354216000001,-9.5877912312,2.57205704,-0.54570696,0.6798887999999996,-5.53757843,,,
imu,58.698987,-0.5108224912,-9.5704448,2.581029332,-0.3513073,0.4929660499999997,-6.24040797,,,
imu,58.707422,-0.5491042704000001,-9.580613397600002,2.6061517496,0.27675314,0.1265974599999997,-6.816130039999999,,,
imu,58.715858,-0.5772174520000001,-9.625474857600002,2.6330686256,0.7702292,-0.03789456000000024,-7.257267730000001,,,
imu,58.724293,-0.601143564,-9.6535880392,2.6097406664,0.94219813,-0.23229422,-7.803082159999999,,,
imu,58.732729,-0.6262659816,-9.646410205600002,2.604955444,1.18145925,-0.4416477000000003,-7.975051089999999,,,
imu,58.74126,-0.6382290376000002,-9.6159044128,2.6169185,1.18145925,-0.5238937100000003,-8.19935839,,,
imu,58.749791,-0.6591643856000001,-9.566257730400002,2.5738514984,1.48053565,-0.6360473600000001,-8.24421985,,,
imu,58.758322,-0.6717255944000001,-9.489096019200002,2.5259992744,1.84690424,-0.7482010100000003,-8.11711238,,,
imu,58.766853,-0.6627533024,-9.411934308000001,2.488315648,2.47496468,-0.9126930300000002,-7.713359239999999,,,
imu,58.775383,-0.6543791632000001,-9.3838211264,2.483530425600001,3.17031731,-1.20429252,-7.518959579999999,,,
imu,58.783914,-0.5981528,-9.405952780000002,2.4775488976,4.14979252,-1.80244532,-7.384375199999999,,,
imu,58.792445,-0.5933675776,-9.456197615200002,2.4488375632,4.87505279,-2.41555194,-7.257267730000001,,,
imu,58.800976,-0.5927694248,-9.496872005600002,2.4637913832,5.44329795,-3.07352002,-7.04791425,,,
imu,58.809507,-0.5837971328000001,-9.5327611736,2.461398772,6.07135839,-3.70905737,-6.681545659999999,,,
imu,58.818038,-0.5921712720000001,-9.5632669664,2.4572117024,6.51997299,-4.56142511,-6.315177069999999,,,
imu,58.826569,-0.6119103144000001,-9.5776226336,2.4458467992,6.81904939,-5.226870099999999,-5.98619303,,,
imu,58.8351,-0.6693329832000001,-9.580613397600002,2.4476412576,7.11812579,-5.690438520000001,-5.33570186,,,
imu,58.843631,-0.7369242496000001,-9.588389384000001,2.460202466400001,7.33495618,-5.974561100000001,-4.53567249,,,
imu,58.852162,-0.7799912512000001,-9.626671163200001,2.4518283272,7.47701747,-5.91474582,-3.61601256,,,
imu,58.860693,-0.8278434752000001,-9.6523917336,2.4243132984,7.39477146,-5.6754847,-3.04029049,,,
imu,58.869224,-0.8667234072000001,-9.6745233872,2.398592728,7.17046416,-5.211916280000001,-2.74121409,,,
imu,58.877755,-0.9163700896000002,-9.669738164800002,2.3818444496,6.78166484,-4.75582477,-2.51690679,,,
imu,58.886286,-0.9205571592,-9.655980650400002,2.3973964224,6.3779117,-3.98570304,-2.21783039,,,
imu,58.894817,-0.9510629520000001,-9.669738164800002,2.3902185888,6.08631221,-3.16324294,-2.02343073,,,
imu,58.903347,-0.9815687448000001,-9.7086180968,2.3932093528,5.44329795,-2.33330593,-1.95613854,,,
imu,58.911878,-0.9426888128,-9.745703570400002,2.341768212,5.00963717,-1.286538530000001,-2.01595382,,,
imu,58.920409,-0.9193608536000001,-9.7427128064,2.323823628,4.38905364,-0.37435551,-2.06829219,,,
imu,58.92894,-0.9139774784000001,-9.742114653600002,2.3262162392,3.80585466,0.9341037399999998,-1.64210832,,,
imu,58.937471,-0.8786864632000002,-9.7128051664,2.2843455432,3.55911663,2.07059406,-1.39537029,,,
imu,58.94619,-0.8212637944000001,-9.671532623200001,2.2813547792,3.33480933,3.18465365,-1.21592445,,,
imu,58.954909,-0.8260490168000001,-9.659569567200002,2.2831492376,3.35724006,4.26132869,-1.05143243,,,
imu,58.963627,-0.7853746264000001,-9.683495679200002,2.3022901272,3.15536349,5.07631188,-0.99909406,,,
imu,58.972346,-0.7524762224000001,-9.710412555200001,2.30288828,3.08059439,6.063264,-0.91684805,,,
imu,58.981065,-0.6986424704000002,-9.7325442088,2.296906752,2.92357928,7.07264685,-0.8495558599999999,,,
imu,58.989784,-0.6364345792000001,-9.7283571392,2.3052808912,2.64693361,7.87267622,-0.85703277,,,
imu,58.998502,-0.580208216,-9.716992236000001,2.3178421,2.28056502,8.56055194,-0.9766633299999998,,,
imu,59.007221,-0.517402172,-9.6954587352,2.3064771968,1.86185806,8.85215143,-1.05143243,,,
imu,59.01594,-0.4510072112,-9.693664276800002,2.3082716552,1.5179202,8.941874349999999,-1.36546265,,,
imu,59.024659,-0.4318663216,-9.711608860800002,2.3184402528,1.32352054,8.964305079999999,-1.69444669,,,
imu,59.033377,-0.3947808480000001,-9.723571916800001,2.3106642664,1.16650543,8.67270559,-2.12063056,,,
imu,59.042096,-0.3876030144000001,-9.7301515976,2.304084585600001,0.9197674,8.26895245,-2.66644499,,,
imu,59.050815,-0.3648732080000001,-9.738525736800002,2.3100661136,1.01696723,7.89510695,-3.07767504,,,
imu,59.059534,-0.3594898328000001,-9.741516500800001,2.308869808,0.9571519499999999,7.25209269,-3.60105874,,,
imu,59.068252,-0.3738455000000001,-9.738525736800002,2.307673502400001,0.94219813,6.69132444,-3.9449966,,,
imu,59.076971,-0.3864067088000001,-9.745703570400002,2.311860572000001,0.94219813,6.010925629999999,-4.18425772,,,
imu,59.08569,-0.4091365152000001,-9.787574266400002,2.3304033088,0.9048135799999999,5.285665359999999,-4.37118047,,,
imu,59.094409,-0.4456238360000001,-9.80970592,2.329805156,0.8375213899999999,4.88191222,-4.40108811,,,
imu,59.103127,-0.4659610312,-9.803126239200001,2.311262419200001,0.620691,4.25385178,-4.37865738,,,
imu,59.111846,-0.4797185456,-9.755872168000002,2.3124587248,0.36647606,3.88000628,-3.87770441,,,
imu,59.120565,-0.4976631296000001,-9.724170069600001,2.3315996144,0.26179932,3.50616078,-3.496382,,,
imu,59.129284,-0.5138132552000001,-9.7086180968,2.3202347112,0.20946095,3.25194584,-2.95056757,,,
imu,59.138002,-0.5144114080000001,-9.706225485600001,2.3160476416,0.13469185,2.90800798,-2.61410662,,,
imu,59.146479,-0.5467116592000001,-9.690673512800002,2.3154494888,-0.01484635000000001,2.81080815,-2.38979932,,,
imu,59.154955,-0.5598710208000001,-9.669738164800002,2.325019933600001,-0.05970781,2.60145467,-2.18044584,,,
imu,59.163431,-0.56824516,-9.669140012000002,2.3262162392,-0.06718472,2.40705501,-2.09072292,,,
imu,59.171907,-0.5730303824,-9.659569567200002,2.3202347112,-0.10456927,2.29490136,-1.89632326,,,
imu,59.180384,-0.5760211464000001,-9.635643455200002,2.311860572000001,-0.05970781,2.36967046,-1.80660034,,,
imu,59.18886,-0.5646562432000001,-9.618297024,2.3160476416,-0.08213854000000001,2.48930102,-1.82155416,,,
imu,59.197336,-0.5514968816000001,-9.61530626,2.3196365584,-0.0522309,2.30237827,-1.82903107,,,
imu,59.205812,-0.5455153536,-9.606333968000001,2.3190384056,0.11973803,2.26499372,-1.79164652,,,
imu,59.214289,-0.5251781584,-9.613511801600001,2.3160476416,0.16459949,2.25751681,-1.69444669,,,
imu,59.222765,-0.4970649768000001,-9.633250844,2.3220291696,0.14216876,2.2500399,-1.51500085,,,
imu,59.231241,-0.4749333232000001,-9.635045302400002,2.3142531832,0.06739966,2.08554788,-1.44023175,,,
imu,59.239717,-0.4354552384000001,-9.6248767048,2.3136550304,-0.007369440000000005,1.90610204,-1.32060119,,,
imu,59.248194,-0.3882011672000001,-9.612315496,2.305879044,-0.15690764,1.36776452,-1.42527793,,,
imu,59.25667,-0.3487230824000001,-9.6248767048,2.3184402528,-0.14943073,1.15841104,-1.36546265,,,
imu,59.265146,-0.2996745528,-9.630858232800001,2.3226273224,-0.17933837,0.7696117199999999,-1.08881698,,,
imu,59.273622,-0.2458408008,-9.661962178400001,2.3232254752,0.12721494,0.3060432999999998,-0.74487912,,,
imu,59.282099,-0.19439966,-9.673925234400002,2.33279592,0.07487657,-0.53884753,-0.4831872699999999,,,
imu,58.286651,,,,,,,97.1204724,-37.94611160000001,133.6383368
imu,58.388213,,,,,,,97.645382,-37.98273320000001,133.6017152
imu,58.492003,,,,,,,97.9993908,-38.27570600000001,134.6393272
imu,58.591338,,,,,,,100.3797948,-39.34993960000001,132.5641032
imu,59.290609,-0.155519728,-9.678112304,2.3405719064,0.08983038999999998,-1.32392308,-0.02709575999999991,,,
imu,59.299086,-0.080750628,-9.6709344704,2.3435626704,0.04496892999999999,-2.16881391,0.3916112000000003,,,
imu,59.307562,-0.020935348,-9.672130776000001,2.3333940728,0.11973803,-3.38755024,0.8850872600000002,,,
imu,59.316038,0.05084298800000001,-9.672130776000001,2.3369829896,0.25432241,-4.77077859,1.26640967,,,
imu,59.324514,0.1112564208,-9.671532623200001,2.3262162392,0.35899915,-6.258683680000001,1.77483955,,,
imu,59.332991,0.1638938672,-9.657775108800001,2.3052808912,0.30666078,-7.92603461,2.1860696,,,
imu,59.341467,0.2231109944,-9.634447149600001,2.3154494888,0.35899915,-9.81769284,2.50009982,,,
imu,59.349933,0.2954874832,-9.6290637744,2.3100661136,0.43376825,-12.07571966,2.72440712,,,
imu,59.358399,0.4133235848,-9.635643455200002,2.2891307656,0.51601426,-14.52066923,3.05339116,,,
imu,59.366865,0.5245800056000001,-9.627269316000001,2.2891307656,0.67302937,-17.42171031,3.26274464,,,
imu,59.375331,0.6119103144000001,-9.637437913600001,2.2945141408,0.9347212199999999,-20.78631981,3.31508301,,,
imu,59.383797,0.6938572480000001,-9.672728928800002,2.2873363072,1.18893616,-24.46495953,3.37489829,,,
imu,59.392264,0.7441020832,-9.7086180968,2.2825510848,1.24127453,-28.34547582,3.50948267,,,
imu,59.40073,0.7213722768,-9.7510869456,2.2795603208,1.17398234,-32.56992997,3.74126688,,,
imu,59.409196,0.6454068712000001,-9.8013317808,2.2771677096,0.9347212199999999,-36.77195339,4.032866370000001,,,
imu,59.417662,0.5562821040000001,-9.800135475200001,2.2436711528,0.5459219,-40.64499277,4.578680800000001,,,
imu,59.426128,0.4324644744,-9.740918348000001,2.2149598184,0.02253820000000001,-44.032033,5.318894889999999,,,
imu,59.434594,0.3086468448,-9.623680399200001,2.204193068,-0.03727708,-47.06018155,5.99181679,,,
imu,59.44306,0.1848292152,-9.535153784800002,2.2143616656,0.12721494,-49.52756185,6.48529285,,,
imu,59.451526,0.0980970592,-9.520199964800002,2.228717332800001,0.41881443,-51.45660463,6.941384360000001,,,
imu,59.459992,0.0317020984,-9.5632669664,2.2263247216,0.9571519499999999,-53.14638629,7.12830711,,,
imu,59.468458,-0.0370854736,-9.5949690648,2.1940244704,1.57773548,-54.50718391,7.16569166,,,
imu,59.476924,-0.185427368,-9.574631869600001,2.207183832,2.19831901,-55.4717053,7.03858419,,,
imu,59.48539,-0.34393786,-9.554892827200002,2.2478582224,2.6394567,-55.98761209,6.567538860000001,,,
imu,59.493857,-0.5060372688000001,-9.557285438400001,2.2622138896,3.26751714,-55.72592024,6.03667825,,,
imu,59.502323,-0.6334438152,-9.568650341600001,2.263410195200001,3.69370101,-54.84364486,5.498340730000001,,,
imu,59.510789,-0.6675385248000001,-9.585996772800002,2.2711861816,4.20213089,-53.53518561,4.885234110000001,,,
imu,59.519255,-0.6430142600000001,-9.591978300800001,2.2741769456,4.45634583,-51.89774232,3.95062036,,,
imu,59.527721,-0.6597625384000001,-9.5877912312,2.2855418488,4.80028369,-50.45469869,2.82908386,,,
imu,59.536187,-0.7010350816000002,-9.6087265792,2.304084585600001,4.90496043,-49.38550056,1.69259354,,,
imu,59.544653,-0.7129981376000001,-9.661962178400001,2.3184402528,4.93486807,-48.01722603,0.8402258000000002,,,
imu,59.553119,-0.6944554008000001,-9.727160833600001,2.3082716552,5.06197554,-46.6489515,0.03271952000000011,,,
imu,59.561585,-0.7195778184000001,-9.764246307200002,2.3010938216,4.59093021,-45.51993809,-0.7897405799999999,,,
imu,59.570051,-0.7955432240000001,-9.7570684736,2.3004956688,4.1348387,-44.2563403,-1.73930815,,,
imu,59.578517,-0.8900513664000002,-9.7301515976,2.28793446,3.731085559999999,-42.42449735,-2.62158353,,,
imu,59.586983,-1.00190594,-9.685290137600001,2.2897289184,3.22265568,-40.56274676,-3.16739796,,,
imu,59.59545,-1.094619624,-9.652989886400002,2.3022901272,3.09554821,-38.03555118,-3.3468438,,,
imu,59.603916,-1.172379488,-9.651195428000001,2.304084585600001,2.75908726,-35.36629431,-3.92256587,,,
imu,59.612382,-1.2298021568,-9.669140012000002,2.3016919744,2.61702597,-32.38300722,-4.53567249,,,
imu,59.620848,-1.2435596712,-9.693664276800002,2.3022901272,2.54225687,-29.22027429,-4.84970271,,,
imu,59.629314,-1.2339892264,-9.710412555200001,2.2837473904,2.20579592,-26.3117563,-5.38056332,,,
imu,59.63778,-1.2214280176,-9.718786694400002,2.2705880288,2.07121154,-23.2462232,-5.829177919999999,,,
imu,59.646246,-1.1879314608,-9.7265626808,2.2741769456,1.82447351,-20.60687397,-6.554438189999999,,,
imu,59.654712,-1.1687905712,-9.7122070136,2.2664009592,1.57773548,-18.19930895,-7.30212919,,,
imu,59.663178,-1.1849406968,-9.696056888000001,2.2532415976,1.35342818,-15.85903612,-8.09468165,,,
imu,59.671644,-1.1759684048,-9.6703363176,2.246063764000001,1.26370526,-13.70568604,-8.62554226,,,
imu,59.68011,-1.1460607648,-9.635045302400002,2.2376896248,1.05435178,-11.44765922,-8.97695703,,,
imu,59.688576,-1.1562293624,-9.6039413568,2.237091472,1.1440747,-9.22701695,-9.33584871,,,
imu,59.697043,-1.1287143336,-9.599754287200001,2.2352970136,1.30856672,-7.170866699999999,-9.3283718,,,
imu,59.705509,-1.0922270128,-9.614708107200002,2.2335025552,1.58521239,-5.12967027,-9.08911068,,,
imu,59.713975,-1.055739692,-9.597361676,2.222137652,1.74970441,-3.36511951,-8.70778827,,,
imu,59.722441,-0.9708019944000001,-9.5800152448,2.22811918,1.80951969,-1.87721442,-8.62554226,,,
imu,59.730907,-0.9534555632000001,-9.593174606400002,2.2239321104,2.02635008,-0.9949390400000002,-8.90218793,,,
imu,59.739373,-0.9295294512000001,-9.588389384000001,2.2113709016,2.5646876,0.02939763000000006,-8.93209557,,,
imu,59.747839,-0.9217534648000001,-9.575230022400001,2.2155579712,2.75908726,0.9116730099999999,-8.71526518,,,
imu,59.756397,-0.9062014920000001,-9.592576453600001,2.2364933192,3.03573293,1.68927165,-8.19935839,,,
imu,59.764954,-0.8888550608000001,-9.600352440000002,2.2269228744,3.45443989,2.36967046,-7.69840542,,,
imu,59.773512,-0.8727049352000001,-9.623680399200001,2.2263247216,3.66379337,2.87062343,-7.09277571,,,
imu,59.78207,-0.8625363376,-9.641026830400001,2.2233339576,3.82828539,3.16222292,-6.576868919999999,,,
imu,59.790627,-0.8487788232000001,-9.66016772,2.222137652,3.84323921,3.42391477,-6.180592689999999,,,
imu,59.799185,-0.8559566568000001,-9.682897526400001,2.2173524296,3.90305449,3.76785263,-5.74693191,,,
imu,59.807743,-0.8798827688,-9.724170069600001,2.219146888,3.71613174,3.88748319,-5.45533242,,,
imu,59.8163,-0.9247442288000001,-9.7504887928,2.2179505824,3.69370101,4.16412886,-5.17868675,,,
imu,59.824858,-0.9779798280000002,-9.777405668800002,2.2119690544,3.42453225,4.51554363,-5.08896383,,,
imu,59.833415,-1.0204486768,-9.772620446400001,2.201202304,2.93105619,5.07631188,-5.12634838,,,
imu,59.841973,-1.0413840248,-9.76484446,2.204193068,2.39271867,5.86886434,-5.02914855,,,
imu,59.850531,-1.0683009008,-9.767237071200002,2.2083801376,2.15345755,6.68384753,-5.12634838,,,
imu,59.859088,-1.0605249144,-9.783985349600002,2.2023986096,1.68988913,7.551169089999999,-5.12634838,,,
imu,59.867646,-1.0665064424,-9.794153947200002,2.204193068,1.20388998,8.69513632,-5.25345585,,,
imu,59.876204,-1.0623193728,-9.803126239200001,2.210174596,0.59078336,9.59236552,-5.26840967,,,
imu,59.884761,-1.1227328056,-9.8043225448,2.240082236,-0.16438455,10.58679455,-5.5151477,,,
imu,59.893319,-1.1538367512,-9.825856045600002,2.2388859304,-0.81487572,11.55131594,-5.79179337,,,
imu,59.901877,-1.2094649616,-9.828846809600002,2.2382877776,-1.27096723,12.69528317,-6.090869769999999,,,
imu,59.910434,-1.2304003096,-9.820472670400001,2.2352970136,-1.88407385,14.27291118,-6.45723836,,,
imu,59.918992,-1.2088668088,-9.803126239200001,2.2239321104,-2.5943803,16.02998503,-6.71893021,,,
imu,59.927549,-1.1795573216,-9.789368724800001,2.222137652,-2.9682258,17.54032085,-6.85351459,,,
imu,59.936107,-1.1472570704,-9.762451848800001,2.2215394992,-3.38693276,19.05065667,-7.122683349999999,,,
imu,59.944665,-1.103591916,-9.752881404000002,2.2305117912,-3.70096298,20.30677755,-7.556344129999999,,,
imu,59.953222,-1.0754787344,-9.7337405144,2.207183832,-3.84302427,21.44326787,-7.78812834,,,
imu,59.961936,-1.0700953592,-9.7056273328,2.2119690544,-3.98508556,22.46012763,-7.862897439999999,,,
imu,59.970649,-1.0264302048,-9.6637566368,2.2263247216,-3.96265483,23.29754155,-7.907758899999999,,,
imu,59.979363,-1.0150653016,-9.600352440000002,2.2107727488,-3.94770101,24.21720148,-7.840466709999999,,,
imu,59.988076,-1.025832052,-9.578220786400001,2.2484563752,-3.73834753,25.03218467,-7.90028199,,,
imu,59.99679,-1.0042985512,-9.5877912312,2.261017584,-3.4168404,25.71258348,-7.623636319999999,,,
imu,60.005503,-0.9935318008000001,-9.6284656216,2.252045292,-3.05047181,26.59485886,-7.13763717,,,
imu,60.014216,-0.9761853696000001,-9.6667474008,2.2502508336,-2.85607215,27.28273458,-6.943237509999999,,,
imu,60.02293,-0.9528574104000002,-9.669140012000002,2.280756626400001,-2.84111833,28.17248687,-6.636684199999999,,,
imu,60.031643,-0.9187627008000002,-9.676317845600002,2.3022901272,-3.03551799,28.56128619,-6.158161959999999,,,
imu,60.040357,-0.9325202152000002,-9.708019944000002,2.3286088504,-3.07290254,29.06223916,-5.65720899,,,
imu,60.04907,-0.9073977976000001,-9.752881404000002,2.3292070032,-3.32711748,29.57814595,-5.545055339999999,,,
imu,60.057784,-0.8691160184000001,-9.798341016800002,2.3196365584,-3.7159168,30.10900656,-5.65720899,,,
imu,60.066497,-0.8457880592000001,-9.819276364800002,2.3423663648,-4.2393005,30.75202082,-5.8889932,,,
imu,60.07521,-0.7955432240000001,-9.824659740000001,2.3633017128,-4.85240712,30.99128194,-6.19554651,,,
imu,60.083924,-0.7243630408,-9.822267128800002,2.3549275736,-5.49542138,31.3352198,-6.52453055,,,
imu,60.092637,-0.6358364264000002,-9.803126239200001,2.3543294208,-6.13843564,31.49223491,-6.67406875,,,
imu,60.101351,-0.5837971328000001,-9.777405668800002,2.3932093528,-6.90855737,31.46232727,-6.49462291,,,
imu,58.692931,,,,,,,98.09704839999999,-38.62971480000002,134.3463544
imu,58.797515,,,,,,,100.5384884,-39.67953400000002,131.8927072
imu,58.896026,,,,,,,98.6585796,-39.15462440000002,134.7858136
imu,58.997588,,,,,,,98.4266428,-39.04475960000002,133.2721208
imu,59.099151,,,,,,,98.7806516,-39.04475960000002,134.4806336
imu,59.200713,,,,,,,98.10925560000001,-38.98372360000002,134.6027056
imu,59.302245,,,,,,,98.316778,-39.14241720000003,133.9679312
imu,59.403838,,,,,,,98.53650760000001,-38.51985000000002,134.5538768
imu,60.110064,-0.5383375200000001,-9.770825988000002,2.4338837432,-7.62634073,30.97632812,-6.38994617,,,
imu,60.118778,-0.5185984776000001,-9.793555794400001,2.455417244,-8.11233988,30.25854476,-6.10582359,,,
imu,60.127491,-0.4833074624000001,-9.803724392000001,2.4691747584,-8.76283105,29.54823831,-6.08339286,,,
imu,60.136204,-0.4839056152000001,-9.7923594888,2.4631932304,-9.33855312,29.04728534,-5.6646859,,,
imu,60.144918,-0.4874945320000001,-9.746301723200002,2.5104473016,-9.95913665,28.48651709,-5.02914855,,,
imu,60.153631,-0.490485296,-9.6942624296,2.518223288000001,-10.37784361,28.03790249,-4.55810322,,,
imu,60.16212,-0.4833074624000001,-9.655382497600002,2.5200177464,-10.64701237,27.58181098,-4.386134289999999,,,
imu,60.170609,-0.4803166984,-9.620091482400001,2.5259992744,-10.80402748,27.23787312,-4.30388828,,,
imu,60.179098,-0.472540712,-9.547714993600001,2.531980802400001,-10.95356568,26.91636599,-4.22911918,,,
imu,60.187587,-0.4551942808000001,-9.4412437952,2.5313826496,-10.8937504,26.60233577,-4.244073,,,
imu,60.196076,-0.4665591840000001,-9.376045140000002,2.5726551928,-10.46756653,26.35559774,-4.33379592,,,
imu,60.204565,-0.4330626272,-9.3413522776,2.5911979296,-9.86941373,26.08642898,-4.430995749999999,,,
imu,60.213054,-0.3899956256000001,-9.2935000536,2.5756459568,-9.36846076,25.81726022,-4.43847266,,,
imu,60.221543,-0.3236006648,-9.281536997600002,2.6127314304,-8.44132392,25.36864562,-4.51324176,,,
imu,60.230032,-0.2895059552,-9.276751775200001,2.64682614,-7.514187079999999,24.72563136,-4.715118329999999,,,
imu,60.238521,-0.3241988176,-9.318024318400001,2.6934820584,-6.60200406,23.91064817,-4.85717962,,,
imu,60.24701,-0.3523119992,-9.360493167200001,2.7048469616,-5.622528849999999,23.30501846,-4.954379449999999,,,
imu,60.255499,-0.370854736,-9.406550932800002,2.70664142,-4.92717622,22.69938875,-5.477763149999999,,,
imu,60.263988,-0.4151180432000001,-9.450216087200001,2.7341564488,-4.30659269,22.41526617,-5.85908556,,,
imu,60.272477,-0.4551942808000001,-9.488497866400001,2.7443250464,-3.85050118,22.17600505,-6.135731229999999,,,
imu,60.280966,-0.472540712,-9.502853533600002,2.745521352,-3.70096298,21.93674393,-6.659114929999999,,,
imu,60.289455,-0.4773259344000001,-9.523190728800001,2.7748308392,-3.55142478,22.07880522,-6.793699309999999,,,
imu,60.297944,-0.5197947832,-9.553098368800002,2.78141052,-3.28973293,22.22834342,-6.67406875,,,
imu,60.306433,-0.5168040192000001,-9.564463272000001,2.7670548528,-3.31964057,22.2881587,-6.509576729999999,,,
imu,60.314922,-0.4892889904,-9.5656595776,2.754493644000001,-3.29720984,22.5872351,-6.352561619999999,,,
imu,60.323411,-0.43366078,-9.5501076048,2.78141052,-3.28225602,22.7367733,-5.99366994,,,
imu,60.3319,-0.3367600264,-9.513620284000002,2.793373576,-3.37197894,22.45265072,-5.74693191,,,
imu,60.340389,-0.260196468,-9.516012895200001,2.825075674400001,-3.28973293,21.74982118,-5.68711663,,,
imu,60.348878,-0.167482784,-9.532163020800002,2.8394313416,-2.9682258,20.93483799,-5.58243989,,,
imu,60.357367,-0.116639796,-9.571042952800001,2.8406276472,-2.72896468,19.63385565,-5.739455,,,
imu,60.365855,-0.1010878232,-9.599156134400001,2.8555814672,-2.73644159,18.30296567,-5.76936264,,,
imu,60.374344,-0.1034804344,-9.596165370400001,2.8573759256,-2.91588743,16.64309165,-5.82170101,,,
imu,60.382939,-0.07775986400000001,-9.5776226336,2.8543851616,-3.07290254,15.15518656,-5.69459354,,,
imu,60.391428,-0.1010878232,-9.550705757600001,2.864553759200001,-3.18505619,13.54765091,-5.545055339999999,,,
imu,60.399917,-0.1489400472,-9.517807353600002,2.895059552,-3.22244074,12.06722273,-5.305794219999999,,,
imu,60.408406,-0.1626975616,-9.5040498392,2.895657704800001,-3.28973293,10.84100949,-4.93942563,,,
imu,60.416894,-0.2171294664,-9.505246144800001,2.9153967472,-3.11028709,9.74938063,-4.37865738,,,
imu,60.425383,-0.2500278704,-9.516012895200001,2.9393228592,-3.028041079999999,8.77738233,-3.82536604,,,
imu,60.433872,-0.2745521352,-9.5172092008,2.9297524144,-2.80373378,7.910060769999999,-3.36179762,,,
imu,60.442361,-0.2637853848,-9.5082369088,2.9213782752,-2.81121069,7.1100314,-3.18982869,,,
imu,60.450849,-0.2207183832,-9.506442450400002,2.9273598032,-2.57942648,6.2875713,-3.07767504,,,
imu,60.459338,-0.1842310624,-9.4962738528,2.913004136000001,-2.60933412,5.18098862,-3.2720747,,,
imu,60.467827,-0.1124527264,-9.499862769600002,2.9046299968,-2.5196112,4.08188285,-3.39918217,,,
imu,60.476316,-0.06998387760000001,-9.4980683112,2.88608726,-2.19810407,2.64631613,-3.73564312,,,
imu,60.484804,-0.0741709472,-9.4962738528,2.865151912,-1.94388913,1.21074941,-4.28145755,,,
imu,60.493293,-0.1393696024,-9.499862769600002,2.8615629952,-1.63733582,-0.20986349,-4.77493361,,,
imu,60.501782,-0.2105497856,-9.493283088800002,2.8765168152,-1.53265908,-1.39121527,-5.02914855,,,
imu,60.510271,-0.2823281216,-9.4908904776,2.8878817184,-1.36816706,-2.09404481,-5.08896383,,,
imu,60.51876,-0.3475267768,-9.4633754488,2.8962558576,-1.2485365,-2.51275177,-5.08896383,,,
imu,60.527248,-0.4372496968000001,-9.423897364000002,2.9004429272,-1.12890594,-2.60247469,-5.03662546,,,
imu,60.535737,-0.5000557408,-9.4041583216,2.9058263024,-0.97189083,-2.29592138,-4.94690254,,,
imu,60.544226,-0.5251781584,-9.401167557600001,2.910611524800001,-0.83730645,-1.95198352,-4.7674567,,,
imu,60.552715,-0.5317578392000001,-9.402962016000002,2.9213782752,-0.40364567,-1.39869218,-4.61044159,,,
imu,60.561203,-0.5413282840000001,-9.377839598400001,2.9273598032,-0.04475399000000001,-0.7781086500000001,-4.67773378,,,
imu,60.569692,-0.5395338256000001,-9.363483931200001,2.9405191648,0.43376825,-0.3220171400000003,-4.759979789999999,,,
imu,60.578091,-0.5670488544000001,-9.368269153600002,2.972819416000001,1.01696723,0.04435144999999974,-4.991764,,,
imu,60.58649,-0.5742266880000001,-9.3927934184,2.991960305600001,1.60764312,0.4331507699999997,-5.09644074,,,
imu,60.594888,-0.5784137576,-9.419710294400002,2.9901658472,2.09364227,0.9341037399999998,-5.16373293,,,
imu,60.603287,-0.5766192992000001,-9.440645642400002,2.9776046384,2.54973378,1.3528107,-5.13382529,,,
imu,60.611686,-0.5754229936,-9.4316733504,2.975810180000001,3.00582529,1.81637912,-4.999240909999999,,,
imu,60.620084,-0.565254396,-9.423299211200002,2.9865769304,3.03573293,2.21265535,-4.954379449999999,,,
imu,60.628483,-0.5544876456000001,-9.4346641144,3.0099048896,3.43948607,2.74351596,-4.72259524,,,
imu,60.636882,-0.5449172008000001,-9.459786532,3.0122975008,3.7609932,3.01268472,-4.59548777,,,
imu,60.64528,-0.5389356728,-9.474142199200001,2.9955492224,3.95539286,3.09493073,-4.58801086,,,
imu,60.653679,-0.5341504504000001,-9.489694172,3.0063159728,4.06754651,3.17717674,-4.670256869999999,,,
imu,60.662078,-0.5162058664000001,-9.486703408,3.011699348,4.00025432,3.22951511,-4.67773378,,,
imu,60.670476,-0.4988594352000001,-9.5172092008,3.001530750400001,3.94043904,3.25194584,-4.5431494,,,
imu,60.678875,-0.4982612824000001,-9.523190728800001,2.9883713888,3.96286977,3.27437657,-4.55062631,,,
imu,60.687274,-0.4773259344000001,-9.543527924000001,2.9859787776,4.02268505,3.21456129,-4.58801086,,,
imu,60.695673,-0.4683536424000001,-9.541733465600002,2.972819416000001,3.74603938,3.01268472,-4.67773378,,,
imu,60.704071,-0.4617739616000001,-9.5423316184,2.9716231104,3.82828539,2.90800798,-4.602964679999999,,,
imu,60.71247,-0.4617739616000001,-9.5501076048,2.9722212632,3.70865483,2.66126995,-4.647826139999999,,,
imu,60.720869,-0.472540712,-9.536350090400001,2.942911776,3.45443989,2.33228591,-4.84970271,,,
imu,60.729267,-0.4964668240000001,-9.5184055064,2.9291542616,3.3123786,2.0257326,-4.92447181,,,
imu,60.737666,-0.4988594352000001,-9.5118258256,2.933939484000001,3.24508641,1.88367131,-4.78988743,,,
imu,60.746065,-0.4982612824000001,-9.5040498392,2.9171912056,3.20770186,1.85376367,-4.70764142,,,
imu,60.754463,-0.5048409632,-9.48072188,2.8938632464,3.25256332,1.63693328,-4.670256869999999,,,
imu,60.762862,-0.5150095608,-9.456795768000001,2.8962558576,3.26751714,1.55468727,-4.74502597,,,
imu,60.771261,-0.5425245896,-9.453206851200001,2.8944613992,3.14788658,1.30047233,-4.87213344,,,
imu,60.779726,-0.5293652280000001,-9.484908949600001,2.899246621600001,3.35724006,1.36028761,-5.09644074,,,
imu,60.78819,-0.5419264368000001,-9.549509452,2.889676176800001,3.43948607,1.39019525,-5.216071299999999,,,
imu,60.796655,-0.5604691736,-9.577024480800002,2.8819001904,3.43948607,1.34533379,-5.34317877,,,
imu,60.80512,-0.5861897440000001,-9.596763523200002,2.8944613992,3.282470959999999,1.52477963,-5.15625602,,,
imu,60.813585,-0.5981528,-9.582407856000001,2.889078024,2.99087147,1.62197946,-4.9169949,,,
imu,60.82205,-0.5796100632000001,-9.558481744000002,2.8807038848,3.10302512,1.9509635,-4.65530305,,,
imu,60.830514,-0.5784137576,-9.553696521600001,2.8573759256,3.24508641,2.26499372,-4.56558013,,,
imu,60.838979,-0.565254396,-9.554892827200002,2.8495999392,3.33480933,2.31733209,-4.87961035,,,
imu,60.847444,-0.5760211464000001,-9.557285438400001,2.822084910400001,3.39462461,2.46687029,-5.24597894,,,
imu,60.855909,-0.565254396,-9.5566872856,2.8226830632,3.26751714,2.42948574,-5.634778259999999,,,
imu,60.864374,-0.5604691736,-9.554892827200002,2.8190941464,3.15536349,2.43696265,-5.851608649999999,,,
imu,60.872839,-0.565254396,-9.551902063200002,2.8119163128,3.17779422,2.57154703,-5.94133157,,,
imu,60.881303,-0.5784137576,-9.585398620000001,2.8137107712,3.15536349,2.54163939,-6.08339286,,,
imu,60.889768,-0.5784137576,-9.588389384000001,2.81131816,3.00582529,2.56407012,-6.247884879999999,,,
imu,60.898233,-0.6149010784000001,-9.594370912,2.7975606456,2.81142563,2.81080815,-6.1880696,,,
imu,60.906698,-0.6304530512000001,-9.588987536800001,2.790382812,2.58711833,3.10240764,-6.14320814,,,
imu,60.915163,-0.6388271904000001,-9.566257730400002,2.78141052,2.45253395,3.3715764,-6.053485220000001,,,
imu,59.505509,,,,,,,100.8436684,-38.87385880000001,135.1642368
imu,59.607072,,,,,,,104.8842516,-39.008138,137.7643704
imu,59.708634,,,,,,,109.5718164,-40.08237160000001,137.2150464
imu,59.810197,,,,,,,108.0581236,-39.65511960000001,138.655496
imu,59.911759,,,,,,,110.9634372,-40.74156040000001,136.275092
imu,60.013322,,,,,,,107.5576284,-40.30210120000002,139.4733784
imu,60.114915,,,,,,,105.7265484,-39.74057000000002,135.7379752
imu,60.216447,,,,,,,101.3197492,-38.50764280000001,136.0065336
imu,60.923627,-0.62806044,-9.544126076800001,2.78141052,2.22074974,3.5958837,-6.113300499999999,,,
imu,60.932092,-0.6274622872000001,-9.547116840800001,2.7927754232,2.23570356,3.94729847,-6.053485220000001,,,
imu,60.940557,-0.6394253432000001,-9.588987536800001,2.784401284,2.05625772,4.17908268,-6.19554651,,,
imu,60.949022,-0.6322475096000001,-9.589585689600002,2.7706437696,1.90671952,4.15665195,-6.38994617,,,
imu,60.957487,-0.6495939408000001,-9.573435564,2.7778216032,1.69736604,4.14169813,-6.73388403,,,
imu,60.965951,-0.6603606912000002,-9.565061424800001,2.7730363808,1.78708896,4.05945212,-6.77874549,,,
imu,60.974416,-0.6783052752000002,-9.572239258400002,2.7790179088,1.80204278,3.93982156,-6.87594532,,,
imu,60.983257,-0.6663422192,-9.597361676,2.793373576,1.51044329,3.76037572,-6.84603768,,,
imu,60.992098,-0.6519865520000001,-9.6218859408,2.773634533600001,1.43567419,3.8949601,-6.689022570000001,,,
imu,61.000939,-0.6567717744000001,-9.605735815200001,2.743726893600001,1.33847436,3.85757555,-6.315177069999999,,,
imu,61.00978,-0.6519865520000001,-9.575828175200002,2.7580825608,0.9197674,3.49120696,-5.99366994,,,
imu,61.01862,-0.6609588440000002,-9.557883591200001,2.7526991856,0.9571519499999999,3.28933039,-5.60487062,,,
imu,61.027461,-0.6651459136000001,-9.560874355200001,2.743726893600001,1.19641307,3.16222292,-5.17868675,,,
imu,61.036302,-0.6878757200000001,-9.559678049600002,2.7341564488,1.16650543,2.9977309,-4.75250288,,,
imu,61.045143,-0.7016332344,-9.5429297712,2.7287730736,1.368382,2.9229618,-4.19921154,,,
imu,61.053984,-0.6932590952000001,-9.520199964800002,2.75150288,1.48053565,2.71360832,-3.95995042,,,
imu,61.062824,-0.7016332344,-9.5423316184,2.773634533600001,1.58521239,2.58650085,-3.74312003,,,
imu,61.071665,-0.7159889016000002,-9.550705757600001,2.7377453656,1.75718132,2.55659321,-3.55619728,,,
imu,61.080506,-0.7291482632,-9.530966715200002,2.743726893600001,1.75718132,2.63136231,-3.38422835,,,
imu,61.089347,-0.7476910000000001,-9.5219944232,2.7586807136,1.68988913,2.81828506,-3.1973056,,,
imu,61.098188,-0.741709472,-9.540537160000001,2.761671477600001,1.79456587,3.24446893,-2.59167589,,,
imu,61.107028,-0.7285501104000001,-9.566257730400002,2.754493644000001,1.8169966,3.55849915,-2.18044584,,,
imu,61.115869,-0.7171852072000001,-9.572837411200002,2.7449231992,1.78708896,3.79028336,-2.16549202,,,
imu,61.12471,-0.7094092208000001,-9.5590798968,2.7443250464,1.71979677,3.84262173,-2.28512258,,,
imu,61.133551,-0.7094092208000001,-9.548313146400002,2.7449231992,1.65998149,4.06692903,-2.44213769,,,
imu,61.142392,-0.7010350816000002,-9.553098368800002,2.742530588,1.60016621,4.25385178,-2.58419898,,,
imu,61.151232,-0.6866794144,-9.5812115504,2.7239878512,1.51044329,4.4183438,-2.80850628,,,
imu,61.160073,-0.6729219000000001,-9.596165370400001,2.7299693792,1.45062801,4.62769728,-3.08515195,,,
imu,61.168914,-0.6597625384000001,-9.603343204000002,2.7281749208,1.09173633,4.72489711,-3.4216129,,,
imu,61.177755,-0.6609588440000002,-9.592576453600001,2.7347546016,0.91229049,4.74732784,-3.54124346,,,
imu,61.186207,-0.6400234960000001,-9.575828175200002,2.7467176576,0.66555246,4.84452767,-3.63096638,,,
imu,61.194659,-0.6304530512000001,-9.578220786400001,2.7586807136,0.58330645,4.96415823,-3.66835093,,,
imu,61.203111,-0.6196863008000001,-9.572239258400002,2.7497084216,0.35899915,5.023973509999999,-3.56367419,,,
imu,61.211563,-0.6023398696000001,-9.560874355200001,2.7550917968,0.29918387,5.08378879,-3.53376655,,,
imu,61.220015,-0.5981528,-9.572239258400002,2.7676530056,0.19450713,5.023973509999999,-3.60853565,,,
imu,61.228468,-0.6023398696000001,-9.578220786400001,2.779616061600001,-0.02980017,4.979112049999999,-3.45152054,,,
imu,61.23692,-0.5933675776,-9.566257730400002,2.7778216032,0.03749201999999999,5.03145042,-3.13001341,,,
imu,61.245372,-0.5837971328000001,-9.580613397600002,2.7802142144,-0.05970781,4.92677368,-3.07019813,,,
imu,61.253824,-0.5826008272000001,-9.581809703200001,2.7951680344,0.03749201999999999,5.17351171,-2.95804448,,,
imu,61.262276,-0.5820026744000001,-9.6051376624,2.7981587984,0.04496892999999999,5.30061918,-2.95804448,,,
imu,61.270728,-0.5885823552,-9.6075302736,2.804140326400001,0.14216876,5.34548064,-2.90570611,,,
imu,61.27918,-0.5790119104,-9.591380148,2.812514465600001,-0.02232326000000001,5.27071154,-3.01038285,,,
imu,61.287632,-0.5718340768000001,-9.553696521600001,2.808327396000001,-0.08213854000000001,5.136127159999999,-3.18235178,,,
imu,61.296084,-0.5873860496000001,-9.520199964800002,2.8256738272,-0.09709236,4.89686604,-3.58610492,,,
imu,61.304536,-0.6178918424000002,-9.533957479200001,2.843020258400001,0.03001510999999998,4.91181986,-3.77302767,,,
imu,61.312988,-0.6346401208000001,-9.564463272000001,2.835244272,0.25432241,4.94920441,-3.8702275,,,
imu,61.321441,-0.6334438152,-9.573435564,2.8484036336,0.11973803,5.07631188,-3.9449966,,,
imu,61.329893,-0.6322475096000001,-9.580613397600002,2.8484036336,0.17955331,5.27071154,-4.04219643,,,
imu,61.338345,-0.6232752176,-9.559678049600002,2.8495999392,0.16459949,5.48006502,-3.81788913,,,
imu,61.346797,-0.6226770648,-9.557285438400001,2.8765168152,0.03001510999999998,5.49501884,-3.65339711,,,
imu,61.355249,-0.6226770648,-9.582407856000001,2.8944613992,0.0001074699999999984,5.66698777,-3.496382,,,
imu,61.363701,-0.6101158560000001,-9.5949690648,2.88608726,0.04496892999999999,5.8389567,-3.27955161,,,
imu,61.372153,-0.5945638832000001,-9.558481744000002,2.8687408288,-0.05970781,6.01840254,-3.22721324,,,
imu,61.380605,-0.5598710208000001,-9.509433214400001,2.866348217600001,-0.03727708,5.92867962,-3.1225365,,,
imu,61.389075,-0.5245800056000001,-9.481320032800001,2.864553759200001,-0.04475399000000001,5.6894185,-2.78607555,,,
imu,61.397545,-0.5006538936,-9.458590226400002,2.8555814672,0.20198404,5.42772665,-2.86832156,,,
imu,61.406015,-0.4898871432,-9.443038253600001,2.859170384,0.30666078,5.19594244,-2.88327538,,,
imu,61.414485,-0.4851019208000001,-9.4382530312,2.843020258400001,0.55339881,4.96415823,-2.76364482,,,
imu,61.422955,-0.4851019208000001,-9.422102905600001,2.8555814672,0.7702292,4.74732784,-2.46456842,,,
imu,61.431425,-0.481513004,-9.446627170400001,2.864553759200001,0.97958268,4.59778964,-2.2253073,,,
imu,61.439895,-0.4599795032,-9.486105255200002,2.8765168152,1.4431511,4.29871324,-1.97109236,,,
imu,61.448364,-0.4623721144,-9.4974701584,2.859768536800001,1.52539711,4.06692903,-1.90380017,,,
imu,61.456834,-0.4504090584,-9.489694172,2.8579740784,1.6674584,3.94729847,-1.74678506,,,
imu,61.465304,-0.4282774048000001,-9.4735440464,2.870535287200001,1.87681188,3.91739083,-1.44023175,,,
imu,61.473714,-0.4121272792,-9.479525574400002,2.8753205096,2.13850373,3.70803735,-1.21592445,,,
imu,61.482184,-0.3899956256000001,-9.516012895200001,2.8615629952,2.43758013,3.31176112,-1.31312428,,,
imu,61.490654,-0.3953790008,-9.533359326400001,2.8466091752,2.84133327,2.84071579,-1.74678506,,,
imu,61.499124,-0.4193051128000001,-9.526181492800001,2.835244272,3.02825602,2.48182411,-1.90380017,,,
imu,61.507594,-0.4133235848,-9.5249851872,2.835244272,2.99087147,1.9509635,-2.001,,,
imu,61.516064,-0.4330626272,-9.533957479200001,2.835244272,3.11797894,1.80890221,-2.06081528,,,
imu,61.524534,-0.4474182944000001,-9.551902063200002,2.8280664384,3.18527113,1.56964109,-1.99352309,,,
imu,61.533004,-0.4857000736000001,-9.574631869600001,2.8149070768,3.26751714,1.45001053,-1.94118472,,,
imu,61.541473,-0.4910834488,-9.587193078400002,2.817299688,2.92357928,1.33785688,-1.94118472,,,
imu,61.549943,-0.4862982264000001,-9.613511801600001,2.815505229600001,2.62450288,1.47991817,-1.58229304,,,
imu,61.558413,-0.481513004,-9.611119190400002,2.8095237016,2.2656112,1.61450255,-1.51500085,,,
imu,61.566883,-0.481513004,-9.596165370400001,2.808327396000001,2.02635008,1.5023489,-1.58976995,,,
imu,61.575353,-0.5012520464000001,-9.585996772800002,2.808327396000001,1.5926893,1.53225654,-1.72435433,,,
imu,61.583823,-0.5209910888,-9.569248494400002,2.798756951200001,1.49548947,1.69674856,-1.83650798,,,
imu,61.59229,-0.5197947832,-9.554294674400001,2.7981587984,1.368382,1.85376367,-2.0757691,,,
imu,61.600758,-0.5293652280000001,-9.547714993600001,2.794569881600001,1.51044329,2.19770153,-2.12063056,,,
imu,61.609225,-0.5401319784,-9.5393408544,2.798756951200001,1.32352054,2.50425484,-2.13558438,,,
imu,61.617692,-0.5281689224000001,-9.549509452,2.792177270400001,1.38333582,2.93043871,-2.12810747,,,
imu,61.62616,-0.5168040192000001,-9.550705757600001,2.7861957424,1.63755076,3.39400713,-2.02343073,,,
imu,61.634627,-0.5108224912,-9.5566872856,2.7766252976,1.72727368,3.5958837,-2.08324601,,,
imu,61.643094,-0.472540712,-9.551303910400001,2.783204978400001,1.78708896,3.82766791,-2.10567674,,,
imu,61.651562,-0.4366515440000001,-9.562668813600002,2.793373576,1.86933497,3.85757555,-2.01595382,,,
imu,61.660029,-0.4193051128000001,-9.596763523200002,2.784999436800001,1.93662716,3.9697292,-2.19539966,,,
imu,61.668497,-0.3911919312,-9.61530626,2.789186506400001,1.87681188,3.8949601,-2.12063056,,,
imu,61.676964,-0.376836264,-9.611119190400002,2.7766252976,1.62259694,3.71551426,-2.17296893,,,
imu,61.685431,-0.3576953744,-9.596165370400001,2.7718400752,1.60764312,3.40148404,-2.16549202,,,
imu,61.693899,-0.352910152,-9.560874355200001,2.7682511584,1.49548947,3.19960747,-2.1505382,,,
imu,61.702366,-0.3427415544,-9.545322382400002,2.784401284,1.42072037,3.06502309,-2.32998404,,,
imu,61.710833,-0.3612842912,-9.575828175200002,2.7855975896,1.42819728,2.78090051,-2.49447606,,,
imu,61.719301,-0.3331711096,-9.587193078400002,2.7670548528,1.41324346,2.27247063,-2.77859864,,,
imu,61.727768,-0.3361618736,-9.560874355200001,2.7646622416,1.41324346,1.98834805,-2.73373718,,,
imu,61.736235,-0.35889168,-9.547116840800001,2.783204978400001,1.33099745,1.81637912,-2.49447606,,,
imu,60.31804,,,,,,,100.1356508,-38.05597640000003,135.908876
imu,60.419572,,,,,,,98.97596680000001,-37.76300360000002,134.9323
imu,60.521134,,,,,,,99.56191240000001,-37.55548120000001,134.4195976
imu,60.622727,,,,,,,99.20790360000001,-37.66534600000002,134.9689216
imu,60.72429,,,,,,,101.7836228,-38.39777800000002,134.01676
imu,60.825852,,,,,,,98.8416876,-37.79962520000002,135.2130656
imu,60.927415,,,,,,,101.3441636,-38.84944440000002,132.8326616
imu,61.028947,,,,,,,98.74403000000001,-38.16584120000002,134.7858136
imu,61.744703,-0.352910152,-9.5381445488,2.7760271448,1.37585891,1.6518871,-2.27764567,,,
imu,61.75317,-0.3559009160000001,-9.544126076800001,2.7568862552,1.41324346,1.47991817,-2.29259949,,,
imu,61.761637,-0.3726491944000001,-9.530966715200002,2.757484408000001,1.5179202,1.43505671,-2.1505382,,,
imu,61.770105,-0.3672658192000001,-9.522592576000001,2.7562881024,1.63007385,1.33037997,-2.23278421,,,
imu,61.778572,-0.3846122504,-9.527975951200002,2.748512116,1.79456587,1.25561087,-2.14306129,,,
imu,61.78704,-0.3911919312,-9.5393408544,2.75150288,2.01139626,1.28551851,-2.12063056,,,
imu,61.795832,-0.4001642232,-9.5429297712,2.742530588,2.116073,1.18831868,-2.24773803,,,
imu,61.804625,-0.3971734592000001,-9.552500216,2.7377453656,2.1908421,1.2780416,-2.30755331,,,
imu,61.813418,-0.3953790008,-9.548313146400002,2.7401379768,2.14598064,1.51730272,-2.23278421,,,
imu,61.822211,-0.3911919312,-9.551902063200002,2.7377453656,2.19831901,1.62197946,-2.17296893,,,
imu,61.831004,-0.3756399584,-9.555490980000002,2.731165684800001,2.07121154,1.68179474,-2.35989168,,,
imu,61.839797,-0.352910152,-9.5590798968,2.726978615200001,2.04878081,1.86124058,-2.29259949,,,
imu,61.84859,-0.3445360128,-9.580613397600002,2.713221100800001,1.85438115,1.86124058,-2.35241477,,,
imu,61.857383,-0.3295821928000001,-9.595567217600001,2.7180063232,1.8917657,1.92853277,-2.38232241,,,
imu,61.866175,-0.3212080536,-9.611119190400002,2.7209970872,1.80204278,1.86871749,-2.34493786,,,
imu,61.874968,-0.3224043592,-9.620091482400001,2.7144174064,1.74970441,2.01825569,-2.32250713,,,
imu,61.883761,-0.31403022,-9.614708107200002,2.717408170400001,1.69736604,2.04816333,-2.05333837,,,
imu,61.892554,-0.290104108,-9.6218859408,2.7359509072,1.47305874,2.06311715,-2.02343073,,,
imu,61.901347,-0.2709632184,-9.631456385600002,2.7281749208,1.2188438,2.13788625,-2.06081528,,,
imu,61.91014,-0.251224176,-9.620689635200002,2.7168100176,1.03192105,2.1005017,-2.12810747,,,
imu,61.918933,-0.2560093984,-9.6039413568,2.724586004,0.91229049,1.92853277,-2.27016876,,,
imu,61.927726,-0.2500278704,-9.593772759200002,2.7221933928,0.74779847,1.80890221,-2.55429134,,,
imu,61.936518,-0.2679724544000001,-9.602745051200001,2.730567532,0.7253677399999999,1.70422547,-2.71130645,,,
imu,61.945311,-0.2590001624000001,-9.6009505928,2.7263804624,0.67302937,1.55468727,-2.71130645,,,
imu,61.954104,-0.2655798432,-9.5740337168,2.7221933928,0.35899915,1.49487199,-2.78607555,,,
imu,61.962897,-0.2757484408,-9.524387034400002,2.709632184,0.36647606,1.52477963,-2.74121409,,,
imu,61.97169,-0.2781410520000001,-9.4962738528,2.7203989344,0.51601426,1.45001053,-2.89075229,,,
imu,61.980483,-0.2948893304,-9.506442450400002,2.7323619904,0.53096808,1.41262598,-3.11505959,,,
imu,61.989276,-0.2793373576,-9.547116840800001,2.729371226400001,0.5982602699999999,1.3528107,-3.23469015,,,
imu,61.998069,-0.2829262744000001,-9.5907819952,2.729371226400001,0.79265993,1.4275798,-3.24964397,,,
imu,62.006533,-0.3008708584000001,-9.5985579816,2.730567532,0.7552753799999999,1.30047233,-3.57862801,,,
imu,62.014997,-0.2966837888,-9.583604161600002,2.743726893600001,0.41881443,1.13598031,-3.95995042,,,
imu,62.023461,-0.3026653168,-9.5632669664,2.7556899496,0.31413769,1.10607267,-3.8702275,,,
imu,62.031925,-0.2942911776,-9.5638651192,2.7610733248,0.23189168,1.03878048,-3.86275059,,,
imu,62.040388,-0.2984782472,-9.573435564,2.7526991856,0.13469185,0.86681155,-4.11696553,,,
imu,62.048852,-0.3044597752,-9.5842023144,2.7664567,0.28423005,0.5976427899999996,-4.21416536,,,
imu,62.057316,-0.3259932760000001,-9.572239258400002,2.7652603944,0.44872207,0.4256738599999998,-4.363703559999999,,,
imu,62.06578,-0.331974804,-9.540537160000001,2.745521352,0.34404533,0.1265974599999997,-4.66277996,,,
imu,62.074244,-0.3642750552,-9.4980683112,2.769447464,0.65059864,-0.03041764999999996,-4.57305704,,,
imu,62.082708,-0.3929863896,-9.513620284000002,2.7975606456,0.63564482,-0.1650020300000001,-4.52071867,,,
imu,62.091172,-0.4258847936,-9.562668813600002,2.796962492800001,0.8524752099999999,-0.2921095,-4.35622665,,,
imu,62.099636,-0.4252866408000001,-9.5985579816,2.7927754232,0.9945364999999999,-0.2995864100000003,-4.19921154,,,
imu,62.1081,-0.4504090584,-9.6224840936,2.8047384792,1.05435178,-0.2023865800000002,-3.84779677,,,
imu,62.116564,-0.4785222400000001,-9.614708107200002,2.8077292432,0.9272443100000001,0.02192071999999978,-3.38422835,,,
imu,62.125028,-0.4659610312,-9.609922884800001,2.81131816,0.620691,0.2312741999999997,-3.17487487,,,
imu,62.133492,-0.4773259344000001,-9.606932120800002,2.808327396000001,0.53844499,0.4331507699999997,-3.05524431,,,
imu,62.141956,-0.4857000736000001,-9.574631869600001,2.8005514096,0.34404533,0.72475026,-3.02533667,,,
imu,62.15042,-0.4647647256,-9.5423316184,2.8029440208,0.28423005,0.92662683,-3.30945925,,,
imu,62.158884,-0.4767277816000001,-9.5154147424,2.8089255488,0.41133752,1.09859576,-3.52628964,,,
imu,62.167348,-0.4821111568000001,-9.485507102400002,2.7975606456,0.52349117,1.26308778,-3.73564312,,,
imu,62.175812,-0.4821111568000001,-9.478329268800001,2.790382812,0.57582954,1.41262598,-3.7206893,,,
imu,62.184276,-0.4719425592000001,-9.4938812416,2.808327396000001,0.7104139199999999,1.68927165,-3.496382,,,
imu,62.19274,-0.4593813504000001,-9.503451686400002,2.799355104,0.8674290299999999,2.01077878,-3.45899745,,,
imu,62.201227,-0.424688488,-9.502255380800001,2.8065329376,0.77770611,2.29490136,-3.18235178,,,
imu,62.209713,-0.391790084,-9.486703408,2.817299688,0.80013684,2.43696265,-2.8234601,,,
imu,62.218199,-0.3559009160000001,-9.459786532,2.8137107712,0.77770611,2.35471664,-2.65896808,,,
imu,62.226686,-0.3164228312,-9.455001309600002,2.8095237016,1.02444414,2.25751681,-2.57672207,,,
imu,62.235172,-0.2954874832,-9.485507102400002,2.822084910400001,1.2936129,2.13040934,-2.56924516,,,
imu,62.243659,-0.2787392048,-9.510031367200002,2.817299688,1.49548947,1.95844041,-2.60662971,,,
imu,62.252145,-0.2703650656,-9.526181492800001,2.8095237016,1.6674584,1.85376367,-2.50195297,,,
imu,62.260632,-0.2978800944000001,-9.530966715200002,2.817897840800001,1.56278166,1.52477963,-2.59167589,,,
imu,62.269118,-0.2936930248,-9.5429297712,2.819692299200001,1.57025857,1.45748744,-2.54681443,,,
imu,62.277604,-0.2954874832,-9.555490980000002,2.8035421736,1.76465823,1.49487199,-2.61410662,,,
imu,62.286091,-0.2907022608000001,-9.564463272000001,2.7999532568,1.83942733,1.34533379,-2.70382954,,,
imu,62.294577,-0.3080486920000001,-9.561472508000001,2.779616061600001,1.93662716,1.49487199,-2.71878336,,,
imu,62.303064,-0.3008708584000001,-9.577024480800002,2.7760271448,1.94410407,1.71170238,-2.72626027,,,
imu,62.31155,-0.2883096496000001,-9.566257730400002,2.771241922400001,1.86185806,1.62197946,-2.8234601,,,
imu,62.320037,-0.2757484408,-9.565061424800001,2.784999436800001,1.86933497,1.69674856,-2.78607555,,,
imu,62.328523,-0.275150288,-9.576426328,2.7861957424,1.85438115,1.8014253,-2.92065993,,,
imu,62.33701,-0.2769447464000001,-9.582407856000001,2.7772234504,1.77213514,1.86871749,-2.9729983,,,
imu,62.345496,-0.2745521352,-9.576426328,2.7610733248,1.84690424,1.97339423,-2.91318302,,,
imu,62.353982,-0.2745521352,-9.562070660800002,2.7688493112,1.75718132,1.99582496,-3.05524431,,,
imu,62.362469,-0.2757484408,-9.555490980000002,2.7742326864,1.65250458,1.96591732,-3.27955161,,,
imu,62.370955,-0.2769447464000001,-9.551902063200002,2.7748308392,1.84690424,2.04816333,-3.4216129,,,
imu,62.379442,-0.2853188856,-9.540537160000001,2.7509047272,1.71979677,1.95844041,-3.68330475,,,
imu,62.387928,-0.290104108,-9.520798117600002,2.7688493112,1.68241222,1.86871749,-3.81788913,,,
imu,62.396415,-0.3146283728000001,-9.528574104,2.7628677832,1.88428879,1.92853277,-3.5711511,,,
imu,62.404869,-0.3164228312,-9.531564868,2.75150288,1.98896553,1.98087114,-3.46647436,,,
imu,62.413324,-0.2930948720000001,-9.532163020800002,2.7586807136,2.06373463,1.98087114,-3.36927453,,,
imu,62.421778,-0.2889078024000001,-9.535153784800002,2.7586807136,2.20579592,2.03320951,-3.40665908,,,
imu,62.430233,-0.266177996,-9.5154147424,2.754493644000001,2.33290339,1.90610204,-3.63096638,,,
imu,62.438688,-0.2733558296,-9.504647992000002,2.747913963200001,2.63197979,1.71917929,-3.83284295,,,
imu,62.447142,-0.2775428992,-9.5184055064,2.760475172,2.88619473,1.46496435,-3.99733497,,,
imu,62.455597,-0.2895059552,-9.530368562400001,2.748512116,3.03573293,1.23318014,-4.04219643,,,
imu,62.464052,-0.3080486920000001,-9.556089132800002,2.7449231992,3.11797894,1.09111885,-3.99733497,,,
imu,62.472506,-0.3206099008000001,-9.574631869600001,2.7180063232,3.17779422,1.04625739,-3.91508896,,,
imu,62.480961,-0.3277877344,-9.593772759200002,2.730567532,3.3123786,0.94905756,-3.81788913,,,
imu,62.489416,-0.3481249296000001,-9.612913648800001,2.7287730736,3.0880713,0.76213481,-3.71321239,,,
imu,62.49787,-0.3451341656,-9.620091482400001,2.72159524,2.91610237,0.6798887999999996,-3.66835093,,,
imu,62.506325,-0.34393786,-9.6296619272,2.712622948,2.75908726,0.7770886299999997,-3.51133582,,,
imu,62.514779,-0.3343674152,-9.635045302400002,2.7144174064,2.54973378,0.7770886299999997,-3.4216129,,,
imu,62.523234,-0.3391526376000001,-9.6494009696,2.7198007816,2.22074974,0.6051196999999999,-3.48890509,,,
imu,62.531689,-0.3236006648,-9.655382497600002,2.718604476,2.03382699,0.56025824,-3.36179762,,,
imu,62.540143,-0.3247969704000001,-9.6523917336,2.7054451144,1.98896553,0.6724118899999998,-3.11505959,,,
imu,62.548598,-0.3247969704000001,-9.6505972752,2.712622948,1.90671952,0.62007352,-3.04029049,,,
imu,62.557053,-0.3158246784000001,-9.630858232800001,2.7078377256,1.5179202,0.47801223,-2.9729983,,,
imu,61.130482,,,,,,,98.9027236,-39.008138,131.6119416
imu,61.232014,,,,,,,98.67078680000002,-38.47102120000001,134.7125704
imu,61.333607,,,,,,,98.3533996,-37.87286840000002,134.5538768
imu,61.435109,,,,,,,98.7196156,-37.56768840000002,134.8590568
imu,61.536702,,,,,,,98.49988599999999,-37.65313880000001,133.7848232
imu,61.638295,,,,,,,98.7074084,-38.16584120000002,133.8214448
imu,61.739796,,,,,,,98.51209320000001,-37.61651720000001,133.8214448
imu,61.841359,,,,,,,100.4652452,-37.95831880000002,133.0523912
imu,62.565463,-0.3325729568,-9.613511801600001,2.703650656000001,1.43567419,0.33595094,-3.04029049,,,
imu,62.573918,-0.3236006648,-9.630858232800001,2.713221100800001,1.36090509,0.4555814999999996,-2.92813684,,,
imu,62.582372,-0.3427415544,-9.641026830400001,2.7120247952,1.28613599,0.5453044199999999,-2.93561375,,,
imu,62.590827,-0.3295821928000001,-9.6523917336,2.703650656000001,1.09921324,0.5303505999999998,-2.88327538,,,
imu,62.599282,-0.3265914288,-9.620689635200002,2.6928839056,0.80013684,0.5303505999999998,-2.92065993,,,
imu,62.607766,-0.3295821928000001,-9.5632669664,2.6863042248,0.5459219,0.58268897,-2.83841392,,,
imu,62.61625,-0.3134320672,-9.51062952,2.668957793600001,0.5982602699999999,0.7995193599999997,-2.64401426,,,
imu,62.624733,-0.2936930248,-9.4843107968,2.6701540992,0.78518302,1.10607267,-2.55429134,,,
imu,62.633217,-0.2524204816,-9.4735440464,2.6581910432,0.8973366700000001,1.16588795,-2.5991528,,,
imu,62.641701,-0.2476352592,-9.493283088800002,2.6522095152,1.43567419,1.17336486,-2.71878336,,,
imu,62.650185,-0.2278962168,-9.507638756,2.6665651824,1.68988913,1.00139593,-2.8982292,,,
imu,62.658669,-0.2129423968,-9.5249851872,2.6563965848,1.8917657,0.8144731799999998,-3.17487487,,,
imu,62.667153,-0.2171294664,-9.536948243200001,2.6516113624,2.23570356,0.6724118899999998,-3.41413599,,,
imu,62.675637,-0.2117460912,-9.5632669664,2.6569947376,2.51234923,0.5976427899999996,-3.54124346,,,
imu,62.684121,-0.2296906752000001,-9.597959828800002,2.6605836544,2.57964142,0.3733354899999997,-3.71321239,,,
imu,62.692604,-0.2284943696,-9.6284656216,2.667761488,2.5646876,0.3284740299999998,-3.59358183,,,
imu,62.701088,-0.2165313136,-9.6458120528,2.6665651824,2.4899185,0.1265974599999997,-3.7954584,,,
imu,62.709572,-0.2231109944,-9.6709344704,2.6761356272,2.17588828,-0.1126636599999999,-4.02724261,,,
imu,62.718056,-0.2237091472,-9.673925234400002,2.6659670296,1.90671952,-0.2771556799999999,-4.146873169999999,,,
imu,62.72654,-0.2326814392,-9.645213900000002,2.670752252,1.70484295,-0.5164168,-4.32631901,,,
imu,62.735024,-0.2643835376,-9.602745051200001,2.67673378,1.54035093,-0.6136166300000001,-4.41604193,,,
imu,62.743508,-0.2918985664000001,-9.609324732000001,2.697669128,1.18893616,-0.9201699400000001,-4.49828794,,,
imu,62.751992,-0.3092449976000001,-9.6799067624,2.6934820584,0.9646288599999999,-0.8977392100000001,-4.453426479999999,,,
imu,62.760476,-0.3487230824000001,-9.754675862400001,2.6988654336,0.7104139199999999,-0.9874621299999999,-4.70016451,,,
imu,62.768959,-0.3469286240000001,-9.767237071200002,2.6851079192,0.29170696,-0.7108164600000002,-4.453426479999999,,,
imu,62.777443,-0.3636769024000001,-9.710412555200001,2.685706072000001,-0.30644584,-0.4416477000000003,-4.18425772,,,
imu,62.785927,-0.34393786,-9.672130776000001,2.7090340312,-0.66533752,-0.15004821,-3.89265823,,,
imu,62.794411,-0.3331711096,-9.640428677600001,2.697669128,-0.94198319,0.06678217999999969,-3.78050458,,,
imu,62.802895,-0.3206099008000001,-9.646410205600002,2.6928839056,-1.18872122,0.08173599999999981,-3.96742733,,,
imu,62.811664,-0.3074505392,-9.623680399200001,2.667163335200001,-1.20367504,0.21632038,-4.079580979999999,,,
imu,62.820432,-0.3098431504,-9.577024480800002,2.6845097664,-1.49527453,0.0368745399999999,-4.33379592,,,
imu,62.829201,-0.3128339144,-9.5237888816,2.6892949888,-1.45041307,-0.04537147000000008,-4.67773378,,,
imu,62.83797,-0.3367600264,-9.4962738528,2.6916876,-1.1737674,-0.007986920000000008,-4.90204108,,,
imu,62.846739,-0.3475267768,-9.505844297600001,2.7108284896,-0.92702937,0.05182836000000002,-4.976810179999999,,,
imu,62.855507,-0.3648732080000001,-9.535153784800002,2.7102303368,-1.05413684,0.1490281899999997,-5.25345585,,,
imu,62.864276,-0.3774344168000001,-9.526181492800001,2.7048469616,-1.03918302,0.21632038,-5.10391765,,,
imu,62.873045,-0.3636769024000001,-9.528574104,2.7198007816,-0.9793677399999999,0.58268897,-4.68521069,,,
imu,62.881813,-0.3541064576,-9.51062952,2.7048469616,-0.97189083,0.7920424499999998,-4.52819558,,,
imu,62.890582,-0.3397507904000001,-9.474740352000001,2.706043267200001,-0.9943215599999999,0.8817653699999997,-4.53567249,,,
imu,62.899351,-0.3289840400000001,-9.4454308648,2.699463586400001,-0.61299915,0.8518577299999999,-4.49081103,,,
imu,62.90812,-0.3146283728000001,-9.444832712,2.6958746696,-0.22419983,0.78456554,-4.61044159,,,
imu,62.916888,-0.3068523864000001,-9.477132963200003,2.7078377256,0.19450713,0.6275504299999999,-4.74502597,,,
imu,62.925657,-0.2966837888,-9.492086783200001,2.701856197600001,0.6281679099999999,0.5153967799999997,-4.79736434,,,
imu,62.934426,-0.287113344,-9.5010590752,2.706043267200001,0.9870595899999999,0.3882893099999998,-4.74502597,,,
imu,62.943194,-0.2883096496000001,-9.502853533600002,2.67673378,1.38333582,0.3658585799999998,-4.75250288,,,
imu,62.951963,-0.2889078024000001,-9.502255380800001,2.671350404800001,1.80204278,0.2836125699999998,-4.647826139999999,,,
imu,62.960732,-0.287113344,-9.532163020800002,2.6851079192,1.97401171,0.1714589200000001,-4.65530305,,,
imu,62.969501,-0.2757484408,-9.5602762024,2.6659670296,2.18336519,0.05930526999999985,-4.931948719999999,,,
imu,62.978269,-0.3062542336,-9.5865949256,2.6695559464,2.25813429,0.08173599999999981,-5.20111748,,,
imu,62.987038,-0.3104413032000001,-9.604539509600002,2.6910894472,2.40019558,-0.09023292999999999,-5.42542478,,,
imu,62.995807,-0.3236006648,-9.648204664000001,2.6803226968,2.12354991,-0.25472495,-5.874039379999999,,,
imu,63.004576,-0.3397507904000001,-9.6709344704,2.6701540992,2.03382699,-0.2771556799999999,-6.053485220000001,,,
imu,63.013344,-0.3445360128,-9.688280901600002,2.6755374744,1.80951969,-0.17247894,-6.16563887,,,
imu,63.021823,-0.3852104032000001,-9.6799067624,2.67673378,1.4431511,-0.1201405700000002,-6.15068505,,,
imu,63.030301,-0.376836264,-9.675719692800001,2.6934820584,1.15155161,-0.05284837999999992,-5.851608649999999,,,
imu,63.03878,-0.3744436528,-9.697253193600002,2.70664142,0.7552753799999999,-0.02294074000000013,-5.829177919999999,,,
imu,63.047259,-0.400762376,-9.724768222400002,2.701856197600001,0.34404533,0.0368745399999999,-5.75440882,,,
imu,63.055737,-0.391790084,-9.694860582400002,2.6833134608,-0.26906129,-0.0603252900000002,-5.68711663,,,
imu,63.064216,-0.4163143488000001,-9.618895176800002,2.699463586400001,-0.47093786,-0.08275602000000015,-5.39551714,,,
imu,63.072694,-0.439642308,-9.5800152448,2.72159524,-0.71019898,0.02192071999999978,-5.193640569999999,,,
imu,63.081173,-0.4372496968000001,-9.592576453600001,2.7138192536,-0.82982954,0.05182836000000002,-5.021671639999999,,,
imu,63.089651,-0.4372496968000001,-9.594370912,2.7072395728,-0.69524516,0.13407437,-4.90204108,,,
imu,63.09813,-0.4360533912000001,-9.567454036,2.712622948,-0.93450628,0.1789358299999999,-5.02914855,,,
imu,63.106609,-0.4432312248,-9.534555632000002,2.7449231992,-0.94198319,0.2237972899999998,-5.17868675,,,
imu,63.115087,-0.4294737104000001,-9.5219944232,2.7377453656,-0.79244499,0.1415512799999998,-5.23102512,,,
imu,63.123566,-0.4240903352000001,-9.5219944232,2.757484408000001,-0.7401066199999999,0.06678217999999969,-5.37308641,,,
imu,63.132044,-0.4354552384000001,-9.530368562400001,2.763465936,-0.5980453299999999,-0.1650020300000001,-5.6646859,,,
imu,63.140523,-0.4557924336,-9.539939007200001,2.7718400752,-0.5980453299999999,-0.2248173100000002,-5.761885729999999,,,
imu,63.149002,-0.4522035168,-9.519601812000001,2.7861957424,-0.47093786,-0.2771556799999999,-5.73197809,,,
imu,63.15748,-0.4641665728000001,-9.505246144800001,2.790382812,-0.35878421,-0.4640784300000003,-5.739455,,,
imu,63.165959,-0.4683536424000001,-9.470553282400001,2.79636434,-0.127,-0.4790322499999999,-5.64225517,,,
imu,63.174437,-0.4773259344000001,-9.471151435200001,2.804140326400001,0.02253820000000001,-0.5463244400000002,-5.5151477,,,
imu,63.182916,-0.4874945320000001,-9.453206851200001,2.8011495624,0.17955331,-0.6435242699999999,-5.40299405,,,
imu,63.191394,-0.4862982264000001,-9.465169907200002,2.8137107712,0.57582954,-0.6435242699999999,-5.24597894,,,
imu,63.199873,-0.4988594352000001,-9.4831144912,2.8184959936,0.91229049,-0.5911859000000002,-5.02914855,,,
imu,63.208352,-0.5072335744,-9.516611048000001,2.817299688,1.08425942,-0.5313706200000001,-4.96185636,,,
imu,63.216827,-0.4982612824000001,-9.5172092008,2.8095237016,1.28613599,-0.3818324200000003,-4.82727198,,,
imu,63.225302,-0.4916816016,-9.5010590752,2.7897846592,1.47305874,-0.2622018600000002,-4.85717962,,,
imu,63.233777,-0.4833074624000001,-9.5184055064,2.8119163128,1.58521239,-0.1425713000000002,-5.10391765,,,
imu,63.242252,-0.4833074624000001,-9.553098368800002,2.8131126184,2.07121154,-0.0603252900000002,-5.08148692,,,
imu,63.250726,-0.4880926848000001,-9.610521037600002,2.805336632,2.08616536,0.13407437,-5.3656095,,,
imu,63.259201,-0.4809148512,-9.621287788000002,2.7927754232,1.93662716,0.3509047599999997,-5.72450118,,,
imu,61.942952,,,,,,,98.09704839999999,-37.50665240000002,133.6261296
imu,62.044545,,,,,,,100.819254,-37.97052600000001,131.3067616
imu,62.146077,,,,,,,98.5487148,-37.14043640000002,134.077796
imu,62.255452,,,,,,,99.06141720000001,-38.3123276,130.8917168
imu,62.349446,,,,,,,98.377814,-36.88408520000002,133.3209496
imu,62.450764,,,,,,,98.49988599999999,-36.92070680000001,132.9913552
imu,62.552296,,,,,,,99.0003812,-37.25030120000001,134.077796
imu,62.653859,,,,,,,98.8905164,-37.21367960000001,133.6627512
imu,62.755449,,,,,,,98.8172732,-37.60431000000002,133.955724
imu,62.856981,,,,,,,98.988174,-37.67755320000001,134.1144176
imu,62.958544,,,,,,,100.8558756,-37.82403960000001,133.4918504
imu,63.060076,,,,,,,98.3900212,-38.19025560000002,134.7247776
imu,63.161669,,,,,,,101.0389836,-38.59309320000002,132.2100944
imu,63.263231,,,,,,,98.6097508,-37.4944452,134.9323
