Type,Timestamp,Data Accelerometer X,Data Accelerometer Y,Data Accelerometer Z,Data Gyroscope X,Data Gyroscope Y,Data Gyroscope Z,Data Magnetometer X,Data Magnetometer Y,Data Magnetometer Z
imu,414.95815,-0.451605364,-9.370661764800001,3.471678851200001,1.00201341,1.11354958,-4.20668845,,,
imu,414.966628,-0.4665591840000001,-9.380830362400001,3.474669615200001,0.80761375,1.06868812,-4.19173463,,,
imu,414.975105,-0.4791203928000001,-9.368269153600002,3.467491781600001,0.5010604399999999,1.23318014,-4.08705789,,,
imu,414.983583,-0.4683536424000001,-9.340754124800002,3.475267768000001,0.36647606,1.44253362,-3.82536604,,,
imu,414.99206,-0.4683536424000001,-9.339557819200001,3.4818474488,0.38142988,1.53973345,-3.67582784,,,
imu,415.000538,-0.451605364,-9.346137500000001,3.4800529904,0.3963837,1.70422547,-3.46647436,,,
imu,415.009015,-0.439642308,-9.359895014400001,3.490221588,0.06739966,1.78647148,-3.31693616,,,
imu,415.017493,-0.4240903352000001,-9.363483931200001,3.5135495472,-0.04475399000000001,1.93600968,-3.30945925,,,
imu,415.02597,-0.4216977240000001,-9.372456223200002,3.5069698664,0.10478421,1.96591732,-3.43656672,,,
imu,415.034448,-0.4115291264,-9.379035904000002,3.525512603200001,0.0001074699999999984,1.74161002,-3.65339711,,,
imu,415.042925,-0.4181088072000001,-9.373054376,3.5452516456,0.007584380000000002,1.77899457,-3.73564312,,,
imu,415.051403,-0.424688488,-9.370063612000001,3.532092284,0.08235347999999998,1.89862513,-3.81788913,,,
imu,415.05988,-0.4115291264,-9.379035904000002,3.544653492800001,0.09730729999999999,1.83880985,-3.97490424,,,
imu,415.068358,-0.4175106544000001,-9.3664746952,3.5404664232,0.01506129,1.79394839,-3.93004278,,,
imu,415.076819,-0.4175106544000001,-9.364082084000001,3.551831326400001,-0.02980017,1.75656384,-4.057150249999999,,,
imu,415.08528,-0.4181088072000001,-9.363483931200001,3.5554202432,0.16459949,1.86871749,-3.75059694,,,
imu,415.093741,-0.4163143488000001,-9.367072848000001,3.5386719648,0.19450713,1.84628676,-3.70573548,,,
imu,415.102202,-0.4085383624000001,-9.364082084000001,3.537475659200001,0.11973803,1.89862513,-3.71321239,,,
imu,415.110663,-0.415716196,-9.332978138400001,3.5482424096,-0.04475399000000001,1.83880985,-3.83284295,,,
imu,415.119124,-0.4019586816,-9.319220624000002,3.550635020800001,-0.02980017,1.90610204,-3.73564312,,,
imu,415.127585,-0.4079402096,-9.3006778872,3.549438715200001,-0.04475399000000001,1.91357895,-3.84779677,,,
imu,415.136046,-0.4043512928,-9.306659415200002,3.5554202432,0.05992275,2.01825569,-3.81041222,,,
imu,415.144507,-0.3905937784,-9.327594763200002,3.5853278832,0.03749201999999999,2.01825569,-4.034719519999999,,,
imu,415.152968,-0.3995660704000001,-9.3557079448,3.582935272,0.21693786,1.90610204,-4.124442439999999,,,
imu,415.161429,-0.3941826952,-9.3246039992,3.5853278832,0.007584380000000002,1.78647148,-4.29641137,,,
imu,415.16989,-0.400762376,-9.270172094400001,3.5895149528,-0.11952309,1.61450255,-4.408565019999999,,,
imu,415.178351,-0.4222958768,-9.246844135200002,3.602674314400001,-0.23915365,1.59207182,-4.33379592,,,
imu,415.186812,-0.4187069600000001,-9.249834899200001,3.6014780088,-0.17933837,1.49487199,-4.22911918,,,
imu,415.195273,-0.4133235848,-9.261199802400002,3.6014780088,-0.02232326000000001,1.56216418,-4.057150249999999,,,
imu,415.203734,-0.4043512928,-9.267181330400001,3.6104503008,-0.02232326000000001,1.55468727,-4.0945348,,,
imu,415.212195,-0.4115291264,-9.2659850248,3.614637370400001,0.06739966,1.36776452,-4.23659609,,,
imu,415.220656,-0.4348570856000001,-9.270172094400001,3.621815204,0.29918387,1.13598031,-4.453426479999999,,,
imu,415.229117,-0.4557924336,-9.2827333032,3.620618898400001,0.7104139199999999,0.9191499199999997,-4.55810322,,,
imu,415.237578,-0.4845037680000001,-9.295294512000002,3.6230115096,0.9272443100000001,0.80699627,-4.61044159,,,
imu,415.246039,-0.5030465048,-9.292303748000002,3.61882444,1.23379762,0.8219500899999996,-4.59548777,,,
imu,415.2545,-0.5185984776000001,-9.280340692000001,3.6152355232,1.33847436,0.8742884599999998,-4.41604193,,,
imu,415.262961,-0.5365430616000001,-9.274359164000002,3.6080576896,1.57773548,1.06868812,-4.08705789,,,
imu,415.271422,-0.5413282840000001,-9.283331456,3.597290939200001,1.73475059,1.17336486,-4.057150249999999,,,
imu,415.279891,-0.5431227424,-9.287518525600001,3.588916800000001,2.10859609,1.51730272,-3.7954584,,,
imu,415.288359,-0.5419264368000001,-9.303070498400002,3.576953744000001,2.37776485,1.69674856,-3.84031986,,,
imu,415.296828,-0.5461135064000001,-9.321613235200001,3.5775518968,2.62450288,2.01825569,-3.72816621,,,
imu,415.305296,-0.5526931872,-9.349726416800001,3.5685796048,2.68431816,2.20517844,-3.5711511,,,
imu,415.313765,-0.5365430616000001,-9.373054376,3.546447951200001,2.67684125,2.51920866,-3.65339711,,,
imu,415.322234,-0.5257763112000001,-9.370063612000001,3.5428590344,2.58711833,2.70613141,-3.45899745,,,
imu,415.330702,-0.499457588,-9.3802322096,3.5344848952,2.4151494,2.88557725,-3.43656672,,,
imu,415.339171,-0.4886908376000001,-9.379035904000002,3.5033809496,2.38524176,3.13979219,-3.57862801,,,
imu,415.34764,-0.4713444064,-9.368269153600002,3.491417893600001,2.07121154,3.32671494,-3.47395127,,,
imu,415.356108,-0.4354552384000001,-9.353315333600001,3.487230824,1.93662716,3.35662258,-3.496382,,,
imu,415.364577,-0.4258847936,-9.350324569600001,3.4824456016,1.78708896,3.25942275,-3.67582784,,,
imu,415.373045,-0.4121272792,-9.348530111200002,3.4824456016,1.71979677,3.20708438,-3.7206893,,,
imu,415.381514,-0.3935845424,-9.3658765424,3.490819740800001,1.5926893,3.02763854,-3.66835093,,,
imu,415.389983,-0.3887993200000001,-9.3796340568,3.4920160464,1.24127453,2.69117759,-3.81041222,,,
imu,415.398451,-0.3762381112000001,-9.394587876800001,3.500390185600001,1.11416706,2.66874686,-3.68330475,,,
imu,415.40692,-0.370854736,-9.3832229736,3.5093624776,1.0693056,2.51920866,-3.70573548,,,
imu,415.415389,-0.3822196392,-9.3796340568,3.514147700000001,1.01696723,2.15284007,-3.7206893,,,
imu,415.423857,-0.3882011672000001,-9.3898026544,3.5243162976,0.7702292,1.89114822,-3.75059694,,,
imu,415.432326,-0.3983697648000001,-9.377241445600001,3.528503367200001,0.65807555,1.73413311,-3.48890509,,,
imu,415.440795,-0.4199032656,-9.367671000800001,3.539270117600001,0.5459219,1.50982581,-3.30945925,,,
imu,415.449263,-0.4294737104000001,-9.356306097600001,3.5416627288,0.3889067899999999,1.25561087,-3.15244414,,,
imu,415.457732,-0.4468201416000001,-9.339557819200001,3.5434571872,0.40386061,1.13598031,-3.07767504,,,
imu,415.4662,-0.4671573368000001,-9.3413522776,3.5452516456,0.45619898,1.16588795,-2.95804448,,,
imu,415.474669,-0.4689517952000001,-9.328192916,3.551831326400001,0.5010604399999999,1.25561087,-2.96552139,,,
imu,415.483104,-0.4862982264000001,-9.328791068800001,3.5416627288,0.80761375,1.29299542,-2.88327538,,,
imu,415.491569,-0.4845037680000001,-9.327594763200002,3.544653492800001,0.97958268,1.50982581,-2.83093701,,,
imu,415.500034,-0.4922797544,-9.327594763200002,3.549438715200001,1.07678251,1.55468727,-2.748691,,,
imu,415.508498,-0.4922797544,-9.326398457600002,3.54405534,1.17398234,1.8014253,-2.8234601,,,
imu,415.516963,-0.4749333232000001,-9.309650179200002,3.536877506400001,1.16650543,1.92853277,-2.96552139,,,
imu,415.525428,-0.4707462536000001,-9.312042790400001,3.54405534,1.48053565,2.08554788,-2.98047521,,,
imu,415.533893,-0.4665591840000001,-9.326398457600002,3.5386719648,1.85438115,2.27994754,-2.8234601,,,
imu,415.542358,-0.4533998224,-9.343146736000001,3.532092284,1.83942733,2.40705501,-2.80102937,,,
imu,415.550823,-0.4312681688,-9.324005846400002,3.511755088800001,1.70484295,2.52668557,-2.748691,,,
imu,415.559287,-0.4258847936,-9.285724067200002,3.521325533600001,1.57773548,2.71360832,-2.72626027,,,
imu,415.567752,-0.4252866408000001,-9.2929019008,3.539270117600001,1.57025857,2.76594669,-2.68139881,,,
imu,415.576217,-0.4103328208,-9.352119028,3.5452516456,1.40576655,2.75846978,-2.72626027,,,
imu,415.584682,-0.4133235848,-9.409541696800002,3.544653492800001,1.30108981,2.86314652,-2.68139881,,,
imu,415.593147,-0.406743904,-9.4071490856,3.5243162976,1.03192105,2.94539253,-2.83093701,,,
imu,415.601611,-0.4079402096,-9.363483931200001,3.530895978400001,0.68050628,2.93043871,-2.80102937,,,
imu,415.610076,-0.4073420568000001,-9.343744888800002,3.5344848952,0.53844499,3.0725,-2.47952224,,,
imu,415.618541,-0.3929863896,-9.3658765424,3.5398682704,0.59078336,3.34914567,-2.19539966,,,
imu,415.627006,-0.367863972,-9.382624820800002,3.5267089088,0.65807555,3.57345297,-2.20287657,,,
imu,415.635471,-0.3463304712,-9.3622876256,3.5273070616,0.55339881,3.60336061,-2.38232241,,,
imu,415.643935,-0.3313766512,-9.335370749600001,3.5314941312,0.52349117,3.60336061,-2.71878336,,,
imu,415.6524,-0.3128339144,-9.3443430416,3.529699672800001,0.6954601,3.67812971,-3.06272122,,,
imu,415.660865,-0.2972819416,-9.355109792000002,3.530895978400001,0.80761375,3.64822207,-3.496382,,,
imu,415.66933,-0.2954874832,-9.367671000800001,3.532690436800001,0.77770611,3.37905331,-3.98985806,,,
imu,415.677795,-0.290104108,-9.364082084000001,3.536877506400001,0.80761375,3.23699202,-4.18425772,,,
imu,415.686609,-0.2913004136,-9.352119028,3.5243162976,0.76275229,3.02016163,-4.40108811,,,
imu,415.695423,-0.2787392048,-9.348530111200002,3.523718144800001,0.8375213899999999,2.81828506,-4.46090339,,,
imu,415.704238,-0.2733558296,-9.339557819200001,3.5057735608,0.81509066,2.46687029,-4.25154991,,,
imu,415.713052,-0.2715613712,-9.322809540800002,3.493212352,0.97210577,2.20517844,-4.19921154,,,
imu,415.721866,-0.2739539824000001,-9.3108464848,3.4920160464,0.97958268,1.83880985,-4.25154991,,,
imu,415.73068,-0.2942911776,-9.315631707200001,3.490221588,1.13659779,1.54721036,-4.06462716,,,
imu,415.739495,-0.3116376088,-9.349726416800001,3.4896234352,1.08425942,1.30047233,-4.02724261,,,
imu,415.748309,-0.3331711096,-9.368269153600002,3.4878289768,1.05435178,1.09111885,-4.10948862,,,
imu,414.974423,,,,,,,97.51110279999999,-37.83624680000002,130.3179784
imu,415.075955,,,,,,,97.4988956,-37.2625084,132.9303192
imu,415.757123,-0.3798270280000001,-9.367671000800001,3.4878289768,0.9945364999999999,1.00887284,-4.0945348,,,
imu,415.765937,-0.400762376,-9.388008196000001,3.5129513944,0.76275229,0.86681155,-4.27398064,,,
imu,415.774752,-0.4228940296000001,-9.417915836,3.521325533600001,0.6281679099999999,0.9565344699999998,-4.408565019999999,,,
imu,415.783566,-0.4551942808000001,-9.422102905600001,3.5273070616,0.44872207,0.9565344699999998,-4.55810322,,,
imu,415.79238,-0.4731388648000001,-9.419710294400002,3.528503367200001,0.1720764,1.15093413,-4.82727198,,,
imu,415.801195,-0.5000557408,-9.406550932800002,3.5476442568,0.03749201999999999,1.38271834,-4.999240909999999,,,
imu,415.810009,-0.5191966304000001,-9.4215047528,3.5452516456,-0.43355331,1.77151766,-5.23102512,,,
imu,415.818823,-0.5263744640000001,-9.422701058400001,3.548840562400001,-0.71767589,2.20517844,-5.17868675,,,
imu,415.827637,-0.5317578392000001,-9.420906600000002,3.570972216,-1.1737674,2.65379304,-5.24597894,,,
imu,415.836452,-0.5299633808,-9.422701058400001,3.5733648272,-1.39059779,3.34914567,-5.12634838,,,
imu,415.845266,-0.5006538936,-9.420906600000002,3.588916800000001,-1.72705874,3.85009864,-5.00671782,,,
imu,415.85408,-0.4749333232000001,-9.423299211200002,3.5990853976,-1.93641222,4.22394414,-5.05157928,,,
imu,415.862894,-0.4551942808000001,-9.434065961600002,3.633180107200001,-2.04108896,4.42582071,-5.07401001,,,
imu,415.871709,-0.4378478496000001,-9.4555994624,3.6266004264,-2.28035008,4.433297619999999,-5.193640569999999,,,
imu,415.880523,-0.4205014184,-9.3802322096,3.604468772800001,-2.39998064,4.37348234,-5.216071299999999,,,
imu,415.888999,-0.4228940296000001,-9.292303748000002,3.6289930376,-2.54951884,4.17908268,-5.07401001,,,
imu,415.897476,-0.4749333232000001,-9.247442288000002,3.6313856488,-2.64671867,4.07440594,-4.74502597,,,
imu,415.905952,-0.4510072112,-9.250433052000002,3.649330232800001,-2.39998064,4.08188285,-4.52071867,,,
imu,415.914428,-0.4324644744,-9.251629357600002,3.6230115096,-2.2953039,4.149175039999999,-4.341272829999999,,,
imu,415.922904,-0.4252866408000001,-9.220525412,3.6343764128,-2.11585806,4.1192674,-4.124442439999999,,,
imu,415.931381,-0.4169125016,-9.181047327200002,3.6439468576,-2.19810407,3.69308353,-3.88518132,,,
imu,415.939857,-0.406743904,-9.176262104800001,3.655311760800001,-1.61490509,3.45382241,-3.84031986,,,
imu,415.948333,-0.4151180432000001,-9.2001882168,3.651722844000001,-1.03170611,3.31923803,-3.75807385,,,
imu,415.956809,-0.4228940296000001,-9.217534648,3.6618914416,-0.67281443,2.90800798,-3.8702275,,,
imu,415.965286,-0.4276792520000001,-9.2157401896,3.6618914416,-0.19429219,2.58650085,-3.72816621,,,
imu,415.973762,-0.442633072,-9.2139457312,3.6732563448,0.16459949,2.33228591,-3.51881273,,,
imu,415.982238,-0.4366515440000001,-9.218730953600001,3.672060039200001,0.6132140899999999,2.19022462,-3.2720747,,,
imu,415.990714,-0.4402404608,-9.244451524,3.676247108800001,0.9272443100000001,2.03320951,-3.15992105,,,
imu,415.999191,-0.4342589328000001,-9.250433052000002,3.674452650400001,1.26370526,1.89114822,-2.91318302,,,
imu,416.007667,-0.4414367664,-9.2408626072,3.667872969600001,1.54782784,1.81637912,-2.5991528,,,
imu,416.016143,-0.4468201416000001,-9.253423816000002,3.672060039200001,1.65250458,1.70422547,-2.48699915,,,
imu,416.024619,-0.4528016696000001,-9.2546201216,3.667872969600001,1.80951969,1.66684092,-2.32250713,,,
imu,416.033096,-0.4641665728000001,-9.273162858400001,3.669667428,1.6674584,1.73413311,-2.14306129,,,
imu,416.041572,-0.4533998224,-9.273162858400001,3.660695136000001,1.39081273,1.77151766,-2.06829219,,,
imu,416.050048,-0.4575868920000001,-9.273761011200001,3.654115455200001,1.48801256,2.04816333,-1.98604618,,,
imu,416.058524,-0.4450256832000001,-9.2785462336,3.6475357744,1.39081273,2.20517844,-2.02343073,,,
imu,416.067001,-0.4312681688,-9.271368400000002,3.651124691200001,1.2936129,2.324809,-2.18044584,,,
imu,416.075477,-0.4294737104000001,-9.286920372800001,3.639759788000001,1.20388998,2.56407012,-2.46456842,,,
imu,416.083953,-0.4061457512000001,-9.290509289600001,3.6409560936,1.30108981,2.8481927,-2.62158353,,,
imu,416.092419,-0.3864067088000001,-9.2827333032,3.6433487048,1.30108981,3.0725,-2.80850628,,,
imu,416.100885,-0.3798270280000001,-9.287518525600001,3.639759788000001,1.54035093,3.2220382,-2.87579847,,,
imu,416.109351,-0.352910152,-9.304266804000001,3.6451431632,1.52539711,3.33419185,-2.91318302,,,
imu,416.117818,-0.3206099008000001,-9.322809540800002,3.6565080664,1.58521239,3.38653022,-2.94309066,,,
imu,416.126284,-0.2966837888,-9.334174444000002,3.646937621600001,1.77961205,3.43139168,-2.89075229,,,
imu,416.13475,-0.2757484408,-9.332978138400001,3.645741316000001,1.85438115,3.30428421,-2.92813684,,,
imu,416.143216,-0.2655798432,-9.325202152000001,3.6385634824,1.8169966,3.1472691,-2.85336774,,,
imu,416.151682,-0.2464389536,-9.307257568,3.6271985792,1.87681188,2.96782326,-2.68887572,,,
imu,416.160148,-0.2416537312,-9.308453873600001,3.6194225928,1.89924261,2.75099287,-2.57672207,,,
imu,416.168614,-0.23926112,-9.304864956800001,3.612842912,1.92167334,2.48182411,-2.47952224,,,
imu,416.17708,-0.2440463424,-9.2994815816,3.593103869600001,2.00391935,2.19022462,-2.51690679,,,
imu,416.185546,-0.2500278704,-9.287518525600001,3.582935272,2.16093446,1.83880985,-2.38979932,,,
imu,416.194012,-0.266177996,-9.28632222,3.5823371192,2.29551884,1.77151766,-2.31503022,,,
imu,416.202478,-0.272159524,-9.2994815816,3.5667851464,2.4151494,1.50982581,-2.15801511,,,
imu,416.210944,-0.272159524,-9.2970889704,3.564392535200001,2.65441052,1.38271834,-1.94866163,,,
imu,416.219411,-0.2924967192,-9.304864956800001,3.560205465600001,2.6394567,1.26308778,-1.9262309,,,
imu,416.227877,-0.2829262744000001,-9.307257568,3.54405534,2.52730305,1.16588795,-2.08324601,,,
imu,416.236343,-0.2907022608000001,-9.324005846400002,3.5548220904,2.52730305,1.24813396,-2.21035348,,,
imu,416.244809,-0.3026653168,-9.350324569600001,3.549438715200001,2.70674889,1.17336486,-2.10567674,,,
imu,416.253275,-0.311039456,-9.3664746952,3.54405534,2.65441052,1.18831868,-2.24773803,,,
imu,416.261741,-0.305057928,-9.346137500000001,3.5434571872,2.27308811,1.24065705,-2.49447606,,,
imu,416.270207,-0.3164228312,-9.346137500000001,3.546447951200001,2.16093446,1.4275798,-2.66644499,,,
imu,416.278673,-0.2942911776,-9.3664746952,3.565588840800001,2.01887317,1.67431783,-2.80850628,,,
imu,416.287139,-0.2769447464000001,-9.4244955168,3.5691777576,1.86933497,2.04068642,-2.92065993,,,
imu,416.2956,-0.290104108,-9.465169907200002,3.572766674400001,1.48053565,1.89114822,-3.18235178,,,
imu,416.304061,-0.2865151912,-9.467562518400001,3.5841315776,0.9347212199999999,1.9509635,-3.48142818,,,
imu,416.312522,-0.2853188856,-9.4382530312,3.5757574384,0.68798319,1.96591732,-3.63844329,,,
imu,416.320983,-0.2757484408,-9.395784182400002,3.579346355200001,0.4711528,2.0257326,-3.83284295,,,
imu,416.329444,-0.2709632184,-9.392195265600002,3.560205465600001,0.44124516,2.07807097,-3.88518132,,,
imu,416.337905,-0.2584020096,-9.403560168800002,3.5566165488,0.55339881,2.20517844,-3.86275059,,,
imu,416.346366,-0.2607946208,-9.374848834400002,3.5458497984,0.65807555,1.98834805,-4.25902682,,,
imu,416.354827,-0.2578038568000001,-9.3622876256,3.551831326400001,0.71789083,1.83133294,-4.63287232,,,
imu,416.363288,-0.2835244272,-9.364680236800002,3.550036868,0.7702292,1.65936401,-4.81979507,,,
imu,416.371749,-0.3038616224,-9.3652783896,3.5398682704,0.82256757,1.44253362,-4.90204108,,,
imu,416.38021,-0.3116376088,-9.360493167200001,3.54405534,0.82256757,1.27056469,-4.82727198,,,
imu,416.388671,-0.3212080536,-9.352119028,3.553027632,0.64312173,1.16588795,-4.77493361,,,
imu,416.397132,-0.3283858872000001,-9.342548583200001,3.549438715200001,0.5459219,1.15841104,-4.82727198,,,
imu,416.405593,-0.3247969704000001,-9.336567055200002,3.549438715200001,0.56835263,1.04625739,-4.53567249,,,
imu,416.414054,-0.3301803456000001,-9.3413522776,3.551831326400001,0.52349117,0.8817653699999997,-4.22164227,,,
imu,416.422515,-0.3295821928000001,-9.3413522776,3.558411007200001,0.7253677399999999,0.8742884599999998,-4.19921154,,,
imu,416.430976,-0.3355637208,-9.33118368,3.560205465600001,0.78518302,0.7471809899999999,-4.22164227,,,
imu,416.439437,-0.3517138464,-9.325800304800001,3.579346355200001,0.59078336,0.4256738599999998,-4.244073,,,
imu,416.447898,-0.3600879856,-9.334174444000002,3.5823371192,0.59078336,0.1789358299999999,-4.19173463,,,
imu,416.456359,-0.385808556,-9.3383615136,3.5895149528,0.53096808,0.1639820099999998,-4.17678081,,,
imu,416.46482,-0.4061457512000001,-9.343744888800002,3.602674314400001,0.51601426,0.1490281899999997,-4.00481188,,,
imu,416.473281,-0.4121272792,-9.335370749600001,3.622413356800001,0.29170696,0.1191205499999999,-3.99733497,,,
imu,416.481742,-0.4199032656,-9.3419504304,3.630189343200001,0.08983038999999998,0.09668981999999993,-3.88518132,,,
imu,416.490203,-0.4354552384000001,-9.3419504304,3.646937621600001,-0.14943073,0.2686587499999997,-3.76555076,,,
imu,416.499021,-0.4468201416000001,-9.3269966104,3.651722844000001,-0.35878421,0.3882893099999998,-3.77302767,,,
imu,416.50784,-0.4372496968000001,-9.322211388000001,3.6565080664,-0.5307531400000001,0.5901658799999998,-3.69078166,,,
imu,416.516658,-0.4276792520000001,-9.294098206400001,3.660695136000001,-0.77001426,0.86681155,-3.61601256,,,
imu,416.525476,-0.4169125016,-9.28632222,3.6612932888,-0.81487572,1.06868812,-3.58610492,,,
imu,416.534294,-0.4151180432000001,-9.271368400000002,3.662489594400001,-0.80739881,1.27056469,-3.55619728,,,
imu,416.543113,-0.3864067088000001,-9.254021968800002,3.6612932888,-0.71019898,1.46496435,-3.76555076,,,
imu,416.551931,-0.3864067088000001,-9.216338342400002,3.6589006776,-0.52327623,1.5023489,-3.95995042,,,
imu,416.560749,-0.3642750552,-9.2103568144,3.672658192000001,-0.14943073,1.59207182,-3.98238115,,,
imu,416.569567,-0.3481249296000001,-9.247442288000002,3.697780609600001,0.08235347999999998,1.4275798,-4.23659609,,,
imu,415.177453,,,,,,,97.6087604,-36.81084200000002,131.6485632
imu,415.279016,,,,,,,97.340202,-36.85967080000001,132.1002296
imu,415.380609,,,,,,,97.3035804,-37.29913000000003,132.429824
imu,415.482141,,,,,,,97.4256524,-37.57989560000001,131.3433832
imu,415.591516,,,,,,,97.4744812,-37.01836440000002,131.697392
imu,415.693078,,,,,,,99.476462,-37.09160760000001,130.9405456
imu,415.794641,,,,,,,97.1937156,-36.29813960000001,131.2823472
imu,415.896203,,,,,,,99.598534,-37.71417480000001,129.4512672
imu,416.578315,-0.3487230824000001,-9.281536997600002,3.681630484000001,0.40386061,1.18831868,-4.453426479999999,,,
imu,416.587133,-0.3481249296000001,-9.236077384800002,3.6690692752,0.620691,0.94905756,-4.48333412,,,
imu,416.595952,-0.3559009160000001,-9.191215924800002,3.692995387200001,0.8375213899999999,0.9415806499999997,-4.20668845,,,
imu,416.60477,-0.3517138464,-9.210954967200001,3.690004623200001,1.06182869,0.84438082,-3.82536604,,,
imu,416.613588,-0.3343674152,-9.229497704000002,3.675648956,1.45810492,0.84438082,-3.41413599,,,
imu,416.622406,-0.3427415544,-9.24146076,3.676247108800001,1.58521239,0.70231953,-3.39170526,,,
imu,416.631225,-0.3457323184,-9.228899551200001,3.672060039200001,1.76465823,0.47801223,-3.43656672,,,
imu,416.640043,-0.3559009160000001,-9.222918023200002,3.664882205600001,1.87681188,0.1714589200000001,-3.37675144,,,
imu,416.648861,-0.3642750552,-9.2312921624,3.657704372,2.16093446,0.1714589200000001,-3.32441307,,,
imu,416.657679,-0.376836264,-9.252825663200001,3.6385634824,2.52730305,0.08173599999999981,-3.41413599,,,
imu,416.666498,-0.3905937784,-9.263592413600001,3.6325819544,2.54225687,0.11164364,-3.46647436,,,
imu,416.675316,-0.3989679176000001,-9.283331456,3.626002273600001,2.7142258,0.1639820099999998,-3.40665908,,,
imu,416.684134,-0.4115291264,-9.297687123200001,3.6170299816,2.69927198,0.3658585799999998,-3.38422835,,,
imu,416.692952,-0.415716196,-9.318622471200001,3.6176281344,2.69179507,0.6574580699999997,-3.14496723,,,
imu,416.70143,-0.4121272792,-9.335370749600001,3.6176281344,2.407672489999999,0.7770886299999997,-2.98047521,,,
imu,416.709907,-0.4073420568000001,-9.353315333600001,3.6283948848,2.24318047,1.08364194,-2.79355246,,,
imu,416.718385,-0.3953790008,-9.3664746952,3.6283948848,2.13850373,1.39019525,-2.54681443,,,
imu,416.726862,-0.3941826952,-9.388606348800002,3.6283948848,1.77213514,1.55468727,-2.44213769,,,
imu,416.73534,-0.3935845424,-9.401765710400001,3.6361708712,1.63007385,1.77151766,-2.1505382,,,
imu,416.743818,-0.3852104032000001,-9.3963823352,3.636769024,1.30108981,1.95844041,-2.09819983,,,
imu,416.752295,-0.3654713608,-9.374250681600001,3.6230115096,1.03939796,2.0257326,-2.19539966,,,
imu,416.760773,-0.3517138464,-9.350922722400002,3.61882444,0.6954601,2.07807097,-2.32998404,,,
imu,416.76925,-0.3355637208,-9.3246039992,3.6194225928,0.68050628,2.22760917,-2.27764567,,,
imu,416.777728,-0.3062542336,-9.309650179200002,3.6092539952,0.80761375,2.35471664,-2.27764567,,,
imu,416.786205,-0.2913004136,-9.294696359200001,3.6032724672,0.80013684,2.37714737,-2.3748455,,,
imu,416.794683,-0.2930948720000001,-9.286920372800001,3.5996835504,0.9347212199999999,2.29490136,-2.68139881,,,
imu,416.80316,-0.2787392048,-9.290509289600001,3.614039217600001,1.21136689,2.15284007,-2.92813684,,,
imu,416.811638,-0.2924967192,-9.305463109600002,3.6152355232,1.40576655,2.01825569,-3.18982869,,,
imu,416.820115,-0.3020671640000001,-9.322809540800002,3.630787496000001,1.56278166,2.11545552,-3.48890509,,,
imu,416.828593,-0.296085636,-9.318024318400001,3.6361708712,1.45062801,2.00330187,-3.90761205,,,
imu,416.83707,-0.2877114968,-9.294098206400001,3.631983801600001,1.41324346,2.15284007,-3.92256587,,,
imu,416.845548,-0.2739539824000001,-9.271368400000002,3.626002273600001,1.368382,2.28742445,-4.00481188,,,
imu,416.854025,-0.2446444952,-9.256414580000001,3.621815204,1.32352054,2.43696265,-4.04967334,,,
imu,416.862503,-0.2117460912,-9.245647829600001,3.6032724672,1.40576655,2.3995781,-4.28893446,,,
imu,416.87098,-0.1872218264,-9.231890315200001,3.5966927864,1.63007385,2.28742445,-4.43847266,,,
imu,416.879458,-0.1716698536,-9.226506940000002,3.591907564,1.9665348,2.08554788,-4.63287232,,,
imu,416.887936,-0.158510492,-9.228301398400001,3.5715703688,2.1908421,1.69674856,-4.90204108,,,
imu,416.896413,-0.1537252696,-9.263592413600001,3.5787482024,2.53477996,1.15093413,-5.22354821,,,
imu,416.904875,-0.1746606176,-9.2958926648,3.593702022400001,2.69179507,0.6499811599999998,-5.3656095,,,
imu,416.913338,-0.1955959656,-9.3545116392,3.600281703200001,2.83385636,0.2013665599999999,-5.49271697,,,
imu,416.9218,-0.2195220776,-9.3927934184,3.609852148000001,2.76656417,-0.2622018600000002,-5.57496298,,,
imu,416.930262,-0.2530186344000001,-9.402363863200002,3.607459536800001,2.60207215,-0.68090882,-5.45533242,,,
imu,416.938724,-0.2817299688000001,-9.408943544000001,3.5996835504,2.43010322,-1.13700033,-5.41794787,,,
imu,416.947187,-0.3182172896000001,-9.4113361552,3.594898328000001,2.32542648,-1.30896926,-5.33570186,,,
imu,416.955649,-0.3535083048,-9.398774946400001,3.5787482024,1.98148862,-1.570661110000001,-5.38056332,,,
imu,416.964111,-0.3905937784,-9.336567055200002,3.5608036184,1.86933497,-1.712722400000001,-5.500193879999999,,,
imu,416.972573,-0.4372496968000001,-9.301874192800001,3.5691777576,1.6674584,-1.68281476,-5.545055339999999,,,
imu,416.981036,-0.4647647256,-9.322809540800002,3.5691777576,1.65250458,-1.64543021,-5.46280933,,,
imu,416.989498,-0.4922797544,-9.380830362400001,3.579346355200001,1.71979677,-1.62299948,-5.50767079,,,
imu,416.99796,-0.5180003248000001,-9.405354627200001,3.562598076800001,1.7422275,-1.53327656,-5.612347529999999,,,
imu,417.006423,-0.5365430616000001,-9.370063612000001,3.5536257848,1.67493531,-1.21924634,-5.40299405,,,
imu,417.014885,-0.5544876456000001,-9.3204169296,3.5548220904,1.65250458,-0.7332471900000002,-5.20859439,,,
imu,417.023347,-0.5473098120000001,-9.300079734400002,3.548840562400001,1.72727368,-0.20986349,-4.78241052,,,
imu,417.031809,-0.5126169496,-9.334174444000002,3.5452516456,1.70484295,0.08921290999999965,-4.6179185,,,
imu,417.040272,-0.4868963792000001,-9.355109792000002,3.535681200800001,1.86933497,0.29856639,-4.65530305,,,
imu,417.048734,-0.4599795032,-9.335968902400001,3.537475659200001,2.01139626,0.3957662200000001,-4.77493361,,,
imu,417.057196,-0.4366515440000001,-9.311444637600001,3.54405534,2.07121154,0.52287369,-4.87213344,,,
imu,417.065658,-0.4216977240000001,-9.329987374400002,3.5482424096,2.14598064,0.3284740299999998,-5.07401001,,,
imu,417.074121,-0.424688488,-9.3652783896,3.5554202432,2.2656112,0.05182836000000002,-5.24597894,,,
imu,417.082583,-0.4414367664,-9.3904008072,3.5578128544,1.98148862,-0.1350943900000003,-5.18616366,,,
imu,417.091045,-0.4378478496000001,-9.3658765424,3.5596073128,1.77213514,-0.35192478,-4.87213344,,,
imu,417.099508,-0.4360533912000001,-9.359895014400001,3.561999924,1.49548947,-0.6510011800000002,-4.81231816,,,
imu,417.107984,-0.4617739616000001,-9.3622876256,3.563196229600001,1.40576655,-0.8454008399999999,-4.65530305,,,
imu,417.11646,-0.4803166984,-9.357502403200002,3.553027632,1.25622835,-1.08466196,-4.28145755,,,
imu,417.124936,-0.5114206440000001,-9.340754124800002,3.546447951200001,1.13659779,-1.35383072,-4.0945348,,,
imu,417.133413,-0.5425245896,-9.325202152000001,3.548840562400001,1.02444414,-1.38373836,-3.83284295,,,
imu,417.141889,-0.5718340768000001,-9.309052026400002,3.5416627288,1.11416706,-1.40616909,-3.73564312,,,
imu,417.150365,-0.6077232448000001,-9.3246039992,3.5548220904,1.28613599,-1.35383072,-3.5711511,,,
imu,417.158841,-0.6376308848000001,-9.342548583200001,3.554223937600001,1.48053565,-1.16690797,-3.46647436,,,
imu,417.167318,-0.6573699272000001,-9.352119028,3.550036868,1.58521239,-0.71829337,-3.2720747,,,
imu,417.175794,-0.6723237472000001,-9.360493167200001,3.564392535200001,1.43567419,-0.15004821,-3.24964397,,,
imu,417.18427,-0.6890720256,-9.355109792000002,3.567981452000001,1.37585891,0.4481045899999998,-3.18982869,,,
imu,417.192746,-0.6914646368,-9.347333805600002,3.5637943824,1.35342818,1.21822632,-3.08515195,,,
imu,417.201223,-0.6765108168000001,-9.335370749600001,3.549438715200001,1.2188438,2.15284007,-3.11505959,,,
imu,417.209699,-0.6537810104000001,-9.332978138400001,3.550635020800001,1.21136689,2.70613141,-3.10010577,,,
imu,417.218175,-0.6250696760000001,-9.3108464848,3.5404664232,1.1440747,3.30428421,-3.15992105,,,
imu,417.226651,-0.6005454112,-9.290509289600001,3.523119992000001,1.15155161,4.05945212,-3.13749032,,,
imu,417.235128,-0.5437208952000001,-9.280340692000001,3.5105587832,1.23379762,4.433297619999999,-3.18982869,,,
imu,417.243604,-0.5006538936,-9.2689757888,3.4848382128,1.53287402,4.814620029999999,-3.13001341,,,
imu,417.25208,-0.4587831976000001,-9.279144386400002,3.49919388,1.8169966,5.14360407,-3.0477674,,,
imu,417.260556,-0.4121272792,-9.322211388000001,3.517138464,2.116073,5.3903421,-2.8982292,,,
imu,417.269033,-0.3660695136000001,-9.3927934184,3.5273070616,2.37776485,5.40529592,-2.77859864,,,
imu,417.277509,-0.3367600264,-9.443636406400001,3.525512603200001,2.40019558,5.2408039,-2.66644499,,,
imu,417.285985,-0.2990764,-9.422701058400001,3.5183347696,1.97401171,4.99406587,-2.4496146,,,
imu,417.294461,-0.2715613712,-9.3975786408,3.54405534,1.77961205,4.85948149,-2.02343073,,,
imu,417.302938,-0.2506260232,-9.406550932800002,3.5536257848,1.40576655,4.37348234,-1.83650798,,,
imu,417.31139,-0.2374666616,-9.427486280800002,3.5386719648,1.04687487,4.00711375,-1.51500085,,,
imu,417.319842,-0.2284943696,-9.418513988800001,3.532690436800001,0.7702292,3.60336061,-1.50752394,,,
imu,417.328294,-0.2290925224000001,-9.3868118904,3.5452516456,0.5982602699999999,3.07997691,-1.57481613,,,
imu,417.336746,-0.2350740504,-9.3586987088,3.54405534,0.44124516,2.65379304,-1.7019236,,,
imu,417.345198,-0.2584020096,-9.3592968616,3.548840562400001,0.47862971,2.19770153,-2.17296893,,,
imu,417.35365,-0.281131816,-9.374250681600001,3.5524294792,0.40386061,1.74161002,-2.56924516,,,
imu,417.362102,-0.3056560808,-9.371259917600002,3.5476442568,0.26179932,1.41262598,-2.65149117,,,
imu,417.370554,-0.323002512,-9.361689472800002,3.560205465600001,0.26927623,1.22570323,-2.78607555,,,
imu,417.379007,-0.3367600264,-9.348530111200002,3.572766674400001,0.20198404,1.28551851,-2.69635263,,,
imu,417.387459,-0.3421434016,-9.343744888800002,3.5763555912,0.15712258,1.30794924,-2.71130645,,,
imu,415.997766,,,,,,,96.9007428,-36.48124760000002,131.3067616
imu,416.099328,,,,,,,97.52331000000001,-36.90849960000002,128.7920784
imu,416.200921,,,,,,,97.23033720000001,-36.62773400000001,130.4522576
imu,416.302484,,,,,,,97.23033720000001,-36.51786920000002,131.4166264
imu,416.404046,,,,,,,98.1824988,-36.33476120000001,131.5631128
imu,416.505578,,,,,,,97.46227400000001,-36.35917560000001,131.2945544
imu,416.607141,,,,,,,97.68200360000002,-36.3103468,131.0626176
imu,416.708703,,,,,,,97.7308324,-36.01737400000003,131.1724824
imu,417.395911,-0.3570972216000001,-9.343146736000001,3.572766674400001,-0.08213854000000001,1.4275798,-2.85336774,,,
imu,417.404363,-0.3553027632,-9.319220624000002,3.5901131056,-0.20924601,1.48739508,-3.00290594,,,
imu,417.412815,-0.3672658192000001,-9.2935000536,3.591309411200001,-0.08961545,1.5023489,-3.17487487,,,
imu,417.421267,-0.3726491944000001,-9.2827333032,3.583533424800001,-0.03727708,1.67431783,-3.33188998,,,
imu,417.429719,-0.3762381112000001,-9.280938844800001,3.585926036,-0.02232326000000001,1.8761944,-3.59358183,,,
imu,417.438171,-0.3810233336,-9.269573941600001,3.5895149528,0.26927623,2.01825569,-3.62348947,,,
imu,417.446623,-0.3696584304000001,-9.259405344000001,3.591309411200001,0.41881443,2.13040934,-3.73564312,,,
imu,417.455075,-0.35889168,-9.258209038400002,3.5823371192,0.620691,2.31733209,-3.95247351,,,
imu,417.463528,-0.3469286240000001,-9.2659850248,3.585926036,0.8449983,2.4743472,-4.012288789999999,,,
imu,417.47198,-0.3331711096,-9.280938844800001,3.586524188800001,1.10669015,2.37714737,-4.102011709999999,,,
imu,417.480432,-0.323002512,-9.289312984,3.5871223416,1.31604363,2.33976282,-4.23659609,,,
imu,417.488884,-0.3134320672,-9.292303748000002,3.591309411200001,1.46558183,2.11545552,-4.3936112,,,
imu,417.497336,-0.3194135952000001,-9.3108464848,3.588916800000001,1.54035093,1.92105586,-4.52071867,,,
imu,417.505788,-0.3194135952000001,-9.321613235200001,3.579346355200001,1.5179202,1.78647148,-4.715118329999999,,,
imu,417.514617,-0.3170209840000001,-9.330585527200002,3.5781500496,1.57025857,1.62197946,-4.89456417,,,
imu,417.523446,-0.3271895816000001,-9.326398457600002,3.5745611328,1.73475059,1.5023489,-4.87961035,,,
imu,417.532275,-0.3295821928000001,-9.322211388000001,3.5637943824,1.58521239,1.06121121,-5.0665331,,,
imu,417.541104,-0.3313766512,-9.309650179200002,3.544653492800001,1.70484295,0.9565344699999998,-5.05157928,,,
imu,417.549932,-0.340947096,-9.322809540800002,3.5386719648,1.80204278,0.6798887999999996,-5.08896383,,,
imu,417.558761,-0.3666676664,-9.3335762912,3.5428590344,1.84690424,0.5901658799999998,-5.10391765,,,
imu,417.56759,-0.3846122504,-9.347333805600002,3.5434571872,1.92167334,0.52287369,-5.14877911,,,
imu,417.576419,-0.3947808480000001,-9.3664746952,3.548840562400001,1.77961205,0.3808123999999999,-5.17120984,,,
imu,417.585248,-0.4210995712,-9.3868118904,3.5572147016,1.84690424,0.2387511099999999,-5.08148692,,,
imu,417.594077,-0.4420349192,-9.396980488,3.5524294792,1.70484295,0.3209971199999999,-5.13382529,,,
imu,417.602906,-0.4659610312,-9.382624820800002,3.556018396000001,1.37585891,0.2088434699999997,-5.26840967,,,
imu,417.611734,-0.4880926848000001,-9.367072848000001,3.5482424096,1.27865908,0.35838167,-5.20859439,,,
imu,417.620563,-0.4868963792000001,-9.342548583200001,3.550635020800001,1.31604363,0.6574580699999997,-4.954379449999999,,,
imu,417.629392,-0.5006538936,-9.334174444000002,3.550036868,1.18893616,0.8967191899999998,-4.84970271,,,
imu,417.638221,-0.4976631296000001,-9.3443430416,3.546447951200001,1.17398234,1.08364194,-4.85717962,,,
imu,417.64705,-0.4940742128000001,-9.343146736000001,3.548840562400001,1.18145925,1.17336486,-4.80484125,,,
imu,417.655879,-0.4827093096,-9.342548583200001,3.544653492800001,1.07678251,1.39019525,-4.89456417,,,
imu,417.664708,-0.4874945320000001,-9.329987374400002,3.539270117600001,1.02444414,1.53973345,-4.887087259999999,,,
imu,417.673488,-0.4886908376000001,-9.2917055952,3.539270117600001,1.06182869,1.54721036,-4.96933327,,,
imu,417.682317,-0.5066354216000001,-9.2851259144,3.5524294792,1.24875144,1.69674856,-4.77493361,,,
imu,417.691146,-0.5132151024,-9.3269966104,3.5733648272,1.18893616,1.82385603,-4.602964679999999,,,
imu,417.699975,-0.5126169496,-9.3898026544,3.5895149528,1.21136689,1.82385603,-4.625395409999999,,,
imu,417.708804,-0.5185984776000001,-9.4071490856,3.575159285600001,1.03192105,1.96591732,-4.37118047,,,
imu,417.717268,-0.5227855472,-9.3622876256,3.565588840800001,0.85995212,2.07807097,-4.04967334,,,
imu,417.725733,-0.5102243384,-9.3144354016,3.5733648272,0.80761375,2.36967046,-3.48890509,,,
imu,417.734198,-0.4868963792000001,-9.315033554400001,3.573962980000001,1.01696723,2.49677793,-3.13749032,,,
imu,417.742663,-0.472540712,-9.3383615136,3.572766674400001,1.2188438,2.48930102,-3.06272122,,,
imu,417.751128,-0.4486146000000001,-9.348530111200002,3.567981452000001,1.18145925,2.49677793,-3.08515195,,,
imu,417.759592,-0.4366515440000001,-9.3168280128,3.5691777576,1.16650543,2.34723973,-3.18982869,,,
imu,417.768057,-0.4420349192,-9.280340692000001,3.5787482024,1.22632071,2.22760917,-3.4216129,,,
imu,417.776522,-0.4486146000000001,-9.2761536224,3.5745611328,1.45810492,1.98087114,-3.69078166,,,
imu,417.784987,-0.4611758088,-9.2994815816,3.5667851464,1.55530475,1.8014253,-3.88518132,,,
imu,417.793452,-0.4880926848000001,-9.310248332,3.5548220904,1.42819728,1.71170238,-3.92256587,,,
imu,417.801917,-0.4976631296000001,-9.298285276000001,3.5596073128,1.53287402,1.81637912,-3.90761205,,,
imu,417.810381,-0.5042428104000001,-9.291107442400001,3.556018396000001,1.42072037,1.91357895,-3.92256587,,,
imu,417.818846,-0.5191966304000001,-9.283929608800001,3.546447951200001,1.58521239,2.01825569,-3.91508896,,,
imu,417.827311,-0.5185984776000001,-9.288116678400002,3.535083048000001,1.69736604,2.1752708,-4.00481188,,,
imu,417.835776,-0.5221873944000001,-9.2929019008,3.5362793536,1.8917657,2.4743472,-3.82536604,,,
imu,417.844241,-0.5144114080000001,-9.286920372800001,3.5243162976,2.09364227,2.71360832,-3.66835093,,,
imu,417.852705,-0.4970649768000001,-9.290509289600001,3.525512603200001,2.16093446,3.06502309,-3.66835093,,,
imu,417.86117,-0.4803166984,-9.316229860000002,3.530895978400001,2.14598064,3.17717674,-3.78050458,,,
imu,417.869635,-0.4677554896000001,-9.328192916,3.533288589600001,2.24318047,3.51363769,-3.78050458,,,
imu,417.8781,-0.4402404608,-9.361689472800002,3.5416627288,2.116073,3.61083752,-3.97490424,,,
imu,417.886565,-0.4109309736,-9.384419279200001,3.5404664232,2.14598064,3.76785263,-4.06462716,,,
imu,417.895029,-0.3971734592000001,-9.388008196000001,3.529699672800001,2.14598064,3.67812971,-4.034719519999999,,,
imu,417.903494,-0.3744436528,-9.385615584800002,3.5249144504,2.04878081,3.58840679,-4.08705789,,,
imu,417.911959,-0.3606861384,-9.390998960000001,3.5362793536,2.04878081,3.49120696,-3.95247351,,,
imu,417.920424,-0.3445360128,-9.4071490856,3.5386719648,1.83195042,3.23699202,-4.07210407,,,
imu,417.928889,-0.3499193880000001,-9.4041583216,3.5386719648,1.62259694,2.94539253,-4.07210407,,,
imu,417.937354,-0.3463304712,-9.388606348800002,3.5273070616,1.45810492,2.65379304,-3.77302767,,,
imu,417.945818,-0.3559009160000001,-9.385615584800002,3.5219236864,1.40576655,2.30237827,-3.60105874,,,
imu,417.954283,-0.3702565832000001,-9.3796340568,3.526110756,1.38333582,1.96591732,-3.40665908,,,
imu,417.962748,-0.3750418056000001,-9.388606348800002,3.528503367200001,1.24875144,1.76404075,-3.24216706,,,
imu,417.971213,-0.3935845424,-9.373054376,3.5536257848,1.32352054,1.59954873,-3.01785976,,,
imu,417.979678,-0.4181088072000001,-9.402363863200002,3.5787482024,1.28613599,1.44253362,-2.98795212,,,
imu,417.988142,-0.4623721144,-9.420906600000002,3.5667851464,1.17398234,1.41262598,-2.92065993,,,
imu,417.996607,-0.4737370176,-9.359895014400001,3.5434571872,0.8375213899999999,1.37524143,-2.91318302,,,
imu,418.005072,-0.517402172,-9.2785462336,3.5614017712,0.5982602699999999,1.5023489,-2.96552139,,,
imu,418.013537,-0.5281689224000001,-9.267181330400001,3.5536257848,0.64312173,1.83880985,-2.92813684,,,
imu,418.022002,-0.5275707696,-9.277349928000001,3.52910152,0.9945364999999999,2.33228591,-2.68139881,,,
imu,418.030467,-0.5084298800000001,-9.258209038400002,3.521325533600001,1.09173633,2.75846978,-2.74121409,,,
imu,418.038931,-0.4952705184000001,-9.247442288000002,3.5087643248,1.34595127,3.12483837,-2.87579847,,,
imu,418.047396,-0.4665591840000001,-9.242058912800001,3.5093624776,1.71979677,3.54354533,-3.09262886,,,
imu,418.055861,-0.4456238360000001,-9.277948080800002,3.506371713600001,2.15345755,3.76785263,-3.33188998,,,
imu,418.064326,-0.4085383624000001,-9.324005846400002,3.505175408000001,2.37776485,4.02954448,-3.496382,,,
imu,418.072791,-0.3786307224000001,-9.350324569600001,3.5039791024,2.66188743,4.05197521,-3.6459202,,,
imu,418.081255,-0.3582935272000001,-9.3545116392,3.5009883384,2.43758013,3.96225229,-3.85527368,,,
imu,418.08972,-0.34393786,-9.372456223200002,3.490221588,2.37776485,3.90243701,-3.86275059,,,
imu,418.098185,-0.3158246784000001,-9.393989724,3.490819740800001,2.30299575,3.71551426,-3.71321239,,,
imu,418.10665,-0.3038616224,-9.420906600000002,3.4830437544,2.16841137,3.46877623,-3.60105874,,,
imu,418.115115,-0.2942911776,-9.431075197600002,3.4800529904,1.95905789,3.09493073,-3.496382,,,
imu,418.123577,-0.2907022608000001,-9.417915836,3.487230824,1.79456587,2.86314652,-3.37675144,,,
imu,418.132039,-0.3026653168,-9.422102905600001,3.489025282400001,1.58521239,2.5491163,-3.33188998,,,
imu,418.140501,-0.3116376088,-9.438851184,3.4818474488,1.40576655,2.28742445,-3.21225942,,,
imu,418.148964,-0.3289840400000001,-9.435860420000001,3.478856684800001,1.19641307,2.01077878,-3.1225365,,,
imu,418.157426,-0.3403489432000001,-9.4215047528,3.475267768000001,0.88985976,1.74908693,-3.01785976,,,
imu,418.165888,-0.3469286240000001,-9.402962016000002,3.474669615200001,0.8524752099999999,1.79394839,-3.02533667,,,
imu,418.174351,-0.3630787496,-9.401765710400001,3.4764640736,0.64312173,1.71917929,-2.90570611,,,
imu,418.182813,-0.376836264,-9.399971252000002,3.4830437544,0.60573718,1.78647148,-3.0477674,,,
imu,418.191275,-0.3846122504,-9.3832229736,3.479454837600001,0.51601426,1.73413311,-3.24964397,,,
imu,418.199737,-0.3941826952,-9.380830362400001,3.4878289768,0.51601426,1.83133294,-3.24216706,,,
imu,418.2082,-0.3899956256000001,-9.3796340568,3.4878289768,0.56087572,2.01077878,-3.29450543,,,
imu,416.810223,,,,,,,97.4866884,-36.6399412,131.7340136
imu,416.911785,,,,,,,100.0502004,-37.73858920000001,129.2681592
imu,417.013348,,,,,,,97.6575892,-37.27471560000002,131.941536
imu,417.114941,,,,,,,99.110246,-37.72638200000002,129.6709968
imu,417.224285,,,,,,,98.0238052,-36.83525640000001,132.7716256
imu,417.325878,,,,,,,97.4866884,-36.65214840000002,131.9659504
imu,417.435223,,,,,,,98.20691320000002,-36.62773400000001,132.0880224
imu,417.529003,,,,,,,97.80407559999999,-36.89629240000001,131.8927072
imu,418.216662,-0.4025568344,-9.368269153600002,3.496203116000001,0.6281679099999999,1.98834805,-3.45899745,,,
imu,418.225124,-0.4079402096,-9.3664746952,3.492614199200001,0.620691,2.11545552,-3.61601256,,,
imu,418.233586,-0.415716196,-9.387410043200001,3.5027827968,0.58330645,2.18274771,-3.83284295,,,
imu,418.242049,-0.4121272792,-9.382026668000002,3.5027827968,0.53096808,2.21265535,-3.95995042,,,
imu,418.250511,-0.4055475984,-9.367072848000001,3.4985957272,0.3739529699999999,2.34723973,-3.96742733,,,
imu,418.258973,-0.4061457512000001,-9.357502403200002,3.5195310752,0.6132140899999999,2.4743472,-3.86275059,,,
imu,418.267435,-0.400762376,-9.350324569600001,3.5087643248,0.41133752,2.49677793,-3.82536604,,,
imu,418.275898,-0.3959771536000001,-9.3443430416,3.509960630400001,0.29170696,2.57154703,-3.76555076,,,
imu,418.28436,-0.4043512928,-9.3383615136,3.5183347696,0.30666078,2.46687029,-3.86275059,,,
imu,418.292822,-0.3995660704000001,-9.340754124800002,3.5165403112,0.23189168,2.45191647,-3.8702275,,,
imu,418.301285,-0.4031549872,-9.329389221600001,3.5195310752,0.44872207,2.52668557,-3.71321239,,,
imu,418.309747,-0.4085383624000001,-9.326398457600002,3.535681200800001,0.42629134,2.36219355,-3.60105874,,,
imu,418.318209,-0.4097346680000001,-9.3413522776,3.5386719648,0.50853735,2.4743472,-3.44404363,,,
imu,418.326702,-0.4133235848,-9.3383615136,3.5512331736,0.3889067899999999,2.27994754,-3.29450543,,,
imu,418.335195,-0.4103328208,-9.3586987088,3.564990688,0.44872207,2.19770153,-3.26459779,,,
imu,418.343687,-0.415716196,-9.349128264,3.55900916,0.35899915,2.24256299,-3.1973056,,,
imu,418.35218,-0.406743904,-9.3443430416,3.562598076800001,0.3889067899999999,2.19770153,-3.03281358,,,
imu,418.360673,-0.4139217376000001,-9.3443430416,3.573962980000001,0.34404533,2.18274771,-3.02533667,,,
imu,418.369166,-0.4216977240000001,-9.338959666400001,3.572168521600001,0.10478421,2.00330187,-2.94309066,,,
imu,418.377659,-0.4205014184,-9.3138372488,3.5673832992,-0.05970781,1.91357895,-2.9729983,,,
imu,418.386151,-0.4294737104000001,-9.269573941600001,3.5685796048,0.07487657,1.89114822,-2.92065993,,,
imu,418.394644,-0.4342589328000001,-9.2510312048,3.564392535200001,0.05992275,1.93600968,-2.71878336,,,
imu,418.403137,-0.4378478496000001,-9.289312984,3.5943001752,0.16459949,1.9509635,-2.48699915,,,
imu,418.41163,-0.4372496968000001,-9.355109792000002,3.6014780088,0.4711528,2.04068642,-2.16549202,,,
imu,418.420123,-0.4420349192,-9.3688673064,3.595496480800001,0.44124516,2.26499372,-1.97856927,,,
imu,418.428615,-0.4342589328000001,-9.336567055200002,3.604468772800001,0.46367589,2.33976282,-1.6271545,,,
imu,418.437108,-0.4085383624000001,-9.287518525600001,3.585926036,0.50853735,2.52668557,-1.23835518,,,
imu,418.445601,-0.3786307224000001,-9.271368400000002,3.581140813600001,0.6281679099999999,2.73603905,-0.82712513,,,
imu,418.454094,-0.3379563320000001,-9.284527761600001,3.570374063200001,0.94967504,2.96034635,-0.6925407499999998,,,
imu,418.462586,-0.3056560808,-9.2827333032,3.5512331736,1.28613599,3.03511545,-0.8944173199999998,,,
imu,418.471079,-0.3008708584000001,-9.252825663200001,3.546447951200001,1.46558183,2.89305416,-1.4028472,,,
imu,418.479572,-0.2805336632,-9.251629357600002,3.548840562400001,1.64502767,2.66126995,-1.82155416,,,
imu,418.488065,-0.2781410520000001,-9.2707702472,3.536877506400001,2.07868845,2.59397776,-2.17296893,,,
imu,418.496558,-0.2793373576,-9.298285276000001,3.523119992000001,2.2656112,2.48930102,-2.55429134,,,
imu,418.50505,-0.2889078024000001,-9.319818776800002,3.5243162976,2.37028794,2.49677793,-2.86084465,,,
imu,418.513543,-0.2877114968,-9.326398457600002,3.5302978256,2.47496468,2.50425484,-2.9729983,,,
imu,418.522036,-0.290104108,-9.338959666400001,3.5314941312,2.48244159,2.53416248,-2.95804448,,,
imu,418.530821,-0.2727576768,-9.361689472800002,3.525512603200001,2.37776485,2.81828506,-2.85336774,,,
imu,418.539606,-0.2590001624000001,-9.3688673064,3.511156936,2.13850373,2.96782326,-2.83093701,,,
imu,418.548391,-0.2374666616,-9.3622876256,3.5039791024,2.06373463,2.84071579,-2.98795212,,,
imu,418.557176,-0.2290925224000001,-9.358100556000002,3.502184644000001,1.95158098,2.75099287,-3.10758268,,,
imu,418.565961,-0.2159331608,-9.361689472800002,3.4944086576,1.86185806,2.75846978,-3.17487487,,,
imu,418.574747,-0.2009793408,-9.364082084000001,3.496203116000001,1.94410407,2.60145467,-3.21973633,,,
imu,418.583532,-0.2039701048,-9.364680236800002,3.4800529904,1.79456587,2.41453192,-3.36927453,,,
imu,418.592317,-0.1991848824,-9.367072848000001,3.4944086576,1.80951969,2.26499372,-3.45152054,,,
imu,418.601102,-0.1938015072,-9.3796340568,3.4830437544,1.82447351,2.14536316,-3.63844329,,,
imu,418.609887,-0.1932033544,-9.405952780000002,3.486632671200001,1.9665348,2.00330187,-3.68330475,,,
imu,418.618672,-0.19439966,-9.415523224800001,3.488427129600001,1.92167334,1.83133294,-3.72816621,,,
imu,418.627457,-0.197390424,-9.4173176832,3.4920160464,1.68241222,1.47991817,-3.90761205,,,
imu,418.636242,-0.203371952,-9.419710294400002,3.5039791024,1.58521239,1.2032725,-4.04967334,,,
imu,418.645027,-0.215335008,-9.435262267200002,3.4848382128,1.54035093,0.9116730099999999,-4.04967334,,,
imu,418.653812,-0.2416537312,-9.4316733504,3.4836419072,1.28613599,0.6798887999999996,-4.15435008,,,
imu,418.662597,-0.257205704,-9.4322715032,3.479454837600001,1.18145925,0.5976427899999996,-4.10948862,,,
imu,418.671382,-0.2667761488000001,-9.406550932800002,3.484240060000001,1.04687487,0.44062768,-4.04219643,,,
imu,418.680167,-0.2936930248,-9.393989724,3.471678851200001,0.9197674,0.3882893099999998,-3.91508896,,,
imu,418.688953,-0.3032634696000001,-9.3802322096,3.4896234352,0.85995212,0.3808123999999999,-3.88518132,,,
imu,418.697738,-0.3206099008000001,-9.4041583216,3.487230824,0.6954601,0.2237972899999998,-4.10948862,,,
imu,418.706523,-0.3493212352000001,-9.4244955168,3.478258532,0.56835263,0.1265974599999997,-4.20668845,,,
imu,418.715308,-0.3606861384,-9.376045140000002,3.4668936288,0.3963837,0.1191205499999999,-4.146873169999999,,,
imu,418.724093,-0.3870048616000001,-9.325202152000001,3.486632671200001,0.41881443,0.4705353199999998,-3.88518132,,,
imu,418.732572,-0.3822196392,-9.328791068800001,3.4836419072,0.46367589,0.7546578999999998,-3.70573548,,,
imu,418.741051,-0.3756399584,-9.361091320000002,3.478258532,0.4711528,1.02382666,-3.39918217,,,
imu,418.749529,-0.3606861384,-9.360493167200001,3.478258532,0.55339881,1.23318014,-3.32441307,,,
imu,418.758008,-0.3451341656,-9.325800304800001,3.4878289768,0.29918387,1.26308778,-3.58610492,,,
imu,418.766658,-0.3403489432000001,-9.291107442400001,3.507568019200001,0.35899915,1.15841104,-3.7954584,,,
imu,418.775137,-0.3421434016,-9.350324569600001,3.508166172,0.7104139199999999,1.17336486,-4.02724261,,,
imu,418.783615,-0.3517138464,-9.422701058400001,3.477062226400001,0.8973366700000001,1.32290306,-4.0945348,,,
imu,418.792094,-0.3612842912,-9.381428515200001,3.496203116000001,0.56835263,1.30047233,-4.16182699,,,
imu,418.800573,-0.3774344168000001,-9.3557079448,3.5129513944,0.32909151,1.30047233,-4.16182699,,,
imu,418.809052,-0.367863972,-9.3963823352,3.484240060000001,0.29918387,1.27056469,-4.124442439999999,,,
imu,418.817531,-0.3738455000000001,-9.404756474400001,3.532690436800001,0.07487657,1.33785688,-4.27398064,,,
imu,418.826009,-0.4013605288,-9.3754469872,3.5428590344,-0.18681528,1.4275798,-4.19921154,,,
imu,418.834488,-0.3995660704000001,-9.349128264,3.528503367200001,-0.31392275,1.43505671,-4.034719519999999,,,
imu,418.842967,-0.3887993200000001,-9.334174444000002,3.5344848952,-0.32887657,1.64441019,-3.95995042,,,
imu,418.851446,-0.4037531400000001,-9.340754124800002,3.5482424096,-0.30644584,1.74908693,-3.87770441,,,
imu,418.859925,-0.4019586816,-9.329389221600001,3.560205465600001,-0.28401511,2.01825569,-3.75807385,,,
imu,418.868403,-0.3899956256000001,-9.346735652800001,3.5661869936,-0.2765382,2.11545552,-3.70573548,,,
imu,418.876882,-0.3822196392,-9.346735652800001,3.5787482024,-0.29896893,2.29490136,-3.63844329,,,
imu,418.885361,-0.3732473472,-9.3443430416,3.5775518968,-0.4260764,2.39210119,-3.67582784,,,
imu,418.89384,-0.361882444,-9.3347725968,3.581738966400001,-0.48589168,2.46687029,-3.78798149,,,
imu,418.902319,-0.3630787496,-9.3269966104,3.5895149528,-0.41859949,2.45939338,-3.97490424,,,
imu,418.910797,-0.3559009160000001,-9.330585527200002,3.5901131056,-0.46346095,2.41453192,-4.16182699,,,
imu,418.919276,-0.352910152,-9.315631707200001,3.588916800000001,-0.37373803,2.51173175,-4.16182699,,,
imu,418.927755,-0.3553027632,-9.3036686512,3.5901131056,-0.14943073,2.60893158,-4.11696553,,,
imu,418.936231,-0.3493212352000001,-9.291107442400001,3.5901131056,-0.25410747,2.48930102,-4.18425772,,,
imu,418.944707,-0.3421434016,-9.291107442400001,3.5871223416,0.0001074699999999984,2.48182411,-4.17678081,,,
imu,418.953184,-0.3343674152,-9.2917055952,3.5853278832,0.07487657,2.30985518,-4.06462716,,,
imu,418.96166,-0.3385544848000001,-9.2970889704,3.5871223416,0.2468455,2.27247063,-3.78050458,,,
imu,418.970136,-0.34393786,-9.289312984,3.586524188800001,0.28423005,2.21265535,-3.78798149,,,
imu,418.978612,-0.3481249296000001,-9.280938844800001,3.5943001752,0.5459219,2.19770153,-3.45899745,,,
imu,418.987089,-0.3445360128,-9.2719665528,3.595496480800001,0.620691,2.09302479,-3.18235178,,,
imu,418.995565,-0.3421434016,-9.2785462336,3.593702022400001,0.79265993,2.12293243,-3.01785976,,,
imu,419.004041,-0.3367600264,-9.2964908176,3.600281703200001,0.9197674,2.05564024,-2.75616791,,,
imu,419.012518,-0.3427415544,-9.316229860000002,3.612244759200001,0.9945364999999999,1.96591732,-2.77112173,,,
imu,419.020994,-0.3385544848000001,-9.332978138400001,3.606861384000001,1.0693056,1.98087114,-2.53933752,,,
imu,419.02947,-0.3355637208,-9.3168280128,3.5996835504,1.10669015,1.91357895,-2.40475314,,,
imu,417.630566,,,,,,,98.1580844,-36.88408520000002,132.4664456
imu,417.73991,,,,,,,97.4134452,-37.04277880000002,132.3809952
imu,417.841473,,,,,,,99.39101160000001,-37.17705800000002,130.2569424
imu,417.943005,,,,,,,97.7796612,-37.34795880000001,132.0269864
imu,418.044598,,,,,,,99.8304708,-37.50665240000002,129.0484296
imu,418.14616,,,,,,,97.38903080000001,-36.68877000000001,131.8438784
imu,418.247723,,,,,,,99.96475000000001,-37.59210280000001,129.0850512
imu,418.349682,,,,,,,97.23033720000001,-36.71318440000002,131.8805
imu,419.037946,-0.3385544848000001,-9.322211388000001,3.597889092,1.04687487,2.01825569,-2.33746095,,,
imu,419.046423,-0.3236006648,-9.315033554400001,3.5996835504,1.00201341,2.22013226,-2.3000764,,,
imu,419.054899,-0.3152265256,-9.319818776800002,3.5895149528,0.9048135799999999,2.21265535,-2.34493786,,,
imu,419.063375,-0.2990764,-9.309052026400002,3.5895149528,0.9197674,2.27247063,-2.48699915,,,
imu,419.071851,-0.281131816,-9.326398457600002,3.579346355200001,1.00201341,2.33228591,-2.63653735,,,
imu,419.080328,-0.2530186344000001,-9.33118368,3.587720494400001,1.06182869,2.44443956,-2.64401426,,,
imu,419.088804,-0.2374666616,-9.332379985600001,3.5667851464,0.97958268,2.30237827,-2.83841392,,,
imu,419.09728,-0.2350740504,-9.288116678400002,3.553027632,1.04687487,2.27247063,-3.0477674,,,
imu,419.105756,-0.2374666616,-9.257012732800002,3.5685796048,1.04687487,2.0257326,-3.30945925,,,
imu,419.114233,-0.2649816904,-9.284527761600001,3.5733648272,1.06182869,1.85376367,-3.32441307,,,
imu,419.122709,-0.2679724544000001,-9.360493167200001,3.579944508,1.04687487,1.83133294,-3.27955161,,,
imu,419.131185,-0.2835244272,-9.3802322096,3.5763555912,0.9197674,1.56964109,-3.32441307,,,
imu,419.139638,-0.2895059552,-9.346137500000001,3.567981452000001,0.9272443100000001,1.59954873,-3.13749032,,,
imu,419.148092,-0.3026653168,-9.288116678400002,3.5673832992,0.8749059399999999,1.81637912,-2.94309066,,,
imu,419.156545,-0.3056560808,-9.279144386400002,3.563196229600001,1.04687487,1.8014253,-2.65896808,,,
imu,419.164999,-0.2936930248,-9.318024318400001,3.5614017712,1.22632071,1.9509635,-2.65896808,,,
imu,419.173452,-0.2805336632,-9.348530111200002,3.549438715200001,1.39828964,2.15284007,-2.66644499,,,
imu,419.181905,-0.2709632184,-9.347333805600002,3.549438715200001,1.60016621,2.33976282,-2.80102937,,,
imu,419.190359,-0.2763465936,-9.3246039992,3.5536257848,1.54035093,2.31733209,-3.25712088,,,
imu,419.198812,-0.275150288,-9.335968902400001,3.541064576,1.76465823,2.30985518,-3.66087402,,,
imu,419.207265,-0.2805336632,-9.350324569600001,3.535083048000001,1.69736604,2.10797861,-4.124442439999999,,,
imu,419.215719,-0.2913004136,-9.349128264,3.5279052144,1.77961205,2.25751681,-4.408565019999999,,,
imu,419.224172,-0.2823281216,-9.349726416800001,3.520129228,1.57773548,2.26499372,-4.67773378,,,
imu,419.232626,-0.2835244272,-9.334174444000002,3.521325533600001,1.30108981,2.324809,-4.70764142,,,
imu,419.241079,-0.28412258,-9.340754124800002,3.515942158400001,1.26370526,2.18274771,-4.68521069,,,
imu,419.249532,-0.2727576768,-9.350324569600001,3.5219236864,1.34595127,2.27994754,-4.57305704,,,
imu,419.257986,-0.2619909264,-9.346735652800001,3.5267089088,1.32352054,2.26499372,-4.48333412,,,
imu,419.266439,-0.257205704,-9.353315333600001,3.5219236864,1.24127453,2.04816333,-4.52071867,,,
imu,419.274892,-0.2625890792,-9.382624820800002,3.5219236864,1.23379762,1.78647148,-4.55810322,,,
imu,419.283346,-0.2883096496000001,-9.408943544000001,3.525512603200001,1.12912088,1.60702564,-4.5431494,,,
imu,419.291799,-0.2948893304,-9.415523224800001,3.5302978256,0.94967504,1.2780416,-4.61044159,,,
imu,419.300252,-0.3038616224,-9.426289975200001,3.5338867424,0.91229049,0.98644211,-4.51324176,,,
imu,419.308706,-0.3325729568,-9.425691822400001,3.54405534,0.7104139199999999,0.8144731799999998,-4.430995749999999,,,
imu,419.317159,-0.3499193880000001,-9.434065961600002,3.544653492800001,0.70293701,0.7397040799999997,-4.244073,,,
imu,419.325613,-0.3606861384,-9.440645642400002,3.547046104000001,0.49358353,0.58268897,-4.146873169999999,,,
imu,419.334066,-0.3834159448,-9.4107380024,3.549438715200001,0.2468455,0.6574580699999997,-3.95995042,,,
imu,419.34254,-0.3983697648000001,-9.405354627200001,3.550635020800001,-0.0522309,0.64250425,-3.95995042,,,
imu,419.351013,-0.4234921824,-9.403560168800002,3.549438715200001,-0.11204618,0.7546578999999998,-3.78050458,,,
imu,419.359487,-0.4360533912000001,-9.385017432000001,3.5548220904,-0.50832241,0.8892422799999999,-3.66087402,,,
imu,419.367961,-0.4414367664,-9.3658765424,3.564990688,-0.76253735,0.86681155,-3.6459202,,,
imu,419.376435,-0.4474182944000001,-9.343146736000001,3.5733648272,-0.7251528,1.30047233,-3.61601256,,,
imu,419.384908,-0.4348570856000001,-9.3269966104,3.572168521600001,-0.70272207,1.65936401,-3.37675144,,,
imu,419.393382,-0.4378478496000001,-9.303070498400002,3.5901131056,-0.81487572,1.83880985,-3.33188998,,,
imu,419.401856,-0.4175106544000001,-9.3060612624,3.623609662400001,-0.84478336,2.01077878,-3.21973633,,,
imu,419.410329,-0.4091365152000001,-9.326398457600002,3.626002273600001,-0.79244499,2.28742445,-3.24216706,,,
imu,419.418803,-0.3846122504,-9.294098206400001,3.600879856,-0.79244499,2.45191647,-3.2720747,,,
imu,419.427277,-0.3624805968,-9.243853371200002,3.623609662400001,-0.80739881,2.59397776,-3.21225942,,,
imu,419.435751,-0.367863972,-9.2336847736,3.6266004264,-0.64290679,2.7734236,-2.87579847,,,
imu,419.444224,-0.3128339144,-9.254021968800002,3.6289930376,-0.48589168,2.96034635,-2.5243837,,,
imu,419.452698,-0.2799355104,-9.259405344000001,3.630189343200001,-0.29149202,2.97530017,-2.3748455,,,
imu,419.461172,-0.2542149400000001,-9.2378718432,3.626002273600001,-0.16438455,2.85566961,-2.26269185,,,
imu,419.469645,-0.2350740504,-9.215142036800001,3.6283948848,0.0001074699999999984,2.73603905,-2.50942988,,,
imu,419.478119,-0.2296906752000001,-9.233086620800002,3.634974565600001,0.33656842,2.5491163,-2.56924516,,,
imu,419.486593,-0.212344244,-9.2797425392,3.6343764128,0.74779847,2.42200883,-2.68139881,,,
imu,419.495067,-0.218325772,-9.2929019008,3.6325819544,1.00949032,2.26499372,-2.54681443,,,
imu,419.50354,-0.212344244,-9.289312984,3.6475357744,1.03192105,1.92105586,-2.53933752,,,
imu,419.512014,-0.2027737992,-9.304864956800001,3.63377826,1.22632071,1.83880985,-2.46456842,,,
imu,419.520488,-0.20935348,-9.3108464848,3.624805968,1.31604363,1.77151766,-2.40475314,,,
imu,419.528961,-0.2069608688,-9.3168280128,3.6271985792,1.26370526,1.43505671,-2.48699915,,,
imu,419.537435,-0.2069608688,-9.309650179200002,3.612244759200001,1.30108981,1.42010289,-2.30755331,,,
imu,419.546241,-0.2159331608,-9.301874192800001,3.6080576896,1.31604363,1.43505671,-2.2253073,,,
imu,419.555048,-0.23926112,-9.2994815816,3.588916800000001,1.42072037,1.36028761,-2.09819983,,,
imu,419.563854,-0.2356722032,-9.3126409432,3.5871223416,1.30856672,1.33037997,-2.20287657,,,
imu,419.57266,-0.242251884,-9.298285276000001,3.585926036,1.39081273,1.36028761,-2.27764567,,,
imu,419.581467,-0.2548130928,-9.2958926648,3.581140813600001,1.45062801,1.5023489,-2.39727623,,,
imu,419.590273,-0.23926112,-9.301874192800001,3.573962980000001,1.34595127,1.577118,-2.55429134,,,
imu,419.599079,-0.2243073,-9.315033554400001,3.5847297304,1.48801256,1.74161002,-2.75616791,,,
imu,419.607886,-0.2296906752000001,-9.3317818328,3.5841315776,1.31604363,1.79394839,-2.96552139,,,
imu,419.616692,-0.2255036056,-9.3557079448,3.5763555912,1.37585891,1.86871749,-3.16739796,,,
imu,419.625498,-0.2021756464,-9.335968902400001,3.590711258400001,1.368382,1.98087114,-3.33936689,,,
imu,419.634305,-0.2075590216,-9.332978138400001,3.6062632312,1.24875144,1.94348659,-3.74312003,,,
imu,419.643111,-0.203371952,-9.351520875200002,3.5925057168,1.15155161,1.71170238,-4.22164227,,,
imu,419.651917,-0.2099516328,-9.361689472800002,3.5960946336,0.9571519499999999,1.76404075,-4.4683803,,,
imu,419.660723,-0.1938015072,-9.346735652800001,3.605066925600001,0.91229049,1.59207182,-4.6179185,,,
imu,419.66953,-0.2087553272,-9.3586987088,3.595496480800001,0.94219813,1.27056469,-4.909517989999999,,,
imu,419.678336,-0.2081571744,-9.363483931200001,3.5960946336,1.10669015,1.09859576,-4.90204108,,,
imu,419.687142,-0.2219146888,-9.3335762912,3.605066925600001,1.11416706,0.9640113799999996,-4.90204108,,,
imu,419.695949,-0.2231109944,-9.307855720800001,3.5853278832,1.13659779,0.86681155,-4.70764142,,,
imu,419.704755,-0.2171294664,-9.306659415200002,3.5883186472,1.2188438,0.6574580699999997,-4.670256869999999,,,
imu,419.713561,-0.23926112,-9.3174261656,3.5847297304,1.27865908,0.4256738599999998,-4.65530305,,,
imu,419.722368,-0.245242648,-9.323407693600002,3.579346355200001,1.2936129,0.29856639,-4.51324176,,,
imu,419.731174,-0.2542149400000001,-9.3174261656,3.5883186472,1.27118217,0.01444380999999995,-4.602964679999999,,,
imu,419.73998,-0.2859170384,-9.309052026400002,3.587720494400001,1.24127453,-0.1425713000000002,-4.647826139999999,,,
imu,419.748501,-0.2954874832,-9.318622471200001,3.5847297304,1.34595127,-0.2023865800000002,-4.58053395,,,
imu,419.757022,-0.3044597752,-9.312042790400001,3.5841315776,1.25622835,-0.4042631500000002,-4.72259524,,,
imu,419.765543,-0.3158246784000001,-9.3138372488,3.5847297304,1.20388998,-0.3668786000000002,-4.61044159,,,
imu,419.774063,-0.3086468448,-9.304864956800001,3.585926036,1.16650543,-0.31454023,-4.670256869999999,,,
imu,419.782584,-0.3253951232,-9.3138372488,3.597290939200001,1.18893616,-0.2696787700000001,-4.56558013,,,
imu,419.791105,-0.320011748,-9.357502403200002,3.5901131056,1.24127453,-0.1874327600000001,-4.68521069,,,
imu,419.799626,-0.3253951232,-9.373652528800001,3.583533424800001,1.19641307,-0.1276174800000001,-4.73007215,,,
imu,419.808146,-0.3247969704000001,-9.3664746952,3.6014780088,1.05435178,-0.1874327600000001,-4.7674567,,,
imu,419.816667,-0.3313766512,-9.332379985600001,3.5853278832,0.83004448,-0.1650020300000001,-4.87961035,,,
imu,419.825188,-0.3182172896000001,-9.308453873600001,3.6032724672,0.9347212199999999,-0.1949096699999999,-4.93942563,,,
imu,419.833709,-0.323002512,-9.367671000800001,3.620618898400001,1.0693056,-0.1799558500000003,-4.759979789999999,,,
imu,419.842229,-0.3038616224,-9.4526086984,3.6080576896,0.8973366700000001,0.01444380999999995,-4.66277996,,,
imu,419.85075,-0.2781410520000001,-9.491488630400001,3.6176281344,0.51601426,0.02939763000000006,-4.737549059999999,,,
imu,418.450815,,,,,,,97.05943640000001,-37.15264360000001,131.8072568
imu,418.552378,,,,,,,96.98619319999999,-36.68877000000001,131.5264912
imu,418.653971,,,,,,,97.3279948,-36.95732840000001,131.4654552
imu,418.755503,,,,,,,97.09605800000001,-36.34696840000002,131.57532
imu,418.857065,,,,,,,97.1082652,-36.7009772,131.7462208
imu,418.958628,,,,,,,97.9627692,-36.54228360000003,130.8306808
imu,419.06019,,,,,,,97.1082652,-36.60331960000001,131.5997344
imu,419.161753,,,,,,,99.9403356,-37.75079640000001,128.8287
imu,419.859223,-0.2715613712,-9.453206851200001,3.615833676,0.11973803,-0.01546383000000029,-4.70764142,,,
imu,419.867743,-0.2739539824000001,-9.4005694048,3.597889092,-0.24663056,-0.0005100100000001717,-4.74502597,,,
imu,419.876264,-0.2667761488000001,-9.367072848000001,3.605066925600001,-0.29149202,0.05930526999999985,-4.670256869999999,,,
imu,419.884785,-0.2625890792,-9.361091320000002,3.6152355232,-0.4260764,-0.06780220000000003,-4.737549059999999,,,
imu,419.893306,-0.2500278704,-9.356306097600001,3.602674314400001,-0.38869185,-0.1276174800000001,-4.715118329999999,,,
imu,419.901826,-0.260196468,-9.3383615136,3.5853278832,-0.56066078,-0.3444478700000002,-5.01419473,,,
imu,419.910347,-0.2697669128,-9.3210150824,3.6020761616,-0.49336859,-0.4266938800000002,-5.15625602,,,
imu,419.918868,-0.2990764,-9.3204169296,3.6062632312,-0.39616876,-0.8454008399999999,-5.23102512,,,
imu,419.927389,-0.320011748,-9.325202152000001,3.6020761616,-0.47841477,-1.05475432,-5.3656095,,,
imu,419.93591,-0.3547046104000001,-9.316229860000002,3.6032724672,-0.40364567,-1.12204651,-5.17120984,,,
imu,419.94443,-0.3654713608,-9.308453873600001,3.60387062,-0.44850713,-1.13700033,-4.909517989999999,,,
imu,419.263315,,,,,,,97.3035804,-36.28593240000002,130.8550952
imu,419.364908,,,,,,,99.7083988,-37.44561640000001,128.7798712
imu,419.466471,,,,,,,97.23033720000001,-37.00615720000003,130.96496
imu,419.568003,,,,,,,97.1815084,-36.38359000000002,132.063608
imu,419.669565,,,,,,,97.6087604,-36.55449080000002,131.697392
imu,419.771158,,,,,,,97.4866884,-36.44462600000003,131.4044192
imu,419.881083,,,,,,,97.3768236,-36.55449080000002,131.9049144
