Type,Timestamp,Data Accelerometer X,Data Accelerometer Y,Data Accelerometer Z,Data Gyroscope X,Data Gyroscope Y,Data Gyroscope Z,Data Magnetometer X,Data Magnetometer Y,Data Magnetometer Z
imu,225.369885,-0.6125084672000001,-9.440047489600001,2.9034336912,-0.69524516,2.81080815,-3.72816621,,,
imu,225.378437,-0.62806044,-9.447225323200001,2.896854010400001,-0.32139966,2.78837742,-3.8702275,,,
imu,225.38699,-0.6274622872000001,-9.435860420000001,2.898050316,0.08235347999999998,2.87062343,-3.66835093,,,
imu,225.395542,-0.6346401208000001,-9.4280844336,2.9046299968,0.25432241,2.93791562,-3.57862801,,,
imu,225.404095,-0.6208826064000001,-9.431075197600002,2.901041080000001,0.64312173,3.11736146,-3.21973633,,,
imu,225.412647,-0.6154992312,-9.447823476,2.908218913600001,0.8449983,3.07997691,-3.06272122,,,
imu,225.4212,-0.6178918424000002,-9.460384684800001,2.9088170664,1.0693056,3.16222292,-3.0477674,,,
imu,225.429586,-0.6005454112,-9.478927421600002,2.9094152192,1.368382,3.32671494,-2.77112173,,,
imu,225.437972,-0.5909749664,-9.493283088800002,2.910611524800001,1.57773548,3.42391477,-2.53186061,,,
imu,225.446358,-0.5742266880000001,-9.5148165896,2.9064244552,1.91419643,3.54354533,-2.18792275,,,
imu,225.454744,-0.5586747152,-9.511227672800002,2.8998447744,1.75718132,3.46877623,-2.18044584,,,
imu,225.46313,-0.5437208952000001,-9.510031367200002,2.899246621600001,1.77213514,3.48373005,-2.03838455,,,
imu,225.471516,-0.5407301312,-9.506442450400002,2.889078024,1.79456587,3.62579134,-1.76173888,,,
imu,225.479902,-0.5341504504000001,-9.517807353600002,2.8842928016,1.80951969,3.71551426,-1.7019236,,,
imu,225.488288,-0.5251781584,-9.5381445488,2.864553759200001,1.93662716,3.73794499,-1.51500085,,,
imu,225.496674,-0.5239818528000001,-9.552500216,2.8585722312,1.86933497,3.6706528,-1.73183124,,,
imu,225.50506,-0.5156077136000001,-9.5501076048,2.8519925504,1.91419643,3.82766791,-1.71687742,,,
imu,225.513446,-0.5012520464000001,-9.5447242296,2.8448147168,1.97401171,3.90991392,-1.82155416,,,
imu,225.521832,-0.5006538936,-9.557883591200001,2.8460110224,2.01139626,4.00711375,-1.85893871,,,
imu,225.530218,-0.4976631296000001,-9.5698466472,2.8298608968,2.14598064,4.35105161,-1.86641562,,,
imu,225.538604,-0.4910834488,-9.5656595776,2.82627198,2.16841137,4.410866889999999,-1.95613854,,,
imu,225.54699,-0.4623721144,-9.560874355200001,2.819692299200001,2.05625772,4.74732784,-1.94118472,,,
imu,225.555376,-0.4402404608,-9.5602762024,2.812514465600001,2.09364227,4.8669584,-1.93370781,,,
imu,225.563762,-0.4145198904,-9.568052188800001,2.798756951200001,1.98896553,4.85200458,-1.97856927,,,
imu,225.572148,-0.3953790008,-9.5698466472,2.8011495624,2.01139626,4.75480475,-2.11315365,,,
imu,225.580534,-0.3810233336,-9.572239258400002,2.794569881600001,1.83195042,4.57535891,-2.36736859,,,
imu,225.588919,-0.361882444,-9.591380148,2.8149070768,1.77961205,4.35105161,-2.48699915,,,
imu,225.597305,-0.3654713608,-9.596763523200002,2.8119163128,1.73475059,4.11179049,-2.59167589,,,
imu,225.605691,-0.3732473472,-9.602745051200001,2.8101218544,1.71979677,3.87252937,-2.56924516,,,
imu,225.614077,-0.3798270280000001,-9.6260730104,2.8190941464,1.5179202,3.56597606,-2.64401426,,,
imu,225.622463,-0.3846122504,-9.61530626,2.8214867576,1.25622835,3.40896095,-2.65896808,,,
imu,225.630929,-0.3816214864,-9.6009505928,2.8268701328,1.09921324,3.17717674,-2.50942988,,,
imu,225.639396,-0.3971734592000001,-9.604539509600002,2.825075674400001,1.03939796,2.91548489,-2.5243837,,,
imu,225.647862,-0.4115291264,-9.611119190400002,2.8226830632,0.65807555,2.80333124,-2.47952224,,,
imu,225.656328,-0.4049494456000001,-9.606932120800002,2.825075674400001,0.58330645,2.65379304,-2.47204533,,,
imu,225.664794,-0.4151180432000001,-9.562668813600002,2.8184959936,0.42629134,2.43696265,-2.51690679,,,
imu,225.67326,-0.4318663216,-9.533957479200001,2.8268701328,0.50853735,2.31733209,-2.5243837,,,
imu,225.681726,-0.4474182944000001,-9.558481744000002,2.8418239528,0.53096808,2.20517844,-2.50942988,,,
imu,225.690192,-0.442633072,-9.620689635200002,2.8478054808,0.53844499,2.1005017,-2.31503022,,,
imu,225.698658,-0.454596128,-9.630858232800001,2.8268701328,0.40386061,1.95844041,-2.25521494,,,
imu,225.707124,-0.4623721144,-9.588389384000001,2.8280664384,0.30666078,1.88367131,-1.9262309,,,
imu,225.71559,-0.4605776560000001,-9.538742701600002,2.843020258400001,0.3216146,1.89114822,-1.56733922,,,
imu,225.724056,-0.4587831976000001,-9.5291722568,2.841225800000001,0.46367589,1.93600968,-0.9318018699999999,,,
imu,225.732522,-0.4288755576000001,-9.535153784800002,2.835244272,0.7403215599999999,2.05564024,-0.4233719899999999,,,
imu,225.740989,-0.3959771536000001,-9.5381445488,2.8340479664,0.70293701,2.00330187,-0.31869525,,,
imu,225.749455,-0.3433397072,-9.5327611736,2.8418239528,0.46367589,2.00330187,-0.62524856,,,
imu,225.757921,-0.3194135952000001,-9.520798117600002,2.838235036,0.35152224,1.8014253,-0.93927878,,,
imu,225.766387,-0.3224043592,-9.520199964800002,2.8280664384,0.52349117,1.46496435,-1.43275484,,,
imu,225.774853,-0.320011748,-9.531564868,2.8244775216,0.45619898,1.17336486,-1.97109236,,,
imu,225.783319,-0.3098431504,-9.5291722568,2.8190941464,0.35152224,0.84438082,-2.45709151,,,
imu,225.791785,-0.3116376088,-9.519003659200001,2.8244775216,0.63564482,0.7097964399999999,-2.76364482,,,
imu,225.800251,-0.3194135952000001,-9.5118258256,2.8274682856,0.71789083,0.4630584099999999,-2.98047521,,,
imu,225.808717,-0.3170209840000001,-9.5172092008,2.8286645912,0.7253677399999999,0.4331507699999997,-3.16739796,,,
imu,225.817183,-0.3158246784000001,-9.5219944232,2.825075674400001,0.82256757,0.2537049300000001,-3.30945925,,,
imu,225.825649,-0.3170209840000001,-9.533957479200001,2.8346461192,1.11416706,0.27613566,-3.24216706,,,
imu,225.83411,-0.3116376088,-9.5489112992,2.8364405776,1.12164397,0.29856639,-3.33188998,,,
imu,225.842571,-0.311039456,-9.552500216,2.8436184112,0.9646288599999999,0.2387511099999999,-3.36927453,,,
imu,225.851032,-0.3206099008000001,-9.562668813600002,2.8424221056,1.22632071,0.11164364,-3.33936689,,,
imu,225.859493,-0.3128339144,-9.567454036,2.8519925504,1.01696723,-0.007986920000000008,-3.4216129,,,
imu,225.867954,-0.3212080536,-9.568650341600001,2.8609648424,0.8674290299999999,0.08173599999999981,-3.4216129,,,
imu,225.876415,-0.3247969704000001,-9.5698466472,2.87113344,1.04687487,0.1265974599999997,-3.20478251,,,
imu,225.884876,-0.331974804,-9.559678049600002,2.853188856,0.78518302,0.1415512799999998,-3.30945925,,,
imu,225.893337,-0.3481249296000001,-9.5590798968,2.8693389816,0.6281679099999999,0.02192071999999978,-3.38422835,,,
imu,225.901798,-0.3612842912,-9.554892827200002,2.8603666896,0.56087572,0.11164364,-3.36179762,,,
imu,225.910259,-0.3744436528,-9.553696521600001,2.8615629952,0.71789083,0.3135202100000001,-3.36927453,,,
imu,225.91872,-0.3935845424,-9.5489112992,2.859170384,0.5459219,0.4929660499999997,-3.45899745,,,
imu,225.927181,-0.3941826952,-9.541135312800002,2.8537870088,0.59078336,0.8892422799999999,-3.33936689,,,
imu,225.935642,-0.3953790008,-9.519601812000001,2.853188856,0.53096808,1.11354958,-3.38422835,,,
imu,225.944103,-0.3935845424,-9.496872005600002,2.85617962,0.47862971,1.42010289,-3.36179762,,,
imu,225.952564,-0.3882011672000001,-9.5237888816,2.8747223568,0.5010604399999999,1.78647148,-3.36179762,,,
imu,225.961025,-0.3822196392,-9.554294674400001,2.865151912,0.46367589,1.9509635,-3.40665908,,,
imu,225.969486,-0.3648732080000001,-9.528574104,2.8394313416,0.53096808,2.11545552,-3.47395127,,,
imu,225.977947,-0.3576953744,-9.492086783200001,2.859170384,0.29918387,2.27247063,-3.6459202,,,
imu,225.986408,-0.3559009160000001,-9.493283088800002,2.8657500648,0.38142988,2.29490136,-3.5711511,,,
imu,225.994869,-0.3535083048,-9.517807353600002,2.8555814672,0.60573718,2.34723973,-3.39918217,,,
imu,226.00333,-0.3379563320000001,-9.533359326400001,2.8513943976,0.5010604399999999,2.324809,-3.35432071,,,
imu,226.011791,-0.3427415544,-9.527975951200002,2.850198092000001,0.46367589,2.29490136,-3.39918217,,,
imu,226.020252,-0.3391526376000001,-9.5213962704,2.8537870088,0.53844499,2.18274771,-3.39170526,,,
imu,226.028713,-0.3355637208,-9.523190728800001,2.8585722312,0.53096808,2.01825569,-3.50385891,,,
imu,226.037248,-0.3361618736,-9.541135312800002,2.85617962,0.79265993,1.92105586,-3.56367419,,,
imu,226.045783,-0.3493212352000001,-9.546518688,2.8478054808,0.8449983,1.69674856,-3.61601256,,,
imu,226.054318,-0.3559009160000001,-9.554892827200002,2.833449813600001,0.82256757,1.47244126,-3.6459202,,,
imu,226.062852,-0.3606861384,-9.553696521600001,2.8448147168,0.8973366700000001,1.49487199,-3.71321239,,,
imu,226.071387,-0.3576953744,-9.5602762024,2.829262744000001,0.9272443100000001,1.48739508,-3.7206893,,,
imu,226.079922,-0.3738455000000001,-9.578220786400001,2.831655355200001,0.74779847,1.41262598,-3.71321239,,,
imu,226.088457,-0.3570972216000001,-9.5812115504,2.838235036,0.7403215599999999,1.23318014,-3.50385891,,,
imu,226.096991,-0.3564990688,-9.571641105600001,2.8394313416,0.56087572,1.15841104,-3.50385891,,,
imu,226.105526,-0.3666676664,-9.5740337168,2.8478054808,0.3739529699999999,1.14345722,-3.63844329,,,
imu,226.114061,-0.3553027632,-9.5740337168,2.8448147168,0.33656842,1.00887284,-3.63096638,,,
imu,226.122596,-0.3600879856,-9.562668813600002,2.8507962448,0.20198404,0.8892422799999999,-3.66087402,,,
imu,226.13113,-0.3642750552,-9.555490980000002,2.866348217600001,0.08983038999999998,0.9116730099999999,-3.63844329,,,
imu,226.139665,-0.3547046104000001,-9.550705757600001,2.8579740784,-0.05970781,1.00139593,-3.77302767,,,
imu,226.1482,-0.3493212352000001,-9.538742701600002,2.866348217600001,-0.16438455,0.9191499199999997,-3.7954584,,,
imu,226.156735,-0.3630787496,-9.531564868,2.8789094264,-0.14195382,0.86681155,-4.17678081,,,
imu,226.165269,-0.3630787496,-9.516611048000001,2.8783112736,0.02253820000000001,0.8219500899999996,-4.37118047,,,
imu,226.173804,-0.3630787496,-9.520798117600002,2.8842928016,0.05992275,0.7696117199999999,-4.55062631,,,
imu,226.182339,-0.361882444,-9.5184055064,2.8926669408,0.02253820000000001,0.8144731799999998,-4.909517989999999,,,
imu,226.190874,-0.3798270280000001,-9.520798117600002,2.9016392328,-0.03727708,0.8219500899999996,-5.02914855,,,
imu,226.199408,-0.376836264,-9.541135312800002,2.901041080000001,0.12721494,0.8144731799999998,-5.17120984,,,
imu,226.207943,-0.3798270280000001,-9.534555632000002,2.9136022888,0.1720764,0.8817653699999997,-5.193640569999999,,,
imu,226.216478,-0.376836264,-9.520798117600002,2.9153967472,0.1720764,0.86681155,-5.22354821,,,
imu,226.225013,-0.3893974728000001,-9.522592576000001,2.9327431784,0.29170696,0.7920424499999998,-5.26840967,,,
imu,226.233547,-0.385808556,-9.516012895200001,2.935733942400001,0.3216146,0.8518577299999999,-5.02914855,,,
imu,226.242295,-0.3977716120000001,-9.502853533600002,2.9387247064,0.28423005,0.6350273399999997,-5.02914855,,,
imu,226.251043,-0.4109309736,-9.487899713600001,2.9303505672,0.23189168,0.2312741999999997,-5.17120984,,,
imu,226.259791,-0.4258847936,-9.478329268800001,2.936930248,0.23936859,0.19388965,-5.05157928,,,
imu,226.268539,-0.4408386136,-9.4669643656,2.935733942400001,0.38142988,0.2237972899999998,-4.86465653,,,
imu,226.277287,-0.4563905864000001,-9.457992073600002,2.9333413312,0.36647606,0.08921290999999965,-4.759979789999999,,,
imu,226.286035,-0.4857000736000001,-9.463973601600001,2.9423136232,0.78518302,0.05182836000000002,-4.65530305,,,
imu,226.294783,-0.5042428104000001,-9.465169907200002,2.941117317600001,0.91229049,0.06678217999999969,-4.602964679999999,,,
imu,226.303531,-0.517402172,-9.462777296000002,2.9297524144,1.09921324,0.2537049300000001,-4.25902682,,,
imu,226.312279,-0.5317578392000001,-9.464571754400001,2.9291542616,1.33099745,0.44062768,-4.102011709999999,,,
imu,225.388156,,,,,,,100.4286236,-39.48421880000001,132.551896
imu,225.489718,,,,,,,98.1580844,-38.48322840000002,133.4796432
imu,225.591311,,,,,,,100.330966,-39.17903880000002,131.453248
imu,225.692813,,,,,,,97.82849,-38.20246280000001,134.2242824
imu,226.321027,-0.5437208952000001,-9.4753385048,2.922574580800001,1.52539711,0.6125966099999998,-4.02724261,,,
imu,226.329775,-0.5556839512000001,-9.4944793944,2.922574580800001,1.57773548,0.8369039099999998,-3.96742733,,,
imu,226.338523,-0.5556839512000001,-9.4944793944,2.9076207608,1.65998149,1.03130357,-3.73564312,,,
imu,226.34727,-0.5574784096000001,-9.461580990400002,2.9088170664,1.76465823,1.37524143,-3.66835093,,,
imu,226.356018,-0.5730303824,-9.461580990400002,2.9088170664,1.85438115,1.74908693,-3.54124346,,,
imu,226.364766,-0.5688433128,-9.5172092008,2.910013372,1.98896553,2.01825569,-3.3468438,,,
imu,226.373514,-0.5604691736,-9.576426328,2.899246621600001,2.13102682,2.48182411,-3.21973633,,,
imu,226.382262,-0.5586747152,-9.591978300800001,2.8789094264,2.02635008,2.86314652,-3.05524431,,,
imu,226.39101,-0.5520950344000001,-9.579417092000002,2.8723297456,2.01139626,3.2968073,-2.81598319,,,
imu,226.399758,-0.5514968816000001,-9.5740337168,2.865151912,1.8917657,3.82766791,-2.43466078,,,
imu,226.408506,-0.5556839512000001,-9.591978300800001,2.8370387304,2.13850373,4.35105161,-2.01595382,,,
imu,226.417254,-0.5837971328000001,-9.620091482400001,2.805336632,2.16093446,4.92677368,-1.66453905,,,
imu,226.426002,-0.6154992312,-9.6523917336,2.7855975896,1.92167334,5.569787939999999,-1.56733922,,,
imu,226.43475,-0.6202844536000002,-9.671532623200001,2.78141052,1.71979677,6.19037147,-1.15610917,,,
imu,226.443225,-0.6268641344,-9.6709344704,2.7658585472,1.18893616,6.7361859,-0.9542325999999999,,,
imu,226.4517,-0.6047324808000001,-9.672130776000001,2.7700456168,0.78518302,7.341815609999999,-0.88694041,,,
imu,226.46016,-0.5826008272000001,-9.669738164800002,2.7688493112,0.42629134,8.01473751,-0.57291019,,,
imu,226.468635,-0.5341504504000001,-9.660765872800003,2.7676530056,-0.17933837,8.54559812,-0.4831872699999999,,,
imu,226.47711,-0.4791203928000001,-9.633250844,2.7658585472,-0.74758353,8.941874349999999,-0.26635688,,,
imu,226.485585,-0.385808556,-9.610521037600002,2.7766252976,-1.30835178,9.233473839999998,-0.1317724999999998,,,
imu,226.49406,-0.3080486920000001,-9.584800467200001,2.780812367200001,-1.71210492,9.21852002,-0.05700339999999993,,,
imu,226.502535,-0.2374666616,-9.553098368800002,2.7909809648,-1.95884295,9.15122783,-0.2140185099999998,,,
imu,226.51101,-0.1830347568,-9.530368562400001,2.805934784800001,-1.9214584,8.92692053,-0.55047946,,,
imu,226.519485,-0.1160416432,-9.5219944232,2.822084910400001,-1.89902767,8.351198459999999,-0.9467556899999998,,,
imu,226.52796,-0.06400234960000001,-9.514218436800002,2.8424221056,-1.9962275,7.73809184,-1.39537029,,,
imu,226.536435,-0.0281131816,-9.498666464000001,2.866348217600001,-1.90650458,7.080123759999999,-1.99352309,,,
imu,226.54491,0.0053833752,-9.5184055064,2.891470635200001,-1.71210492,6.30252512,-2.41970696,,,
imu,226.553385,0.0263187232,-9.541135312800002,2.9034336912,-1.48779762,5.52492648,-2.8234601,,,
imu,226.56186,0.03648732080000001,-9.571042952800001,2.945304387200001,-1.46536689,4.61274346,-3.24964397,,,
imu,226.570335,0.0442633072,-9.583006008800002,2.9644452768,-1.48779762,3.83514482,-3.42908981,,,
imu,226.57881,0.04725407120000001,-9.572239258400002,2.980595402400001,-1.59247436,3.11736146,-3.63096638,,,
imu,226.587285,0.03887993200000001,-9.5590798968,3.0009325976,-1.62985891,2.33228591,-3.84779677,,,
imu,226.59576,0.0161501256,-9.555490980000002,3.0122975008,-1.63733582,1.49487199,-4.04967334,,,
imu,226.604235,-0.0023926112,-9.5459205352,3.0284476264,-1.90650458,0.9041961000000001,-4.124442439999999,,,
imu,226.61271,-0.023926112,-9.533359326400001,3.020073487200001,-2.04856587,0.21632038,-4.19921154,,,
imu,226.621185,-0.062806044,-9.491488630400001,3.020073487200001,-2.04108896,-0.20986349,-4.21416536,,,
imu,226.62966,-0.07895616960000001,-9.456197615200002,3.0481866688,-2.01118132,-0.80053938,-4.40108811,,,
imu,226.638135,-0.1142471848,-9.459786532,3.0607478776,-1.71958183,-1.12204651,-4.625395409999999,,,
imu,226.646595,-0.1477437416,-9.4591883792,3.05057928,-1.622382,-1.39121527,-4.999240909999999,,,
imu,226.655055,-0.1896144376,-9.412532460800001,3.054168196800001,-1.70462801,-1.60804566,-5.45533242,,,
imu,226.663514,-0.2308869808,-9.3766432928,3.083477684,-1.64481273,-1.70524549,-5.58243989,,,
imu,226.671974,-0.2542149400000001,-9.389204501600002,3.0936462816,-1.27096723,-1.5631842,-5.612347529999999,,,
imu,226.680434,-0.2673743016,-9.4041583216,3.0882629064,-0.90459864,-1.45103055,-5.75440882,,,
imu,226.688893,-0.2727576768,-9.402363863200002,3.0936462816,-0.85973718,-1.35383072,-6.0385314,,,
imu,226.697353,-0.2787392048,-9.3694654592,3.108001948800001,-0.7401066199999999,-1.286538530000001,-6.44976145,,,
imu,226.705813,-0.3092449976000001,-9.356904250400001,3.11039456,-0.45598404,-1.27906162,-6.91332987,,,
imu,226.714273,-0.3475267768,-9.373054376,3.113385324,-0.10456927,-1.25663089,-7.474098119999999,,,
imu,226.722732,-0.3582935272000001,-9.3904008072,3.117572393600001,0.11226112,-1.22672325,-7.840466709999999,,,
imu,226.731192,-0.3804251808,-9.401765710400001,3.11039456,0.19450713,-1.36130763,-8.1320662,,,
imu,226.739652,-0.4049494456000001,-9.404756474400001,3.1157779352,0.46367589,-1.27906162,-8.26665058,,,
imu,226.748112,-0.4384460024000001,-9.399971252000002,3.1259465328,0.7702292,-1.35383072,-8.22178912,,,
imu,226.756571,-0.4462219888000001,-9.3993730992,3.123553921600001,0.9197674,-1.30149235,-7.96757418,,,
imu,226.765031,-0.4707462536000001,-9.402962016000002,3.112787171200001,1.01696723,-1.27158471,-7.601205589999999,,,
imu,226.773491,-0.4928779072000001,-9.402363863200002,3.119366852000001,1.33099745,-1.39869218,-7.3096061,,,
imu,226.78195,-0.5245800056000001,-9.4041583216,3.1062074904,1.52539711,-1.45103055,-6.905852959999999,,,
imu,226.79041,-0.5407301312,-9.404756474400001,3.0936462816,1.88428879,-1.5631842,-6.59182274,,,
imu,226.79887,-0.5754229936,-9.4041583216,3.078094308800001,2.08616536,-1.52579965,-6.38994617,,,
imu,226.80733,-0.6107140088,-9.419112141600001,3.068523864000001,2.55721069,-1.37626145,-6.06096213,,,
imu,226.815789,-0.6220789120000001,-9.46576806,3.059551572000001,2.863764,-1.22672325,-5.83665483,,,
imu,226.824249,-0.6412198016000001,-9.4908904776,3.0368217656,2.96096383,-1.1893387,-5.57496298,,,
imu,226.832709,-0.6687348304,-9.5004609224,3.0194753344,2.93105619,-1.01736977,-5.64973208,,,
imu,226.841169,-0.6860812616,-9.5040498392,3.015288264800001,2.998348379999999,-0.6285704500000002,-5.43290169,,,
imu,226.849717,-0.6800997336000001,-9.5148165896,2.997941833600001,3.03573293,-0.1799558500000003,-5.09644074,,,
imu,226.858266,-0.6753145112000001,-9.5172092008,2.9859787776,3.17779422,0.35838167,-4.81231816,,,
imu,226.866815,-0.6561736216000001,-9.517807353600002,2.9674360408,3.00582529,0.8518577299999999,-4.52071867,,,
imu,226.875364,-0.6436124128,-9.514218436800002,2.952482220800001,2.97591765,1.24065705,-4.453426479999999,,,
imu,226.883912,-0.6208826064000001,-9.510031367200002,2.93094872,2.94601001,1.77151766,-4.22911918,,,
imu,226.892461,-0.5963583416000001,-9.5118258256,2.9153967472,2.91610237,1.90610204,-4.22911918,,,
imu,226.90101,-0.5676470072,-9.513620284000002,2.9016392328,2.98339456,2.26499372,-4.19173463,,,
imu,226.909558,-0.5467116592000001,-9.5010590752,2.8669463704,2.89367164,2.50425484,-3.96742733,,,
imu,226.918107,-0.505439116,-9.5004609224,2.8687408288,2.98339456,2.73603905,-3.83284295,,,
imu,226.926656,-0.4821111568000001,-9.5237888816,2.8537870088,3.08059439,2.82576197,-3.69825857,,,
imu,226.935205,-0.4468201416000001,-9.562070660800002,2.8555814672,3.12545585,2.75099287,-3.7206893,,,
imu,226.943753,-0.4264829464000001,-9.5949690648,2.8400294944,3.00582529,2.74351596,-3.77302767,,,
imu,226.952302,-0.4210995712,-9.606333968000001,2.854983314400001,2.87124091,2.63883922,-3.91508896,,,
imu,226.960851,-0.4252866408000001,-9.6296619272,2.8573759256,2.57216451,2.57154703,-3.98985806,,,
imu,226.9694,-0.4169125016,-9.6470083584,2.8573759256,2.43010322,2.42200883,-3.75059694,,,
imu,226.977948,-0.4205014184,-9.639232372,2.8478054808,2.16841137,2.21265535,-3.66087402,,,
imu,226.986497,-0.4270810992000001,-9.6326526912,2.8555814672,1.65250458,2.11545552,-3.57862801,,,
imu,226.995046,-0.4222958768,-9.633848996800001,2.856777772800001,1.48053565,2.07807097,-3.45152054,,,
imu,227.003595,-0.4234921824,-9.6499991224,2.862161148000001,1.32352054,2.12293243,-3.24964397,,,
imu,227.012143,-0.4282774048000001,-9.651195428000001,2.8669463704,1.05435178,2.08554788,-3.18982869,,,
imu,227.020692,-0.4258847936,-9.6117173432,2.87113344,0.83004448,2.1005017,-3.17487487,,,
imu,227.029241,-0.4390441552000001,-9.572837411200002,2.8807038848,0.5010604399999999,2.04068642,-3.26459779,,,
imu,227.037789,-0.4498109056,-9.5776226336,2.9112096776,0.25432241,2.09302479,-3.20478251,,,
imu,227.046338,-0.4462219888000001,-9.6224840936,2.9321450256,0.08983038999999998,2.04068642,-3.21225942,,,
imu,227.055074,-0.451605364,-9.665551095200001,2.9375284008,-0.04475399000000001,1.99582496,-3.40665908,,,
imu,227.06381,-0.4522035168,-9.636839760800001,2.942911776,-0.45598404,2.03320951,-3.33188998,,,
imu,227.072546,-0.4605776560000001,-9.5907819952,2.966837888,-0.81487572,2.09302479,-3.27955161,,,
imu,227.081282,-0.4456238360000001,-9.555490980000002,2.9853806248,-1.14385976,2.20517844,-3.0477674,,,
imu,227.090018,-0.4408386136,-9.556089132800002,3.0003344448,-1.1737674,2.22760917,-2.84589083,,,
imu,227.098754,-0.442633072,-9.5459205352,2.990764,-1.24105959,2.05564024,-2.98047521,,,
imu,227.10749,-0.4354552384000001,-9.5082369088,2.9829880136,-1.19619813,1.89114822,-3.11505959,,,
imu,227.116226,-0.4270810992000001,-9.465169907200002,3.002727056,-1.1737674,1.56216418,-3.37675144,,,
imu,227.124962,-0.4342589328000001,-9.4454308648,3.0158864176,-1.0242292,1.25561087,-3.63096638,,,
imu,227.133698,-0.4587831976000001,-9.448421628800002,3.015288264800001,-0.7401066199999999,1.09111885,-3.80293531,,,
imu,225.794381,,,,,,,97.91394040000002,-38.81282280000002,130.6109512
imu,225.895974,,,,,,,98.072634,-38.26349880000001,133.955724
imu,225.997506,,,,,,,98.4266428,-38.27570600000001,134.3463544
imu,226.099069,,,,,,,98.26794919999999,-37.86066120000002,134.7369848
imu,226.200601,,,,,,,98.2923636,-37.82403960000001,134.3097328
imu,226.309976,,,,,,,98.09704839999999,-37.99494040000002,134.1876608
imu,226.411569,,,,,,,101.0145692,-38.16584120000002,133.3209496
imu,226.513131,,,,,,,98.45105720000001,-37.4944452,134.0289672
imu,227.142434,-0.4695499480000001,-9.4621791432,3.033831001600001,-0.47841477,0.8817653699999997,-3.84031986,,,
imu,227.15117,-0.4892889904,-9.4490197816,3.029643932,-0.29149202,0.8892422799999999,-3.69825857,,,
imu,227.159906,-0.4892889904,-9.4412437952,3.040410682400001,-0.17186146,0.8518577299999999,-3.39170526,,,
imu,227.168642,-0.4892889904,-9.439449336800001,3.056560808,-0.04475399000000001,0.9341037399999998,-3.21225942,,,
imu,227.177378,-0.4803166984,-9.422102905600001,3.063738641600001,0.03749201999999999,1.0537343,-3.07767504,,,
imu,227.186114,-0.481513004,-9.416719530400002,3.063738641600001,0.26927623,1.04625739,-2.96552139,,,
imu,227.19485,-0.4928779072000001,-9.4280844336,3.0739072392,0.27675314,1.02382666,-3.1225365,,,
imu,227.203586,-0.4839056152000001,-9.439449336800001,3.0673275584,0.36647606,1.06121121,-3.25712088,,,
imu,227.212322,-0.4892889904,-9.439449336800001,3.074505392,0.620691,1.08364194,-3.36179762,,,
imu,227.221058,-0.4910834488,-9.437654878400002,3.083477684,0.64312173,1.21074941,-3.73564312,,,
imu,227.229794,-0.4982612824000001,-9.460384684800001,3.079290614400001,0.7403215599999999,1.2780416,-3.77302767,,,
imu,227.23853,-0.4946723656000001,-9.468758824,3.0798887672,0.91229049,1.59954873,-3.86275059,,,
imu,227.247266,-0.4898871432,-9.478927421600002,3.075103544800001,1.07678251,1.81637912,-4.034719519999999,,,
imu,227.255735,-0.4857000736000001,-9.478329268800001,3.0673275584,0.9646288599999999,1.94348659,-4.18425772,,,
imu,227.264203,-0.4767277816000001,-9.4765348104,3.0667294056,1.04687487,2.19022462,-4.33379592,,,
imu,227.272672,-0.4785222400000001,-9.464571754400001,3.0529718912,1.16650543,2.26499372,-4.43847266,,,
imu,227.28114,-0.46356842,-9.4753385048,3.0422051408,1.31604363,2.55659321,-4.43847266,,,
imu,227.289609,-0.4551942808000001,-9.4765348104,3.0302420848,1.41324346,2.44443956,-4.55062631,,,
imu,227.298078,-0.4587831976000001,-9.4633754488,3.017082723200001,1.62259694,2.55659321,-4.49081103,,,
imu,227.306546,-0.4528016696000001,-9.457393920800001,3.015288264800001,1.80951969,2.67622377,-4.40108811,,,
imu,227.315015,-0.4372496968000001,-9.460384684800001,3.0254568624,2.01887317,2.87810034,-4.28893446,,,
imu,227.323484,-0.4354552384000001,-9.495077547200001,3.0230642512,2.22074974,2.71360832,-4.363703559999999,,,
imu,227.331952,-0.4366515440000001,-9.520798117600002,2.9943529168,2.25813429,2.57902394,-4.44594957,,,
imu,227.340421,-0.4420349192,-9.5004609224,2.979997249600001,2.29551884,2.41453192,-4.46090339,,,
imu,227.348889,-0.4641665728000001,-9.460982837600001,2.991960305600001,2.22822665,2.42948574,-4.22164227,,,
imu,227.357358,-0.4701481008,-9.4831144912,2.9871750832,2.35533412,2.55659321,-3.95995042,,,
imu,227.365827,-0.4617739616000001,-9.4962738528,2.9656415824,2.20579592,2.53416248,-3.90761205,,,
imu,227.374295,-0.4659610312,-9.486703408,2.954874832000001,2.33290339,2.70613141,-3.63844329,,,
imu,227.382764,-0.4504090584,-9.478329268800001,2.957267443200001,2.46001086,2.65379304,-3.54124346,,,
imu,227.391233,-0.451605364,-9.471151435200001,2.931546872800001,2.51234923,2.61640849,-3.5711511,,,
imu,227.399701,-0.4533998224,-9.477731116000001,2.9387247064,2.58711833,2.37714737,-3.7206893,,,
imu,227.40817,-0.4474182944000001,-9.478927421600002,2.921976428000001,2.77404108,2.324809,-3.84031986,,,
imu,227.416639,-0.4414367664,-9.4962738528,2.920181969600001,2.91610237,2.324809,-3.82536604,,,
imu,227.425107,-0.4288755576000001,-9.501657228000001,2.921976428000001,2.92357928,2.21265535,-3.80293531,,,
imu,227.433576,-0.4414367664,-9.502853533600002,2.9267616504,2.92357928,2.09302479,-3.63096638,,,
imu,227.442044,-0.4510072112,-9.517807353600002,2.928556108800001,2.98339456,1.82385603,-3.57862801,,,
imu,227.450513,-0.4659610312,-9.532163020800002,2.927957956,2.95348692,1.63693328,-3.48142818,,,
imu,227.45898,-0.4779240872000001,-9.5489112992,2.9345376368,2.81890254,1.36776452,-3.43656672,,,
imu,227.467448,-0.4886908376000001,-9.548313146400002,2.928556108800001,2.69927198,1.38271834,-3.1973056,,,
imu,227.475915,-0.5000557408,-9.5423316184,2.9333413312,2.66936434,1.39767216,-2.90570611,,,
imu,227.484382,-0.5251781584,-9.5590798968,2.9447062344,2.47496468,1.45748744,-2.79355246,,,
imu,227.49285,-0.5347486032000001,-9.5656595776,2.9291542616,2.39271867,1.53973345,-2.59167589,,,
imu,227.501317,-0.5407301312,-9.571042952800001,2.9231727336,2.21327283,1.66684092,-2.49447606,,,
imu,227.509785,-0.5431227424,-9.554294674400001,2.9022373856,2.13850373,1.91357895,-2.35989168,,,
imu,227.518252,-0.5419264368000001,-9.541733465600002,2.8932650936,2.09364227,2.16031698,-2.34493786,,,
imu,227.526719,-0.5371412144000001,-9.556089132800002,2.9004429272,2.18336519,2.45939338,-2.27764567,,,
imu,227.535187,-0.5245800056000001,-9.593772759200002,2.8932650936,2.22074974,2.6238854,-2.3000764,,,
imu,227.543654,-0.5185984776000001,-9.6326526912,2.8836946488,1.99644244,2.97530017,-2.35241477,,,
imu,227.552069,-0.502448352,-9.66016772,2.8932650936,1.72727368,3.25194584,-2.41223005,,,
imu,227.560536,-0.4833074624000001,-9.657176956,2.9076207608,1.37585891,3.52859151,-2.50942988,,,
imu,227.569004,-0.4665591840000001,-9.6817012208,2.914798594400001,1.02444414,3.70056044,-2.33746095,,,
imu,227.577471,-0.4384460024000001,-9.682897526400001,2.9159949,0.4861066199999999,3.62579134,-2.44213769,,,
imu,227.585939,-0.4121272792,-9.664952942400001,2.9291542616,-0.06718472,3.64822207,-2.38979932,,,
imu,227.594406,-0.3953790008,-9.6260730104,2.9303505672,-0.79244499,3.3715764,-2.57672207,,,
imu,227.602873,-0.3929863896,-9.593174606400002,2.924967192,-1.29339796,3.19213056,-2.63653735,,,
imu,227.611341,-0.3899956256000001,-9.539939007200001,2.9213782752,-1.27096723,2.94539253,-2.43466078,,,
imu,227.619808,-0.3864067088000001,-9.509433214400001,2.921976428000001,-1.29339796,2.59397776,-2.38979932,,,
imu,227.628275,-0.3905937784,-9.4831144912,2.927957956,-1.38312088,2.45191647,-2.29259949,,,
imu,227.636743,-0.4091365152000001,-9.451412392800002,2.922574580800001,-1.33078251,2.27994754,-2.18044584,,,
imu,227.64521,-0.4061457512000001,-9.4280844336,2.9267616504,-1.03918302,2.1752708,-1.96361545,,,
imu,227.653677,-0.4103328208,-9.4077472384,2.931546872800001,-0.64290679,2.06311715,-1.67949287,,,
imu,227.66215,-0.4031549872,-9.425691822400001,2.9417154704,-0.2765382,1.95844041,-1.63463141,,,
imu,227.670622,-0.4079402096,-9.422102905600001,2.9512859152,-0.02980017,1.89114822,-1.51500085,,,
imu,227.679095,-0.3959771536000001,-9.4005694048,2.9441080816,0.3216146,1.98834805,-1.26826282,,,
imu,227.687567,-0.4097346680000001,-9.3963823352,2.966239735200001,0.74779847,1.96591732,-1.14115535,,,
imu,227.69604,-0.4037531400000001,-9.434065961600002,3.0051196672,1.11416706,2.0257326,-0.8719865899999999,,,
imu,227.704512,-0.3905937784,-9.5219944232,3.0194753344,1.4431511,2.15284007,-0.73740221,,,
imu,227.712984,-0.3840140976,-9.575828175200002,3.0081104312,1.30108981,2.18274771,-0.52057182,,,
imu,227.721457,-0.3702565832000001,-9.544126076800001,3.011699348,1.15155161,2.34723973,-0.37851053,,,
imu,227.729929,-0.3720510416,-9.5082369088,3.022466098400001,0.9945364999999999,2.6238854,-0.07943412999999988,,,
imu,227.738402,-0.3343674152,-9.491488630400001,3.036223612800001,1.09173633,2.95286944,0.2345960900000001,,,
imu,227.746874,-0.3158246784000001,-9.4908904776,3.015288264800001,1.07678251,2.9977309,0.01028879000000016,,,
imu,227.755347,-0.3002727056,-9.475936657600002,3.0021289032,1.0693056,2.9977309,-0.37103362,,,
imu,227.763819,-0.2883096496000001,-9.4424401008,2.996147375200001,1.27865908,2.95286944,-0.88694041,,,
imu,227.772292,-0.2757484408,-9.4203084472,2.9865769304,1.37585891,3.09493073,-1.26826282,,,
imu,227.780764,-0.2607946208,-9.404756474400001,2.9740157216,1.84690424,3.16969983,-1.44770866,,,
imu,227.789236,-0.2470371064,-9.410139849600002,2.968632346400001,2.14598064,3.33419185,-1.64958523,,,
imu,227.797709,-0.230288828,-9.439449336800001,2.9716231104,2.3403803,3.27437657,-1.89632326,,,
imu,227.806181,-0.206362716,-9.470553282400001,2.9716231104,2.68431816,3.35662258,-1.80660034,,,
imu,227.814654,-0.1848292152,-9.492684936000002,2.9626508184,2.78151799,3.57345297,-1.80660034,,,
imu,227.823126,-0.1519308112,-9.5010590752,2.9680341936,2.77404108,3.55849915,-1.67949287,,,
imu,227.831599,-0.1262102408,-9.499264616800001,2.9692304992,2.69927198,3.57345297,-1.6271545,,,
imu,227.840071,-0.1034804344,-9.498666464000001,2.9512859152,2.66188743,3.47625314,-1.51500085,,,
imu,227.848544,-0.08852661440000001,-9.477731116000001,2.943509928800001,2.61702597,3.02763854,-1.79164652,,,
imu,227.857016,-0.07656355840000001,-9.474142199200001,2.938126553600001,2.863764,2.70613141,-1.93370781,,,
imu,227.865483,-0.0191408896,-9.484908949600001,2.922574580800001,3.04320984,2.41453192,-2.18792275,,,
imu,227.873951,-0.0275150288,-9.470553282400001,2.8932650936,3.20022495,2.09302479,-2.38232241,,,
imu,227.882418,-0.0257205704,-9.439449336800001,2.9165930528,3.40957843,1.49487199,-2.41223005,,,
imu,227.890885,-0.0376836264,-9.463973601600001,2.914798594400001,3.57407045,1.10607267,-2.45709151,,,
imu,227.899353,-0.0340947096,-9.506442450400002,2.9076207608,3.93296213,0.6873657099999999,-2.56176825,,,
imu,227.90782,-0.0502448352,-9.535153784800002,2.907022608,4.00773123,0.21632038,-2.69635263,,,
imu,227.916287,-0.05861897440000001,-9.550705757600001,2.9231727336,3.95539286,-0.2472480400000001,-2.85336774,,,
imu,227.924755,-0.07716171120000001,-9.559678049600002,2.935733942400001,3.84323921,-0.8080162900000003,-3.07767504,,,
imu,227.933222,-0.110658268,-9.593772759200002,2.9345376368,3.63388573,-1.33139999,-3.37675144,,,
imu,227.94169,-0.1489400472,-9.6224840936,2.9333413312,3.42453225,-1.53327656,-3.48890509,,,
imu,227.950157,-0.1782495344,-9.632054538400002,2.924369039200001,2.9385331,-1.76506077,-3.58610492,,,
imu,226.614724,,,,,,,100.9291188,-37.97052600000001,131.5631128
imu,226.716256,,,,,,,98.43885000000002,-37.00615720000003,133.4796432
imu,226.817788,,,,,,,98.7806516,-37.87286840000002,131.1358608
imu,226.919381,,,,,,,98.7196156,-37.71417480000001,133.6993728
imu,227.020974,,,,,,,98.09704839999999,-37.76300360000002,133.0890128
imu,227.122598,,,,,,,97.8651116,-37.54327400000002,133.9191024
imu,227.224099,,,,,,,98.0604268,-37.57989560000001,134.4806336
imu,227.325631,,,,,,,98.43885000000002,-37.15264360000001,133.5040576
imu,227.958624,-0.2177276192,-9.6159044128,2.939921012000001,2.54225687,-1.9370297,-3.84031986,,,
imu,227.967092,-0.245242648,-9.610521037600002,2.952482220800001,2.19831901,-2.04918335,-4.08705789,,,
imu,227.975559,-0.3032634696000001,-9.6470083584,2.942911776,1.80951969,-2.14638318,-4.318842099999999,,,
imu,227.984026,-0.3469286240000001,-9.633250844,2.9165930528,1.33847436,-2.05666026,-4.647826139999999,,,
imu,227.992494,-0.3822196392,-9.5800152448,2.9183875112,1.11416706,-1.72019931,-4.81231816,,,
imu,228.000961,-0.4151180432000001,-9.556089132800002,2.935733942400001,0.94219813,-1.32392308,-4.66277996,,,
imu,228.009428,-0.4252866408000001,-9.553696521600001,2.9213782752,0.8524752099999999,-0.9351237599999997,-4.55810322,,,
imu,228.017896,-0.424688488,-9.5423316184,2.9094152192,0.7403215599999999,-0.45660152,-4.5431494,,,
imu,228.026363,-0.4193051128000001,-9.5213962704,2.895657704800001,0.7403215599999999,0.006966899999999665,-4.35622665,,,
imu,228.03483,-0.400762376,-9.491488630400001,2.8986484688,0.78518302,0.3135202100000001,-4.48333412,,,
imu,228.043298,-0.3840140976,-9.463973601600001,2.8998447744,0.94967504,0.64250425,-4.647826139999999,,,
imu,228.051765,-0.3744436528,-9.453805004000001,2.892068788,1.31604363,0.76213481,-4.92447181,,,
imu,228.060233,-0.3804251808,-9.4843107968,2.895657704800001,1.65998149,0.7322271699999998,-5.23102512,,,
imu,228.06904,-0.3672658192000001,-9.488497866400001,2.8836946488,1.80951969,0.7322271699999998,-5.35813259,,,
imu,228.077848,-0.3750418056000001,-9.485507102400002,2.8836946488,2.05625772,0.80699627,-5.328224949999999,,,
imu,228.086655,-0.3666676664,-9.48072188,2.88608726,2.05625772,0.7696117199999999,-5.31327113,,,
imu,228.095463,-0.3756399584,-9.48072188,2.880105732000001,2.14598064,0.7471809899999999,-5.11887147,,,
imu,228.104271,-0.3786307224000001,-9.486105255200002,2.8807038848,2.31047266,0.58268897,-4.92447181,,,
imu,228.113078,-0.3780325696000001,-9.499264616800001,2.8783112736,2.39271867,0.3434278499999999,-4.75250288,,,
imu,228.121886,-0.3846122504,-9.5082369088,2.875918662400001,2.46001086,0.3284740299999998,-4.61044159,,,
imu,228.130694,-0.391790084,-9.507638756,2.8723297456,2.49739541,0.2088434699999997,-4.41604193,,,
imu,228.139501,-0.3983697648000001,-9.519601812000001,2.8795075792,2.5646876,0.07425908999999997,-4.32631901,,,
imu,228.148309,-0.4210995712,-9.527975951200002,2.866348217600001,2.62450288,0.1565051,-4.27398064,,,
imu,228.157117,-0.4288755576000001,-9.556089132800002,2.8603666896,2.59459524,0.4032431299999999,-4.17678081,,,
imu,228.165924,-0.4372496968000001,-9.568650341600001,2.856777772800001,2.77404108,0.7097964399999999,-3.96742733,,,
imu,228.174732,-0.4264829464000001,-9.590183842400002,2.859170384,2.78151799,0.92662683,-3.95995042,,,
imu,228.183539,-0.4216977240000001,-9.594370912,2.8513943976,2.73665653,1.21822632,-3.90761205,,,
imu,228.192347,-0.406743904,-9.608128426400002,2.8328516608,2.51982614,1.59954873,-4.0197657,,,
imu,228.201155,-0.3834159448,-9.616502565600001,2.843020258400001,2.39271867,1.99582496,-4.26650373,,,
imu,228.209962,-0.370854736,-9.632054538400002,2.8346461192,2.28056502,2.18274771,-4.32631901,,,
imu,228.21877,-0.3427415544,-9.639232372,2.8484036336,1.97401171,2.34723973,-4.44594957,,,
imu,228.227578,-0.3170209840000001,-9.636241608,2.833449813600001,1.57025857,2.48930102,-4.63287232,,,
imu,228.236385,-0.2978800944000001,-9.6494009696,2.8346461192,1.20388998,2.51173175,-4.692687599999999,,,
imu,228.245193,-0.2835244272,-9.636839760800001,2.8394313416,0.91229049,2.55659321,-4.73007215,,,
imu,228.254001,-0.2613927736,-9.608128426400002,2.8340479664,0.51601426,2.48182411,-4.83474889,,,
imu,228.262808,-0.260196468,-9.569248494400002,2.8280664384,0.5010604399999999,2.23508608,-4.7674567,,,
imu,228.271295,-0.263187232,-9.556089132800002,2.829262744000001,0.36647606,2.08554788,-4.70016451,,,
imu,228.279781,-0.2560093984,-9.5429297712,2.8340479664,0.32909151,1.81637912,-4.759979789999999,,,
imu,228.288268,-0.2691687600000001,-9.549509452,2.832253508,0.3216146,1.59954873,-4.78241052,,,
imu,228.296754,-0.2930948720000001,-9.536350090400001,2.8484036336,0.26179932,1.33785688,-4.602964679999999,,,
imu,228.30524,-0.3068523864000001,-9.531564868,2.8358424248,0.17955331,1.14345722,-4.602964679999999,,,
imu,228.313727,-0.3253951232,-9.5172092008,2.853188856,0.16459949,0.98644211,-4.602964679999999,,,
imu,228.322213,-0.3343674152,-9.505844297600001,2.8627593008,0.08235347999999998,0.84438082,-4.67773378,,,
imu,228.3307,-0.3355637208,-9.520798117600002,2.856777772800001,0.33656842,0.6499811599999998,-4.7674567,,,
imu,228.339186,-0.34393786,-9.545322382400002,2.8573759256,0.44872207,0.5976427899999996,-4.82727198,,,
imu,228.347673,-0.3642750552,-9.519601812000001,2.845412869600001,0.30666078,0.5976427899999996,-4.931948719999999,,,
imu,228.356159,-0.385808556,-9.453206851200001,2.8603666896,0.1720764,0.41819695,-5.10391765,,,
imu,228.364645,-0.4031549872,-9.443636406400001,2.8699371344,0.13469185,0.35838167,-5.12634838,,,
imu,228.373132,-0.4097346680000001,-9.514218436800002,2.873526051200001,0.29170696,0.3957662200000001,-4.87961035,,,
imu,228.381618,-0.4390441552000001,-9.5800152448,2.8783112736,0.3963837,0.4481045899999998,-4.85717962,,,
imu,228.390105,-0.4522035168,-9.596763523200002,2.8555814672,0.3739529699999999,0.4630584099999999,-4.5431494,,,
imu,228.398591,-0.4444275304,-9.5907819952,2.8807038848,0.29170696,0.76213481,-4.0197657,,,
imu,228.407078,-0.4456238360000001,-9.5907819952,2.891470635200001,0.34404533,0.98644211,-3.52628964,,,
imu,228.415564,-0.4318663216,-9.6075302736,2.8765168152,0.50853735,1.15841104,-3.21973633,,,
imu,228.42405,-0.43366078,-9.6117173432,2.8783112736,0.50853735,1.09111885,-3.17487487,,,
imu,228.432537,-0.4187069600000001,-9.5812115504,2.8543851616,0.68798319,1.09859576,-3.11505959,,,
imu,228.441023,-0.4151180432000001,-9.564463272000001,2.859170384,0.8524752099999999,1.23318014,-3.30945925,,,
imu,228.44951,-0.4205014184,-9.555490980000002,2.8573759256,0.97210577,1.27056469,-3.41413599,,,
imu,228.457996,-0.4354552384000001,-9.565061424800001,2.8573759256,0.9571519499999999,1.21074941,-3.45152054,,,
imu,228.466483,-0.4432312248,-9.569248494400002,2.8633574536,0.9347212199999999,1.23318014,-3.44404363,,,
imu,228.474931,-0.4432312248,-9.5800152448,2.8555814672,0.65059864,1.25561087,-3.54124346,,,
imu,228.483379,-0.4450256832000001,-9.568650341600001,2.850198092000001,0.35152224,1.55468727,-3.24216706,,,
imu,228.491827,-0.4414367664,-9.551902063200002,2.852590703200001,0.01506129,1.59954873,-3.13749032,,,
imu,228.500276,-0.4390441552000001,-9.526779645600001,2.8436184112,-0.127,1.92853277,-2.98047521,,,
imu,228.508724,-0.4282774048000001,-9.512423978400001,2.8394313416,-0.50832241,2.13040934,-2.99542903,,,
imu,228.517172,-0.4169125016,-9.4974701584,2.835244272,-0.5681376899999999,2.27994754,-3.06272122,,,
imu,228.525621,-0.4025568344,-9.485507102400002,2.8448147168,-0.77749117,2.27247063,-3.3468438,,,
imu,228.534069,-0.4079402096,-9.4908904776,2.853188856,-0.82235263,2.13788625,-3.51133582,,,
imu,228.542517,-0.4025568344,-9.493283088800002,2.8657500648,-0.5307531400000001,2.33976282,-3.41413599,,,
imu,228.550965,-0.3846122504,-9.5040498392,2.8795075792,-0.5307531400000001,2.42200883,-3.53376655,,,
imu,228.559414,-0.3804251808,-9.512423978400001,2.8908724824,-0.5681376899999999,2.45939338,-3.51133582,,,
imu,228.567862,-0.3816214864,-9.524387034400002,2.9064244552,-0.55318387,2.48182411,-3.58610492,,,
imu,228.57631,-0.376836264,-9.5393408544,2.924967192,-0.39616876,2.59397776,-3.61601256,,,
imu,228.584758,-0.361882444,-9.547714993600001,2.9255653448,-0.32887657,2.6238854,-3.69078166,,,
imu,228.593207,-0.3576953744,-9.552500216,2.933939484000001,-0.38121494,2.53416248,-3.84031986,,,
imu,228.601655,-0.3612842912,-9.526779645600001,2.9345376368,-0.007369440000000005,2.68370068,-3.75059694,,,
imu,228.610103,-0.3553027632,-9.5357519376,2.924967192,-0.17933837,2.78837742,-3.8702275,,,
imu,228.618552,-0.3457323184,-9.5237888816,2.9165930528,-0.18681528,2.85566961,-3.96742733,,,
imu,228.627,-0.3385544848000001,-9.517807353600002,2.914798594400001,0.0001074699999999984,2.80333124,-3.99733497,,,
imu,228.635448,-0.3271895816000001,-9.519003659200001,2.9261634976,0.14216876,2.78090051,-4.169303899999999,,,
imu,228.643867,-0.3074505392,-9.5381445488,2.9417154704,0.23936859,2.61640849,-4.46090339,,,
imu,228.652315,-0.3026653168,-9.571641105600001,2.9303505672,0.35899915,2.48930102,-4.82727198,,,
imu,228.660764,-0.2978800944000001,-9.557285438400001,2.9153967472,0.18703022,2.25751681,-4.991764,,,
imu,228.669212,-0.296085636,-9.5213962704,2.941117317600001,0.17955331,2.09302479,-4.909517989999999,,,
imu,228.677676,-0.2996745528,-9.538742701600002,2.951884068,0.1720764,1.88367131,-4.8422258,,,
imu,228.686139,-0.3020671640000001,-9.5602762024,2.9470988456,0.04496892999999999,1.53225654,-4.58801086,,,
imu,228.694603,-0.2990764,-9.553098368800002,2.9554729848,-0.127,1.14345722,-4.47585721,,,
imu,228.703066,-0.3062542336,-9.527975951200002,2.9680341936,-0.34383039,0.8369039099999998,-4.44594957,,,
imu,228.71153,-0.331974804,-9.4908904776,2.9752120272,-0.54570696,0.3284740299999998,-4.44594957,,,
imu,228.719993,-0.3834159448,-9.478329268800001,2.9793990968,-0.59056842,-0.1874327600000001,-4.647826139999999,,,
imu,228.728457,-0.4557924336,-9.477731116000001,3.008708584,-0.59056842,-0.3220171400000003,-4.887087259999999,,,
imu,228.73692,-0.4833074624000001,-9.5040498392,2.999138139200001,-0.76253735,-0.39678624,-5.283363489999999,,,
imu,228.745384,-0.5305615336,-9.482516338400002,2.9901658472,-0.79244499,-0.25472495,-5.350655679999999,,,
imu,228.753847,-0.5694414656000001,-9.440645642400002,3.0063159728,-0.68776825,0.1041667299999998,-4.999240909999999,,,
imu,228.762311,-0.5754229936,-9.416719530400002,3.012895653600001,-0.5756146,0.56025824,-4.90204108,,,
imu,228.770774,-0.5843952856000001,-9.413130613600002,3.012895653600001,-0.26158438,1.03878048,-4.52819558,,,
imu,227.427121,,,,,,,97.9627692,-37.6897604,133.894688
imu,227.528715,,,,,,,100.4774524,-38.40998520000001,132.2589232
imu,227.630277,,,,,,,97.706418,-37.62872440000002,133.6261296
imu,227.731809,,,,,,,100.5995244,-37.9216972,131.1114464
imu,227.841215,,,,,,,98.3900212,-36.90849960000002,133.0035624
imu,227.942777,,,,,,,99.0736244,-37.60431000000002,130.8184736
imu,228.052152,,,,,,,98.1702916,-37.01836440000002,133.0890128
imu,228.145933,,,,,,,98.6097508,-37.40899480000002,133.7482016
imu,228.779238,-0.5909749664,-9.429280739200001,3.0164845704,0.16459949,1.63693328,-4.22911918,,,
imu,228.787702,-0.5820026744000001,-9.4316733504,3.0320365432,0.74779847,2.29490136,-3.84779677,,,
imu,228.796165,-0.5646562432000001,-9.422102905600001,3.020073487200001,0.9571519499999999,2.78090051,-3.48142818,,,
imu,228.804629,-0.5419264368000001,-9.423299211200002,3.0122975008,1.27118217,3.33419185,-3.11505959,,,
imu,228.813092,-0.5078317272000001,-9.430477044800002,3.007512278400001,1.5179202,3.797760269999999,-2.87579847,,,
imu,228.821556,-0.481513004,-9.441841948000002,3.0003344448,2.00391935,4.26132869,-2.61410662,,,
imu,228.830019,-0.4444275304,-9.453805004000001,2.9889695416,2.31794957,4.47068217,-2.50195297,,,
imu,228.838483,-0.4043512928,-9.467562518400001,2.981791708,2.54973378,4.62769728,-2.47952224,,,
imu,228.846946,-0.3780325696000001,-9.472347740800002,2.9506877624,2.73665653,4.73237402,-2.18044584,,,
imu,228.85541,-0.3421434016,-9.4962738528,2.9351357896,2.96844074,4.97163514,-2.03090764,,,
imu,228.863873,-0.3164228312,-9.511227672800002,2.927957956,3.12545585,4.87443531,-2.01595382,,,
imu,228.872337,-0.2787392048,-9.5327611736,2.9183875112,3.18527113,4.88938913,-1.85893871,,,
imu,228.881171,-0.236270356,-9.534555632000002,2.905228149600001,3.31985551,4.8669584,-1.64958523,,,
imu,228.890005,-0.218325772,-9.5423316184,2.898050316,3.06564057,4.66508183,-1.7766927,,,
imu,228.89884,-0.1902125904,-9.5447242296,2.891470635200001,2.85628709,4.410866889999999,-1.82155416,,,
imu,228.907674,-0.1722680064,-9.562070660800002,2.88608726,2.87871782,4.08935976,-1.88884635,,,
imu,228.916508,-0.1531271168,-9.583006008800002,2.8765168152,2.57216451,3.79028336,-2.15801511,,,
imu,228.925342,-0.1423603664,-9.597361676,2.8807038848,2.4151494,3.36409949,-2.41970696,,,
imu,228.934176,-0.1549215752,-9.606932120800002,2.8848909544,2.10111918,2.93043871,-2.6739219,,,
imu,228.94301,-0.1567160336,-9.610521037600002,2.889078024,1.56278166,2.3995781,-2.94309066,,,
imu,228.951845,-0.1692772424,-9.61530626,2.891470635200001,1.0693056,2.05564024,-3.1973056,,,
imu,228.960679,-0.1938015072,-9.617100718400001,2.898050316,0.7253677399999999,1.50982581,-3.39918217,,,
imu,228.969513,-0.212344244,-9.612913648800001,2.8998447744,0.41133752,1.18084177,-3.56367419,,,
imu,228.978347,-0.2278962168,-9.6039413568,2.8902743296,0.17955331,0.98644211,-3.66835093,,,
imu,228.987181,-0.242251884,-9.585996772800002,2.899246621600001,0.10478421,0.8294269999999999,-3.78798149,,,
imu,228.996015,-0.2715613712,-9.558481744000002,2.9004429272,-0.03727708,0.6798887999999996,-4.057150249999999,,,
imu,229.00485,-0.2918985664000001,-9.554294674400001,2.907022608,0.13469185,0.41819695,-4.25902682,,,
imu,229.013684,-0.3134320672,-9.533957479200001,2.891470635200001,0.03749201999999999,0.2686587499999997,-4.40108811,,,
imu,229.022518,-0.3421434016,-9.492684936000002,2.892068788,0.29918387,0.3808123999999999,-4.52819558,,,
imu,229.031352,-0.3887993200000001,-9.4801237272,2.920181969600001,0.42629134,0.2910894799999997,-4.73007215,,,
imu,229.040186,-0.4049494456000001,-9.534555632000002,2.927957956,0.7253677399999999,0.3284740299999998,-4.74502597,,,
imu,229.049021,-0.4312681688,-9.5800152448,2.928556108800001,0.83004448,0.4256738599999998,-4.81979507,,,
imu,229.057855,-0.4528016696000001,-9.593772759200002,2.9303505672,0.80761375,0.5079198699999998,-4.74502597,,,
imu,229.066689,-0.46356842,-9.5566872856,2.9447062344,0.76275229,0.8144731799999998,-4.58801086,,,
imu,229.075523,-0.4665591840000001,-9.545322382400002,2.966837888,0.52349117,1.10607267,-4.3936112,,,
imu,229.084006,-0.4599795032,-9.5501076048,2.9566692904,0.6132140899999999,1.33785688,-4.02724261,,,
imu,229.092488,-0.4653628784000001,-9.551303910400001,2.9596600544,0.5459219,1.47244126,-4.012288789999999,,,
imu,229.100971,-0.4444275304,-9.528574104,2.9566692904,0.4711528,1.68927165,-4.102011709999999,,,
imu,229.109454,-0.430670016,-9.4962738528,2.959061901600001,0.46367589,1.62945637,-4.32631901,,,
imu,229.117936,-0.4420349192,-9.484908949600001,2.9644452768,0.34404533,1.69674856,-4.55062631,,,
imu,229.126419,-0.4348570856000001,-9.478927421600002,2.954874832000001,0.41881443,1.69674856,-4.73007215,,,
imu,229.134901,-0.439642308,-9.489694172,2.96085636,0.3216146,1.577118,-4.931948719999999,,,
imu,229.143384,-0.4557924336,-9.486703408,2.953678526400001,0.20198404,1.58459491,-4.909517989999999,,,
imu,229.151867,-0.4456238360000001,-9.483712644000002,2.9566692904,0.25432241,1.64441019,-4.647826139999999,,,
imu,229.160349,-0.4360533912000001,-9.468160671200001,2.9584637488,0.26179932,1.54721036,-4.32631901,,,
imu,229.168832,-0.4288755576000001,-9.4663662128,2.9626508184,0.20946095,1.52477963,-4.20668845,,,
imu,229.177314,-0.4354552384000001,-9.452010545600002,2.9614545128,0.31413769,1.59954873,-3.84779677,,,
imu,229.185797,-0.4372496968000001,-9.4424401008,2.9614545128,0.57582954,1.55468727,-3.68330475,,,
imu,229.19428,-0.4414367664,-9.443636406400001,2.9644452768,0.70293701,1.53225654,-3.37675144,,,
imu,229.202762,-0.4557924336,-9.443038253600001,2.957267443200001,0.88985976,1.50982581,-3.28702852,,,
imu,229.211245,-0.4617739616000001,-9.447823476,2.9680341936,1.1440747,1.59207182,-3.10010577,,,
imu,229.219727,-0.4557924336,-9.471151435200001,2.9650434296,1.37585891,1.62945637,-3.03281358,,,
imu,229.22821,-0.4569887392,-9.48072188,2.9752120272,1.74970441,1.98087114,-2.88327538,,,
imu,229.236693,-0.4402404608,-9.492086783200001,2.9704268048,1.97401171,2.19770153,-2.74121409,,,
imu,229.245175,-0.4222958768,-9.519003659200001,2.9626508184,2.08616536,2.44443956,-2.73373718,,,
imu,229.253658,-0.4013605288,-9.537546396000002,2.9656415824,2.27308811,2.68370068,-2.83841392,,,
imu,229.262141,-0.3804251808,-9.560874355200001,2.966837888,2.21327283,2.85566961,-2.92813684,,,
imu,229.270623,-0.3612842912,-9.591978300800001,2.9530803736,2.17588828,2.95286944,-3.03281358,,,
imu,229.279106,-0.3331711096,-9.5949690648,2.957267443200001,2.13102682,2.91548489,-3.05524431,,,
imu,229.287548,-0.3170209840000001,-9.580613397600002,2.9405191648,1.71979677,2.86314652,-3.24964397,,,
imu,229.29599,-0.296085636,-9.568052188800001,2.9195838168,1.33099745,2.76594669,-3.4216129,,,
imu,229.304432,-0.296085636,-9.527975951200002,2.921976428000001,1.18145925,2.70613141,-3.48890509,,,
imu,229.312874,-0.2757484408,-9.526779645600001,2.9321450256,1.2188438,2.70613141,-3.51881273,,,
imu,229.321315,-0.2793373576,-9.553098368800002,2.9171912056,1.18145925,2.48930102,-3.52628964,,,
imu,229.329757,-0.2787392048,-9.541135312800002,2.9016392328,1.02444414,2.27247063,-3.6459202,,,
imu,229.338199,-0.2907022608000001,-9.4908904776,2.9046299968,0.81509066,2.07807097,-3.69078166,,,
imu,229.346641,-0.3032634696000001,-9.487899713600001,2.9159949,0.91229049,2.07059406,-3.5711511,,,
imu,229.355083,-0.3074505392,-9.5082369088,2.9058263024,1.05435178,2.0257326,-3.28702852,,,
imu,229.363525,-0.3086468448,-9.514218436800002,2.910611524800001,1.00201341,2.04816333,-3.13001341,,,
imu,229.371967,-0.2954874832,-9.507638756,2.9112096776,1.04687487,2.06311715,-3.00290594,,,
imu,229.380409,-0.2930948720000001,-9.5004609224,2.920181969600001,1.11416706,2.05564024,-3.02533667,,,
imu,229.388851,-0.2990764,-9.5213962704,2.9255653448,0.97210577,2.01825569,-3.28702852,,,
imu,229.397293,-0.3038616224,-9.541733465600002,2.913004136000001,1.17398234,1.96591732,-3.57862801,,,
imu,229.405735,-0.3080486920000001,-9.553098368800002,2.924369039200001,1.21136689,1.78647148,-3.86275059,,,
imu,229.414177,-0.3301803456000001,-9.535153784800002,2.922574580800001,1.05435178,1.67431783,-4.146873169999999,,,
imu,229.422619,-0.340947096,-9.5237888816,2.922574580800001,1.09173633,1.65936401,-4.16182699,,,
imu,229.43106,-0.3517138464,-9.522592576000001,2.9273598032,1.00949032,1.64441019,-4.10948862,,,
imu,229.439502,-0.3535083048,-9.529770409600001,2.9136022888,1.02444414,1.61450255,-3.93751969,,,
imu,229.447944,-0.3702565832000001,-9.5172092008,2.9159949,1.0693056,1.59954873,-3.7954584,,,
imu,229.456386,-0.3816214864,-9.505246144800001,2.9118078304,1.03192105,1.64441019,-3.73564312,,,
imu,229.464828,-0.3852104032000001,-9.510031367200002,2.917789358400001,1.1440747,1.73413311,-3.62348947,,,
imu,229.47327,-0.4073420568000001,-9.510031367200002,2.9136022888,1.33099745,1.84628676,-3.44404363,,,
imu,229.481712,-0.4187069600000001,-9.5213962704,2.9076207608,1.33847436,1.91357895,-3.4216129,,,
imu,229.490252,-0.4193051128000001,-9.528574104,2.9112096776,1.42072037,2.13040934,-3.18982869,,,
imu,229.498792,-0.4216977240000001,-9.5327611736,2.901041080000001,1.28613599,2.34723973,-3.11505959,,,
imu,229.507332,-0.4109309736,-9.550705757600001,2.9118078304,1.15902852,2.60893158,-2.99542903,,,
imu,229.515871,-0.391790084,-9.564463272000001,2.9171912056,1.2188438,2.9229618,-2.93561375,,,
imu,229.524411,-0.3804251808,-9.580613397600002,2.9213782752,1.18145925,3.07997691,-2.90570611,,,
imu,229.532951,-0.3606861384,-9.5842023144,2.9142004416,1.12912088,3.25942275,-2.99542903,,,
imu,229.541491,-0.3337692624,-9.5740337168,2.924967192,0.8375213899999999,3.2220382,-3.06272122,,,
imu,229.550031,-0.3056560808,-9.569248494400002,2.9303505672,0.67302937,3.24446893,-3.1225365,,,
imu,229.558571,-0.2859170384,-9.574631869600001,2.935733942400001,0.46367589,3.30428421,-3.06272122,,,
imu,229.56711,-0.2584020096,-9.575230022400001,2.9363320952,0.23189168,3.05754618,-3.13749032,,,
imu,229.57565,-0.2470371064,-9.572239258400002,2.945304387200001,0.10478421,2.90053107,-3.16739796,,,
imu,229.58419,-0.2380648144,-9.557883591200001,2.9500896096,-0.0522309,2.75099287,-3.15992105,,,
imu,229.59273,-0.2290925224000001,-9.5501076048,2.943509928800001,-0.2017691,2.42200883,-3.07019813,,,
imu,228.247465,,,,,,,98.6463724,-37.83624680000002,133.9923456
imu,228.349027,,,,,,,98.377814,-37.87286840000002,133.955724
imu,228.45059,,,,,,,98.4266428,-38.03156200000002,133.4552288
imu,228.552152,,,,,,,98.73182279999999,-37.88507560000001,134.138832
imu,228.653715,,,,,,,100.8558756,-37.62872440000002,132.9547336
imu,228.755308,,,,,,,98.5243004,-38.00714760000001,133.162256
imu,228.85687,,,,,,,101.2587132,-38.81282280000002,131.148068
imu,228.958646,,,,,,,98.79285879999999,-38.14142680000001,134.138832
imu,229.60127,-0.2261017584,-9.52558334,2.957267443200001,-0.29149202,2.13040934,-2.98047521,,,
imu,229.60981,-0.227298064,-9.514218436800002,2.963248971200001,-0.46346095,1.88367131,-2.81598319,,,
imu,229.618349,-0.227298064,-9.4873015608,2.9704268048,-0.4260764,1.59954873,-2.71130645,,,
imu,229.626889,-0.2440463424,-9.468758824,2.9656415824,-0.24663056,1.23318014,-2.63653735,,,
imu,229.635429,-0.2470371064,-9.455001309600002,2.9650434296,-0.03727708,1.06121121,-2.69635263,,,
imu,229.643969,-0.2619909264,-9.451412392800002,2.979997249600001,0.03001510999999998,1.00139593,-2.83841392,,,
imu,229.652509,-0.272159524,-9.4424401008,2.981791708,0.17955331,0.8742884599999998,-3.05524431,,,
imu,229.661049,-0.2865151912,-9.4454308648,2.9829880136,0.44124516,0.9191499199999997,-3.10010577,,,
imu,229.669588,-0.28412258,-9.4591883792,2.997941833600001,0.83004448,0.9191499199999997,-3.36927453,,,
imu,229.678128,-0.2781410520000001,-9.472347740800002,3.003325208800001,1.00949032,0.9415806499999997,-3.59358183,,,
imu,229.686668,-0.2380648144,-9.502255380800001,3.012895653600001,1.07678251,0.92662683,-3.68330475,,,
imu,229.695063,-0.2506260232,-9.523190728800001,2.9943529168,1.19641307,0.7920424499999998,-3.85527368,,,
imu,229.703458,-0.251224176,-9.5249851872,3.0003344448,1.24127453,0.5901658799999998,-3.84779677,,,
imu,229.711853,-0.251224176,-9.519003659200001,2.991960305600001,1.03939796,0.2910894799999997,-4.02724261,,,
imu,229.720248,-0.2416537312,-9.470553282400001,2.9925584584,1.08425942,0.08173599999999981,-4.19921154,,,
imu,229.728642,-0.2685706072,-9.460384684800001,3.0051196672,1.30856672,-0.1126636599999999,-4.22164227,,,
imu,229.737397,-0.3002727056,-9.51062952,3.0093067368,1.32352054,-0.2397711300000003,-4.25154991,,,
imu,229.745792,-0.31403022,-9.552500216,3.0021289032,1.33847436,-0.3369709599999999,-4.244073,,,
imu,229.754187,-0.3445360128,-9.559678049600002,2.9943529168,1.33847436,-0.3818324200000003,-4.22911918,,,
imu,229.762582,-0.3582935272000001,-9.5213962704,2.9931566112,1.28613599,-0.3369709599999999,-4.102011709999999,,,
imu,229.770977,-0.3822196392,-9.493283088800002,3.0081104312,1.25622835,-0.04537147000000008,-3.90013514,,,
imu,229.779372,-0.3959771536000001,-9.490292324800002,2.9925584584,1.39081273,0.3135202100000001,-3.60853565,,,
imu,229.787767,-0.3840140976,-9.505246144800001,2.982389860800001,1.41324346,0.4854891399999999,-3.496382,,,
imu,229.796162,-0.3864067088000001,-9.481320032800001,2.969828652,1.45810492,0.6051196999999999,-3.58610492,,,
imu,229.804556,-0.3720510416,-9.448421628800002,2.966837888,1.42819728,0.8369039099999998,-3.80293531,,,
imu,229.812951,-0.3720510416,-9.435262267200002,2.9650434296,1.50296638,0.92662683,-4.20668845,,,
imu,229.821346,-0.3714528888,-9.433467808800001,2.954874832000001,1.64502767,1.07616503,-4.42351884,,,
imu,229.829741,-0.3822196392,-9.461580990400002,2.9470988456,1.91419643,1.02382666,-4.715118329999999,,,
imu,229.838136,-0.3929863896,-9.4753385048,2.9447062344,1.93662716,0.94905756,-5.01419473,,,
imu,229.846531,-0.3887993200000001,-9.485507102400002,2.9345376368,1.98896553,1.00887284,-5.01419473,,,
imu,229.854926,-0.3935845424,-9.486105255200002,2.9393228592,2.08616536,1.26308778,-4.74502597,,,
imu,229.863321,-0.385808556,-9.514218436800002,2.9321450256,2.15345755,1.09111885,-4.84970271,,,
imu,229.871715,-0.4001642232,-9.5291722568,2.9273598032,2.22074974,1.15093413,-4.72259524,,,
imu,229.88011,-0.3995660704000001,-9.523190728800001,2.9231727336,2.3403803,1.24065705,-4.42351884,,,
imu,229.888505,-0.4055475984,-9.539939007200001,2.9231727336,2.43758013,1.24065705,-4.25902682,,,
imu,229.897319,-0.4252866408000001,-9.549509452,2.9118078304,2.46001086,1.18831868,-4.25154991,,,
imu,229.906134,-0.4205014184,-9.560874355200001,2.913004136000001,2.31794957,1.24813396,-4.22164227,,,
imu,229.914948,-0.439642308,-9.5812115504,2.920181969600001,2.28804193,1.21822632,-4.00481188,,,
imu,229.923762,-0.4498109056,-9.592576453600001,2.9171912056,2.01887317,1.11354958,-3.90761205,,,
imu,229.932577,-0.4599795032,-9.5949690648,2.914798594400001,1.91419643,1.18084177,-3.75807385,,,
imu,229.941391,-0.4623721144,-9.591978300800001,2.914798594400001,1.72727368,1.44253362,-3.72816621,,,
imu,229.950205,-0.4701481008,-9.596763523200002,2.914798594400001,1.5179202,1.61450255,-3.45899745,,,
imu,229.959019,-0.4474182944000001,-9.596763523200002,2.904031844000001,1.32352054,1.83133294,-3.37675144,,,
imu,229.967834,-0.4390441552000001,-9.590183842400002,2.9142004416,1.18893616,1.92105586,-3.26459779,,,
imu,229.976648,-0.4402404608,-9.5704448,2.9159949,0.88985976,1.89114822,-3.36179762,,,
imu,229.985462,-0.4318663216,-9.556089132800002,2.910013372,0.97210577,2.13788625,-3.27955161,,,
imu,229.994276,-0.4294737104000001,-9.538742701600002,2.9016392328,0.80013684,2.21265535,-3.23469015,,,
imu,230.003091,-0.4187069600000001,-9.5184055064,2.9022373856,0.7104139199999999,2.19770153,-3.14496723,,,
imu,230.011905,-0.406743904,-9.514218436800002,2.922574580800001,0.68050628,2.1752708,-3.29450543,,,
imu,230.020719,-0.400762376,-9.538742701600002,2.939921012000001,0.79265993,2.27994754,-3.25712088,,,
imu,230.029534,-0.4031549872,-9.554892827200002,2.9351357896,0.8973366700000001,2.31733209,-3.32441307,,,
imu,230.038348,-0.4001642232,-9.507638756,2.922574580800001,0.82256757,2.29490136,-3.31693616,,,
imu,230.047162,-0.4043512928,-9.4699551296,2.936930248,0.71789083,2.33976282,-3.21225942,,,
imu,230.055976,-0.4061457512000001,-9.474142199200001,2.939921012000001,0.7253677399999999,2.39210119,-3.0477674,,,
imu,230.064791,-0.4031549872,-9.4831144912,2.9333413312,0.85995212,2.48930102,-2.80102937,,,
imu,230.073605,-0.4019586816,-9.4753385048,2.9333413312,1.03939796,2.70613141,-2.5991528,,,
imu,230.082419,-0.3887993200000001,-9.469356976800002,2.933939484000001,1.06182869,2.74351596,-2.50942988,,,
imu,230.091233,-0.3684621248000001,-9.475936657600002,2.9417154704,1.30856672,2.72108523,-2.5243837,,,
imu,230.09971,-0.361882444,-9.508835061600001,2.9333413312,1.40576655,2.80333124,-2.66644499,,,
imu,230.108186,-0.3612842912,-9.532163020800002,2.9393228592,1.48801256,2.86314652,-2.59167589,,,
imu,230.116662,-0.3541064576,-9.541135312800002,2.9351357896,1.68988913,2.8481927,-2.65896808,,,
imu,230.125138,-0.3469286240000001,-9.522592576000001,2.928556108800001,1.60764312,2.81080815,-2.6739219,,,
imu,230.133615,-0.3391526376000001,-9.5213962704,2.9303505672,1.42819728,2.93043871,-2.71878336,,,
imu,230.142091,-0.3277877344,-9.531564868,2.9171912056,1.34595127,2.82576197,-2.71878336,,,
imu,230.150567,-0.3062542336,-9.527975951200002,2.9231727336,1.23379762,2.96782326,-2.6739219,,,
imu,230.159044,-0.2972819416,-9.519003659200001,2.913004136000001,1.33099745,2.93043871,-2.54681443,,,
imu,230.16752,-0.28412258,-9.5184055064,2.9165930528,1.24875144,2.87062343,-2.30755331,,,
imu,230.175996,-0.2709632184,-9.5154147424,2.917789358400001,1.24875144,2.85566961,-2.31503022,,,
imu,230.184472,-0.2703650656,-9.5219944232,2.918985664,1.24127453,2.86314652,-2.36736859,,,
imu,230.192949,-0.2625890792,-9.530368562400001,2.9165930528,1.28613599,2.64631613,-2.4496146,,,
imu,230.201425,-0.2703650656,-9.5327611736,2.922574580800001,1.12164397,2.64631613,-2.31503022,,,
imu,230.209901,-0.260196468,-9.5381445488,2.9171912056,1.12164397,2.52668557,-2.45709151,,,
imu,230.218377,-0.257205704,-9.5357519376,2.9261634976,1.06182869,2.57902394,-2.47952224,,,
imu,230.226854,-0.260196468,-9.527377798400002,2.9195838168,0.9571519499999999,2.48930102,-2.51690679,,,
imu,230.23533,-0.2595983152,-9.528574104,2.928556108800001,0.97210577,2.42200883,-2.5991528,,,
imu,230.243806,-0.2500278704,-9.5291722568,2.931546872800001,1.00949032,2.44443956,-2.68887572,,,
imu,230.252282,-0.2458408008,-9.5357519376,2.931546872800001,1.03939796,2.48182411,-2.71130645,,,
imu,230.260759,-0.23926112,-9.5237888816,2.9417154704,1.06182869,2.3995781,-2.88327538,,,
imu,230.269235,-0.2374666616,-9.5148165896,2.9387247064,1.00949032,2.46687029,-3.04029049,,,
imu,230.277711,-0.2320832864,-9.533957479200001,2.9363320952,0.9945364999999999,2.52668557,-3.18235178,,,
imu,230.286187,-0.2177276192,-9.541135312800002,2.9255653448,0.9571519499999999,2.46687029,-3.30198234,,,
imu,230.294664,-0.2129423968,-9.533359326400001,2.9291542616,1.0693056,2.324809,-3.38422835,,,
imu,230.303127,-0.2147368552,-9.519003659200001,2.931546872800001,1.08425942,2.23508608,-3.47395127,,,
imu,230.311591,-0.212344244,-9.498666464000001,2.9255653448,0.9347212199999999,2.22013226,-3.51881273,,,
imu,230.320054,-0.2015774936,-9.491488630400001,2.9231727336,0.9870595899999999,2.01077878,-3.66835093,,,
imu,230.328518,-0.2099516328,-9.479525574400002,2.9165930528,1.11416706,1.86124058,-3.61601256,,,
imu,230.336981,-0.2177276192,-9.488497866400001,2.922574580800001,1.09921324,1.64441019,-3.63096638,,,
imu,230.345445,-0.2290925224000001,-9.4944793944,2.9094152192,1.24875144,1.45748744,-3.54872037,,,
imu,230.353908,-0.2470371064,-9.479525574400002,2.910611524800001,1.26370526,1.2032725,-3.62348947,,,
imu,230.362372,-0.2566075512,-9.478927421600002,2.9153967472,1.34595127,1.01634975,-3.54872037,,,
imu,229.060313,,,,,,,100.2211012,-38.38557080000002,131.453248
imu,229.161875,,,,,,,98.68299400000001,-37.99494040000002,133.7482016
imu,229.263438,,,,,,,98.072634,-37.59210280000001,133.5650936
imu,229.365,,,,,,,98.34119240000001,-37.79962520000002,133.3331568
imu,229.466593,,,,,,,98.3656068,-37.59210280000001,133.2110848
imu,229.568125,,,,,,,98.4754716,-37.65313880000001,133.4918504
imu,229.669688,,,,,,,99.8670924,-37.60431000000002,132.9303192
imu,229.77125,,,,,,,98.2313276,-37.56768840000002,133.6749584
imu,229.872813,,,,,,,100.636146,-38.3123276,130.6353656
imu,229.974375,,,,,,,97.9627692,-37.62872440000002,133.3697784
imu,230.075938,,,,,,,100.2577228,-38.48322840000002,131.1236536
imu,230.1775,,,,,,,97.8651116,-37.50665240000002,133.7359944
imu,230.279063,,,,,,,97.9017332,-37.48223800000001,133.223292
