Type,Timestamp,Data Accelerometer X,Data Accelerometer Y,Data Accelerometer Z,Data Gyroscope X,Data Gyroscope Y,Data Gyroscope Z,Data Magnetometer X,Data Magnetometer Y,Data Magnetometer Z
imu,130.238531,-0.7620466672,-9.860548908000002,0.5688433128,0.47862971,2.03320951,-3.24216706,,,
imu,130.246998,-0.744700236,-9.8043225448,0.5790119104,0.31413769,2.18274771,-2.84589083,,,
imu,130.255465,-0.7835801680000001,-9.7845835024,0.5909749664,0.09730729999999999,2.42200883,-2.21783039,,,
imu,130.264291,-0.7494854584000001,-9.7612555432,0.6143029256000001,0.12721494,2.65379304,-1.7019236,,,
imu,130.273117,-0.7201759712000001,-9.788172419200002,0.6190881480000001,0.3216146,3.0725,-1.38041647,,,
imu,130.281943,-0.7064184568,-9.820472670400001,0.6274622872000001,0.52349117,3.26689966,-1.17106299,,,
imu,130.290769,-0.7082129152000001,-9.789966877600001,0.6232752176,0.60573718,3.50616078,-1.12620153,,,
imu,130.299596,-0.6591643856000001,-9.716992236000001,0.6172936896000001,0.83004448,3.62579134,-1.253309,,,
imu,130.308422,-0.6340419680000001,-9.7504887928,0.6256678288,1.35342818,3.69308353,-1.38789338,,,
imu,130.317248,-0.6424161072,-9.810902225600001,0.6238733704,1.84690424,3.61083752,-1.50752394,,,
imu,130.326074,-0.6292567456000001,-9.8629415192,0.6172936896000001,2.116073,3.38653022,-1.68696978,,,
imu,130.3349,-0.6256678288,-9.805518850400002,0.5885823552,2.15345755,3.25942275,-2.09819983,,,
imu,130.343727,-0.6537810104000001,-9.7427128064,0.5837971328000001,2.35533412,3.26689966,-2.33746095,,,
imu,130.352553,-0.6274622872000001,-9.761853696000001,0.5909749664,2.81890254,3.28933039,-2.21035348,,,
imu,130.361379,-0.6184899952000001,-9.80970592,0.5915731192000001,2.97591765,3.05754618,-2.3000764,,,
imu,130.370125,-0.6519865520000001,-9.859950755200002,0.5766192992000001,3.21517877,3.09493073,-2.35241477,,,
imu,130.378951,-0.6202844536000002,-9.889858395200001,0.5915731192000001,3.08059439,3.0725,-2.33746095,,,
imu,130.387777,-0.6202844536000002,-9.9137845072,0.5826008272000001,2.92357928,3.02763854,-2.38232241,,,
imu,130.396603,-0.6065269392000001,-9.9101955904,0.5730303824,2.46748777,2.93791562,-2.49447606,,,
imu,130.405429,-0.5891805080000001,-9.906008520800002,0.5664507016000001,2.12354991,2.79585433,-2.48699915,,,
imu,130.414256,-0.5951620360000001,-9.9101955904,0.5479079648000001,1.9665348,2.6238854,-2.71878336,,,
imu,130.423082,-0.6113121616,-9.892849159200003,0.5257763112000001,1.76465823,2.36967046,-2.94309066,,,
imu,130.431908,-0.6340419680000001,-9.822267128800002,0.5473098120000001,1.42072037,2.23508608,-3.00290594,,,
imu,130.440734,-0.6358364264000002,-9.836622796,0.5634599376000001,1.1440747,2.26499372,-2.90570611,,,
imu,130.44956,-0.6214807592000001,-9.874306422400002,0.5592728680000001,0.9646288599999999,2.35471664,-2.71130645,,,
imu,130.458387,-0.6143029256000001,-9.8617452136,0.5365430616000001,0.78518302,2.1752708,-2.80102937,,,
imu,130.466865,-0.6340419680000001,-9.8982325344,0.5526931872,0.6954601,2.28742445,-2.83093701,,,
imu,130.475344,-0.6352382736000001,-9.964627495200002,0.55329134,0.42629134,2.42948574,-2.86084465,,,
imu,130.483823,-0.6358364264000002,-9.938308772000001,0.5640580904000001,0.03749201999999999,2.39210119,-2.80102937,,,
imu,130.492302,-0.6298548984000001,-9.895241770400002,0.5694414656000001,-0.2765382,2.45939338,-2.85336774,,,
imu,130.500781,-0.6328456624000001,-9.939505077600002,0.5664507016000001,-0.23915365,2.63883922,-2.71130645,,,
imu,130.509259,-0.6424161072,-9.950869980800002,0.5293652280000001,-0.54570696,2.80333124,-2.34493786,,,
imu,130.517738,-0.6292567456000001,-9.928140174400001,0.4737370176,-0.54570696,3.00520781,-1.88884635,,,
imu,130.526217,-0.6005454112,-9.9066066736,0.472540712,-0.5307531400000001,3.06502309,-2.00847691,,,
imu,130.534696,-0.6035361752000001,-9.8916528536,0.4300718632,-0.5307531400000001,3.13231528,-2.1505382,,,
imu,130.543175,-0.5724322296000001,-9.855763685600001,0.4199032656,-0.32887657,3.32671494,-2.3000764,,,
imu,130.551653,-0.5401319784,-9.803126239200001,0.4061457512000001,0.12721494,3.30428421,-2.47204533,,,
imu,130.560132,-0.5736285352000001,-9.759461084800002,0.3899956256000001,0.76275229,3.19213056,-2.85336774,,,
imu,130.568611,-0.565254396,-9.7474980288,0.391790084,1.02444414,2.99025399,-3.62348947,,,
imu,130.57709,-0.5658525488000001,-9.745105417600001,0.4121272792,1.37585891,2.75099287,-4.22164227,,,
imu,130.585569,-0.5855915912,-9.7786019744,0.4665591840000001,1.41324346,2.50425484,-4.63287232,,,
imu,130.594047,-0.58319898,-9.8778953392,0.5257763112000001,1.12164397,2.45939338,-5.08148692,,,
imu,130.602526,-0.5706377712,-9.928140174400001,0.5455153536,0.45619898,2.39210119,-5.08896383,,,
imu,130.611005,-0.5796100632000001,-9.941897688800001,0.5431227424,-0.28401511,2.16031698,-4.737549059999999,,,
imu,130.619484,-0.6005454112,-9.935916160800002,0.571235924,-0.9793677399999999,2.16031698,-4.386134289999999,,,
imu,130.627963,-0.5843952856000001,-9.922756799200002,0.5724322296000001,-1.3980747,2.06311715,-4.06462716,,,
imu,130.636441,-0.5772174520000001,-9.9000269928,0.5646562432000001,-1.65228964,2.13788625,-3.88518132,,,
imu,130.64492,-0.5790119104,-9.850978463200002,0.5748248408000001,-1.83173548,2.04068642,-3.85527368,,,
imu,130.653399,-0.5688433128,-9.855763685600001,0.5933675776,-1.59995127,1.69674856,-3.6459202,,,
imu,130.661878,-0.5676470072,-9.8593526024,0.6113121616,-1.46536689,1.63693328,-3.37675144,,,
imu,130.670341,-0.5754229936,-9.8234634344,0.6328456624000001,-1.36816706,1.41262598,-3.42908981,,,
imu,130.678805,-0.5688433128,-9.824659740000001,0.6418179544000001,-1.06161375,1.38271834,-3.29450543,,,
imu,130.687268,-0.5861897440000001,-9.803126239200001,0.6466031768,-0.94198319,1.40514907,-2.95056757,,,
imu,130.695732,-0.5849934384000001,-9.803724392000001,0.6328456624000001,-0.81487572,1.3528107,-3.07019813,,,
imu,130.704196,-0.5628617848,-9.802528086400002,0.6579680800000002,-0.69524516,1.45748744,-3.11505959,,,
imu,130.712659,-0.5730303824,-9.788172419200002,0.6747163584000001,-0.5681376899999999,1.49487199,-3.07767504,,,
imu,130.721123,-0.5634599376000001,-9.7809945856,0.6932590952000001,-0.61299915,1.5023489,-3.15244414,,,
imu,130.729586,-0.5616654792000001,-9.802528086400002,0.6938572480000001,-0.64290679,1.30794924,-3.71321239,,,
imu,130.73805,-0.5574784096000001,-9.824061587200001,0.6896701784000001,-0.43355331,1.30047233,-3.91508896,,,
imu,130.746513,-0.5646562432000001,-9.8043225448,0.7165870544000001,-0.38869185,1.37524143,-4.034719519999999,,,
imu,130.754977,-0.5694414656000001,-9.811500378400002,0.7345316384000001,-0.36626112,1.45001053,-4.06462716,,,
imu,130.76344,-0.5837971328000001,-9.8234634344,0.7135962904,-0.32139966,1.55468727,-4.07210407,,,
imu,130.771904,-0.5879842024,-9.802528086400002,0.7243630408,-0.2017691,1.53225654,-3.90013514,,,
imu,130.780367,-0.5676470072,-9.777405668800002,0.7100073736000001,-0.04475399000000001,1.66684092,-3.93751969,,,
imu,130.788831,-0.5670488544000001,-9.7815927384,0.6860812616,0.29918387,1.62945637,-4.13939626,,,
imu,130.797295,-0.5568802568000001,-9.7959484056,0.6651459136000001,0.58330645,1.77151766,-4.363703559999999,,,
imu,130.805758,-0.5628617848,-9.8061170032,0.6747163584000001,1.01696723,1.75656384,-4.31136519,,,
imu,130.814222,-0.5694414656000001,-9.7989391696,0.6902683312000001,1.24875144,1.56964109,-4.55810322,,,
imu,130.822685,-0.5634599376000001,-9.802528086400002,0.6824923448,1.48053565,1.4275798,-4.70764142,,,
imu,130.831149,-0.5508987288,-9.8330338792,0.6759126640000002,1.68988913,1.30794924,-4.93942563,,,
imu,130.839612,-0.5820026744000001,-9.883278714400001,0.6507902464,1.83195042,1.23318014,-5.01419473,,,
imu,130.848076,-0.6059287864000001,-9.904214062400001,0.6352382736000001,1.51044329,1.07616503,-5.17120984,,,
imu,130.856539,-0.6083213976,-9.845595088000001,0.6771089696000001,1.57773548,1.1285034,-5.20859439,,,
imu,130.865003,-0.6125084672000001,-9.800135475200001,0.6920627896000001,1.30856672,1.02382666,-5.29831731,,,
imu,130.873641,-0.6591643856000001,-9.803126239200001,0.6657440664000001,1.2936129,0.98644211,-5.305794219999999,,,
imu,130.882278,-0.6633514552,-9.7995373224,0.6304530512000001,1.33847436,1.06121121,-5.43290169,,,
imu,130.890916,-0.6232752176,-9.772022293600001,0.6137047728000001,1.27865908,0.9565344699999998,-5.500193879999999,,,
imu,130.899554,-0.6388271904000001,-9.773218599200002,0.6244715232,1.62259694,0.98644211,-5.33570186,,,
imu,130.908192,-0.5927694248,-9.820472670400001,0.6477994824000001,1.83942733,0.8742884599999998,-5.24597894,,,
imu,130.916829,-0.6765108168000001,-9.8330338792,0.6137047728000001,1.54782784,0.8294269999999999,-5.15625602,,,
imu,130.925467,-0.6507902464,-9.860548908000002,0.6166955368000001,1.6674584,0.6798887999999996,-5.1413022,,,
imu,130.934105,-0.6561736216000001,-9.886269478400003,0.6172936896000001,1.67493531,0.76213481,-5.11139456,,,
imu,130.942743,-0.6789034280000001,-9.843800629600002,0.6077232448000001,1.60016621,0.7322271699999998,-5.12634838,,,
imu,130.95138,-0.6866794144,-9.853371074400002,0.6095177032000001,1.77213514,0.6350273399999997,-5.31327113,,,
imu,130.960018,-0.6992406232000001,-9.897634381600001,0.6125084672000001,1.92167334,0.52287369,-5.38056332,,,
imu,130.968656,-0.7153907488000001,-9.914382660000001,0.6089195504,1.7422275,0.5453044199999999,-5.477763149999999,,,
imu,130.977294,-0.7405131664000002,-9.880287950400001,0.6017417168000001,1.50296638,0.6350273399999997,-5.46280933,,,
imu,130.985931,-0.7464946944,-9.842604324000002,0.6053306336000001,1.368382,0.7172733499999997,-5.42542478,,,
imu,130.994569,-0.7614485144,-9.845595088000001,0.6137047728000001,1.25622835,0.7995193599999997,-5.38804023,,,
imu,131.003207,-0.7536725280000001,-9.8820824088,0.5921712720000001,1.27865908,0.80699627,-5.26840967,,,
imu,131.011845,-0.7261574992000001,-9.859950755200002,0.5820026744000001,1.15902852,0.9341037399999998,-5.238502029999999,,,
imu,131.020482,-0.7339334856000002,-9.788172419200002,0.6041343280000001,1.06182869,0.9714882899999999,-5.11139456,,,
imu,131.02912,-0.7638411256000001,-9.76484446,0.6017417168000001,0.9646288599999999,0.92662683,-4.976810179999999,,,
imu,131.037758,-0.7452983888000001,-9.7821908912,0.5772174520000001,1.19641307,0.8219500899999996,-4.79736434,,,
imu,131.046396,-0.7135962904,-9.759461084800002,0.565254396,1.55530475,0.92662683,-4.59548777,,,
imu,131.055033,-0.7381205552000002,-9.761853696000001,0.580208216,1.91419643,0.8518577299999999,-4.408565019999999,,,
imu,131.063671,-0.7811875568000001,-9.8162856008,0.580208216,2.13850373,0.6574580699999997,-4.3936112,,,
imu,131.072309,-0.8021229048,-9.863539672000002,0.5562821040000001,2.40019558,0.6125966099999998,-4.44594957,,,
imu,131.080604,-0.7973376824000001,-9.886269478400003,0.5610673264,2.25813429,0.7397040799999997,-4.63287232,,,
imu,131.0889,-0.8075062800000001,-9.926345716,0.5837971328000001,2.13850373,1.03878048,-4.602964679999999,,,
imu,131.097196,-0.8081044328000001,-9.935916160800002,0.5945638832000001,1.82447351,1.09859576,-4.58801086,,,
imu,131.105492,-0.8039173632000001,-9.9066066736,0.5784137576,1.62259694,1.36028761,-4.46090339,,,
imu,131.113787,-0.7919543072000002,-9.9048122152,0.580208216,1.64502767,1.40514907,-4.49081103,,,
imu,131.122083,-0.8122915024000001,-9.9580478144,0.5879842024,1.4431511,1.43505671,-4.53567249,,,
imu,131.130379,-0.8350213088000001,-9.9131863544,0.5598710208000001,1.19641307,1.59207182,-4.61044159,,,
imu,131.138674,-0.8093007384,-9.822267128800002,0.5568802568000001,0.9272443100000001,1.76404075,-4.72259524,,,
imu,131.14697,-0.8332268504000001,-9.8162856008,0.5694414656000001,0.8823828499999999,1.95844041,-4.51324176,,,
imu,131.155266,-0.8739012408000001,-9.783387196800001,0.5849934384000001,0.85995212,2.13788625,-4.31136519,,,
imu,131.163561,-0.8260490168000001,-9.794153947200002,0.6101158560000001,0.79265993,2.57154703,-3.98985806,,,
imu,131.171857,-0.8057118216000001,-9.825856045600002,0.5933675776,0.83004448,2.78090051,-3.65339711,,,
imu,131.180153,-0.8110951968000001,-9.818678212000002,0.5927694248,0.9571519499999999,2.8481927,-3.58610492,,,
imu,131.188449,-0.7949450712000001,-9.7989391696,0.6053306336000001,1.09921324,2.98277708,-3.81041222,,,
imu,131.196744,-0.7853746264000001,-9.819276364800002,0.6160973840000001,1.368382,3.07997691,-4.079580979999999,,,
imu,131.20504,-0.7841783208,-9.873708269600002,0.61310662,1.45810492,3.02763854,-4.07210407,,,
imu,131.213336,-0.7758041816000001,-9.83961356,0.6029380224,1.45810492,3.21456129,-3.81788913,,,
imu,131.221631,-0.7985339880000002,-9.8168837536,0.5796100632000001,1.31604363,3.22951511,-3.62348947,,,
imu,131.229927,-0.8182730304000002,-9.802528086400002,0.5616654792000001,1.45062801,3.31176112,-3.32441307,,,
imu,131.238223,-0.7997302936000001,-9.7815927384,0.5437208952000001,1.71979677,3.53606842,-3.07019813,,,
imu,131.246518,-0.7632429728000001,-9.797144711200001,0.5556839512000001,2.03382699,3.91739083,-2.98047521,,,
imu,131.254814,-0.7536725280000001,-9.828846809600002,0.5526931872,2.29551884,4.13422122,-2.86084465,,,
imu,131.26311,-0.7231667352000001,-9.834230184800003,0.5598710208000001,2.39271867,4.171605769999999,-2.84589083,,,
imu,131.271405,-0.6986424704000002,-9.870717505600002,0.5658525488000001,2.46748777,4.23142105,-2.92813684,,,
imu,131.280256,-0.6902683312000001,-9.869521200000003,0.5431227424,2.44505704,4.149175039999999,-2.98047521,,,
imu,131.289106,-0.7022313872,-9.819276364800002,0.5520950344000001,2.29551884,4.03702139,-3.0477674,,,
imu,131.297956,-0.6866794144,-9.8049206976,0.5592728680000001,2.09364227,4.08935976,-3.25712088,,,
imu,131.306806,-0.6729219000000001,-9.815687448000002,0.5437208952000001,2.07868845,4.1192674,-3.31693616,,,
imu,131.315656,-0.6519865520000001,-9.842006171200001,0.5281689224000001,2.05625772,3.98468302,-3.21225942,,,
imu,131.324506,-0.6633514552,-9.8300431152,0.5257763112000001,2.04878081,3.93982156,-3.13749032,,,
imu,131.333356,-0.6711274416,-9.8432024768,0.5347486032000001,2.06373463,3.99215993,-3.04029049,,,
imu,131.342206,-0.6495939408000001,-9.863539672000002,0.5520950344000001,1.99644244,3.72299117,-3.10758268,,,
imu,131.351056,-0.6394253432000001,-9.886867631200001,0.5634599376000001,1.94410407,3.68560662,-3.06272122,,,
imu,131.359906,-0.648995788,-9.908401132000002,0.5849934384000001,1.68241222,3.46877623,-3.14496723,,,
imu,131.368757,-0.646005024,-9.928738327200001,0.5855915912,1.33099745,3.31176112,-3.15244414,,,
imu,131.377607,-0.6436124128,-9.891054700800002,0.5915731192000001,1.15902852,3.34914567,-3.07767504,,,
imu,131.386457,-0.6322475096000001,-9.8629415192,0.6053306336000001,1.04687487,3.13231528,-2.9729983,,,
imu,131.395307,-0.6166955368000001,-9.844996935200001,0.5897786608000001,0.97958268,2.87062343,-2.94309066,,,
imu,131.404157,-0.5987509528,-9.832435726400002,0.58319898,1.18893616,2.63883922,-2.91318302,,,
imu,131.413007,-0.62806044,-9.824659740000001,0.5879842024,1.2188438,2.46687029,-2.90570611,,,
imu,131.421857,-0.6316493568000001,-9.809107767200002,0.5790119104,1.33847436,2.22013226,-2.84589083,,,
imu,131.430707,-0.6184899952000001,-9.797742864000002,0.5724322296000001,1.65998149,2.18274771,-2.84589083,,,
imu,131.439557,-0.6208826064000001,-9.802528086400002,0.580208216,1.63755076,2.01077878,-3.02533667,,,
imu,131.448407,-0.6585662328000002,-9.827650504000003,0.6023398696000001,1.60016621,1.78647148,-3.26459779,,,
imu,131.457258,-0.6693329832000001,-9.866530436000001,0.5999472584000001,1.75718132,1.79394839,-3.45899745,,,
imu,131.466039,-0.6795015808000001,-9.879091644800003,0.5915731192000001,1.76465823,1.71170238,-3.55619728,,,
imu,131.474889,-0.6842868032,-9.844398782400003,0.6053306336000001,1.52539711,1.6518871,-3.81788913,,,
imu,131.483331,-0.6992406232000001,-9.8210708232,0.5975546472000001,1.41324346,1.56216418,-3.93751969,,,
imu,131.491773,-0.7064184568,-9.812696684000002,0.5885823552,1.47305874,1.577118,-4.0197657,,,
imu,131.500215,-0.723764888,-9.8144911424,0.5903768136,1.71231986,1.7266562,-3.85527368,,,
imu,131.508657,-0.7165870544000001,-9.796546558400001,0.5885823552,1.75718132,1.82385603,-3.90013514,,,
imu,131.517099,-0.7195778184000001,-9.779798280000001,0.5658525488000001,1.80951969,1.95844041,-3.98238115,,,
imu,131.525541,-0.7094092208000001,-9.802528086400002,0.5598710208000001,2.08616536,2.1752708,-3.99733497,,,
imu,131.533983,-0.6992406232000001,-9.842604324000002,0.5538894928000001,2.27308811,2.37714737,-4.17678081,,,
imu,131.542425,-0.7040258456,-9.8527729216,0.5497024232000001,2.1908421,2.35471664,-4.37118047,,,
imu,131.550867,-0.7064184568,-9.8886620896,0.5520950344000001,2.19831901,2.41453192,-4.48333412,,,
imu,131.559309,-0.6974461648000001,-9.923354952,0.5556839512000001,2.18336519,2.48930102,-4.58053395,,,
imu,131.567751,-0.6944554008000001,-9.906008520800002,0.5461135064000001,1.91419643,2.42200883,-4.70016451,,,
imu,131.576193,-0.6938572480000001,-9.8629415192,0.5437208952000001,1.83195042,2.43696265,-4.602964679999999,,,
imu,131.584635,-0.6914646368,-9.821668976000002,0.5491042704000001,1.68241222,2.42948574,-4.73007215,,,
imu,131.593076,-0.6597625384000001,-9.803126239200001,0.5221873944000001,1.5926893,2.37714737,-4.78241052,,,
imu,130.24761,,,,,,,82.508454,-28.31463080000001,128.3892408
imu,130.349172,,,,,,,82.7037692,-28.61981080000002,128.4258624
imu,130.450674,,,,,,,84.644714,-28.91278360000003,126.9609984
imu,130.552297,,,,,,,82.2154812,-28.33904520000001,127.7178448
imu,130.653829,,,,,,,84.8034076,-29.32782840000001,125.6670352
imu,130.755422,,,,,,,82.1056164,-28.18035160000001,127.8399168
imu,130.856954,,,,,,,82.7037692,-29.08368440000002,125.8867648
imu,130.958608,,,,,,,82.43521080000001,-28.41228840000001,127.8765384
imu,131.601518,-0.6621551496,-9.800135475200001,0.5281689224000001,1.62259694,2.19022462,-4.80484125,,,
imu,131.60996,-0.6633514552,-9.8013317808,0.5305615336,1.65998149,1.99582496,-4.86465653,,,
imu,131.618402,-0.6651459136000001,-9.7845835024,0.5263744640000001,1.48053565,1.81637912,-4.92447181,,,
imu,131.626844,-0.6627533024,-9.8043225448,0.5335522976000001,1.52539711,1.49487199,-4.81231816,,,
imu,131.635286,-0.6645477608,-9.8294449624,0.5347486032000001,1.65250458,1.42010289,-4.73007215,,,
imu,131.643728,-0.6830904976000001,-9.868923047200001,0.5377393672000002,1.80204278,1.49487199,-4.51324176,,,
imu,131.65217,-0.681894192,-9.893447312000001,0.5299633808,1.80951969,1.31542615,-4.41604193,,,
imu,131.660612,-0.6651459136000001,-9.879689797600001,0.5449172008000001,1.6674584,1.23318014,-4.35622665,,,
imu,131.669054,-0.6735200528,-9.858754449600001,0.5329541448,1.54035093,1.09859576,-4.37865738,,,
imu,131.677496,-0.6711274416,-9.8461932408,0.5221873944000001,1.60016621,0.98644211,-4.41604193,,,
imu,131.685985,-0.6806978864000002,-9.838417254400001,0.5138132552000001,1.71231986,0.94905756,-4.29641137,,,
imu,131.694474,-0.6884738728,-9.821668976000002,0.5048409632,1.98896553,0.9415806499999997,-4.146873169999999,,,
imu,131.702963,-0.6896701784000001,-9.818678212000002,0.490485296,2.04878081,0.9041961000000001,-4.27398064,,,
imu,131.711452,-0.7058203040000001,-9.835426490400001,0.4976631296000001,2.28056502,0.78456554,-4.363703559999999,,,
imu,131.719941,-0.7112036792,-9.878493492,0.472540712,2.29551884,0.8144731799999998,-4.58053395,,,
imu,131.72843,-0.6998387760000001,-9.905410368000002,0.4791203928000001,2.31047266,0.80699627,-4.78988743,,,
imu,131.736919,-0.7153907488000001,-9.9137845072,0.4833074624000001,2.27308811,0.7397040799999997,-4.90204108,,,
imu,131.745407,-0.7106055264000001,-9.921560493600001,0.4767277816000001,1.95905789,0.6724118899999998,-5.08148692,,,
imu,131.753896,-0.7189796656000002,-9.914382660000001,0.4845037680000001,1.65998149,0.6350273399999997,-5.305794219999999,,,
imu,131.762385,-0.7303445688000001,-9.900625145600001,0.49347606,1.33099745,0.6275504299999999,-5.612347529999999,,,
imu,131.770874,-0.7327371800000001,-9.8581562968,0.4839056152000001,0.82256757,0.52287369,-5.784316459999999,,,
imu,131.779363,-0.7476910000000001,-9.824061587200001,0.490485296,0.63564482,0.4256738599999998,-5.68711663,,,
imu,131.787852,-0.7644392784,-9.803724392000001,0.4851019208000001,0.68050628,0.2387511099999999,-5.43290169,,,
imu,131.796341,-0.780589404,-9.786976113600002,0.4803166984,0.7403215599999999,0.1565051,-5.43290169,,,
imu,131.80483,-0.7949450712000001,-9.798341016800002,0.4749333232000001,0.68798319,0.2088434699999997,-5.41794787,,,
imu,131.813319,-0.8069081272,-9.801929933600002,0.4707462536000001,0.77770611,0.09668981999999993,-5.23102512,,,
imu,131.821808,-0.8230582528,-9.837220948800002,0.4599795032,0.8823828499999999,0.04435144999999974,-5.021671639999999,,,
imu,131.830297,-0.8380120728000001,-9.902419604000002,0.4587831976000001,1.24127453,0.1191205499999999,-5.01419473,,,
imu,131.838786,-0.8410028368000001,-9.938906924800001,0.4504090584,1.36090509,0.1639820099999998,-4.93942563,,,
imu,131.847275,-0.8804809216,-9.952066286400001,0.4605776560000001,1.30108981,0.3808123999999999,-4.90204108,,,
imu,131.855764,-0.9133793256000001,-9.964627495200002,0.4791203928000001,1.18893616,0.5079198699999998,-4.79736434,,,
imu,131.864253,-0.9103885616000001,-9.971207176000002,0.4623721144,0.9646288599999999,0.72475026,-4.87213344,,,
imu,131.872742,-0.9175663952000002,-9.953262592000002,0.4593813504000001,0.47862971,1.15093413,-4.80484125,,,
imu,131.881231,-0.9175663952000002,-9.935916160800002,0.4731388648000001,0.13469185,1.62197946,-4.70016451,,,
imu,131.889668,-0.9062014920000001,-9.919167882400002,0.4743351704000001,-0.14195382,1.91357895,-4.670256869999999,,,
imu,131.898105,-0.8876587552000001,-9.904214062400001,0.4617739616000001,-0.36626112,2.2500399,-4.56558013,,,
imu,131.906542,-0.8643307960000001,-9.855763685600001,0.4755314760000001,-0.7401066199999999,2.51920866,-4.602964679999999,,,
imu,131.914978,-0.8481806704000001,-9.824659740000001,0.4880926848000001,-0.91207555,2.72856214,-4.42351884,,,
imu,131.923415,-0.8290397808000001,-9.857558144000002,0.4946723656000001,-0.9943215599999999,2.91548489,-4.341272829999999,,,
imu,131.931852,-0.8242545584000001,-9.8647359776,0.505439116,-1.1737674,2.87062343,-4.28145755,,,
imu,131.940289,-0.8206656416,-9.8593526024,0.5150095608,-1.28592105,2.75846978,-4.318842099999999,,,
imu,131.948726,-0.8122915024000001,-9.873110116800001,0.5365430616000001,-1.53265908,2.59397776,-4.52071867,,,
imu,131.957163,-0.8081044328000001,-9.9000269928,0.5341504504000001,-1.6971511,2.54163939,-4.49828794,,,
imu,131.965599,-0.8218619472,-9.8563618384,0.5156077136000001,-1.70462801,2.3995781,-4.18425772,,,
imu,131.974036,-0.8278434752000001,-9.803724392000001,0.5443190480000001,-1.85416621,2.36219355,-3.95247351,,,
imu,131.982473,-0.8421991424,-9.793555794400001,0.5437208952000001,-1.91398149,2.41453192,-3.63096638,,,
imu,131.99091,-0.8433954480000001,-9.800135475200001,0.5251781584,-1.77939711,2.56407012,-3.13001341,,,
imu,131.999347,-0.8320305448000002,-9.8168837536,0.5078317272000001,-1.51770526,2.72856214,-2.87579847,,,
imu,132.007784,-0.8134878080000001,-9.824061587200001,0.5156077136000001,-1.23358268,2.90053107,-2.72626027,,,
imu,132.01622,-0.7859727792000001,-9.8432024768,0.5491042704000001,-0.9644139199999999,3.07997691,-2.69635263,,,
imu,132.024657,-0.7710189592000001,-9.807313308800001,0.5383375200000001,-0.83730645,3.04259236,-2.748691,,,
imu,132.033094,-0.7387187080000002,-9.839015407200002,0.5814045216000001,-0.65786061,3.16222292,-2.98047521,,,
imu,132.041531,-0.7464946944,-9.8234634344,0.5628617848,-0.41112258,3.12483837,-3.32441307,,,
imu,132.049968,-0.7554669864000001,-9.8210708232,0.5754229936,-0.5008455,3.0725,-3.496382,,,
imu,132.058405,-0.7291482632,-9.8144911424,0.5814045216000001,-0.60552224,2.9977309,-3.69825857,,,
imu,132.066841,-0.7118018320000001,-9.807313308800001,0.5784137576,-0.56066078,2.99025399,-3.78050458,,,
imu,132.075278,-0.7327371800000001,-9.802528086400002,0.5814045216000001,-0.5008455,2.83323888,-3.98238115,,,
imu,132.083715,-0.7207741240000002,-9.8043225448,0.580208216,-0.51579932,2.45191647,-3.8702275,,,
imu,132.092177,-0.7112036792,-9.811500378400002,0.5796100632000001,-0.47093786,2.27994754,-3.86275059,,,
imu,132.10064,-0.6956517064000001,-9.8049206976,0.5903768136,-0.45598404,1.98834805,-4.13939626,,,
imu,132.109102,-0.7195778184000001,-9.788172419200002,0.6023398696000001,-0.39616876,1.56964109,-4.22164227,,,
imu,132.117564,-0.7393168608000001,-9.796546558400001,0.6035361752000001,-0.07466163,1.33785688,-4.25902682,,,
imu,132.126027,-0.7518780696000001,-9.802528086400002,0.5981528,0.04496892999999999,1.09859576,-4.18425772,,,
imu,132.134489,-0.7698226536000001,-9.8162856008,0.5987509528,0.3963837,1.03878048,-4.124442439999999,,,
imu,132.142951,-0.7901598488000001,-9.8228652816,0.58319898,0.46367589,0.9341037399999998,-4.012288789999999,,,
imu,132.151413,-0.8140859608000002,-9.852174768800001,0.6137047728000001,0.3889067899999999,0.70231953,-3.92256587,,,
imu,132.159876,-0.8194693360000002,-9.869521200000003,0.6059287864000001,0.3216146,0.72475026,-3.98238115,,,
imu,132.168338,-0.8344231560000002,-9.8617452136,0.6017417168000001,0.3739529699999999,0.8144731799999998,-3.77302767,,,
imu,132.1768,-0.8421991424,-9.8593526024,0.6149010784000001,0.21693786,0.9041961000000001,-3.66835093,,,
imu,132.185262,-0.8607418792,-9.822267128800002,0.6340419680000001,0.08235347999999998,1.15841104,-3.6459202,,,
imu,132.193725,-0.8637326432000001,-9.830641268,0.6693329832000001,-0.22419983,1.4275798,-3.72816621,,,
imu,132.202187,-0.8607418792,-9.876699033600001,0.6753145112000001,-0.40364567,1.73413311,-3.71321239,,,
imu,132.210649,-0.8679197128000001,-9.885671325600002,0.6555754688000001,-0.3513073,1.98834805,-3.72816621,,,
imu,132.219112,-0.8463862120000001,-9.845595088000001,0.681894192,-0.5980453299999999,2.18274771,-3.77302767,,,
imu,132.227574,-0.8326286976000001,-9.8198745176,0.6968480120000001,-0.53823005,2.52668557,-3.76555076,,,
imu,132.236036,-0.8332268504000001,-9.8330338792,0.7016332344,-0.5307531400000001,2.44443956,-4.15435008,,,
imu,132.244498,-0.8176748776000001,-9.834230184800003,0.7022313872,-0.46346095,2.65379304,-4.102011709999999,,,
imu,132.252961,-0.8152822664000001,-9.805518850400002,0.7082129152000001,-0.3513073,2.74351596,-4.08705789,,,
imu,132.261423,-0.8093007384,-9.797144711200001,0.7100073736000001,-0.0522309,2.93043871,-3.98985806,,,
imu,132.269885,-0.7877672376000001,-9.803126239200001,0.7159889016000002,0.12721494,3.02016163,-3.69078166,,,
imu,132.278347,-0.7811875568000001,-9.807313308800001,0.6992406232000001,0.33656842,3.05754618,-3.55619728,,,
imu,132.28681,-0.771617112,-9.80970592,0.6986424704000002,0.3739529699999999,2.75846978,-3.56367419,,,
imu,132.295717,-0.7770004872000001,-9.822267128800002,0.6992406232000001,0.4861066199999999,2.76594669,-3.496382,,,
imu,132.304624,-0.7841783208,-9.807313308800001,0.6944554008000001,0.65807555,2.81828506,-3.50385891,,,
imu,132.313531,-0.7883653904000001,-9.788770572,0.6842868032,0.57582954,2.78090051,-3.60105874,,,
imu,132.322438,-0.7883653904000001,-9.783985349600002,0.6783052752000002,0.7403215599999999,2.57902394,-3.73564312,,,
imu,132.331345,-0.7877672376000001,-9.776209363200001,0.6579680800000002,0.81509066,2.50425484,-3.7206893,,,
imu,132.340253,-0.8051136688,-9.7636481544,0.6579680800000002,0.9646288599999999,2.52668557,-3.63844329,,,
imu,132.34916,-0.8021229048,-9.7325442088,0.6561736216000001,1.05435178,2.69117759,-3.40665908,,,
imu,132.358067,-0.8075062800000001,-9.734936820000001,0.6418179544000001,1.15902852,2.87810034,-3.33188998,,,
imu,132.366974,-0.7895616960000001,-9.749890640000002,0.6238733704,1.63007385,3.05006927,-3.33188998,,,
imu,132.375881,-0.7674300424000001,-9.746301723200002,0.6190881480000001,1.99644244,3.1472691,-3.36179762,,,
imu,132.384788,-0.7578595976000001,-9.786976113600002,0.6113121616,2.16093446,3.08745382,-3.40665908,,,
imu,132.393695,-0.7542706808000001,-9.828846809600002,0.5951620360000001,2.39271867,3.00520781,-3.58610492,,,
imu,132.402603,-0.7494854584000001,-9.872511964000001,0.5873860496000001,2.58711833,2.9977309,-3.93751969,,,
imu,132.41151,-0.7530743752000001,-9.893447312000001,0.6059287864000001,2.28804193,2.83323888,-4.19921154,,,
imu,131.06025,,,,,,,82.02016599999999,-28.21697320000001,128.3037904
imu,131.161782,,,,,,,82.08120199999999,-28.32683800000002,128.4380696
imu,131.263375,,,,,,,82.05678759999999,-28.3512524,128.2915832
imu,131.364937,,,,,,,82.1544452,-28.57098200000001,128.8531144
imu,131.4665,,,,,,,81.9835444,-28.54656760000001,128.52352
imu,131.568032,,,,,,,84.0221468,-28.44891000000001,127.2295568
imu,131.669625,,,,,,,81.776022,-29.12030600000002,128.3770336
imu,131.771157,,,,,,,83.8024172,-29.59638680000001,125.1909544
imu,132.420417,-0.7560651392000002,-9.9131863544,0.5951620360000001,2.2656112,2.76594669,-4.17678081,,,
imu,132.429324,-0.7632429728000001,-9.932327244000001,0.5796100632000001,2.23570356,2.49677793,-4.15435008,,,
imu,132.438231,-0.7638411256000001,-9.9329253968,0.5748248408000001,1.89924261,2.33228591,-4.25154991,,,
imu,132.447138,-0.7680281952000001,-9.937710619200002,0.5730303824,1.63755076,2.23508608,-4.17678081,,,
imu,132.456046,-0.7770004872000001,-9.914382660000001,0.5766192992000001,1.38333582,2.13040934,-4.07210407,,,
imu,132.464953,-0.7758041816000001,-9.897634381600001,0.5724322296000001,1.24127453,2.07059406,-4.079580979999999,,,
imu,132.47386,-0.7895616960000001,-9.895839923200002,0.5736285352000001,0.8749059399999999,1.83133294,-4.244073,,,
imu,132.482767,-0.8051136688,-9.891054700800002,0.580208216,0.85995212,1.77899457,-4.30388828,,,
imu,132.491674,-0.8170767248000002,-9.875502728,0.5730303824,0.80013684,1.79394839,-4.48333412,,,
imu,132.50012,-0.8326286976000001,-9.857558144000002,0.5784137576,0.6281679099999999,1.63693328,-4.86465653,,,
imu,132.508566,-0.8433954480000001,-9.855763685600001,0.5957601888000001,0.49358353,1.56964109,-4.92447181,,,
imu,132.517011,-0.8535640456000001,-9.8461932408,0.6214807592000001,0.33656842,1.59954873,-4.83474889,,,
imu,132.525457,-0.8679197128000001,-9.859950755200002,0.6238733704,0.20198404,1.53225654,-4.85717962,,,
imu,132.533903,-0.8882569080000001,-9.831239420800001,0.6172936896000001,-0.007369440000000005,1.59954873,-4.70016451,,,
imu,132.542349,-0.9026125752,-9.8144911424,0.6214807592000001,-0.10456927,1.78647148,-4.5431494,,,
imu,132.550794,-0.8972292000000002,-9.803126239200001,0.6358364264000002,-0.09709236,2.00330187,-4.35622665,,,
imu,132.559389,-0.8798827688,-9.8043225448,0.6442105656,-0.127,2.14536316,-4.11696553,,,
imu,132.567834,-0.8601437264,-9.8013317808,0.6286585928,-0.007369440000000005,2.25751681,-3.81788913,,,
imu,132.57628,-0.8290397808000001,-9.755274015200001,0.6340419680000001,0.14216876,2.13788625,-3.72816621,,,
imu,132.584726,-0.7967395296000002,-9.773816752000002,0.6483976352,0.35899915,2.26499372,-3.60105874,,,
imu,132.593172,-0.7955432240000001,-9.779798280000001,0.6424161072,0.82256757,2.06311715,-3.60105874,,,
imu,132.601617,-0.8278434752000001,-9.798341016800002,0.6346401208000001,1.18893616,1.8014253,-3.54124346,,,
imu,132.610063,-0.8619381848000001,-9.788770572,0.6519865520000001,1.2936129,1.577118,-3.72816621,,,
imu,132.618509,-0.8667234072000001,-9.897634381600001,0.6806978864000002,1.70484295,1.47244126,-3.75059694,,,
imu,132.626955,-0.9020144224000001,-9.8563618384,0.6202844536000002,1.53287402,1.45748744,-3.73564312,,,
imu,132.6354,-0.8816772272000001,-9.833632032,0.631051204,1.62259694,1.6518871,-3.67582784,,,
imu,132.643846,-0.8960328944000001,-9.8432024768,0.6214807592000001,1.69736604,1.74161002,-3.78050458,,,
imu,132.652292,-0.9008181168,-9.831837573600001,0.6149010784000001,1.5926893,1.89114822,-3.65339711,,,
imu,132.660738,-0.9067996448000001,-9.873110116800001,0.6160973840000001,1.74970441,2.09302479,-3.6459202,,,
imu,132.669183,-0.9133793256000001,-9.8946436176,0.6208826064000001,1.55530475,2.21265535,-3.54124346,,,
imu,132.677629,-0.9139774784000001,-9.8916528536,0.6358364264000002,1.2188438,2.4743472,-3.496382,,,
imu,132.686075,-0.8816772272000001,-9.8778953392,0.62806044,1.06182869,2.71360832,-3.56367419,,,
imu,132.694521,-0.8631344904,-9.8270523512,0.6238733704,0.79265993,2.85566961,-3.3468438,,,
imu,132.702994,-0.8427972952,-9.8043225448,0.6184899952000001,0.7253677399999999,2.9229618,-3.33188998,,,
imu,132.711468,-0.8284416280000001,-9.7995373224,0.6178918424000002,0.59078336,2.9977309,-3.21225942,,,
imu,132.719942,-0.8021229048,-9.790565030400002,0.6358364264000002,0.74779847,3.09493073,-2.92813684,,,
imu,132.728415,-0.7865709320000001,-9.802528086400002,0.6406216488000002,0.5982602699999999,3.02763854,-2.83841392,,,
imu,132.736889,-0.7770004872000001,-9.821668976000002,0.6507902464,0.77770611,3.01268472,-2.75616791,,,
imu,132.745363,-0.7746078760000001,-9.873708269600002,0.666940372,0.83004448,2.82576197,-2.98047521,,,
imu,132.753837,-0.7943469184000002,-9.960440425600002,0.6747163584000001,0.8375213899999999,2.69117759,-3.21225942,,,
imu,132.76231,-0.7907580016000001,-9.970609023200002,0.6759126640000002,0.4711528,2.76594669,-3.14496723,,,
imu,132.770784,-0.7728134176000001,-9.904214062400001,0.6675385248000001,0.2468455,2.79585433,-2.71130645,,,
imu,132.779258,-0.7674300424000001,-9.860548908000002,0.6771089696000001,0.08983038999999998,2.96782326,-2.2253073,,,
imu,132.787731,-0.7363260968000002,-9.820472670400001,0.6442105656,0.19450713,3.31923803,-1.69444669,,,
imu,132.796205,-0.6968480120000001,-9.793555794400001,0.6370327320000001,0.35152224,3.58840679,-1.27573973,,,
imu,132.804679,-0.6777071224000001,-9.772022293600001,0.6166955368000001,0.5982602699999999,3.6706528,-1.31312428,,,
imu,132.813153,-0.648995788,-9.7504887928,0.6047324808000001,1.04687487,3.71551426,-1.43275484,,,
imu,132.821626,-0.6298548984000001,-9.737927584000001,0.601143564,1.34595127,3.58092988,-1.7766927,,,
imu,132.8301,-0.6256678288,-9.7403201952,0.6047324808000001,1.85438115,3.47625314,-2.32250713,,,
imu,132.838574,-0.6424161072,-9.7474980288,0.58319898,2.0413039,3.16969983,-3.00290594,,,
imu,132.847047,-0.6675385248000001,-9.760059237600002,0.5736285352000001,2.25065738,2.9229618,-3.54872037,,,
imu,132.855521,-0.6693329832000001,-9.797144711200001,0.5640580904000001,2.46001086,2.66126995,-4.31136519,,,
imu,132.863995,-0.6944554008000001,-9.8294449624,0.5550857984,2.58711833,2.50425484,-4.87961035,,,
imu,132.872469,-0.7309427216000001,-9.8629415192,0.5646562432000001,2.46001086,2.13788625,-5.18616366,,,
imu,132.880942,-0.76264482,-9.897036228800001,0.5568802568000001,2.21327283,1.94348659,-5.5151477,,,
imu,132.889416,-0.7781967928000002,-9.9137845072,0.5616654792000001,1.97401171,1.95844041,-5.612347529999999,,,
imu,132.89789,-0.8152822664000001,-9.962234884,0.5933675776,1.72727368,1.88367131,-5.50767079,,,
imu,132.906288,-0.8553585040000001,-9.994535135200001,0.5885823552,1.30856672,1.71917929,-5.41047096,,,
imu,132.914687,-0.8595455736000001,-9.974197940000002,0.6125084672000001,0.88985976,1.88367131,-5.24597894,,,
imu,132.923086,-0.8840698384000001,-9.954458897600002,0.6292567456000001,0.53844499,2.09302479,-5.08896383,,,
imu,132.931484,-0.8936402832000001,-9.9484773696,0.6472013296000001,0.16459949,2.12293243,-5.07401001,,,
imu,132.939883,-0.885266144,-9.932327244000001,0.6519865520000001,-0.07466163,2.25751681,-4.81979507,,,
imu,132.948282,-0.9079959504000001,-9.882680561600003,0.6711274416,-0.39616876,2.45939338,-4.59548777,,,
imu,132.956681,-0.8888550608000001,-9.8402117128,0.6753145112000001,-0.67281443,2.6238854,-4.46090339,,,
imu,132.965079,-0.8733030880000001,-9.824659740000001,0.684884956,-0.68776825,2.75099287,-4.363703559999999,,,
imu,132.973478,-0.8511714344000001,-9.802528086400002,0.6789034280000001,-0.56066078,2.88557725,-4.146873169999999,,,
imu,132.981877,-0.8398065312,-9.766638918400002,0.6812960392000001,-0.38869185,2.89305416,-4.034719519999999,,,
imu,132.990275,-0.8290397808000001,-9.758862932000001,0.70282954,-0.13447691,3.02763854,-3.99733497,,,
imu,132.998674,-0.8218619472,-9.8144911424,0.7010350816000002,0.14216876,2.96034635,-4.10948862,,,
imu,133.007073,-0.8170767248000002,-9.858754449600001,0.6998387760000001,0.26179932,2.81080815,-4.19921154,,,
imu,133.015471,-0.7979358352000001,-9.8467913936,0.7052221512000001,0.34404533,2.60145467,-4.31136519,,,
imu,133.02387,-0.804515516,-9.8162856008,0.7159889016000002,0.27675314,2.52668557,-4.34874974,,,
imu,133.032269,-0.8075062800000001,-9.8061170032,0.7123999848000001,0.14964567,2.48182411,-4.37865738,,,
imu,133.040667,-0.7979358352000001,-9.802528086400002,0.7112036792,0.20946095,2.33976282,-4.22164227,,,
imu,133.049066,-0.7925524600000001,-9.7995373224,0.6950535536000001,0.35152224,2.324809,-4.169303899999999,,,
imu,133.057465,-0.7955432240000001,-9.7510869456,0.6914646368,0.28423005,2.09302479,-4.21416536,,,
imu,133.065864,-0.7799912512000001,-9.7193848472,0.6741182056000001,0.43376825,1.94348659,-4.21416536,,,
imu,133.074262,-0.7620466672,-9.700243957600001,0.6711274416,0.5982602699999999,1.6518871,-4.27398064,,,
imu,133.082661,-0.7494854584000001,-9.689477207200001,0.6633514552,0.68050628,1.53225654,-4.341272829999999,,,
imu,133.09106,-0.7614485144,-9.7122070136,0.6783052752000002,1.10669015,1.26308778,-4.034719519999999,,,
imu,133.099458,-0.7464946944,-9.718188541600002,0.6394253432000001,1.368382,1.1285034,-3.81041222,,,
imu,133.107928,-0.76264482,-9.725964528,0.6525847048000001,1.95158098,0.8593346399999997,-3.78050458,,,
imu,133.116398,-0.7752060288000001,-9.867128588800002,0.6735200528,2.28804193,0.6125966099999998,-3.93004278,,,
imu,133.124868,-0.8075062800000001,-9.7989391696,0.6005454112,2.52730305,0.6125966099999998,-3.85527368,,,
imu,133.133338,-0.8272453224,-9.850380310400002,0.6561736216000001,2.74413344,0.66493498,-3.78798149,,,
imu,133.141808,-0.8421991424,-9.883876867200001,0.6035361752000001,2.93105619,0.86681155,-3.76555076,,,
imu,133.150278,-0.8481806704000001,-9.8647359776,0.5808063688,3.11050203,0.9939190199999999,-3.97490424,,,
imu,133.158748,-0.8499751288000001,-9.879689797600001,0.5927694248,3.07311748,1.09859576,-4.18425772,,,
imu,133.167217,-0.8679197128000001,-9.899428840000002,0.5873860496000001,3.11797894,1.32290306,-4.30388828,,,
imu,133.175687,-0.8649289488,-9.931729091200001,0.5820026744000001,3.00582529,1.42010289,-4.51324176,,,
imu,133.184157,-0.8643307960000001,-9.9430939944,0.5784137576,2.57216451,1.59954873,-4.81231816,,,
imu,133.192627,-0.8762938520000002,-9.927542021600003,0.5670488544000001,2.19831901,1.54721036,-4.92447181,,,
imu,133.201097,-0.8900513664000002,-9.910793743200001,0.5574784096000001,2.07121154,1.68927165,-4.83474889,,,
imu,133.209567,-0.8721067824000002,-9.916177118400002,0.5658525488000001,1.90671952,1.77899457,-4.80484125,,,
imu,133.218037,-0.8762938520000002,-9.919167882400002,0.5742266880000001,1.56278166,1.71170238,-5.07401001,,,
imu,133.226507,-0.9044070336000001,-9.9000269928,0.5467116592000001,1.47305874,1.62945637,-5.02914855,,,
imu,131.87275,,,,,,,81.89809400000001,-29.26679240000001,128.1084752
imu,131.974282,,,,,,,84.4860204,-29.8649452,125.7769
imu,132.075844,,,,,,,81.8736796,-28.65643240000002,128.3892408
imu,132.177498,,,,,,,81.80043640000001,-28.5831892,128.3526192
imu,132.278969,,,,,,,81.80043640000001,-28.60760360000001,128.5479344
imu,132.380562,,,,,,,81.9469228,-28.03386520000002,128.1084752
imu,132.482094,,,,,,,81.76381479999999,-28.22918040000002,128.4991056
imu,132.583718,,,,,,,81.60512120000001,-28.19255880000002,128.3648264
imu,133.234977,-0.9067996448000001,-9.872511964000001,0.5646562432000001,1.15902852,1.52477963,-4.96185636,,,
imu,133.243447,-0.9229497704,-9.8647359776,0.5820026744000001,0.94219813,1.47991817,-4.73007215,,,
imu,133.251916,-0.9307257568000001,-9.864137824800002,0.5957601888000001,0.68050628,1.45748744,-4.4683803,,,
imu,133.260386,-0.9552500216000002,-9.839015407200002,0.5957601888000001,0.6281679099999999,1.50982581,-4.29641137,,,
imu,133.268856,-0.9570444800000002,-9.847389546400002,0.6059287864000001,0.43376825,1.51730272,-4.124442439999999,,,
imu,133.277326,-0.9612315496000001,-9.853969227200002,0.6053306336000001,0.27675314,1.59207182,-3.86275059,,,
imu,133.285796,-0.9516611048000001,-9.85456738,0.6376308848000001,0.08983038999999998,1.76404075,-3.73564312,,,
imu,133.294266,-0.9594370912000001,-9.848585852000001,0.6561736216000001,0.0001074699999999984,1.77899457,-3.84779677,,,
imu,133.302736,-0.9576426328000002,-9.845595088000001,0.6675385248000001,0.007584380000000002,1.75656384,-3.97490424,,,
imu,133.311557,-0.9612315496000001,-9.8402117128,0.6735200528,-0.06718472,2.04816333,-3.90761205,,,
imu,133.320378,-0.9516611048000001,-9.825856045600002,0.6741182056000001,0.0001074699999999984,2.05564024,-3.90761205,,,
imu,133.329199,-0.9444832712000001,-9.8198745176,0.6878757200000001,-0.11952309,2.09302479,-3.99733497,,,
imu,133.33802,-0.9361091320000001,-9.802528086400002,0.6783052752000002,-0.02232326000000001,2.15284007,-3.93751969,,,
imu,133.34684,-0.9091922560000001,-9.768433376800001,0.6920627896000001,0.14216876,2.18274771,-3.68330475,,,
imu,133.355661,-0.8870606024000001,-9.743909112,0.6974461648000001,0.35152224,2.2500399,-3.35432071,,,
imu,133.364482,-0.8768920048000002,-9.728955292000002,0.7034276928000001,0.65059864,2.43696265,-3.01785976,,,
imu,133.373303,-0.8499751288000001,-9.717590388800001,0.7076147624000001,0.9945364999999999,2.48182411,-2.86832156,,,
imu,133.382124,-0.8481806704000001,-9.6954587352,0.7106055264000001,1.56278166,2.5491163,-2.60662971,,,
imu,133.390945,-0.8499751288000001,-9.706823638400001,0.7147925960000001,2.05625772,2.42948574,-2.57672207,,,
imu,133.399766,-0.8362176144000002,-9.7295534448,0.7393168608000001,2.3403803,2.61640849,-2.3748455,,,
imu,133.408587,-0.8122915024000001,-9.748096181600001,0.7441020832,2.63197979,2.8481927,-2.11315365,,,
imu,133.417408,-0.8081044328000001,-9.754675862400001,0.744700236,2.65441052,2.90800798,-2.09819983,,,
imu,133.426229,-0.8051136688,-9.807313308800001,0.7351297912000001,2.95348692,3.2220382,-2.03090764,,,
imu,133.435049,-0.7758041816000001,-9.836622796,0.6986424704000002,3.1628404,3.5211146,-2.00847691,,,
imu,133.44387,-0.7572614448000001,-9.8043225448,0.6681366776000001,3.34228624,3.67812971,-2.09819983,,,
imu,133.452691,-0.7494854584000001,-9.802528086400002,0.6454068712000001,3.43200916,3.76037572,-2.42718387,,,
imu,133.461512,-0.7518780696000001,-9.802528086400002,0.6292567456000001,3.46939371,3.84262173,-2.87579847,,,
imu,133.470333,-0.7441020832,-9.8198745176,0.6149010784000001,3.67127028,3.9697292,-3.08515195,,,
imu,133.479154,-0.7279519576000001,-9.831239420800001,0.6113121616,3.55163972,4.01459066,-3.17487487,,,
imu,133.487975,-0.708811068,-9.851576616000001,0.5987509528,3.6862241,3.90991392,-3.33188998,,,
imu,133.496796,-0.7171852072000001,-9.879689797600001,0.5837971328000001,3.87314685,3.66317589,-3.68330475,,,
imu,133.505617,-0.7165870544000001,-9.920962340800001,0.5903768136,3.69370101,3.37905331,-4.18425772,,,
imu,133.514088,-0.7303445688000001,-10.013077872,0.5903768136,3.52920899,2.78090051,-4.67773378,,,
imu,133.522559,-0.7692245008,-10.0561448736,0.5915731192000001,3.15536349,2.56407012,-4.87961035,,,
imu,133.53103,-0.7764023344000002,-10.0148723304,0.5855915912,2.59459524,2.25751681,-4.670256869999999,,,
imu,133.539501,-0.8051136688,-9.942495841600001,0.5784137576,2.03382699,2.08554788,-4.40108811,,,
imu,133.547973,-0.8386102256000002,-9.875502728,0.5485061176,1.87681188,2.10797861,-4.06462716,,,
imu,133.556444,-0.8493769760000001,-9.821668976000002,0.5197947832,1.90671952,2.10797861,-3.84031986,,,
imu,133.564915,-0.8386102256000002,-9.796546558400001,0.5012520464000001,2.00391935,2.08554788,-3.68330475,,,
imu,133.573386,-0.8439936008000001,-9.783387196800001,0.4928779072000001,2.16841137,2.04068642,-3.7206893,,,
imu,133.581857,-0.8505732816000001,-9.8079114616,0.4946723656000001,2.46748777,1.91357895,-3.95247351,,,
imu,133.590328,-0.8637326432000001,-9.802528086400002,0.4665591840000001,2.6394567,1.81637912,-4.27398064,,,
imu,133.5988,-0.8637326432000001,-9.7809945856,0.4791203928000001,2.72917962,1.71917929,-4.5431494,,,
imu,133.607271,-0.8816772272000001,-9.7570684736,0.4946723656000001,2.78151799,1.79394839,-4.78241052,,,
imu,133.615742,-0.8858642968000001,-9.748096181600001,0.5006538936,2.60954906,1.80890221,-5.0665331,,,
imu,133.624213,-0.8870606024000001,-9.7744149048,0.4946723656000001,2.64693361,1.8761944,-5.238502029999999,,,
imu,133.632684,-0.9038088808000001,-9.809107767200002,0.502448352,2.53477996,1.70422547,-5.350655679999999,,,
imu,133.641155,-0.9109867144000001,-9.825257892800002,0.5060372688000001,2.53477996,1.59207182,-5.41794787,,,
imu,133.64957,-0.9103885616000001,-9.8778953392,0.5138132552000001,2.49739541,1.61450255,-5.47028624,,,
imu,133.658041,-0.9175663952000002,-9.8647359776,0.4922797544,2.48244159,1.55468727,-5.53010152,,,
imu,133.666512,-0.9223516176000001,-9.861147060800002,0.5168040192000001,2.54225687,1.3528107,-5.53010152,,,
imu,133.674983,-0.9271368400000001,-9.886269478400003,0.5180003248000001,2.59459524,1.10607267,-5.62730135,,,
imu,133.683454,-0.9582407856000001,-9.8647359776,0.4851019208000001,2.66188743,1.03130357,-5.65720899,,,
imu,133.691925,-0.9761853696000001,-9.8581562968,0.4976631296000001,2.863764,0.92662683,-5.35813259,,,
imu,133.700397,-0.9791761336000001,-9.911990048800002,0.5060372688000001,2.87124091,0.8518577299999999,-5.260932759999999,,,
imu,133.708868,-0.9983170232,-9.908999284800002,0.4749333232000001,2.80394872,0.8892422799999999,-5.11139456,,,
imu,133.717345,-1.0246357464,-9.848585852000001,0.4671573368000001,2.67684125,1.01634975,-4.68521069,,,
imu,133.725823,-1.0126726904,-9.8886620896,0.5096261856000001,2.4899185,0.98644211,-4.28145755,,,
imu,133.7343,-0.9971207176000002,-9.952664439200001,0.4857000736000001,2.4151494,1.24065705,-3.7954584,,,
imu,133.742778,-1.0204486768,-9.8647359776,0.4791203928000001,2.00391935,1.4275798,-3.43656672,,,
imu,133.751255,-1.0246357464,-9.8234634344,0.5180003248000001,1.69736604,1.59954873,-3.25712088,,,
imu,133.759733,-1.0001114816,-9.842006171200001,0.499457588,1.48053565,1.81637912,-3.25712088,,,
imu,133.76821,-0.9714001472000001,-9.8617452136,0.4988594352000001,1.41324346,2.00330187,-3.11505959,,,
imu,133.776688,-0.9725964528000002,-9.8617452136,0.5078317272000001,1.33099745,2.27994754,-2.91318302,,,
imu,133.785166,-0.9600352440000001,-9.825856045600002,0.5341504504000001,1.19641307,2.44443956,-2.74121409,,,
imu,133.793643,-0.9355109792000001,-9.809107767200002,0.5407301312,0.9646288599999999,2.60893158,-2.71878336,,,
imu,133.802121,-0.9349128264000002,-9.817481906400001,0.5371412144000001,0.8449983,2.90800798,-2.62906044,,,
imu,133.810598,-0.9067996448000001,-9.8264541984,0.5299633808,0.8674290299999999,3.17717674,-2.30755331,,,
imu,133.819076,-0.8840698384000001,-9.828248656800001,0.535346756,0.78518302,3.36409949,-2.09819983,,,
imu,133.827553,-0.8589474208000002,-9.8061170032,0.5401319784,0.7552753799999999,3.37905331,-2.17296893,,,
imu,133.836031,-0.8278434752000001,-9.824061587200001,0.5299633808,1.00201341,3.64074516,-2.06081528,,,
imu,133.844508,-0.8003284464,-9.838417254400001,0.5180003248000001,1.13659779,3.49120696,-2.14306129,,,
imu,133.852986,-0.7943469184000002,-9.842604324000002,0.5239818528000001,1.33847436,3.31176112,-2.2253073,,,
imu,133.861463,-0.7997302936000001,-9.817481906400001,0.5239818528000001,1.45810492,3.11736146,-2.53186061,,,
imu,133.869941,-0.7877672376000001,-9.821668976000002,0.5329541448,1.53287402,2.97530017,-2.72626027,,,
imu,133.878418,-0.7979358352000001,-9.8228652816,0.5060372688000001,1.71231986,2.87062343,-2.81598319,,,
imu,133.886896,-0.8039173632000001,-9.824659740000001,0.5090280328000001,1.77213514,2.78837742,-2.83841392,,,
imu,133.895373,-0.8003284464,-9.8228652816,0.505439116,1.88428879,2.6238854,-2.83841392,,,
imu,133.903851,-0.7991321408000002,-9.8144911424,0.4821111568000001,2.01887317,2.57154703,-2.8234601,,,
imu,133.912328,-0.8110951968000001,-9.803724392000001,0.49347606,2.02635008,2.42200883,-2.98047521,,,
imu,133.920777,-0.8146841136000001,-9.802528086400002,0.5048409632,2.13850373,2.23508608,-2.98795212,,,
imu,133.929225,-0.8146841136000001,-9.853371074400002,0.5168040192000001,2.24318047,2.18274771,-3.02533667,,,
imu,133.937673,-0.8320305448000002,-9.865932283200001,0.4952705184000001,2.0413039,1.94348659,-3.24216706,,,
imu,133.946122,-0.8487788232000001,-9.8719138112,0.4839056152000001,1.93662716,1.92853277,-3.38422835,,,
imu,133.95457,-0.8619381848000001,-9.862343366400001,0.4946723656000001,2.00391935,2.10797861,-3.23469015,,,
imu,133.963018,-0.8643307960000001,-9.8270523512,0.4946723656000001,2.0413039,2.27994754,-3.13001341,,,
imu,133.971466,-0.8625363376,-9.9012232984,0.5078317272000001,2.16093446,2.324809,-3.1973056,,,
imu,133.979915,-0.8697141712000002,-9.908401132000002,0.4779240872000001,2.10859609,2.51920866,-3.20478251,,,
imu,133.988363,-0.8744993936000002,-9.843800629600002,0.4928779072000001,1.93662716,2.69117759,-3.15244414,,,
imu,133.996811,-0.8613400320000001,-9.831239420800001,0.4898871432,1.71979677,2.64631613,-3.54872037,,,
imu,134.00526,-0.8529658928000001,-9.855165532800001,0.4868963792000001,1.5926893,2.66874686,-3.76555076,,,
imu,134.013708,-0.8439936008000001,-9.866530436000001,0.4970649768000001,1.39081273,2.55659321,-3.89265823,,,
imu,134.022156,-0.8374139200000001,-9.8593526024,0.4851019208000001,1.24127453,2.22760917,-3.90761205,,,
imu,134.030604,-0.8439936008000001,-9.844996935200001,0.4970649768000001,0.94219813,1.99582496,-3.80293531,,,
imu,134.039053,-0.8625363376,-9.840809865600002,0.5180003248000001,0.65807555,1.78647148,-3.67582784,,,
imu,134.047501,-0.8882569080000001,-9.827650504000003,0.5120187968000001,0.41133752,1.60702564,-3.39918217,,,
imu,132.685185,,,,,,,83.3507508,-28.37566680000001,126.8999624
imu,132.786717,,,,,,,81.80043640000001,-27.80192840000002,128.3648264
imu,132.888279,,,,,,,84.2540836,-28.93719800000001,129.2437448
imu,132.989842,,,,,,,84.339534,-28.59539640000002,126.3140168
imu,133.091404,,,,,,,81.8858868,-28.40008120000002,128.340412
imu,133.192967,,,,,,,82.19106679999999,-27.77751400000001,128.1817184
imu,133.294621,,,,,,,81.7027788,-28.41228840000001,128.5967632
imu,133.396275,,,,,,,82.08120199999999,-28.59539640000002,128.4868984
imu,134.055949,-0.903210728,-9.802528086400002,0.5144114080000001,-0.007369440000000005,1.47991817,-3.01038285,,,
imu,134.064398,-0.8882569080000001,-9.789966877600001,0.5132151024,-0.21672292,1.43505671,-2.65896808,,,
imu,134.072846,-0.8990236584000001,-9.802528086400002,0.5126169496,-0.17186146,1.6518871,-2.28512258,,,
imu,134.081294,-0.8816772272000001,-9.803126239200001,0.4988594352000001,-0.10456927,1.98834805,-1.75426197,,,
imu,134.089742,-0.8667234072000001,-9.832435726400002,0.4785222400000001,-0.09709236,2.01077878,-1.67201596,,,
imu,134.098191,-0.8768920048000002,-9.8234634344,0.4707462536000001,0.1720764,2.16779389,-1.85893871,,,
imu,134.106639,-0.8541621984000002,-9.8049206976,0.4713444064,0.4861066199999999,2.25751681,-2.24773803,,,
imu,134.115087,-0.8416009896000001,-9.8043225448,0.4737370176,0.76275229,2.4743472,-2.46456842,,,
imu,134.123906,-0.8332268504000001,-9.817481906400001,0.4611758088,1.22632071,2.53416248,-2.748691,,,
imu,134.132724,-0.8362176144000002,-9.810304072800001,0.4749333232000001,1.1440747,2.72856214,-3.17487487,,,
imu,134.141542,-0.8063099744000001,-9.8013317808,0.4851019208000001,1.43567419,2.85566961,-3.38422835,,,
imu,134.15036,-0.7829820152,-9.776209363200001,0.4821111568000001,1.83942733,3.02763854,-3.45152054,,,
imu,134.159179,-0.7668318896,-9.797144711200001,0.4839056152000001,2.00391935,3.09493073,-3.50385891,,,
imu,134.167997,-0.7518780696000001,-9.796546558400001,0.4743351704000001,2.2656112,3.10240764,-3.40665908,,,
imu,134.176815,-0.7279519576000001,-9.7780038216,0.4749333232000001,2.25065738,2.96034635,-3.28702852,,,
imu,134.185633,-0.7213722768,-9.7750130576,0.4964668240000001,2.31047266,2.89305416,-3.13749032,,,
imu,134.194452,-0.7291482632,-9.809107767200002,0.4857000736000001,2.4899185,2.68370068,-3.04029049,,,
imu,134.20327,-0.7351297912000001,-9.8402117128,0.4767277816000001,2.63197979,2.33976282,-2.96552139,,,
imu,134.212088,-0.7279519576000001,-9.805518850400002,0.4629702672000001,2.58711833,2.06311715,-3.18982869,,,
imu,134.220906,-0.7500836112000001,-9.815089295200002,0.4683536424000001,2.72170271,1.8014253,-3.40665908,,,
imu,134.229725,-0.7494854584000001,-9.900625145600001,0.4683536424000001,2.75908726,1.53973345,-3.53376655,,,
imu,134.238543,-0.7668318896,-9.893447312000001,0.4581850448000001,2.67684125,1.30794924,-3.57862801,,,
imu,134.247361,-0.7686263480000001,-9.844996935200001,0.4749333232000001,2.60954906,1.16588795,-3.57862801,,,
imu,134.256179,-0.7889635432000001,-9.832435726400002,0.4551942808000001,2.74413344,1.12102649,-3.48890509,,,
imu,134.264998,-0.7943469184000002,-9.834828337600001,0.4187069600000001,2.92357928,1.18831868,-3.29450543,,,
imu,134.273816,-0.8039173632000001,-9.8264541984,0.3929863896,3.1628404,1.36028761,-3.27955161,,,
imu,134.282634,-0.8093007384,-9.832435726400002,0.3732473472,3.44696298,1.53225654,-3.26459779,,,
imu,134.291452,-0.7937487656000001,-9.842604324000002,0.3684621248000001,3.70117792,1.5023489,-3.39918217,,,
imu,134.300271,-0.7973376824000001,-9.827650504000003,0.3612842912,3.96286977,1.46496435,-3.5711511,,,
imu,134.309089,-0.8116933496000001,-9.824659740000001,0.352910152,4.17222325,1.41262598,-3.96742733,,,
imu,134.317907,-0.8433954480000001,-9.836024643200002,0.3660695136000001,4.232038530000001,1.56964109,-4.386134289999999,,,
imu,134.326383,-0.8481806704000001,-9.860548908000002,0.3893974728000001,4.23951544,1.48739508,-4.66277996,,,
imu,134.33486,-0.8541621984000002,-9.910793743200001,0.3899956256000001,3.86566994,1.53225654,-4.954379449999999,,,
imu,134.343336,-0.8715086296000001,-9.9329253968,0.3840140976,3.36471697,1.5023489,-5.0665331,,,
imu,134.351812,-0.8709104768000001,-9.934719855200001,0.3852104032000001,2.9385331,1.66684092,-4.931948719999999,,,
imu,134.360288,-0.8691160184000001,-9.9167752712,0.3864067088000001,2.49739541,1.92853277,-4.759979789999999,,,
imu,134.368765,-0.8762938520000002,-9.895839923200002,0.382817792,2.13102682,1.96591732,-4.57305704,,,
imu,134.377241,-0.8721067824000002,-9.8647359776,0.3660695136000001,1.88428879,2.18274771,-4.17678081,,,
imu,134.385717,-0.8709104768000001,-9.822267128800002,0.3630787496,1.73475059,2.24256299,-4.20668845,,,
imu,134.394193,-0.8547603512000002,-9.798341016800002,0.35889168,1.61512003,2.25751681,-4.13939626,,,
imu,134.40267,-0.8439936008000001,-9.801929933600002,0.3774344168000001,1.72727368,2.27247063,-4.0945348,,,
imu,134.411146,-0.8547603512000002,-9.8270523512,0.3654713608,1.83195042,2.28742445,-3.90013514,,,
imu,134.419622,-0.8523677400000002,-9.866530436000001,0.3630787496,1.92915025,2.11545552,-3.81788913,,,
imu,134.428098,-0.8649289488,-9.8778953392,0.3624805968,1.98896553,2.15284007,-3.76555076,,,
imu,134.436575,-0.8631344904,-9.860548908000002,0.3600879856,1.92915025,2.07807097,-3.81788913,,,
imu,134.445051,-0.8595455736000001,-9.925747563200002,0.3947808480000001,1.83942733,1.86871749,-4.00481188,,,
imu,134.453527,-0.8697141712000002,-9.9131863544,0.3487230824000001,1.82447351,2.03320951,-3.75059694,,,
imu,134.462003,-0.8744993936000002,-9.886269478400003,0.3636769024000001,1.53287402,1.91357895,-3.69078166,,,
imu,134.47048,-0.8888550608000001,-9.868923047200001,0.3780325696000001,1.19641307,1.8761944,-3.60105874,,,
imu,134.478956,-0.8966310472000002,-9.8629415192,0.3905937784,1.18145925,2.07059406,-3.33936689,,,
imu,134.487432,-0.9163700896000002,-9.9078029792,0.4001642232,1.07678251,2.30237827,-3.32441307,,,
imu,134.495909,-0.9091922560000001,-9.928140174400001,0.4037531400000001,1.06182869,2.51173175,-3.20478251,,,
imu,134.504385,-0.8978273528000001,-9.8467913936,0.4025568344,0.76275229,2.73603905,-2.9729983,,,
imu,134.512861,-0.8679197128000001,-9.802528086400002,0.4061457512000001,0.77770611,2.91548489,-2.88327538,,,
imu,134.521337,-0.8786864632000002,-9.792957641600001,0.3630787496,0.79265993,3.00520781,-2.748691,,,
imu,134.529801,-0.8517695872000001,-9.767237071200002,0.3277877344,0.94219813,3.18465365,-2.66644499,,,
imu,134.538264,-0.8421991424,-9.783387196800001,0.3331711096,1.09173633,3.32671494,-2.85336774,,,
imu,134.546728,-0.8290397808000001,-9.766040765600001,0.3194135952000001,1.37585891,3.24446893,-3.00290594,,,
imu,134.555191,-0.8272453224,-9.749890640000002,0.3164228312,1.4431511,3.35662258,-3.11505959,,,
imu,134.563655,-0.8051136688,-9.800733628000001,0.3194135952000001,1.6674584,3.30428421,-3.21225942,,,
imu,134.572119,-0.8003284464,-9.8581562968,0.3331711096,1.86185806,3.2220382,-3.21225942,,,
imu,134.580582,-0.7991321408000002,-9.8581562968,0.3373581792000001,1.83942733,3.20708438,-3.18982869,,,
imu,134.589046,-0.7853746264000001,-9.8497821576,0.3361618736,1.71979677,2.93043871,-3.1225365,,,
imu,134.597509,-0.7871690848,-9.8749045752,0.3259932760000001,1.57025857,2.69117759,-3.29450543,,,
imu,134.605973,-0.7758041816000001,-9.902419604000002,0.3385544848000001,1.50296638,2.4743472,-3.24964397,,,
imu,134.614436,-0.7799912512000001,-9.8820824088,0.3361618736,1.2936129,2.42200883,-3.20478251,,,
imu,134.6229,-0.7913561544000001,-9.835426490400001,0.3307784984000001,1.19641307,2.30985518,-3.05524431,,,
imu,134.631363,-0.7931506128000001,-9.8467913936,0.323002512,1.24127453,2.22760917,-3.05524431,,,
imu,134.639827,-0.8081044328000001,-9.853371074400002,0.3277877344,1.26370526,2.05564024,-3.16739796,,,
imu,134.64829,-0.8075062800000001,-9.83961356,0.3224043592,1.19641307,2.01077878,-3.10010577,,,
imu,134.656754,-0.8110951968000001,-9.824061587200001,0.3606861384,1.18145925,2.01825569,-3.1225365,,,
imu,134.665217,-0.8110951968000001,-9.843800629600002,0.376836264,1.12912088,1.92853277,-3.15244414,,,
imu,134.673681,-0.8075062800000001,-9.889858395200001,0.3666676664,1.16650543,2.06311715,-3.13001341,,,
imu,134.682145,-0.8188711832000002,-9.897036228800001,0.385808556,1.18893616,2.1752708,-3.18982869,,,
imu,134.690608,-0.7997302936000001,-9.894045464800001,0.3995660704000001,1.02444414,2.16031698,-3.13749032,,,
imu,134.699072,-0.7961413768000002,-9.891054700800002,0.3983697648000001,0.88985976,2.19022462,-3.15992105,,,
imu,134.707535,-0.7835801680000001,-9.853371074400002,0.3935845424,0.68050628,2.33976282,-3.24216706,,,
imu,134.715999,-0.7799912512000001,-9.828846809600002,0.400762376,0.5982602699999999,2.35471664,-3.30945925,,,
imu,134.724462,-0.7793930984000002,-9.832435726400002,0.4181088072000001,0.7253677399999999,2.34723973,-3.16739796,,,
imu,134.732926,-0.7656355840000001,-9.842006171200001,0.4169125016,0.77770611,2.26499372,-3.13001341,,,
imu,134.741321,-0.7764023344000002,-9.8300431152,0.3965753064,0.66555246,2.15284007,-3.33936689,,,
imu,134.749785,-0.7674300424000001,-9.8049206976,0.3810233336,0.73284465,2.07059406,-3.52628964,,,
imu,134.758248,-0.7680281952000001,-9.800135475200001,0.3899956256000001,0.67302937,1.94348659,-3.60105874,,,
imu,134.766712,-0.7644392784,-9.812696684000002,0.391790084,0.71789083,1.94348659,-3.69078166,,,
imu,134.775175,-0.7781967928000002,-9.8210708232,0.3887993200000001,0.71789083,1.85376367,-3.7954584,,,
imu,134.783639,-0.7775986400000001,-9.803724392000001,0.4025568344,0.8375213899999999,1.83880985,-3.73564312,,,
imu,134.792102,-0.7937487656000001,-9.789368724800001,0.3792288752000001,0.88985976,1.71917929,-3.7954584,,,
imu,134.800566,-0.7991321408000002,-9.779200127200001,0.3738455000000001,1.22632071,1.47244126,-4.00481188,,,
imu,134.809029,-0.8176748776000001,-9.794153947200002,0.3893974728000001,1.5179202,1.4275798,-4.04967334,,,
imu,134.817493,-0.8326286976000001,-9.833632032,0.4276792520000001,1.54782784,1.40514907,-4.10948862,,,
imu,134.825957,-0.8362176144000002,-9.8880639368,0.4210995712,1.54782784,1.4275798,-4.02724261,,,
imu,134.83442,-0.8559566568000001,-9.914382660000001,0.4037531400000001,1.34595127,1.68179474,-3.78050458,,,
imu,134.842884,-0.8499751288000001,-9.922158646400002,0.4049494456000001,1.00201341,1.8761944,-3.48890509,,,
imu,134.851347,-0.8374139200000001,-9.880886103200002,0.3929863896,0.66555246,1.9509635,-3.43656672,,,
imu,134.859811,-0.8421991424,-9.8593526024,0.3822196392,0.79265993,2.12293243,-3.1973056,,,
imu,134.868274,-0.8236564056000001,-9.842006171200001,0.3559009160000001,0.80013684,2.324809,-3.15244414,,,
imu,133.497654,,,,,,,82.0079588,-28.42449560000002,128.4868984
imu,133.599247,,,,,,,81.8248508,-28.46111720000002,128.2915832
imu,133.70081,,,,,,,82.03237320000001,-28.60760360000001,127.730052
imu,133.802372,,,,,,,81.5196708,-28.80291880000001,128.3648264
imu,133.903904,,,,,,,84.26629080000001,-29.62080120000001,126.38726
imu,134.005467,,,,,,,81.6783644,-28.83954040000001,128.950772
imu,134.107029,,,,,,,83.79021,-29.77949480000002,125.837936
imu,134.208592,,,,,,,81.7027788,-28.79071160000002,128.706628
imu,134.876738,-0.7925524600000001,-9.8228652816,0.3499193880000001,0.9945364999999999,2.34723973,-3.24964397,,,
imu,134.885201,-0.7931506128000001,-9.802528086400002,0.3606861384,1.25622835,2.29490136,-3.39170526,,,
imu,134.893665,-0.7889635432000001,-9.7995373224,0.3792288752000001,1.33847436,2.21265535,-3.39170526,,,
imu,134.902128,-0.7895616960000001,-9.8270523512,0.3971734592000001,1.46558183,2.03320951,-3.47395127,,,
imu,134.910592,-0.7949450712000001,-9.840809865600002,0.3959771536000001,1.43567419,1.96591732,-3.37675144,,,
imu,134.919056,-0.7985339880000002,-9.8270523512,0.3947808480000001,1.30108981,1.94348659,-3.52628964,,,
imu,134.927519,-0.7907580016000001,-9.873110116800001,0.4091365152000001,1.31604363,2.01825569,-3.69078166,,,
imu,134.935983,-0.7811875568000001,-9.898830687200002,0.4037531400000001,0.94967504,1.82385603,-3.7954584,,,
imu,134.944446,-0.7943469184000002,-9.868923047200001,0.3905937784,0.8823828499999999,1.6518871,-3.71321239,,,
imu,134.95291,-0.7865709320000001,-9.809107767200002,0.3899956256000001,0.76275229,1.65936401,-3.54124346,,,
imu,134.961373,-0.7949450712000001,-9.803126239200001,0.3762381112000001,0.77770611,1.6518871,-3.40665908,,,
imu,134.969837,-0.7937487656000001,-9.803126239200001,0.3451341656,0.94967504,1.59954873,-3.32441307,,,
imu,134.9783,-0.7889635432000001,-9.8061170032,0.3307784984000001,1.27118217,1.7266562,-3.10758268,,,
imu,134.986764,-0.7931506128000001,-9.80970592,0.3224043592,1.60016621,1.71170238,-2.99542903,,,
imu,134.995227,-0.7734115704000001,-9.828248656800001,0.3212080536,1.83942733,1.8014253,-2.95056757,,,
imu,135.003691,-0.7740097232000002,-9.83961356,0.3062542336,1.95905789,1.77151766,-2.88327538,,,
imu,135.012154,-0.7650374312,-9.830641268,0.3044597752,2.0413039,1.8014253,-2.91318302,,,
imu,135.020618,-0.7644392784,-9.837819101600003,0.3247969704000001,1.78708896,1.62945637,-3.11505959,,,
imu,135.029082,-0.7620466672,-9.839015407200002,0.3170209840000001,1.76465823,1.71917929,-3.23469015,,,
imu,135.037545,-0.7530743752000001,-9.83961356,0.3158246784000001,1.77213514,1.78647148,-3.40665908,,,
imu,135.046009,-0.7494854584000001,-9.841408018400001,0.3170209840000001,1.54782784,1.65936401,-3.75807385,,,
imu,135.054472,-0.7452983888000001,-9.85456738,0.320011748,1.23379762,1.50982581,-3.81788913,,,
imu,135.062936,-0.7506817640000001,-9.861147060800002,0.305057928,1.23379762,1.3528107,-4.00481188,,,
imu,135.071399,-0.7488873056,-9.866530436000001,0.3026653168,1.20388998,1.14345722,-4.102011709999999,,,
imu,135.079863,-0.7423076248,-9.867128588800002,0.3062542336,1.12164397,0.9789651999999998,-4.10948862,,,
imu,135.088326,-0.7381205552000002,-9.891054700800002,0.3098431504,0.88985976,0.86681155,-4.13191935,,,
imu,135.09679,-0.7680281952000001,-9.8880639368,0.3032634696000001,0.73284465,0.6051196999999999,-4.13939626,,,
imu,135.105253,-0.7871690848,-9.889260242400002,0.3056560808,0.7253677399999999,0.3135202100000001,-4.057150249999999,,,
imu,135.113717,-0.8039173632000001,-9.904214062400001,0.31403022,0.66555246,0.13407437,-4.10948862,,,
imu,135.122181,-0.8362176144000002,-9.937710619200002,0.3182172896000001,0.40386061,0.08173599999999981,-4.13191935,,,
imu,135.130644,-0.8565548096000002,-9.9305327856,0.3307784984000001,0.26179932,0.06678217999999969,-4.102011709999999,,,
imu,135.139476,-0.8774901576000002,-9.918569729600001,0.3397507904000001,0.22441477,0.0368745399999999,-4.06462716,,,
imu,135.148307,-0.8954347416000001,-9.9197660352,0.3463304712,0.02253820000000001,0.2312741999999997,-3.93004278,,,
imu,135.157139,-0.8906495192000001,-9.935916160800002,0.3720510416,-0.25410747,0.4705353199999998,-3.70573548,,,
imu,135.16597,-0.8930421304000001,-9.903615909600001,0.3762381112000001,-0.5681376899999999,0.80699627,-3.5711511,,,
imu,135.174802,-0.8703123240000001,-9.855763685600001,0.3923882368,-0.8672140899999999,1.06868812,-3.37675144,,,
imu,135.183633,-0.8703123240000001,-9.824061587200001,0.3995660704000001,-1.00927538,1.16588795,-3.29450543,,,
imu,135.192465,-0.8619381848000001,-9.8270523512,0.4031549872,-0.9943215599999999,1.30794924,-3.50385891,,,
imu,135.201296,-0.8505732816000001,-9.836622796,0.4025568344,-0.90459864,1.43505671,-3.45152054,,,
imu,135.210128,-0.8511714344000001,-9.803126239200001,0.4103328208,-1.06909066,1.53225654,-3.67582784,,,
imu,135.218959,-0.8565548096000002,-9.7809945856,0.4199032656,-0.80739881,1.66684092,-3.70573548,,,
imu,135.227791,-0.8595455736000001,-9.773816752000002,0.4193051128000001,-0.6279529699999999,1.61450255,-3.7954584,,,
imu,134.310238,,,,,,,81.3975988,-29.1080988,128.4258624
imu,134.411801,,,,,,,81.592914,-29.26679240000001,128.6822136
imu,134.513363,,,,,,,81.2389052,-29.04706280000002,128.1939256
imu,134.615078,,,,,,,81.95912999999999,-28.97381960000001,128.1817184
imu,134.716488,,,,,,,81.3609772,-29.08368440000002,128.3892408
imu,134.81802,,,,,,,81.50746360000001,-29.35224280000002,127.6934304
imu,134.919644,,,,,,,81.8614724,-29.35224280000002,129.2071232
imu,135.021176,,,,,,,83.83903880000001,-29.58417960000002,126.5459536
imu,135.122738,,,,,,,82.0079588,-29.26679240000001,128.645592
imu,135.224301,,,,,,,84.1442188,-30.14571080000001,126.3506384
