Type,Timestamp,Data Accelerometer X,Data Accelerometer Y,Data Accelerometer Z,Data Gyroscope X,Data Gyroscope Y,Data Gyroscope Z,Data Magnetometer X,Data Magnetometer Y,Data Magnetometer Z
imu,203.745411,-0.212344244,-9.676317845600002,1.6634629368,0.25432241,3.70803735,-2.93561375,,,
imu,203.753877,-0.1961941184,-9.685290137600001,1.6706407704,0.14964567,3.7454219,-2.91318302,,,
imu,203.762343,-0.1650901728,-9.699047652,1.6712389232,0.23189168,3.76037572,-3.01038285,,,
imu,203.770809,-0.16449202,-9.714599624800002,1.668846312,0.34404533,3.5958837,-3.20478251,,,
imu,203.779275,-0.1513326584,-9.7008421104,1.662864784,0.5010604399999999,3.51363769,-3.24964397,,,
imu,203.787741,-0.1441548248,-9.708019944000002,1.6766222984,0.5459219,3.28933039,-3.10758268,,,
imu,203.796208,-0.140565908,-9.7086180968,1.6760241456,0.23189168,3.0725,-3.04029049,,,
imu,203.804674,-0.1477437416,-9.7074217912,1.6790149096,0.11226112,2.85566961,-2.86084465,,,
imu,203.81314,-0.1292010048,-9.696655040800001,1.6616684784,0.19450713,2.61640849,-2.73373718,,,
imu,203.821606,-0.1381732968,-9.696655040800001,1.6586777144,0.21693786,2.22013226,-2.72626027,,,
imu,203.830072,-0.1507345056,-9.697253193600002,1.6341534496,0.36647606,2.1752708,-2.5243837,,,
imu,203.838538,-0.161501256,-9.686486443200002,1.632957144,0.4711528,1.96591732,-2.13558438,,,
imu,203.847004,-0.161501256,-9.6984494992,1.6323589912,0.58330645,1.98834805,-1.79912343,,,
imu,203.85547,-0.1686790896,-9.7074217912,1.618003324,0.7253677399999999,2.10797861,-1.7766927,,,
imu,203.863936,-0.1758569232,-9.696655040800001,1.6102273376,0.6954601,2.1005017,-1.86641562,,,
imu,203.872402,-0.1842310624,-9.6918698184,1.612021796,0.81509066,2.04068642,-2.09819983,,,
imu,203.881246,-0.1896144376,-9.684093832000002,1.5946753648,0.8823828499999999,2.24256299,-2.34493786,,,
imu,203.890089,-0.1890162848,-9.702038416,1.5964698232,0.8973366700000001,2.21265535,-2.53933752,,,
imu,203.898933,-0.1926052016,-9.715795930400002,1.5863012256,0.9646288599999999,2.24256299,-2.65896808,,,
imu,203.907776,-0.1896144376,-9.731347903200001,1.5863012256,0.97958268,2.46687029,-2.66644499,,,
imu,203.91662,-0.1991848824,-9.7295534448,1.591086448,0.9197674,2.66874686,-2.59167589,,,
imu,203.925463,-0.1938015072,-9.7331423616,1.588095684,0.70293701,2.89305416,-2.54681443,,,
imu,203.934307,-0.1997830352,-9.748096181600001,1.5892919896,0.68050628,3.02016163,-2.55429134,,,
imu,203.94315,-0.197390424,-9.7714241408,1.5934790592,0.7403215599999999,3.23699202,-2.40475314,,,
imu,203.951993,-0.1770532288,-9.776807516000002,1.5916846008,0.59078336,3.43886859,-2.27016876,,,
imu,203.960837,-0.161501256,-9.7702278352,1.5928809064,0.23189168,3.43139168,-2.32250713,,,
imu,203.96968,-0.1531271168,-9.7714241408,1.6024513512,0.16459949,3.5211146,-2.38232241,,,
imu,203.978524,-0.1393696024,-9.782789044000001,1.612021796,0.17955331,3.67812971,-2.36736859,,,
imu,203.987367,-0.1339862272,-9.783387196800001,1.60005874,0.05992275,3.5958837,-2.38979932,,,
imu,203.996211,-0.1268083936,-9.798341016800002,1.6024513512,-0.43355331,3.57345297,-2.55429134,,,
imu,204.005054,-0.131593616,-9.7953502528,1.6012550456,-0.47093786,3.43886859,-2.42718387,,,
imu,204.013898,-0.1244157824,-9.7989391696,1.6096291848,-0.68776825,3.38653022,-2.25521494,,,
imu,204.022741,-0.1238176296,-9.7821908912,1.623984852,-0.89712173,3.2220382,-2.28512258,,,
imu,204.031585,-0.122621324,-9.777405668800002,1.6186014768,-0.8821679099999999,3.30428421,-2.09819983,,,
imu,204.040428,-0.1220231712,-9.762451848800001,1.6311626856,-0.9943215599999999,3.21456129,-1.99352309,,,
imu,204.049272,-0.1190324072,-9.746899876,1.6341534496,-1.05413684,3.30428421,-2.01595382,,,
imu,204.058115,-0.1190324072,-9.7361331256,1.6347516024,-1.14385976,3.28185348,-2.12063056,,,
imu,204.066958,-0.09929336480000002,-9.7283571392,1.6317608384,-1.27096723,3.37905331,-2.09819983,,,
imu,204.075702,-0.09630260080000001,-9.7283571392,1.6275737688,-1.42798234,3.41643786,-2.26269185,,,
imu,204.084152,-0.09749890640000002,-9.727758986400001,1.6347516024,-1.24105959,3.38653022,-2.32998404,,,
imu,204.092601,-0.08733030880000002,-9.7265626808,1.6407331304,-1.36069015,3.25194584,-2.56176825,,,
imu,204.101051,-0.0861340032,-9.722375611200002,1.65987402,-1.3233056,3.19960747,-2.66644499,,,
imu,204.1095,-0.08374139200000001,-9.7128051664,1.6712389232,-1.34573633,3.05006927,-2.93561375,,,
imu,204.11795,-0.080750628,-9.709216249600003,1.668846312,-1.36069015,2.91548489,-3.14496723,,,
imu,204.126399,-0.0723764888,-9.694860582400002,1.677818604,-1.2485365,2.81080815,-3.23469015,,,
imu,204.134849,-0.07895616960000001,-9.673925234400002,1.6652573952,-1.25601341,2.7734236,-3.2720747,,,
imu,204.143298,-0.07895616960000001,-9.6637566368,1.6682481592,-1.26349032,2.58650085,-3.26459779,,,
imu,204.151748,-0.09630260080000001,-9.656578803200002,1.6580795616,-1.1737674,2.60893158,-3.1225365,,,
imu,204.160198,-0.09989151760000002,-9.657176956,1.6497054224,-0.874691,2.57154703,-2.84589083,,,
imu,204.168647,-0.1100601152,-9.667943706400001,1.6604721728,-0.67281443,2.44443956,-2.8234601,,,
imu,204.177097,-0.1124527264,-9.669738164800002,1.65987402,-0.68029134,2.33976282,-2.88327538,,,
imu,204.185546,-0.1214250184,-9.669738164800002,1.6694444648,-0.47841477,2.38462428,-2.86084465,,,
imu,204.193996,-0.1363788384,-9.672130776000001,1.6664537008,-0.38121494,2.36967046,-2.9729983,,,
imu,204.202445,-0.146547436,-9.682299373600001,1.6586777144,-0.26158438,2.45191647,-2.96552139,,,
imu,204.210895,-0.1471455888,-9.684093832000002,1.6610703256,-0.2017691,2.48182411,-2.98795212,,,
imu,204.219344,-0.1339862272,-9.700243957600001,1.6664537008,-0.13447691,2.51920866,-3.02533667,,,
imu,204.227794,-0.1447529776,-9.711010708000002,1.6562851032,0.11226112,2.60893158,-2.86832156,,,
imu,204.236244,-0.1543234224,-9.718188541600002,1.6544906448,0.13469185,2.8481927,-2.78607555,,,
imu,204.244693,-0.1495382,-9.719983000000001,1.6676500064,0.03749201999999999,2.72108523,-2.87579847,,,
imu,204.253143,-0.1453511304,-9.720581152800001,1.6556869504,0.07487657,2.96782326,-2.76364482,,,
imu,204.261592,-0.140565908,-9.735534972800002,1.6503035752,-0.08213854000000001,2.99025399,-2.8982292,,,
imu,204.270042,-0.140565908,-9.748694334400001,1.6604721728,-0.03727708,3.00520781,-2.85336774,,,
imu,204.278491,-0.1441548248,-9.736731278400002,1.6514998808,-0.10456927,3.10240764,-2.88327538,,,
imu,204.286956,-0.1357806856,-9.745703570400002,1.6556869504,-0.22419983,3.19960747,-2.83093701,,,
imu,204.295421,-0.13458438,-9.722375611200002,1.6520980336,-0.34383039,3.30428421,-2.85336774,,,
imu,204.303886,-0.1327899216,-9.713403319200001,1.6497054224,-0.44103022,3.24446893,-2.78607555,,,
imu,204.312351,-0.1309954632,-9.708019944000002,1.641929436,-0.50832241,3.31923803,-2.68139881,,,
imu,204.320815,-0.1363788384,-9.706225485600001,1.6544906448,-0.54570696,3.34166876,-2.5991528,,,
imu,204.32928,-0.125612088,-9.706823638400001,1.6383405192,-0.50832241,3.37905331,-2.65149117,,,
imu,204.337745,-0.1178361016,-9.702636568800001,1.6556869504,-0.5980453299999999,3.50616078,-2.66644499,,,
imu,204.34621,-0.1142471848,-9.702038416,1.6520980336,-0.53823005,3.52859151,-2.68139881,,,
imu,204.354675,-0.09929336480000002,-9.6984494992,1.6520980336,-0.46346095,3.48373005,-2.74121409,,,
imu,204.363139,-0.09929336480000002,-9.690075360000002,1.6485091168,-0.30644584,3.43139168,-2.77859864,,,
imu,204.371604,-0.08972292000000001,-9.678710456800001,1.6473128112,-0.23167674,3.43886859,-2.80850628,,,
imu,204.380069,-0.0813487808,-9.690673512800002,1.6467146584,-0.26906129,3.22951511,-2.91318302,,,
imu,204.388534,-0.0634041968,-9.6918698184,1.6526961864,-0.22419983,3.13979219,-3.07767504,,,
imu,204.396999,-0.0592171272,-9.6876827488,1.656883256,-0.19429219,3.07997691,-3.07019813,,,
imu,204.405464,-0.05981528000000001,-9.6942624296,1.6473128112,-0.2765382,2.95286944,-3.08515195,,,
imu,204.413928,-0.05861897440000001,-9.684093832000002,1.6514998808,-0.26906129,2.63136231,-3.1973056,,,
imu,204.422393,-0.05562821040000001,-9.688879054400001,1.6664537008,-0.19429219,2.45939338,-3.16739796,,,
imu,204.430858,-0.068787572,-9.706823638400001,1.6580795616,-0.13447691,2.27247063,-3.25712088,,,
imu,204.439323,-0.0735727944,-9.710412555200001,1.6712389232,0.03001510999999998,2.10797861,-3.22721324,,,
imu,204.447788,-0.08972292000000001,-9.7056273328,1.6592758672,-0.0522309,2.04068642,-3.24216706,,,
imu,204.456252,-0.1022841288,-9.688280901600002,1.668846312,0.007584380000000002,1.85376367,-3.26459779,,,
imu,204.464717,-0.1208268656,-9.675719692800001,1.65987402,-0.007369440000000005,1.67431783,-3.13001341,,,
imu,204.473182,-0.1381732968,-9.676915998400002,1.6562851032,0.05992275,1.8014253,-3.01785976,,,
imu,204.481647,-0.1441548248,-9.692467971200001,1.6335552968,0.17955331,1.98087114,-2.86084465,,,
imu,204.490117,-0.161501256,-9.708019944000002,1.641929436,0.30666078,2.14536316,-2.77859864,,,
imu,204.498587,-0.1591086448,-9.714599624800002,1.6544906448,0.1720764,2.19022462,-2.76364482,,,
imu,204.507057,-0.1662864784,-9.7301515976,1.6580795616,0.20198404,2.42948574,-2.77112173,,,
imu,204.515526,-0.167482784,-9.745703570400002,1.6550887976,0.3889067899999999,2.68370068,-2.73373718,,,
imu,204.523996,-0.1549215752,-9.7534795568,1.6556869504,0.08983038999999998,2.96034635,-2.83093701,,,
imu,204.532466,-0.1513326584,-9.764246307200002,1.65987402,0.02253820000000001,3.30428421,-2.71878336,,,
imu,204.540936,-0.1441548248,-9.761853696000001,1.6670518536,-0.23915365,3.42391477,-2.9729983,,,
imu,204.549406,-0.1130508792,-9.7540777096,1.656883256,-0.26906129,3.53606842,-3.10010577,,,
imu,204.557876,-0.1052748928,-9.738525736800002,1.6586777144,-0.50832241,3.46129932,-3.31693616,,,
imu,204.566346,-0.08972292000000001,-9.711010708000002,1.6574814088,-0.80739881,3.57345297,-3.52628964,,,
imu,204.574816,-0.08374139200000001,-9.714599624800002,1.668846312,-0.8522602699999999,3.54354533,-3.45899745,,,
imu,204.583286,-0.0723764888,-9.719983000000001,1.6712389232,-0.97189083,3.49120696,-3.44404363,,,
imu,204.591756,-0.06160973840000001,-9.711608860800002,1.6712389232,-0.97189083,3.30428421,-3.4216129,,,
imu,204.600225,-0.05742266880000001,-9.702038416,1.662864784,-0.90459864,3.07997691,-3.46647436,,,
imu,204.608695,-0.06579680800000001,-9.7056273328,1.6736315344,-0.9644139199999999,2.83323888,-3.4216129,,,
imu,204.617165,-0.0693857248,-9.702636568800001,1.6796130624,-0.68029134,2.69117759,-3.31693616,,,
imu,204.625635,-0.080750628,-9.709814402400001,1.6873890488,-0.68029134,2.51173175,-3.25712088,,,
imu,204.634105,-0.09450814240000002,-9.7056273328,1.68978166,-0.59056842,2.37714737,-3.01038285,,,
imu,204.642575,-0.09929336480000002,-9.697253193600002,1.6760241456,-0.44850713,2.30237827,-2.90570611,,,
imu,204.651045,-0.1184342544,-9.6918698184,1.6736315344,-0.53823005,2.19022462,-2.92065993,,,
imu,204.659515,-0.1303973104,-9.6984494992,1.6784167568,-0.38869185,2.08554788,-2.6739219,,,
imu,204.667985,-0.1381732968,-9.708019944000002,1.6700426176,-0.11952309,2.16031698,-2.35989168,,,
imu,204.676455,-0.1441548248,-9.708019944000002,1.6652573952,-0.14943073,2.31733209,-2.27016876,,,
imu,204.684924,-0.1387714496,-9.7122070136,1.6622666312,-0.26158438,2.45191647,-2.35241477,,,
imu,204.693387,-0.1387714496,-9.6876827488,1.6652573952,-0.23167674,2.48182411,-2.56924516,,,
imu,204.701849,-0.1387714496,-9.6799067624,1.6580795616,-0.10456927,2.66126995,-2.69635263,,,
imu,204.710311,-0.1274065464,-9.685290137600001,1.6526961864,-0.18681528,2.73603905,-2.85336774,,,
imu,204.718774,-0.1309954632,-9.676317845600002,1.6622666312,-0.23167674,2.82576197,-3.04029049,,,
imu,204.727236,-0.1292010048,-9.675121540000001,1.6520980336,-0.20924601,2.97530017,-3.13749032,,,
imu,204.735698,-0.1297991576,-9.676317845600002,1.6604721728,-0.11952309,3.02763854,-3.15244414,,,
imu,204.74416,-0.128602852,-9.6709344704,1.6592758672,-0.18681528,3.22951511,-3.05524431,,,
imu,204.752623,-0.1244157824,-9.684093832000002,1.671837076,-0.28401511,3.28933039,-3.0477674,,,
imu,204.761085,-0.1244157824,-9.690673512800002,1.671837076,-0.19429219,3.32671494,-2.98047521,,,
imu,204.769547,-0.1118545736,-9.687084596000002,1.6814075208,-0.01484635000000001,3.4463455,-2.86084465,,,
imu,204.778009,-0.09690075360000001,-9.687084596000002,1.680809368,-0.18681528,3.51363769,-2.85336774,,,
imu,204.786472,-0.08792846160000001,-9.699047652,1.6760241456,-0.25410747,3.40148404,-2.83093701,,,
imu,204.794934,-0.0723764888,-9.699047652,1.6826038264,-0.17933837,3.32671494,-2.8234601,,,
imu,204.803396,-0.068787572,-9.7163940832,1.6796130624,-0.18681528,3.19960747,-2.92065993,,,
imu,204.811858,-0.0675912664,-9.727160833600001,1.683800132,-0.14195382,3.17717674,-2.95056757,,,
imu,204.820321,-0.05861897440000001,-9.724768222400002,1.6796130624,-0.08961545,3.09493073,-2.90570611,,,
imu,204.828783,-0.0634041968,-9.735534972800002,1.6873890488,-0.41859949,2.78090051,-3.01785976,,,
imu,204.837245,-0.06519865520000001,-9.727160833600001,1.6885853544,-0.55318387,2.66126995,-2.99542903,,,
imu,204.845708,-0.062806044,-9.724170069600001,1.6921742712,-0.43355331,2.67622377,-2.89075229,,,
imu,204.85417,-0.06220789120000001,-9.7151977776,1.7023428688,-0.56066078,2.60145467,-2.95804448,,,
imu,204.862632,-0.07895616960000001,-9.706823638400001,1.698753952,-0.60552224,2.55659321,-2.95804448,,,
imu,204.871094,-0.068787572,-9.7056273328,1.6945668824,-0.39616876,2.51920866,-2.9729983,,,
imu,204.879557,-0.07716171120000001,-9.701440263200002,1.6951650352,-0.58309151,2.5491163,-3.04029049,,,
imu,203.76265,,,,,,,-85.0597804,176.4367348,124.2387928
imu,203.864243,,,,,,,-84.91329400000001,176.0583116,123.2988384
imu,203.965775,,,,,,,-85.03536600000001,176.6076356,124.3242432
imu,204.067521,,,,,,,-83.1066284,175.8874108,123.0669016
imu,204.888019,-0.08374139200000001,-9.6942624296,1.7095207024,-0.5681376899999999,2.48930102,-2.98047521,,,
imu,204.896837,-0.08254508640000002,-9.6942624296,1.7041373272,-0.5008455,2.54163939,-3.09262886,,,
imu,204.905655,-0.0861340032,-9.6817012208,1.7172966888,-0.4260764,2.54163939,-3.09262886,,,
imu,204.914474,-0.0855358504,-9.658373261600001,1.7232782168,-0.3513073,2.58650085,-3.21225942,,,
imu,204.923292,-0.08733030880000002,-9.662560331200002,1.7322505088,-0.28401511,2.55659321,-3.33188998,,,
imu,204.93211,-0.0855358504,-9.669140012000002,1.7250726752,-0.28401511,2.63883922,-3.35432071,,,
imu,204.940928,-0.07955432240000002,-9.6709344704,1.731652356,-0.4260764,2.63136231,-3.46647436,,,
imu,204.949747,-0.1010878232,-9.666149248000002,1.7424191064,-0.28401511,2.61640849,-3.60105874,,,
imu,204.958565,-0.1064711984,-9.658971414400002,1.7412228008,-0.18681528,2.66874686,-3.55619728,,,
imu,204.967383,-0.1082656568,-9.651195428000001,1.74959694,-0.37373803,2.6986545,-3.42908981,,,
imu,204.976201,-0.101685976,-9.658971414400002,1.7484006344,-0.21672292,2.94539253,-3.20478251,,,
imu,204.98502,-0.10467674,-9.636839760800001,1.7537840096,-0.24663056,3.13979219,-3.28702852,,,
imu,204.993838,-0.08673215600000002,-9.632054538400002,1.7460080232,0.05992275,3.2968073,-3.18982869,,,
imu,205.002656,-0.07895616960000001,-9.6290637744,1.7340449672,0.34404533,3.36409949,-3.13001341,,,
imu,205.011474,-0.06699311360000001,-9.6087265792,1.713707772,0.43376825,3.49120696,-3.1225365,,,
imu,205.020293,-0.04964668240000001,-9.594370912,1.7065299384,0.77770611,3.43139168,-3.13749032,,,
imu,205.029111,-0.0370854736,-9.600352440000002,1.6861927432,1.15902852,3.10240764,-3.33188998,,,
imu,205.037929,-0.0376836264,-9.604539509600002,1.6694444648,1.57025857,2.96782326,-3.40665908,,,
imu,205.046747,-0.04246884880000001,-9.631456385600002,1.6574814088,1.84690424,2.70613141,-3.55619728,,,
imu,205.055566,-0.0514411408,-9.656578803200002,1.6574814088,2.30299575,2.51920866,-3.60853565,,,
imu,205.064384,-0.06699311360000001,-9.672130776000001,1.6550887976,2.407672489999999,2.26499372,-3.77302767,,,
imu,205.073202,-0.08673215600000002,-9.706823638400001,1.6431257416,2.57216451,1.95844041,-3.75059694,,,
imu,205.08202,-0.1028822816,-9.745703570400002,1.6341534496,2.48244159,1.68179474,-3.81041222,,,
imu,205.090839,-0.1303973104,-9.776807516000002,1.6287700744,2.57216451,1.60702564,-3.60105874,,,
imu,205.099348,-0.1351825328,-9.798341016800002,1.6227885464,2.37028794,1.52477963,-3.55619728,,,
imu,205.107857,-0.1620994088,-9.803126239200001,1.6251811576,2.25813429,1.61450255,-3.43656672,,,
imu,205.116367,-0.17944584,-9.802528086400002,1.6251811576,2.07868845,1.74161002,-3.24216706,,,
imu,205.124876,-0.1949978128,-9.7995373224,1.6102273376,1.64502767,1.83133294,-3.07767504,,,
imu,205.133385,-0.1967922712,-9.787574266400002,1.606040268,1.26370526,1.92105586,-2.9729983,,,
imu,205.141895,-0.2069608688,-9.770825988000002,1.5958716704,0.9646288599999999,2.25751681,-2.77112173,,,
imu,205.150404,-0.2039701048,-9.763050001600002,1.5886938368,0.5982602699999999,2.48182411,-2.81598319,,,
imu,205.158913,-0.1949978128,-9.748096181600001,1.576132628,0.42629134,2.79585433,-2.86084465,,,
imu,205.167362,-0.1806421456,-9.744507264800001,1.5743381696,0.5010604399999999,2.93791562,-2.94309066,,,
imu,205.175872,-0.1620994088,-9.734338667200001,1.5695529472,0.4861066199999999,3.12483837,-3.14496723,,,
imu,205.184381,-0.143556672,-9.7337405144,1.5653658776,0.29918387,3.17717674,-3.36179762,,,
imu,205.19289,-0.13458438,-9.725366375200002,1.5695529472,0.26927623,3.23699202,-3.44404363,,,
imu,205.2014,-0.1094619624,-9.735534972800002,1.5605806552,0.21693786,3.2968073,-3.62348947,,,
imu,205.209909,-0.09749890640000002,-9.737927584000001,1.567160336,0.20946095,3.0725,-3.7954584,,,
imu,205.218418,-0.09450814240000002,-9.742114653600002,1.5695529472,0.17955331,3.05006927,-3.78050458,,,
imu,205.226928,-0.09091922560000001,-9.7427128064,1.5695529472,0.20198404,2.78837742,-3.66835093,,,
imu,205.235437,-0.09211553120000002,-9.749890640000002,1.5779270864,0.05244583999999999,2.60893158,-3.66835093,,,
imu,205.243946,-0.10467674,-9.758264779200001,1.5707492528,0.01506129,2.51920866,-3.54872037,,,
imu,205.252456,-0.10467674,-9.761853696000001,1.5719455584,-0.07466163,2.19022462,-3.39170526,,,
imu,205.260965,-0.1160416432,-9.775611210400001,1.5863012256,-0.14943073,2.09302479,-3.3468438,,,
imu,205.269474,-0.1333880744,-9.7809945856,1.5958716704,-0.32887657,2.01825569,-3.24964397,,,
imu,205.277984,-0.1501363528,-9.766040765600001,1.5922827536,-0.46346095,1.90610204,-3.04029049,,,
imu,205.286493,-0.161501256,-9.7636481544,1.6084328792,-0.7401066199999999,1.90610204,-2.8982292,,,
imu,205.295002,-0.1818384512,-9.769629682400002,1.612021796,-0.91955246,1.9509635,-2.74121409,,,
imu,205.30342,-0.1788476872,-9.764246307200002,1.6138162544,-1.11395212,2.05564024,-2.63653735,,,
imu,205.311838,-0.1932033544,-9.7714241408,1.6042458096,-1.08404448,2.21265535,-2.53186061,,,
imu,205.320256,-0.1860255208,-9.746899876,1.632957144,-1.26349032,2.38462428,-2.5243837,,,
imu,205.328674,-0.1902125904,-9.710412555200001,1.653892492,-1.39059779,2.75099287,-2.47204533,,,
imu,205.337092,-0.1758569232,-9.734338667200001,1.6503035752,-1.45788998,2.8481927,-2.53933752,,,
imu,205.34551,-0.1752587704,-9.736731278400002,1.6413312832,-1.62985891,3.04259236,-2.59167589,,,
imu,205.353928,-0.1776513816,-9.7193848472,1.6377423664,-1.71958183,3.19960747,-2.55429134,,,
imu,205.362346,-0.1728661592,-9.6984494992,1.6491072696,-1.6971511,3.36409949,-2.56924516,,,
imu,205.370764,-0.1591086448,-9.6846919848,1.6431257416,-1.97379677,3.46129932,-2.60662971,,,
imu,205.379182,-0.1351825328,-9.665551095200001,1.665855548,-1.76444329,3.70056044,-2.47952224,,,
imu,205.3876,-0.1208268656,-9.667345553600002,1.6700426176,-1.45041307,3.76785263,-2.35241477,,,
imu,205.396018,-0.1232194768,-9.688879054400001,1.6664537008,-1.40555161,3.820191,-2.19539966,,,
imu,205.404436,-0.1034804344,-9.696655040800001,1.662864784,-1.3980747,3.93982156,-2.11315365,,,
imu,205.412854,-0.0933118368,-9.6876827488,1.680809368,-1.26349032,3.98468302,-2.12063056,,,
imu,205.421272,-0.08912476720000001,-9.6703363176,1.695763188,-1.21115195,3.99963684,-2.06829219,,,
imu,205.42969,-0.0783580168,-9.675121540000001,1.7029410216,-1.07656757,4.06692903,-1.99352309,,,
imu,205.438108,-0.06699311360000001,-9.700243957600001,1.7041373272,-0.9494601,4.03702139,-2.16549202,,,
imu,205.446526,-0.04725407120000001,-9.688879054400001,1.6963613408,-0.84478336,3.93234465,-2.28512258,,,
imu,205.454944,-0.03947808480000001,-9.667943706400001,1.6885853544,-1.09152139,3.797760269999999,-2.44213769,,,
imu,205.463362,-0.0352910152,-9.6637566368,1.701744716,-1.13638285,3.60336061,-2.61410662,,,
imu,205.47178,-0.0275150288,-9.6709344704,1.7071280912,-1.18124431,3.37905331,-2.83093701,,,
imu,205.480198,-0.0382817792,-9.6775141512,1.7113151608,-1.00927538,3.30428421,-2.77112173,,,
imu,205.488615,-0.02990764000000001,-9.6817012208,1.716698536,-0.88964482,3.03511545,-2.95056757,,,
imu,205.497033,-0.0346928624,-9.678710456800001,1.7119133136,-0.62047606,2.96782326,-3.07019813,,,
imu,205.505451,-0.04246884880000001,-9.687084596000002,1.7161003832,-0.50832241,2.7734236,-3.15244414,,,
imu,205.513896,-0.0490485296,-9.697253193600002,1.7298578976,-0.60552224,2.59397776,-3.17487487,,,
imu,205.52234,-0.05682451600000001,-9.690673512800002,1.7202874528,-0.50832241,2.48930102,-3.08515195,,,
imu,205.530785,-0.0675912664,-9.685888290400001,1.7172966888,-0.41859949,2.40705501,-3.01785976,,,
imu,205.539229,-0.0741709472,-9.661364025600001,1.7083243968,-0.37373803,2.38462428,-2.95056757,,,
imu,205.547674,-0.09211553120000002,-9.671532623200001,1.7041373272,-0.26158438,2.2500399,-2.8982292,,,
imu,205.556118,-0.09749890640000002,-9.6733270816,1.70473548,-0.10456927,2.24256299,-2.68139881,,,
imu,205.564563,-0.1088638096,-9.6703363176,1.6933705768,0.03749201999999999,2.42200883,-2.53186061,,,
imu,205.573007,-0.1214250184,-9.668541859200001,1.68978166,0.10478421,2.63136231,-2.42718387,,,
imu,205.581452,-0.1178361016,-9.669140012000002,1.6873890488,0.19450713,2.65379304,-2.54681443,,,
imu,205.589896,-0.1220231712,-9.651793580800001,1.677818604,0.26927623,2.78837742,-2.69635263,,,
imu,205.598341,-0.1220231712,-9.663158484000002,1.656883256,0.4711528,2.90800798,-2.79355246,,,
imu,205.606785,-0.1130508792,-9.6667474008,1.6526961864,0.6281679099999999,3.1472691,-2.79355246,,,
imu,205.61523,-0.1184342544,-9.6709344704,1.6455183528,0.76275229,3.24446893,-2.89075229,,,
imu,205.623674,-0.1154434904,-9.6733270816,1.6449202,0.74779847,3.43886859,-2.99542903,,,
imu,205.632118,-0.1070693512,-9.6775141512,1.6520980336,0.67302937,3.49120696,-3.05524431,,,
imu,205.640563,-0.1022841288,-9.693664276800002,1.6562851032,0.70293701,3.72299117,-2.93561375,,,
imu,205.649007,-0.09151737840000002,-9.713403319200001,1.656883256,0.6281679099999999,3.77532954,-2.95804448,,,
imu,205.657452,-0.0735727944,-9.725964528,1.665855548,0.59078336,3.88748319,-2.91318302,,,
imu,205.665896,-0.06160973840000001,-9.734936820000001,1.6664537008,0.5459219,3.99963684,-2.76364482,,,
imu,205.674341,-0.05443190480000001,-9.7301515976,1.668846312,0.46367589,3.85757555,-2.68139881,,,
imu,205.682785,-0.04366515440000001,-9.728955292000002,1.6700426176,0.3889067899999999,3.7454219,-2.79355246,,,
imu,205.69123,-0.0257205704,-9.7295534448,1.665855548,0.41881443,3.56597606,-2.91318302,,,
imu,205.699674,-0.0161501256,-9.7331423616,1.6694444648,0.06739966,3.33419185,-2.94309066,,,
imu,204.168831,,,,,,,-82.6915836,175.655474,122.3100552
imu,204.270424,,,,,,,-84.90108679999999,176.5221852,124.800324
imu,204.371986,,,,,,,-84.9377084,176.448942,123.2500096
imu,204.47364,,,,,,,-84.8644652,176.4001132,124.067892
imu,204.575111,,,,,,,-84.6447356,176.448942,124.2021712
imu,204.676735,,,,,,,-85.20626680000001,176.4001132,123.9824416
imu,204.778236,,,,,,,-84.76680759999999,176.5954284,124.1655496
imu,204.879768,,,,,,,-84.6447356,176.8029508,123.5551896
imu,205.708119,-0.0227298064,-9.7295534448,1.6796130624,-0.0522309,3.08745382,-2.95056757,,,
imu,205.716961,-0.03648732080000001,-9.734936820000001,1.6784167568,-0.01484635000000001,2.81080815,-2.99542903,,,
imu,205.725803,-0.05203929360000001,-9.719983000000001,1.6802112152,0.11226112,2.66126995,-2.91318302,,,
imu,205.734645,-0.05802082160000001,-9.716992236000001,1.6885853544,-0.0522309,2.44443956,-2.93561375,,,
imu,205.743487,-0.07895616960000001,-9.7074217912,1.6843982848,-0.127,2.36219355,-2.8234601,,,
imu,205.752329,-0.07596540560000001,-9.708019944000002,1.6873890488,-0.15690764,2.36219355,-2.79355246,,,
imu,205.761172,-0.0783580168,-9.711010708000002,1.6766222984,-0.01484635000000001,2.42948574,-2.75616791,,,
imu,205.770014,-0.08912476720000001,-9.688280901600002,1.6706407704,0.01506129,2.40705501,-2.79355246,,,
imu,205.778856,-0.09869521200000002,-9.6775141512,1.6742296872,0.11226112,2.39210119,-2.80850628,,,
imu,205.787698,-0.1034804344,-9.6846919848,1.6772204512,0.28423005,2.37714737,-2.84589083,,,
imu,205.79654,-0.1082656568,-9.689477207200001,1.6682481592,0.27675314,2.43696265,-2.99542903,,,
imu,205.805382,-0.1040785872,-9.687084596000002,1.671837076,0.17955331,2.49677793,-3.07019813,,,
imu,205.814224,-0.1040785872,-9.690075360000002,1.6790149096,0.30666078,2.60145467,-3.13001341,,,
imu,205.823066,-0.1148453376,-9.690673512800002,1.6832019792,0.3963837,2.69117759,-3.30945925,,,
imu,205.831909,-0.10467674,-9.7074217912,1.6814075208,0.40386061,2.75099287,-3.40665908,,,
imu,205.840751,-0.1058730456,-9.7056273328,1.6855945904,0.29170696,2.75846978,-3.48142818,,,
imu,205.849593,-0.1058730456,-9.704431027200002,1.6873890488,0.3963837,2.82576197,-3.25712088,,,
imu,205.858435,-0.1088638096,-9.694860582400002,1.686790896,0.27675314,2.96034635,-3.15244414,,,
imu,205.867277,-0.0980970592,-9.690673512800002,1.6826038264,0.26179932,3.15474601,-2.88327538,,,
imu,205.876119,-0.08912476720000001,-9.7056273328,1.6814075208,0.41133752,3.25942275,-2.72626027,,,
imu,205.884961,-0.09151737840000002,-9.709814402400001,1.6754259928,0.36647606,3.31923803,-2.84589083,,,
imu,205.893804,-0.0861340032,-9.704431027200002,1.6700426176,0.29918387,3.41643786,-2.89075229,,,
imu,205.902646,-0.062806044,-9.699047652,1.67482784,0.26927623,3.43886859,-2.80850628,,,
imu,205.911488,-0.0526374464,-9.6876827488,1.665855548,0.23936859,3.3715764,-2.86084465,,,
imu,205.919949,-0.05203929360000001,-9.686486443200002,1.6664537008,0.23936859,3.34914567,-2.98795212,,,
imu,205.92841,-0.05084298800000001,-9.681103068,1.65987402,0.45619898,3.2220382,-2.99542903,,,
imu,205.936871,-0.05203929360000001,-9.682897526400001,1.6461165056,0.56087572,3.22951511,-3.07767504,,,
imu,205.945332,-0.0514411408,-9.693066124000001,1.6556869504,0.5982602699999999,3.12483837,-3.1225365,,,
imu,205.953793,-0.04964668240000001,-9.702038416,1.6473128112,0.8674290299999999,3.00520781,-3.07019813,,,
imu,205.962254,-0.04605776560000001,-9.7074217912,1.6491072696,0.8749059399999999,2.9977309,-3.01785976,,,
imu,205.970715,-0.0406743904,-9.7151977776,1.6544906448,0.74779847,3.04259236,-2.98795212,,,
imu,205.979176,-0.04187069600000001,-9.724768222400002,1.6425275888,0.68050628,3.02016163,-3.03281358,,,
imu,205.987637,-0.0526374464,-9.7331423616,1.6473128112,0.7702292,2.94539253,-2.93561375,,,
imu,205.996098,-0.04964668240000001,-9.727758986400001,1.6526961864,0.81509066,2.81080815,-2.95804448,,,
imu,206.004559,-0.0526374464,-9.715795930400002,1.6455183528,0.60573718,2.8481927,-2.9729983,,,
imu,206.01302,-0.06699311360000001,-9.719983000000001,1.6443220472,0.7403215599999999,2.72856214,-2.79355246,,,
imu,206.021481,-0.05802082160000001,-9.7086180968,1.6335552968,0.70293701,2.79585433,-2.76364482,,,
imu,206.029942,-0.07177833600000001,-9.710412555200001,1.638938672,0.29170696,2.81080815,-2.92813684,,,
imu,206.038403,-0.08254508640000002,-9.7122070136,1.6407331304,0.42629134,2.75846978,-2.91318302,,,
imu,206.046864,-0.07775986400000001,-9.708019944000002,1.6365460608,0.30666078,2.8481927,-2.98047521,,,
imu,206.055325,-0.07058203040000001,-9.701440263200002,1.6287700744,0.42629134,2.99025399,-2.92813684,,,
imu,206.063786,-0.06400234960000001,-9.708019944000002,1.6353497552,0.49358353,3.0725,-2.93561375,,,
imu,206.072247,-0.06519865520000001,-9.706823638400001,1.6281719216,0.44872207,3.16222292,-3.15992105,,,
imu,206.080708,-0.0550300576,-9.7086180968,1.6174051712,0.38142988,3.2220382,-3.21225942,,,
imu,206.089169,-0.04725407120000001,-9.711608860800002,1.626975616,0.5459219,3.19960747,-3.35432071,,,
imu,206.09763,-0.03110394560000001,-9.709814402400001,1.6293682272,0.65807555,3.08745382,-3.42908981,,,
imu,206.106091,-0.0305057928,-9.686486443200002,1.6042458096,0.67302937,3.00520781,-3.54872037,,,
imu,206.114552,-0.02871133440000001,-9.709216249600003,1.6347516024,0.68798319,2.93043871,-3.60853565,,,
imu,206.123008,-0.0257205704,-9.7265626808,1.6287700744,0.66555246,2.66874686,-3.60853565,,,
imu,206.131464,-0.0317020984,-9.7217774584,1.6215922408,0.71789083,2.59397776,-3.52628964,,,
imu,206.13992,-0.0340947096,-9.716992236000001,1.620994088,0.8524752099999999,2.46687029,-3.39918217,,,
imu,206.148375,-0.06699311360000001,-9.719983000000001,1.6156107128,0.8674290299999999,2.29490136,-3.25712088,,,
imu,206.156831,-0.06041343280000001,-9.725366375200002,1.6126199488,0.7552753799999999,2.21265535,-3.24964397,,,
imu,206.165287,-0.08194693360000001,-9.721179305600002,1.6174051712,0.42629134,2.11545552,-3.39918217,,,
imu,206.173743,-0.08912476720000001,-9.7217774584,1.609031032,0.29918387,2.06311715,-3.51881273,,,
imu,206.182199,-0.09630260080000001,-9.7193848472,1.609031032,0.49358353,2.1752708,-3.39918217,,,
imu,206.190655,-0.1148453376,-9.714001472000001,1.6114236432,0.68798319,2.16031698,-3.31693616,,,
imu,206.199111,-0.1160416432,-9.7122070136,1.603049504,0.56835263,2.22013226,-3.33188998,,,
imu,206.207567,-0.122621324,-9.718786694400002,1.6126199488,0.3889067899999999,2.34723973,-3.39170526,,,
imu,206.216023,-0.1190324072,-9.730749750400001,1.6066384208,0.33656842,2.41453192,-3.41413599,,,
imu,206.224479,-0.11963056,-9.748096181600001,1.6084328792,0.33656842,2.53416248,-3.36179762,,,
imu,206.232935,-0.1214250184,-9.744507264800001,1.6078347264,0.29918387,2.66874686,-3.2720747,,,
imu,206.24139,-0.1160416432,-9.749890640000002,1.6126199488,0.3963837,2.82576197,-3.22721324,,,
imu,206.249846,-0.1142471848,-9.748096181600001,1.6233866992,0.15712258,2.72856214,-3.24216706,,,
imu,206.258243,-0.11963056,-9.745105417600001,1.6096291848,0.007584380000000002,2.89305416,-3.18235178,,,
imu,206.266699,-0.116639796,-9.734338667200001,1.6096291848,0.007584380000000002,2.9977309,-3.21225942,,,
imu,206.275155,-0.1034804344,-9.727758986400001,1.6156107128,-0.17933837,3.05754618,-3.21225942,,,
imu,206.283611,-0.1070693512,-9.702636568800001,1.6084328792,-0.18681528,3.02763854,-3.07767504,,,
imu,206.292067,-0.09151737840000002,-9.703234721600001,1.6072365736,-0.20924601,3.19213056,-3.13749032,,,
imu,206.300523,-0.092713684,-9.7056273328,1.6012550456,-0.31392275,3.1472691,-3.18235178,,,
imu,206.308979,-0.09151737840000002,-9.713403319200001,1.6048439624,-0.21672292,3.13231528,-3.1225365,,,
imu,206.317434,-0.1040785872,-9.7074217912,1.5976661288,-0.14195382,3.2220382,-3.01038285,,,
imu,206.325898,-0.08972292000000001,-9.694860582400002,1.6048439624,-0.06718472,3.22951511,-2.96552139,,,
imu,206.334362,-0.09390998960000001,-9.714599624800002,1.6096291848,-0.11204618,3.30428421,-3.06272122,,,
imu,206.342825,-0.08015247520000002,-9.734338667200001,1.612021796,-0.08961545,3.30428421,-2.9729983,,,
imu,206.351289,-0.07656355840000001,-9.7361331256,1.6257793104,0.11973803,3.17717674,-2.91318302,,,
imu,206.359752,-0.07297464160000001,-9.736731278400002,1.6287700744,0.02253820000000001,3.09493073,-3.05524431,,,
imu,206.368216,-0.07177833600000001,-9.7295534448,1.6203959352,-0.14943073,3.15474601,-3.07767504,,,
imu,206.376679,-0.0693857248,-9.731347903200001,1.6377423664,-0.19429219,3.04259236,-3.1225365,,,
imu,206.385143,-0.068787572,-9.740918348000001,1.6461165056,-0.44850713,2.84071579,-3.24216706,,,
imu,204.981361,,,,,,,-84.8766724,176.7419148,124.5439728
imu,205.082985,,,,,,,-82.7526196,175.7043028,122.603028
imu,205.184822,,,,,,,-85.14523080000001,176.1803836,125.3252336
imu,205.286903,,,,,,,-82.78924119999999,175.5456092,122.3100552
imu,205.387581,,,,,,,-84.84005080000001,176.387906,125.2764048
imu,205.497078,,,,,,,-85.03536600000001,176.6442572,124.6660448
imu,205.598518,,,,,,,-85.3771676,176.4123204,125.349648
imu,205.700203,,,,,,,-84.6203212,176.265834,124.922396
imu,206.393606,-0.062806044,-9.7325442088,1.6544906448,-0.67281443,2.83323888,-3.14496723,,,
imu,206.40207,-0.07058203040000001,-9.706823638400001,1.6550887976,-0.66533752,2.72108523,-3.05524431,,,
imu,206.410533,-0.07118018320000001,-9.709814402400001,1.668846312,-0.5681376899999999,2.6986545,-3.07019813,,,
imu,206.418997,-0.068787572,-9.714001472000001,1.6503035752,-0.66533752,2.63883922,-3.09262886,,,
imu,206.42746,-0.06998387760000001,-9.710412555200001,1.65987402,-0.77749117,2.42948574,-3.1973056,,,
imu,206.435924,-0.07895616960000001,-9.711608860800002,1.668846312,-0.7251528,2.35471664,-3.24216706,,,
imu,206.444388,-0.08314323920000001,-9.709216249600003,1.6724352288,-0.76253735,2.324809,-3.0477674,,,
imu,206.452851,-0.0933118368,-9.700243957600001,1.6586777144,-0.62047606,2.33976282,-2.91318302,,,
imu,206.461315,-0.1058730456,-9.6876827488,1.6485091168,-0.5008455,2.25751681,-2.86832156,,,
imu,206.469778,-0.1052748928,-9.676915998400002,1.6514998808,-0.40364567,2.37714737,-2.75616791,,,
imu,206.478242,-0.1112564208,-9.678112304,1.6550887976,-0.22419983,2.55659321,-2.5243837,,,
imu,206.486705,-0.1112564208,-9.675719692800001,1.650901728,0.03749201999999999,2.89305416,-2.40475314,,,
imu,206.495169,-0.1088638096,-9.672130776000001,1.6443220472,0.007584380000000002,2.87810034,-2.56176825,,,
imu,206.503632,-0.1010878232,-9.6703363176,1.641929436,0.07487657,2.82576197,-2.77859864,,,
imu,206.512096,-0.0933118368,-9.678112304,1.6323589912,0.3216146,2.90800798,-2.91318302,,,
imu,206.520559,-0.09211553120000002,-9.673925234400002,1.6365460608,0.38142988,2.96782326,-2.89075229,,,
imu,206.529032,-0.08912476720000001,-9.672728928800002,1.635947908,0.4861066199999999,3.12483837,-2.92813684,,,
imu,206.537504,-0.08374139200000001,-9.6846919848,1.6281719216,0.42629134,3.1472691,-3.06272122,,,
imu,206.545977,-0.0861340032,-9.694860582400002,1.6227885464,0.35899915,3.20708438,-3.08515195,,,
imu,206.554449,-0.07895616960000001,-9.693664276800002,1.6437238944,0.30666078,3.22951511,-3.07767504,,,
imu,206.562922,-0.0855358504,-9.7074217912,1.6413312832,0.29918387,3.25942275,-2.98795212,,,
imu,206.571394,-0.0753672528,-9.714001472000001,1.6455183528,0.18703022,3.2220382,-2.83093701,,,
imu,206.579867,-0.06400234960000001,-9.724170069600001,1.647910964,0.03749201999999999,3.24446893,-2.80102937,,,
imu,206.588339,-0.05562821040000001,-9.727758986400001,1.6544906448,0.007584380000000002,3.11736146,-2.75616791,,,
imu,206.596811,-0.04545961280000001,-9.7337405144,1.6526961864,-0.25410747,3.11736146,-2.68139881,,,
imu,206.605284,-0.03588916800000001,-9.738525736800002,1.6574814088,-0.22419983,2.98277708,-2.65896808,,,
imu,206.613756,-0.0346928624,-9.7283571392,1.6622666312,-0.2017691,2.88557725,-2.61410662,,,
imu,206.622229,-0.0352910152,-9.728955292000002,1.6526961864,-0.25410747,2.85566961,-2.69635263,,,
imu,206.630701,-0.04605776560000001,-9.730749750400001,1.6676500064,-0.34383039,2.63136231,-2.76364482,,,
imu,206.639174,-0.04366515440000001,-9.7193848472,1.6664537008,-0.29896893,2.58650085,-2.61410662,,,
imu,206.647646,-0.04486146000000001,-9.702636568800001,1.683800132,-0.33635348,2.52668557,-2.6739219,,,
imu,206.656119,-0.06041343280000001,-9.700243957600001,1.677818604,-0.47841477,2.51173175,-2.83841392,,,
imu,206.664591,-0.05383375200000001,-9.681103068,1.6826038264,-0.26906129,2.45939338,-2.86832156,,,
imu,206.673063,-0.05742266880000001,-9.661364025600001,1.671837076,-0.24663056,2.49677793,-2.95804448,,,
imu,206.681536,-0.06460050240000001,-9.6637566368,1.6670518536,-0.06718472,2.49677793,-2.96552139,,,
imu,206.690008,-0.0663949608,-9.636241608,1.6514998808,0.01506129,2.40705501,-3.15244414,,,
imu,206.698481,-0.07118018320000001,-9.651195428000001,1.6503035752,0.23189168,2.38462428,-3.2720747,,,
imu,206.706953,-0.06460050240000001,-9.651195428000001,1.6443220472,0.3963837,2.35471664,-3.26459779,,,
imu,206.715426,-0.08374139200000001,-9.639232372,1.6491072696,0.64312173,2.42200883,-3.25712088,,,
imu,206.723898,-0.07775986400000001,-9.6667474008,1.6347516024,0.9870595899999999,2.4743472,-3.3468438,,,
imu,206.73274,-0.09091922560000001,-9.676317845600002,1.6347516024,0.97958268,2.51920866,-3.41413599,,,
imu,206.741582,-0.08314323920000001,-9.6799067624,1.6287700744,1.19641307,2.58650085,-3.39170526,,,
imu,206.750424,-0.08912476720000001,-9.693664276800002,1.6341534496,1.34595127,2.69117759,-3.33188998,,,
imu,206.759267,-0.09989151760000002,-9.714599624800002,1.6156107128,1.42072037,2.86314652,-3.1225365,,,
imu,206.768109,-0.0855358504,-9.737927584000001,1.6132181016,1.32352054,2.98277708,-2.78607555,,,
imu,206.776951,-0.08912476720000001,-9.748096181600001,1.6114236432,1.18145925,3.12483837,-2.68887572,,,
imu,206.785793,-0.0693857248,-9.741516500800001,1.6024513512,1.03192105,3.21456129,-2.72626027,,,
imu,206.794635,-0.05861897440000001,-9.730749750400001,1.5982642816,0.78518302,3.17717674,-2.96552139,,,
imu,206.803477,-0.04366515440000001,-9.7325442088,1.5916846008,0.8674290299999999,3.18465365,-2.98047521,,,
imu,206.812319,-0.0430670016,-9.718786694400002,1.5809178504,0.7403215599999999,3.09493073,-3.14496723,,,
imu,206.821162,-0.03648732080000001,-9.724170069600001,1.5743381696,0.88985976,3.05006927,-3.39918217,,,
imu,206.830004,-0.0370854736,-9.727758986400001,1.5689547944,0.7403215599999999,2.9977309,-3.53376655,,,
imu,206.838846,-0.04246884880000001,-9.734936820000001,1.5617769608,0.65807555,2.98277708,-3.51881273,,,
imu,206.847688,-0.04605776560000001,-9.727160833600001,1.561178808,0.7552753799999999,2.84071579,-3.39170526,,,
imu,206.85653,-0.0550300576,-9.739123889600002,1.5713474056,0.68050628,2.78090051,-3.29450543,,,
imu,206.865372,-0.0550300576,-9.737329431200001,1.5689547944,0.70293701,2.6986545,-3.3468438,,,
imu,206.874214,-0.0532355992,-9.7534795568,1.5659640304,0.63564482,2.60145467,-3.23469015,,,
imu,206.883057,-0.0663949608,-9.7540777096,1.5587861968,0.3963837,2.61640849,-3.17487487,,,
imu,206.891899,-0.06579680800000001,-9.7492924872,1.5647677248,0.36647606,2.59397776,-2.95804448,,,
imu,206.900741,-0.06579680800000001,-9.749890640000002,1.5635714192,0.41881443,2.63136231,-2.86084465,,,
imu,206.909583,-0.0753672528,-9.7504887928,1.5635714192,0.27675314,2.73603905,-2.78607555,,,
imu,206.918425,-0.0741709472,-9.752881404000002,1.5767307808,0.15712258,2.65379304,-2.81598319,,,
imu,206.927267,-0.07716171120000001,-9.745105417600001,1.5725437112,-0.02232326000000001,2.70613141,-2.83841392,,,
imu,206.93571,-0.092713684,-9.7427128064,1.5593843496,-0.2765382,2.66126995,-2.9729983,,,
imu,206.944154,-0.0861340032,-9.7474980288,1.5707492528,-0.32139966,2.73603905,-2.95056757,,,
imu,206.952597,-0.08733030880000002,-9.743310959200002,1.5743381696,-0.22419983,2.80333124,-2.99542903,,,
imu,206.96104,-0.0903210728,-9.737927584000001,1.5797215448,-0.35878421,2.85566961,-3.01038285,,,
imu,206.969483,-0.08254508640000002,-9.744507264800001,1.579123392,-0.5307531400000001,2.8481927,-3.07019813,,,
imu,206.977926,-0.08374139200000001,-9.7403201952,1.588095684,-0.6503837,2.96782326,-3.08515195,,,
imu,206.98637,-0.0747691,-9.730749750400001,1.603049504,-0.64290679,3.05006927,-3.0477674,,,
imu,206.994813,-0.0723764888,-9.7193848472,1.6054421152,-0.64290679,3.0725,-3.00290594,,,
imu,207.003256,-0.06220789120000001,-9.7074217912,1.6024513512,-0.54570696,3.03511545,-2.9729983,,,
imu,207.011699,-0.05383375200000001,-9.7074217912,1.6024513512,-0.77749117,2.8481927,-3.15992105,,,
imu,207.020142,-0.0502448352,-9.70502918,1.6114236432,-0.8522602699999999,2.90800798,-3.22721324,,,
imu,207.028586,-0.04964668240000001,-9.6918698184,1.6096291848,-0.6503837,2.86314652,-3.18235178,,,
imu,207.037029,-0.04725407120000001,-9.701440263200002,1.6132181016,-0.32139966,2.85566961,-3.07019813,,,
imu,207.045472,-0.0490485296,-9.709216249600003,1.61501256,-0.39616876,2.58650085,-3.10758268,,,
imu,207.053915,-0.06220789120000001,-9.697253193600002,1.6174051712,-0.45598404,2.54163939,-3.21973633,,,
imu,207.062358,-0.05742266880000001,-9.703234721600001,1.6263774632,-0.11952309,2.49677793,-3.08515195,,,
imu,207.070802,-0.05861897440000001,-9.714001472000001,1.6263774632,-0.31392275,2.25751681,-3.1225365,,,
imu,207.079245,-0.068787572,-9.7122070136,1.618003324,-0.5008455,2.12293243,-3.14496723,,,
imu,207.087688,-0.07297464160000001,-9.711608860800002,1.6174051712,-0.35878421,2.13788625,-3.09262886,,,
imu,207.096131,-0.0741709472,-9.7122070136,1.6305645328,-0.17933837,2.26499372,-2.92813684,,,
imu,207.104574,-0.07955432240000002,-9.708019944000002,1.6227885464,-0.15690764,2.22013226,-2.98047521,,,
imu,207.113018,-0.0813487808,-9.70502918,1.6114236432,-0.19429219,2.28742445,-3.00290594,,,
imu,207.121461,-0.08733030880000002,-9.688280901600002,1.61501256,-0.35878421,2.35471664,-3.04029049,,,
imu,207.129904,-0.09929336480000002,-9.679308609600001,1.6006568928,-0.29896893,2.42200883,-3.07767504,,,
imu,207.13837,-0.1052748928,-9.687084596000002,1.6048439624,-0.18681528,2.48182411,-3.06272122,,,
imu,207.146836,-0.09630260080000001,-9.692467971200001,1.6054421152,-0.04475399000000001,2.66874686,-3.05524431,,,
imu,207.155302,-0.09989151760000002,-9.697851346400002,1.5994605872,-0.03727708,2.83323888,-3.03281358,,,
imu,207.163768,-0.092713684,-9.706823638400001,1.5922827536,-0.10456927,2.93791562,-3.10010577,,,
imu,207.172234,-0.09450814240000002,-9.718786694400002,1.5928809064,-0.06718472,3.12483837,-3.10758268,,,
imu,207.1807,-0.08374139200000001,-9.731946056000002,1.6024513512,0.13469185,3.25194584,-2.96552139,,,
imu,207.189167,-0.07297464160000001,-9.738525736800002,1.6114236432,-0.02232326000000001,3.36409949,-3.10010577,,,
imu,207.197633,-0.06699311360000001,-9.7474980288,1.620994088,-0.02232326000000001,3.42391477,-3.10010577,,,
imu,207.206099,-0.04187069600000001,-9.727758986400001,1.620994088,-0.11952309,3.53606842,-3.13001341,,,
imu,205.801697,,,,,,,-84.8888796,176.2902484,124.739288
imu,205.903138,,,,,,,-85.01095160000001,176.5465996,124.5073512
imu,206.004731,,,,,,,-82.49626839999999,176.5465996,124.128928
imu,206.106415,,,,,,,-85.1086092,176.5343924,124.5683872
imu,206.207856,,,,,,,-82.70379080000001,175.777546,122.5053704
imu,206.309418,,,,,,,-84.70577160000002,176.5465996,124.3364504
imu,206.411103,,,,,,,-84.791222,175.472366,122.2490192
imu,206.512543,,,,,,,-85.13302360000002,176.9250228,124.7026664
imu,207.214565,-0.04007623760000001,-9.708019944000002,1.6084328792,-0.19429219,3.4463455,-3.22721324,,,
imu,207.223031,-0.02990764000000001,-9.714001472000001,1.6174051712,-0.33635348,3.28185348,-3.18235178,,,
imu,207.231497,-0.023926112,-9.731347903200001,1.6275737688,-0.41859949,3.2220382,-3.18235178,,,
imu,207.239963,-0.0167482784,-9.7217774584,1.6245830048,-0.55318387,3.13979219,-3.11505959,,,
imu,207.248429,-0.0161501256,-9.7151977776,1.6174051712,-0.35878421,3.04259236,-3.05524431,,,
imu,207.256895,-0.0167482784,-9.7122070136,1.6215922408,-0.31392275,2.57902394,-3.18982869,,,
imu,207.265361,-0.0263187232,-9.7128051664,1.6311626856,-0.30644584,2.29490136,-3.16739796,,,
imu,207.273827,-0.0406743904,-9.7122070136,1.6431257416,-0.25410747,2.16031698,-3.16739796,,,
imu,207.282293,-0.05562821040000001,-9.722973764,1.6431257416,-0.33635348,2.05564024,-3.15992105,,,
imu,207.29076,-0.07297464160000001,-9.710412555200001,1.6311626856,-0.26906129,1.92853277,-3.08515195,,,
imu,207.299226,-0.08912476720000001,-9.709216249600003,1.6227885464,-0.2017691,1.83880985,-3.10758268,,,
imu,207.307692,-0.1124527264,-9.697851346400002,1.6293682272,-0.18681528,1.79394839,-3.04029049,,,
imu,207.316158,-0.128602852,-9.696655040800001,1.626975616,-0.01484635000000001,1.90610204,-2.66644499,,,
imu,207.324624,-0.1202287128,-9.697851346400002,1.6227885464,-0.06718472,2.08554788,-2.35241477,,,
imu,207.33309,-0.131593616,-9.692467971200001,1.6132181016,0.01506129,2.27247063,-2.35241477,,,
imu,207.341556,-0.1327899216,-9.675121540000001,1.6138162544,0.03001510999999998,2.54163939,-2.47952224,,,
imu,207.349978,-0.125612088,-9.6733270816,1.5976661288,0.33656842,2.65379304,-2.48699915,,,
imu,207.358444,-0.1124527264,-9.6709344704,1.5922827536,0.26927623,2.6986545,-2.65896808,,,
imu,207.36691,-0.1088638096,-9.672130776000001,1.58510492,0.30666078,2.9229618,-2.748691,,,
imu,207.375376,-0.1040785872,-9.6799067624,1.5809178504,0.47862971,3.00520781,-2.91318302,,,
imu,207.383843,-0.107667504,-9.701440263200002,1.5857030728,0.47862971,3.24446893,-2.88327538,,,
imu,207.392309,-0.09929336480000002,-9.7086180968,1.5928809064,0.5010604399999999,3.38653022,-2.89075229,,,
imu,207.400775,-0.08972292000000001,-9.716992236000001,1.5868993784,0.4861066199999999,3.54354533,-2.83841392,,,
imu,207.409241,-0.07297464160000001,-9.7295534448,1.588095684,0.55339881,3.5958837,-2.84589083,,,
imu,207.417707,-0.0550300576,-9.734338667200001,1.6018531984,0.43376825,3.820191,-2.76364482,,,
imu,207.426173,-0.0376836264,-9.740918348000001,1.5922827536,0.38142988,3.85009864,-2.72626027,,,
imu,207.434639,-0.009570444800000001,-9.746301723200002,1.5946753648,0.23936859,3.73046808,-2.78607555,,,
imu,207.443105,0.002990764,-9.740918348000001,1.6036476568,-0.04475399000000001,3.56597606,-2.9729983,,,
imu,207.451571,0.0005981528000000001,-9.738525736800002,1.603049504,-0.06718472,3.42391477,-2.8982292,,,
imu,207.460037,0.0143556672,-9.739722042400002,1.6018531984,-0.28401511,3.19213056,-3.03281358,,,
imu,207.468503,0.0065796808,-9.743310959200002,1.6018531984,-0.28401511,3.0725,-2.94309066,,,
imu,207.476969,0.008972292000000002,-9.739722042400002,1.6114236432,-0.38869185,2.9229618,-3.00290594,,,
imu,207.485436,0.003588916800000001,-9.739722042400002,1.6078347264,-0.32139966,2.63883922,-3.02533667,,,
imu,207.493902,-0.0005981528000000001,-9.731946056000002,1.6126199488,-0.23915365,2.57902394,-2.96552139,,,
imu,207.502368,-0.008972292000000002,-9.725964528,1.6114236432,-0.46346095,2.45939338,-2.92813684,,,
imu,207.510834,-0.020935348,-9.718188541600002,1.6156107128,-0.47093786,2.33228591,-3.03281358,,,
imu,207.5193,-0.0257205704,-9.711608860800002,1.6162088656,-0.38121494,2.2500399,-3.02533667,,,
imu,207.527766,-0.04725407120000001,-9.706225485600001,1.6144144072,-0.38121494,2.15284007,-3.10758268,,,
imu,207.536232,-0.0514411408,-9.696655040800001,1.6096291848,-0.30644584,2.33228591,-3.14496723,,,
imu,207.544697,-0.05383375200000001,-9.7074217912,1.6156107128,-0.24663056,2.34723973,-3.13749032,,,
imu,207.553162,-0.0526374464,-9.6912716656,1.6197977824,-0.26906129,2.35471664,-3.21225942,,,
imu,207.561626,-0.05562821040000001,-9.692467971200001,1.6174051712,-0.19429219,2.4743472,-3.32441307,,,
imu,207.570091,-0.06220789120000001,-9.697253193600002,1.6263774632,-0.127,2.39210119,-3.50385891,,,
imu,207.578556,-0.05981528000000001,-9.693664276800002,1.6174051712,0.04496892999999999,2.57154703,-3.50385891,,,
imu,207.587021,-0.05742266880000001,-9.688280901600002,1.6197977824,0.23189168,2.61640849,-3.42908981,,,
imu,207.595486,-0.06400234960000001,-9.697253193600002,1.6263774632,0.26927623,2.55659321,-3.57862801,,,
imu,207.603951,-0.06460050240000001,-9.6918698184,1.632957144,0.02253820000000001,2.48182411,-3.54872037,,,
imu,207.612415,-0.07596540560000001,-9.690075360000002,1.623984852,0.10478421,2.64631613,-3.31693616,,,
imu,207.62088,-0.07177833600000001,-9.688280901600002,1.6203959352,0.11226112,2.75099287,-2.9729983,,,
imu,207.629345,-0.06400234960000001,-9.697253193600002,1.6186014768,0.02253820000000001,2.84071579,-3.01038285,,,
imu,207.63781,-0.05981528000000001,-9.702038416,1.6174051712,0.02253820000000001,2.83323888,-3.04029049,,,
imu,207.646275,-0.0562263632,-9.711010708000002,1.6162088656,0.10478421,2.81828506,-3.23469015,,,
imu,207.654739,-0.05562821040000001,-9.706225485600001,1.6221903936,0.11973803,2.78090051,-3.31693616,,,
imu,207.663204,-0.0466559184,-9.711010708000002,1.6305645328,0.17955331,2.67622377,-3.32441307,,,
imu,207.671669,-0.0562263632,-9.718786694400002,1.6245830048,0.17955331,2.52668557,-3.2720747,,,
imu,207.680134,-0.06460050240000001,-9.718188541600002,1.632957144,0.29918387,2.51920866,-3.39918217,,,
imu,207.688599,-0.0675912664,-9.711010708000002,1.6245830048,0.19450713,2.51173175,-3.48142818,,,
imu,207.697063,-0.0753672528,-9.6954587352,1.6245830048,0.25432241,2.3995781,-3.39170526,,,
imu,207.705528,-0.08792846160000001,-9.690673512800002,1.6233866992,0.26179932,2.31733209,-3.51133582,,,
imu,207.713993,-0.1004896704,-9.697851346400002,1.618003324,0.15712258,2.26499372,-3.51881273,,,
imu,207.722458,-0.1100601152,-9.6984494992,1.609031032,0.38142988,2.33976282,-3.33188998,,,
imu,207.730923,-0.1154434904,-9.7086180968,1.5988624344,0.45619898,2.45939338,-3.15992105,,,
imu,207.739388,-0.122621324,-9.711010708000002,1.5982642816,0.53096808,2.58650085,-2.99542903,,,
imu,207.748203,-0.1238176296,-9.7086180968,1.5868993784,0.55339881,2.70613141,-2.83841392,,,
imu,207.757019,-0.131593616,-9.7074217912,1.5922827536,0.59078336,2.86314652,-2.80102937,,,
imu,207.765834,-0.1250139352,-9.7151977776,1.5809178504,0.42629134,3.08745382,-2.80850628,,,
imu,207.77465,-0.1130508792,-9.727758986400001,1.5773289336,0.52349117,3.24446893,-2.68139881,,,
imu,207.783466,-0.09630260080000001,-9.734936820000001,1.5809178504,0.52349117,3.36409949,-2.71878336,,,
imu,207.792281,-0.08314323920000001,-9.731946056000002,1.5803196976,0.44124516,3.61831443,-2.71878336,,,
imu,207.801097,-0.06041343280000001,-9.7403201952,1.5755344752,0.50853735,3.69308353,-2.75616791,,,
imu,207.809912,-0.0382817792,-9.751685098400001,1.5743381696,0.43376825,3.68560662,-2.80102937,,,
imu,207.818728,-0.0143556672,-9.746301723200002,1.5719455584,0.13469185,3.73046808,-2.93561375,,,
imu,207.827544,-0.0131593616,-9.738525736800002,1.5755344752,0.0001074699999999984,3.71551426,-3.07019813,,,
imu,207.836359,0.004187069600000001,-9.7301515976,1.573141864,-0.06718472,3.52859151,-3.17487487,,,
imu,207.845175,0.0113649032,-9.7283571392,1.5605806552,-0.20924601,3.37905331,-3.28702852,,,
imu,207.85399,0.0221316536,-9.727758986400001,1.5635714192,-0.09709236,3.03511545,-3.36927453,,,
imu,207.862806,0.0275150288,-9.711608860800002,1.5665621832,-0.08213854000000001,2.90800798,-3.39918217,,,
imu,207.871622,0.0191408896,-9.718786694400002,1.564169572,-0.11952309,2.6238854,-3.47395127,,,
imu,207.880437,0.0185427368,-9.7163940832,1.5647677248,-0.11204618,2.31733209,-3.31693616,,,
imu,207.889253,0.0221316536,-9.7193848472,1.5677584888,-0.13447691,2.0257326,-3.3468438,,,
imu,207.898068,0.0011963056,-9.7128051664,1.5563935856,0.007584380000000002,1.89114822,-3.33936689,,,
imu,207.906884,-0.0125612088,-9.7151977776,1.5623751136,0.09730729999999999,1.56216418,-3.36927453,,,
imu,207.9157,-0.0251224176,-9.725964528,1.561178808,-0.02232326000000001,1.42010289,-3.38422835,,,
imu,207.924515,-0.04187069600000001,-9.7301515976,1.5779270864,-0.13447691,1.45748744,-3.37675144,,,
imu,207.933331,-0.0526374464,-9.741516500800001,1.5725437112,-0.07466163,1.40514907,-3.48890509,,,
imu,207.942146,-0.06400234960000001,-9.746301723200002,1.567160336,-0.14195382,1.43505671,-3.60105874,,,
imu,207.950618,-0.08314323920000001,-9.746301723200002,1.5689547944,0.01506129,1.59954873,-3.51133582,,,
imu,207.959089,-0.08972292000000001,-9.755872168000002,1.5767307808,-0.22419983,1.7266562,-3.52628964,,,
imu,207.96756,-0.1034804344,-9.752283251200002,1.5803196976,-0.37373803,1.80890221,-3.62348947,,,
imu,207.976031,-0.1070693512,-9.763050001600002,1.594077212,-0.5756146,1.98087114,-3.69078166,,,
imu,207.984502,-0.1130508792,-9.7540777096,1.594077212,-0.7251528,2.07807097,-3.69825857,,,
imu,207.992973,-0.1190324072,-9.7504887928,1.5958716704,-0.80739881,2.19022462,-3.66087402,,,
imu,208.001445,-0.1190324072,-9.725366375200002,1.597067976,-0.83730645,2.4743472,-3.46647436,,,
imu,208.009916,-0.1172379488,-9.727160833600001,1.597067976,-1.06909066,2.68370068,-3.38422835,,,
imu,208.018387,-0.1244157824,-9.711010708000002,1.597067976,-1.11395212,2.80333124,-3.50385891,,,
imu,208.026858,-0.1154434904,-9.694860582400002,1.5916846008,-1.04665993,2.96782326,-3.30198234,,,
imu,206.614075,,,,,,,-85.096402,176.2536268,124.7148736
imu,206.715699,,,,,,,-85.218474,176.6442572,125.0078464
imu,206.817231,,,,,,,-85.0231588,176.9250228,124.6904592
imu,206.918793,,,,,,,-85.218474,176.63205,124.8247384
imu,207.020356,,,,,,,-82.7526196,175.5456092,123.2378024
imu,207.121888,,,,,,,-85.3527532,176.7785364,124.6050088
imu,207.223511,,,,,,,-82.8868988,176.1071404,122.1879832
imu,207.325013,,,,,,,-84.9865372,176.4245276,124.8979816
imu,208.035329,-0.1004896704,-9.692467971200001,1.5964698232,-1.06161375,3.03511545,-3.30945925,,,
imu,208.0438,-0.09390998960000001,-9.688879054400001,1.5946753648,-1.00179847,3.13231528,-3.13001341,,,
imu,208.052272,-0.0903210728,-9.694860582400002,1.6036476568,-0.9494601,3.25194584,-3.15244414,,,
imu,208.060743,-0.08912476720000001,-9.694860582400002,1.6102273376,-0.90459864,3.31923803,-3.21973633,,,
imu,208.069214,-0.08015247520000002,-9.703832874400002,1.612021796,-0.7401066199999999,3.2968073,-3.18235178,,,
imu,208.077685,-0.0532355992,-9.703234721600001,1.6293682272,-0.65786061,3.36409949,-3.13749032,,,
imu,208.086156,-0.05084298800000001,-9.717590388800001,1.6461165056,-0.78496808,3.34166876,-3.30945925,,,
imu,208.094627,-0.0323002512,-9.7265626808,1.641929436,-0.69524516,3.46877623,-3.36927453,,,
imu,208.103099,-0.0275150288,-9.7128051664,1.6485091168,-0.65786061,3.25194584,-3.55619728,,,
imu,208.11157,-0.023926112,-9.690075360000002,1.6520980336,-0.73262971,3.03511545,-3.74312003,,,
imu,208.120041,-0.0161501256,-9.689477207200001,1.6652573952,-0.91955246,2.81080815,-3.82536604,,,
imu,208.128512,-0.0161501256,-9.706225485600001,1.662864784,-0.9943215599999999,2.66874686,-3.8702275,,,
imu,208.136983,-0.0203371952,-9.702038416,1.6610703256,-0.82982954,2.42948574,-3.84031986,,,
imu,208.145454,-0.0281131816,-9.703234721600001,1.671837076,-0.8672140899999999,2.0257326,-3.8702275,,,
imu,208.153926,-0.0352910152,-9.696056888000001,1.6754259928,-0.63542988,1.77899457,-3.81041222,,,
imu,208.162397,-0.0681894192,-9.683495679200002,1.6885853544,-0.68029134,1.49487199,-3.81788913,,,
imu,208.170868,-0.08852661440000001,-9.701440263200002,1.6939687296,-0.71019898,1.16588795,-3.75059694,,,
imu,208.179339,-0.1034804344,-9.699047652,1.6843982848,-0.5756146,1.09859576,-3.54872037,,,
imu,208.18781,-0.1208268656,-9.681103068,1.6802112152,-0.55318387,1.10607267,-3.40665908,,,
imu,208.196281,-0.1543234224,-9.671532623200001,1.6712389232,-0.44850713,1.15841104,-3.26459779,,,
imu,208.204753,-0.176455076,-9.681103068,1.6724352288,-0.26158438,1.28551851,-2.88327538,,,
imu,208.213224,-0.188418132,-9.682897526400001,1.6754259928,0.01506129,1.53225654,-2.54681443,,,
imu,208.221695,-0.1908107432,-9.693664276800002,1.6640610896,0.20946095,1.8761944,-2.24026112,,,
imu,208.230166,-0.1926052016,-9.673925234400002,1.6574814088,0.33656842,2.22013226,-2.21035348,,,
imu,208.238637,-0.1758569232,-9.658373261600001,1.653892492,0.18703022,2.58650085,-2.41223005,,,
imu,208.247109,-0.16449202,-9.654186192000001,1.6485091168,0.33656842,2.96782326,-2.58419898,,,
imu,208.25558,-0.137575144,-9.655980650400002,1.6395368248,0.59078336,3.19213056,-2.69635263,,,
imu,208.264051,-0.1184342544,-9.654186192000001,1.620994088,0.60573718,3.42391477,-2.86832156,,,
imu,208.272522,-0.1100601152,-9.664952942400001,1.6203959352,0.7702292,3.70803735,-2.9729983,,,
imu,208.280993,-0.08194693360000001,-9.672130776000001,1.6102273376,0.91229049,3.86505246,-3.14496723,,,
imu,208.289464,-0.05981528000000001,-9.675719692800001,1.6084328792,0.9945364999999999,3.9697292,-3.29450543,,,
imu,208.297936,-0.03289840400000001,-9.683495679200002,1.6054421152,1.05435178,3.96225229,-3.20478251,,,
imu,208.306407,-0.0275150288,-9.6918698184,1.6102273376,0.78518302,3.88000628,-3.31693616,,,
imu,208.314878,-0.003588916800000001,-9.702636568800001,1.6072365736,0.8823828499999999,3.80523718,-3.26459779,,,
imu,208.323349,0.002990764,-9.715795930400002,1.597067976,1.00201341,3.50616078,-3.07019813,,,
imu,208.33182,0.007177833600000002,-9.718188541600002,1.5916846008,0.9945364999999999,3.2220382,-3.02533667,,,
imu,208.340291,0.011963056,-9.727758986400001,1.5922827536,0.9272443100000001,2.83323888,-3.10010577,,,
imu,208.348763,0.011963056,-9.728955292000002,1.5916846008,0.9048135799999999,2.5491163,-3.06272122,,,
imu,208.35722,0.004785222400000001,-9.7474980288,1.5845067672,0.7104139199999999,2.15284007,-3.10758268,,,
imu,208.365677,-0.0125612088,-9.7606573904,1.5809178504,0.74779847,1.83133294,-3.23469015,,,
imu,208.374134,-0.0281131816,-9.764246307200002,1.5773289336,0.74779847,1.577118,-3.29450543,,,
imu,208.382591,-0.05802082160000001,-9.7744149048,1.5809178504,0.55339881,1.36028761,-3.33936689,,,
imu,208.391048,-0.07058203040000001,-9.772022293600001,1.5773289336,0.29918387,1.26308778,-3.2720747,,,
imu,208.399506,-0.09510629520000001,-9.773816752000002,1.5785252392,0.35899915,1.29299542,-3.22721324,,,
imu,208.407963,-0.1040785872,-9.782789044000001,1.5767307808,0.23189168,1.42010289,-3.26459779,,,
imu,208.41642,-0.1214250184,-9.780396432800002,1.573141864,0.13469185,1.47244126,-3.47395127,,,
imu,208.424877,-0.1250139352,-9.7576666264,1.567160336,-0.03727708,1.7266562,-3.51133582,,,
imu,208.433334,-0.1268083936,-9.7540777096,1.561178808,-0.06718472,1.82385603,-3.41413599,,,
imu,208.441753,-0.1333880744,-9.752283251200002,1.5557954328,-0.10456927,1.94348659,-3.43656672,,,
imu,208.45021,-0.1357806856,-9.7504887928,1.5629732664,-0.3513073,2.19022462,-3.51133582,,,
imu,208.458667,-0.1244157824,-9.7331423616,1.5689547944,-0.39616876,2.36219355,-3.56367419,,,
imu,208.467124,-0.1238176296,-9.714001472000001,1.5713474056,-0.58309151,2.45939338,-3.65339711,,,
imu,208.475581,-0.1280046992,-9.725366375200002,1.579123392,-0.56066078,2.40705501,-3.77302767,,,
imu,208.484039,-0.1148453376,-9.724170069600001,1.5677584888,-0.46346095,2.54163939,-3.70573548,,,
imu,208.492496,-0.1040785872,-9.721179305600002,1.573141864,-0.54570696,2.65379304,-3.73564312,,,
imu,208.500953,-0.1124527264,-9.7086180968,1.591086448,-0.68029134,2.58650085,-3.75059694,,,
imu,208.50941,-0.1172379488,-9.703234721600001,1.5916846008,-0.77749117,2.63136231,-3.5711511,,,
imu,208.517867,-0.1238176296,-9.7086180968,1.60005874,-0.54570696,2.81828506,-3.1973056,,,
imu,208.526324,-0.1118545736,-9.714001472000001,1.5994605872,-0.7401066199999999,2.89305416,-3.1225365,,,
imu,208.534782,-0.1064711984,-9.727160833600001,1.6012550456,-0.88964482,3.04259236,-3.06272122,,,
imu,208.543239,-0.09630260080000001,-9.731347903200001,1.6114236432,-0.88964482,3.03511545,-3.26459779,,,
imu,208.551696,-0.08433954480000001,-9.739123889600002,1.618003324,-0.9494601,2.98277708,-3.3468438,,,
imu,208.560167,-0.0783580168,-9.725964528,1.6317608384,-0.76253735,2.96782326,-3.40665908,,,
imu,208.568638,-0.08493769760000001,-9.7301515976,1.62996638,-0.94198319,2.89305416,-3.47395127,,,
imu,208.57711,-0.0813487808,-9.7265626808,1.6251811576,-1.03170611,2.88557725,-3.45152054,,,
imu,208.585581,-0.0861340032,-9.7151977776,1.6341534496,-0.9793677399999999,2.66874686,-3.63096638,,,
imu,208.594052,-0.08433954480000001,-9.7122070136,1.638938672,-1.09152139,2.59397776,-3.63844329,,,
imu,208.602523,-0.09749890640000002,-9.704431027200002,1.6455183528,-0.8672140899999999,2.57902394,-3.57862801,,,
imu,208.610994,-0.1094619624,-9.699645804800001,1.6491072696,-0.8522602699999999,2.48930102,-3.43656672,,,
imu,208.619465,-0.1208268656,-9.697253193600002,1.6544906448,-1.06161375,2.33976282,-3.31693616,,,
imu,208.627937,-0.1130508792,-9.692467971200001,1.6634629368,-1.15881358,2.19770153,-3.30198234,,,
imu,208.636408,-0.1471455888,-9.669140012000002,1.665855548,-1.03918302,2.33228591,-2.99542903,,,
imu,208.644879,-0.1507345056,-9.656578803200002,1.671837076,-0.83730645,2.3995781,-2.68887572,,,
imu,208.65335,-0.1609031032,-9.6428212888,1.6855945904,-0.8821679099999999,2.45939338,-2.58419898,,,
imu,208.661821,-0.1597067976,-9.644615747200001,1.6891835072,-0.6279529699999999,2.72856214,-2.46456842,,,
imu,208.670292,-0.1549215752,-9.630858232800001,1.6802112152,-0.41112258,2.87062343,-2.35241477,,,
imu,208.678764,-0.1549215752,-9.633250844,1.680809368,-0.38869185,3.09493073,-2.30755331,,,
imu,208.687235,-0.1459492832,-9.642223136000002,1.6832019792,-0.25410747,3.17717674,-2.45709151,,,
imu,208.695706,-0.1262102408,-9.655980650400002,1.6772204512,-0.007369440000000005,3.43886859,-2.49447606,,,
imu,208.704177,-0.1052748928,-9.6709344704,1.6682481592,0.23936859,3.65569898,-2.47204533,,,
imu,208.712648,-0.1070693512,-9.6876827488,1.6694444648,0.53844499,3.83514482,-2.68139881,,,
imu,208.721119,-0.08912476720000001,-9.7151977776,1.6832019792,0.5459219,3.820191,-2.98047521,,,
imu,208.729591,-0.0663949608,-9.714599624800002,1.6694444648,0.3889067899999999,3.93982156,-3.24964397,,,
imu,208.738062,-0.0532355992,-9.722973764,1.6724352288,0.5982602699999999,3.95477538,-3.3468438,,,
imu,207.426617,,,,,,,-84.76680759999999,176.8273652,123.7749192
imu,207.528088,,,,,,,-84.99874439999999,176.448942,124.8735672
imu,207.629772,,,,,,,-85.1818524,176.4367348,124.9101888
imu,207.731274,,,,,,,-85.3771676,176.5465996,125.1299184
imu,207.832806,,,,,,,-84.76680759999999,176.1803836,125.5571704
imu,207.934338,,,,,,,-84.3395556,176.1071404,123.762712
imu,208.035931,,,,,,,-84.99874439999999,176.4855636,124.6904592
imu,208.137493,,,,,,,-82.23991720000001,176.082726,122.4321272
imu,208.239025,,,,,,,-84.852258,176.265834,124.5317656
imu,208.340679,,,,,,,-82.8136556,175.4479516,121.7363168
imu,208.442181,,,,,,,-84.91329400000001,176.3146628,124.5805944
imu,208.543743,,,,,,,-84.77901480000001,176.93723,124.6416304
imu,208.645306,,,,,,,-84.99874439999999,176.6198428,124.434108
