Type,Timestamp,Data Accelerometer X,Data Accelerometer Y,Data Accelerometer Z,Data Gyroscope X,Data Gyroscope Y,Data Gyroscope Z,Data Magnetometer X,Data Magnetometer Y,Data Magnetometer Z
imu,412.369603,-1.022841288,-9.441841948000002,3.0314383904,-5.14400661,3.78280645,-2.0757691,,,
imu,412.378065,-1.013868996,-9.4346641144,3.040410682400001,-5.09166824,3.91739083,-2.001,,,
imu,412.386527,-0.9869521200000001,-9.440645642400002,3.041606988,-5.07671442,4.03702139,-2.04586146,,,
imu,412.394989,-0.9612315496000001,-9.448421628800002,3.053570044,-5.01689914,3.92486774,-2.27764567,,,
imu,412.403452,-0.9426888128,-9.441841948000002,3.0649349472,-4.97203768,3.67812971,-2.56924516,,,
imu,412.411914,-0.9349128264000002,-9.4382530312,3.0757016976,-4.725299649999999,3.61083752,-2.748691,,,
imu,412.420376,-0.9223516176000001,-9.435860420000001,3.074505392,-4.50846926,3.36409949,-2.89075229,,,
imu,412.428838,-0.9073977976000001,-9.4382530312,3.096038892800001,-4.157054489999999,3.19213056,-2.95804448,,,
imu,412.437301,-0.9044070336000001,-9.470553282400001,3.11039456,-3.79816281,3.00520781,-3.03281358,,,
imu,412.445763,-0.8960328944000001,-9.4801237272,3.1086001016,-3.34954821,2.87062343,-2.95056757,,,
imu,412.454225,-0.8972292000000002,-9.457992073600002,3.108001948800001,-2.90093361,2.90053107,-2.64401426,,,
imu,412.462687,-0.8882569080000001,-9.443038253600001,3.1109927128,-2.65419558,2.87810034,-2.34493786,,,
imu,412.47115,-0.8727049352000001,-9.438851184,3.128937296800001,-2.2205348,2.69117759,-2.14306129,,,
imu,412.479612,-0.8703123240000001,-9.452010545600002,3.1355169776,-1.96631986,2.6986545,-2.03838455,,,
imu,412.48843,-0.8649289488,-9.4699551296,3.1474800336,-1.58499745,2.79585433,-1.84398489,,,
imu,412.497249,-0.8643307960000001,-9.4412437952,3.1474800336,-1.24105959,2.6986545,-1.57481613,,,
imu,412.506067,-0.8553585040000001,-9.388606348800002,3.1181705464,-1.0989983,2.63136231,-1.54490849,,,
imu,412.514885,-0.8505732816000001,-9.361689472800002,3.0930481288,-0.80739881,2.51173175,-1.50004703,,,
imu,412.523703,-0.8547603512000002,-9.332379985600001,3.0762998504,-0.5980453299999999,2.42948574,-1.5523854,,,
imu,412.532522,-0.8374139200000001,-9.312042790400001,3.061944183200001,-0.16438455,2.27994754,-1.7019236,,,
imu,412.54134,-0.8248527112,-9.311444637600001,3.049981127200001,0.29918387,2.23508608,-1.99352309,,,
imu,412.550158,-0.8254508640000001,-9.322809540800002,3.0457940576,0.8449983,2.07059406,-2.18044584,,,
imu,412.558976,-0.8326286976000001,-9.321613235200001,3.0398125296,1.43567419,1.78647148,-2.34493786,,,
imu,412.567795,-0.8410028368000001,-9.3317818328,3.032634696,1.88428879,1.60702564,-2.63653735,,,
imu,412.576613,-0.8523677400000002,-9.357502403200002,3.03562546,2.30299575,1.44253362,-2.90570611,,,
imu,412.585431,-0.8655271016000001,-9.372456223200002,3.0439995992,2.92357928,1.22570323,-2.95804448,,,
imu,412.594249,-0.8798827688,-9.419710294400002,3.033831001600001,3.45443989,1.23318014,-3.05524431,,,
imu,412.603068,-0.9139774784000001,-9.467562518400001,3.0553645024,3.62640882,1.27056469,-3.07767504,,,
imu,412.611886,-0.9283331456000001,-9.502255380800001,3.0631404888,3.64136264,1.39019525,-3.07767504,,,
imu,412.620704,-0.9438851184000001,-9.517807353600002,3.0481866688,3.58154736,1.45001053,-2.78607555,,,
imu,412.629522,-0.9540537160000001,-9.536948243200001,3.0439995992,3.59650118,1.76404075,-2.71130645,,,
imu,412.638341,-0.9708019944000001,-9.5566872856,3.0350273072,3.42453225,1.88367131,-2.73373718,,,
imu,412.647159,-0.9666149248000001,-9.5602762024,3.0260550152,3.17031731,2.20517844,-2.79355246,,,
imu,412.655977,-0.9564463272000002,-9.551902063200002,3.0122975008,2.92357928,2.51920866,-2.85336774,,,
imu,412.664795,-0.9576426328000002,-9.5429297712,3.0158864176,2.7142258,2.7734236,-2.78607555,,,
imu,412.673614,-0.9295294512000001,-9.536948243200001,2.996745528,2.51982614,3.07997691,-2.88327538,,,
imu,412.682432,-0.9301276040000002,-9.548313146400002,3.001530750400001,2.39271867,3.3715764,-2.96552139,,,
imu,412.690908,-0.9151737840000002,-9.556089132800002,2.9949510696,2.08616536,3.53606842,-3.01785976,,,
imu,412.699384,-0.8882569080000001,-9.556089132800002,2.996745528,2.20579592,3.58840679,-3.21973633,,,
imu,412.707861,-0.8739012408000001,-9.5249851872,2.9829880136,1.98148862,3.5958837,-3.39170526,,,
imu,412.716337,-0.8649289488,-9.5154147424,2.9835861664,1.98896553,3.54354533,-3.50385891,,,
imu,412.724813,-0.8643307960000001,-9.527377798400002,2.9776046384,1.8917657,3.34914567,-3.69825857,,,
imu,412.733289,-0.8308342392000001,-9.503451686400002,2.971024957600001,1.85438115,3.21456129,-3.91508896,,,
imu,412.741766,-0.8386102256000002,-9.485507102400002,2.9584637488,2.00391935,2.84071579,-4.06462716,,,
imu,412.750242,-0.8350213088000001,-9.474740352000001,2.9506877624,2.20579592,2.63883922,-4.19921154,,,
imu,412.758718,-0.8308342392000001,-9.474740352000001,2.9512859152,2.33290339,2.51920866,-4.408565019999999,,,
imu,412.767194,-0.8332268504000001,-9.457393920800001,2.9441080816,2.42262631,2.14536316,-4.6179185,,,
imu,412.775671,-0.8416009896000001,-9.431075197600002,2.945304387200001,2.55721069,1.74908693,-4.8422258,,,
imu,412.784147,-0.8338250032000001,-9.4496179344,2.9345376368,2.74413344,1.5023489,-4.931948719999999,,,
imu,412.792623,-0.8571529624000002,-9.4801237272,2.933939484000001,2.93105619,1.26308778,-5.08148692,,,
imu,412.801099,-0.8631344904,-9.499862769600002,2.933939484000001,3.03573293,0.9565344699999998,-5.26840967,,,
imu,412.809576,-0.8703123240000001,-9.4980683112,2.9345376368,3.18527113,0.76213481,-5.26840967,,,
imu,412.818052,-0.8954347416000001,-9.478927421600002,2.93094872,3.20022495,0.6724118899999998,-5.09644074,,,
imu,412.826528,-0.8996218112000001,-9.475936657600002,2.924967192,3.07311748,0.4929660499999997,-5.01419473,,,
imu,412.835004,-0.9163700896000002,-9.4591883792,2.9207801224,3.0133022,0.2910894799999997,-4.991764,,,
imu,412.843481,-0.9385017432000002,-9.493283088800002,2.9213782752,2.95348692,0.2686587499999997,-4.954379449999999,,,
imu,412.851957,-0.9510629520000001,-9.5184055064,2.9171912056,2.7142258,0.44062768,-4.692687599999999,,,
imu,412.860433,-0.9558481744000001,-9.5327611736,2.924369039200001,2.38524176,0.5153967799999997,-4.53567249,,,
imu,412.86891,-0.9582407856000001,-9.559678049600002,2.9447062344,2.116073,0.62007352,-4.30388828,,,
imu,412.877386,-0.9785779808,-9.593174606400002,2.9626508184,1.72727368,0.7097964399999999,-4.06462716,,,
imu,412.885862,-0.9696056888000001,-9.6326526912,2.971024957600001,1.39081273,0.8967191899999998,-3.78050458,,,
imu,412.894373,-0.9755872168000002,-9.638036066400002,2.9722212632,1.12912088,1.24813396,-3.31693616,,,
imu,412.902883,-0.9935318008000001,-9.610521037600002,2.94590254,0.97210577,1.63693328,-2.92065993,,,
imu,412.911394,-1.0042985512,-9.571641105600001,2.9213782752,0.74779847,1.78647148,-2.50942988,,,
imu,412.919904,-1.004896704,-9.524387034400002,2.910611524800001,0.5459219,2.07059406,-2.16549202,,,
imu,412.928415,-0.9881484256000002,-9.467562518400001,2.8974521632,0.42629134,2.37714737,-2.14306129,,,
imu,412.936926,-0.9660167720000001,-9.447225323200001,2.907022608,0.52349117,2.71360832,-2.12810747,,,
imu,412.945436,-0.9624278552000001,-9.4729458936,2.9142004416,0.74779847,2.74351596,-2.18792275,,,
imu,412.953947,-0.9510629520000001,-9.481320032800001,2.910611524800001,0.79265993,2.76594669,-2.45709151,,,
imu,412.962457,-0.9379035904000002,-9.489096019200002,2.928556108800001,1.00949032,2.91548489,-2.62158353,,,
imu,412.970968,-0.9319220624000001,-9.4938812416,2.9351357896,1.03192105,3.02016163,-2.86832156,,,
imu,412.979479,-0.9301276040000002,-9.498666464000001,2.9351357896,0.9870595899999999,3.10988455,-2.91318302,,,
imu,412.987989,-0.9235479232000001,-9.496872005600002,2.9417154704,1.00201341,3.08745382,-3.15992105,,,
imu,412.9965,-0.9175663952000002,-9.498666464000001,2.933939484000001,1.00201341,3.0725,-3.37675144,,,
imu,413.00501,-0.9217534648000001,-9.499264616800001,2.9333413312,1.02444414,3.2220382,-3.38422835,,,
imu,413.013521,-0.9163700896000002,-9.478927421600002,2.935733942400001,1.20388998,3.40148404,-3.2720747,,,
imu,413.022031,-0.903210728,-9.4873015608,2.9321450256,1.38333582,3.40148404,-3.27955161,,,
imu,413.030542,-0.9026125752,-9.5040498392,2.9351357896,1.53287402,3.32671494,-3.27955161,,,
imu,413.039053,-0.8966310472000002,-9.52558334,2.9465006928,1.60764312,3.25194584,-3.55619728,,,
imu,413.047563,-0.8990236584000001,-9.536350090400001,2.9560711376,1.71231986,3.25194584,-3.72816621,,,
imu,413.056025,-0.8750975464000001,-9.539939007200001,2.9692304992,1.76465823,3.28933039,-3.75807385,,,
imu,413.064535,-0.8721067824000002,-9.562668813600002,2.972819416000001,1.98148862,3.34914567,-3.78050458,,,
imu,413.073046,-0.8649289488,-9.5704448,2.9656415824,1.68241222,3.15474601,-3.85527368,,,
imu,413.081556,-0.8583492680000002,-9.573435564,2.9740157216,1.65250458,3.10988455,-3.75059694,,,
imu,413.090067,-0.8697141712000002,-9.5800152448,2.9764083328,1.46558183,3.00520781,-3.72816621,,,
imu,413.098485,-0.8487788232000001,-9.554294674400001,2.9554729848,1.33847436,2.96034635,-3.56367419,,,
imu,413.106902,-0.8290397808000001,-9.5172092008,2.9734175688,1.03939796,2.82576197,-3.60105874,,,
imu,413.11532,-0.8284416280000001,-9.5291722568,2.997941833600001,0.8674290299999999,2.44443956,-3.77302767,,,
imu,413.123738,-0.8248527112,-9.5740337168,3.0254568624,0.50853735,2.13788625,-4.06462716,,,
imu,413.132156,-0.8015247520000001,-9.609922884800001,3.0230642512,0.10478421,1.88367131,-4.13191935,,,
imu,413.140574,-0.8230582528,-9.61530626,3.0487848216,-0.15690764,1.84628676,-3.95247351,,,
imu,413.148991,-0.8338250032000001,-9.616502565600001,3.0320365432,-0.46346095,1.49487199,-3.83284295,,,
imu,413.157409,-0.8583492680000002,-9.608128426400002,3.0410088352,-0.77001426,1.30047233,-3.62348947,,,
imu,413.165827,-0.8559566568000001,-9.583006008800002,3.044597752,-1.20367504,1.13598031,-3.44404363,,,
imu,413.174245,-0.8511714344000001,-9.5423316184,3.05057928,-1.36816706,0.86681155,-3.30198234,,,
imu,413.182662,-0.8541621984000002,-9.5082369088,3.0374199184,-1.48032071,0.6724118899999998,-3.36179762,,,
imu,413.19108,-0.8499751288000001,-9.495077547200001,3.0284476264,-1.30835178,0.6798887999999996,-3.31693616,,,
imu,413.199498,-0.8631344904,-9.489694172,3.026653168000001,-1.00927538,0.4630584099999999,-3.25712088,,,
imu,413.207916,-0.8649289488,-9.496872005600002,3.0422051408,-0.79244499,0.3434278499999999,-3.31693616,,,
imu,413.216333,-0.8625363376,-9.4974701584,3.0547663496,-0.4260764,0.3209971199999999,-3.27955161,,,
imu,413.224751,-0.8679197128000001,-9.5148165896,3.068523864000001,-0.31392275,0.2237972899999998,-3.24216706,,,
imu,413.233169,-0.8625363376,-9.535153784800002,3.070916475200001,0.06739966,0.1639820099999998,-3.21225942,,,
imu,413.241587,-0.8679197128000001,-9.519601812000001,3.0661312528,0.32909151,0.19388965,-3.09262886,,,
imu,413.250004,-0.8565548096000002,-9.479525574400002,3.0553645024,0.40386061,0.11164364,-3.04029049,,,
imu,413.258422,-0.8529658928000001,-9.437654878400002,3.026653168000001,0.6132140899999999,0.19388965,-2.95056757,,,
imu,413.26684,-0.8398065312,-9.388008196000001,3.020073487200001,0.7403215599999999,0.05182836000000002,-2.95056757,,,
imu,413.275258,-0.8392083784000002,-9.348530111200002,2.999736292,1.21136689,-0.06780220000000003,-2.91318302,,,
imu,413.283676,-0.8284416280000001,-9.3419504304,2.9901658472,1.51044329,-0.2173404000000003,-2.94309066,,,
imu,413.292093,-0.8386102256000002,-9.3246039992,2.9740157216,1.78708896,-0.3668786000000002,-2.94309066,,,
imu,413.30057,-0.8457880592000001,-9.311444637600001,2.963847124,2.20579592,-0.5014629800000003,-3.14496723,,,
imu,413.309046,-0.8601437264,-9.324005846400002,2.945304387200001,2.29551884,-0.65847809,-3.2720747,,,
imu,413.317522,-0.8876587552000001,-9.3246039992,2.9327431784,2.53477996,-0.88278539,-3.54124346,,,
imu,413.325998,-0.9277349928000002,-9.3269966104,2.908218913600001,2.78151799,-1.04727741,-3.93751969,,,
imu,413.334475,-0.9624278552000001,-9.335968902400001,2.8986484688,3.140409669999999,-1.06970814,-4.26650373,,,
imu,413.342951,-1.0084856208,-9.337165208000002,2.8729278984,3.37219388,-1.10709269,-4.692687599999999,,,
imu,413.351427,-1.0485618584,-9.336567055200002,2.8603666896,3.611455,-1.00241595,-5.05157928,,,
imu,413.359903,-1.085647332,-9.3545116392,2.844216564,3.89557758,-0.5538013500000001,-5.26840967,,,
imu,413.36838,-1.1149568192,-9.363483931200001,2.82627198,4.29185381,-0.2995864100000003,-5.65720899,,,
imu,413.376856,-1.1508459872,-9.3694654592,2.8184959936,4.8077606,0.29856639,-5.83665483,,,
imu,413.385332,-1.1657998072,-9.385615584800002,2.8101218544,4.83019133,0.9341037399999998,-5.851608649999999,,,
imu,413.393808,-1.1819499328,-9.403560168800002,2.7981587984,5.12179082,1.77151766,-5.739455,,,
imu,413.402285,-1.1939129888,-9.4316733504,2.7951680344,5.2563752,2.65379304,-5.57496298,,,
imu,413.410761,-1.1963056,-9.477132963200003,2.801747715200001,5.36105194,3.52859151,-5.13382529,,,
imu,413.419237,-1.1867351552,-9.533359326400001,2.8029440208,5.248898290000001,4.48563599,-4.9169949,,,
imu,413.427713,-1.1562293624,-9.589585689600002,2.8149070768,4.81523751,5.43520356,-4.57305704,,,
imu,413.43619,-1.1340977088,-9.6499991224,2.8244775216,4.56849948,6.34738658,-4.11696553,,,
imu,413.444666,-1.097610388,-9.716992236000001,2.841225800000001,4.2096078,7.154892859999999,-3.69078166,,,
imu,413.453142,-1.0413840248,-9.762451848800001,2.8687408288,3.67127028,7.932491499999999,-3.17487487,,,
imu,412.369963,,,,,,,78.5533212,-30.25557560000001,120.405732
imu,412.471556,,,,,,,78.4312492,-30.20674680000002,120.1249664
imu,412.573119,,,,,,,79.0538164,-30.21895400000001,119.4169488
imu,412.674681,,,,,,,81.04359000000001,-29.7672876,118.5868592
imu,413.461618,-0.9714001472000001,-9.8049206976,2.8789094264,2.93105619,8.53812121,-2.87579847,,,
imu,413.470095,-0.9325202152000002,-9.850380310400002,2.898050316,2.42262631,9.009166539999999,-2.35989168,,,
imu,413.478571,-0.8840698384000001,-9.899428840000002,2.922574580800001,1.69736604,9.233473839999998,-1.94866163,,,
imu,413.487047,-0.8427972952,-9.88447502,2.920181969600001,0.66555246,9.24095075,-1.58976995,,,
imu,413.495523,-0.8278434752000001,-9.879689797600001,2.9614545128,-0.41859949,9.203566200000001,-1.20844754,,,
imu,413.504332,-0.7811875568000001,-9.858754449600001,2.9704268048,-1.36816706,8.9792589,-0.9766633299999998,,,
imu,413.513141,-0.744700236,-9.8294449624,2.9752120272,-2.34016536,8.80728997,-0.91684805,,,
imu,413.52195,-0.6986424704000002,-9.8079114616,2.990764,-3.18505619,8.24652172,-0.82712513,,,
imu,413.530759,-0.6938572480000001,-9.7612555432,2.9865769304,-4.09723921,7.723138019999999,-0.6476792899999999,,,
imu,413.539568,-0.6836886504,-9.706823638400001,2.9746138744,-4.62809982,7.267046509999999,-0.49066418,,,
imu,413.548377,-0.6651459136000001,-9.635045302400002,2.947696998400001,-5.09166824,6.52683242,-0.4308489,,,
imu,413.557186,-0.6519865520000001,-9.5602762024,2.936930248,-5.33092936,5.81652597,-0.3411259799999999,,,
imu,413.565995,-0.6454068712000001,-9.505246144800001,2.953678526400001,-5.435606099999999,4.837050759999999,-0.5056179999999999,,,
imu,413.574804,-0.6430142600000001,-9.481918185600001,2.9644452768,-5.151483519999999,3.93982156,-0.74487912,,,
imu,413.583613,-0.6609588440000002,-9.4873015608,2.9835861664,-4.89726858,2.96034635,-0.9243249599999999,,,
imu,413.592422,-0.6872775672000001,-9.551303910400001,3.0248587096,-4.800068749999999,2.01825569,-1.26078591,,,
imu,413.601231,-0.7177833600000001,-9.6434194416,3.080486920000001,-4.43370016,1.2780416,-1.41780102,,,
imu,413.61004,-0.7518780696000001,-9.6745233872,3.1050111848,-4.34397724,0.70231953,-1.5523854,,,
imu,413.618849,-0.7722152648000001,-9.625474857600002,3.1026185736,-4.3888387,0.3284740299999998,-1.45518557,,,
imu,413.627658,-0.7781967928000002,-9.528574104,3.084673989600001,-4.47108471,0.09668981999999993,-1.21592445,,,
imu,413.636467,-0.7829820152,-9.4215047528,3.0457940576,-4.441177069999999,0.1714589200000001,-0.93927878,,,
imu,413.645276,-0.8039173632000001,-9.318024318400001,3.0122975008,-4.24677741,0.2013665599999999,-0.74487912,,,
imu,413.654085,-0.7973376824000001,-9.242657065600001,2.9985399864,-3.85050118,0.2013665599999999,-0.5355256399999999,,,
imu,413.662894,-0.7895616960000001,-9.194804841600002,2.999736292,-3.4168404,0.07425908999999997,-0.52057182,,,
imu,413.671703,-0.8015247520000001,-9.176860257600001,3.0069141256,-2.8934567,0.2312741999999997,-0.7000176599999999,,,
imu,413.680512,-0.7758041816000001,-9.1750657992,3.0284476264,-2.48222665,0.1490281899999997,-0.96918642,,,
imu,413.689321,-0.7841783208,-9.207964203200001,3.0410088352,-2.05604278,0.06678217999999969,-1.38041647,,,
imu,413.69813,-0.8081044328000001,-9.252825663200001,3.0631404888,-1.86164312,-0.03041764999999996,-1.85893871,,,
imu,413.7066,-0.8236564056000001,-9.2964908176,3.0727109336,-1.75696638,-0.03789456000000024,-2.32250713,,,
imu,413.715069,-0.8511714344000001,-9.3108464848,3.087066600800001,-1.51770526,-0.05284837999999992,-2.79355246,,,
imu,413.723539,-0.8840698384000001,-9.3246039992,3.0858702952,-1.50275144,0.07425908999999997,-3.31693616,,,
imu,413.732009,-0.9241460760000001,-9.3108464848,3.0721127808,-1.36069015,0.3060432999999998,-3.75059694,,,
imu,413.740479,-0.9337165208000001,-9.285724067200002,3.074505392,-1.12890594,0.5378275100000001,-4.244073,,,
imu,413.748949,-0.9337165208000001,-9.2851259144,3.071514628,-0.70272207,0.72475026,-4.66277996,,,
imu,413.757419,-0.9666149248000001,-9.3108464848,3.0930481288,-0.25410747,0.9789651999999998,-5.216071299999999,,,
imu,413.765889,-0.9767835224000002,-9.352717180800001,3.101422268000001,0.23936859,1.2032725,-5.67963972,,,
imu,413.774359,-0.980970592,-9.3754469872,3.1008241152,0.7403215599999999,1.63693328,-5.98619303,,,
imu,413.782829,-0.9947281064000002,-9.4071490856,3.096637045600001,1.30108981,2.19022462,-6.098346680000001,,,
imu,413.791299,-1.0090837736,-9.426888128000002,3.098431504000001,1.72727368,2.72856214,-6.02357758,,,
imu,413.799768,-1.0126726904,-9.4633754488,3.0936462816,2.2656112,3.28933039,-5.69459354,,,
imu,413.808238,-1.0025040928,-9.4765348104,3.088861059200001,2.60207215,3.99215993,-5.48524006,,,
imu,413.816708,-0.9887465784000001,-9.486105255200002,3.063738641600001,2.84133327,4.68751256,-5.20859439,,,
imu,413.825178,-0.9642223136000001,-9.4831144912,3.044597752,3.08059439,5.15108098,-5.10391765,,,
imu,413.833648,-0.9241460760000001,-9.486703408,3.0350273072,3.589024269999999,5.55483412,-4.81979507,,,
imu,413.842118,-0.8936402832000001,-9.503451686400002,3.0457940576,4.01520814,5.99597181,-4.63287232,,,
imu,413.850588,-0.8625363376,-9.522592576000001,3.0302420848,4.38157673,6.32495585,-4.625395409999999,,,
imu,413.859058,-0.8110951968000001,-9.549509452,3.029643932,4.44886892,6.39972495,-4.6179185,,,
imu,413.867528,-0.7770004872000001,-9.565061424800001,3.0434014464,4.31428454,6.489447869999999,-4.49081103,,,
imu,413.875998,-0.7572614448000001,-9.567454036,3.0398125296,4.21708471,6.34738658,-4.29641137,,,
imu,413.884467,-0.7297464160000001,-9.5501076048,3.029643932,3.96286977,6.205325289999999,-3.96742733,,,
imu,413.892937,-0.7016332344,-9.5429297712,3.0344291544,3.49182444,6.063264,-3.55619728,,,
imu,413.901407,-0.6908664840000001,-9.5213962704,3.0230642512,3.24508641,5.86886434,-3.08515195,,,
imu,413.909903,-0.6800997336000001,-9.4938812416,3.0099048896,2.7889949,5.56231103,-2.62158353,,,
imu,413.918398,-0.6579680800000002,-9.478927421600002,3.0272513208,2.28056502,5.24828081,-1.99352309,,,
imu,413.926893,-0.6495939408000001,-9.455001309600002,3.0272513208,1.69736604,4.739850929999999,-1.64958523,,,
imu,413.935389,-0.648995788,-9.416719530400002,3.0278494736,1.10669015,4.07440594,-1.50004703,,,
imu,413.943884,-0.6615569968000001,-9.3802322096,3.054168196800001,0.65059864,3.28933039,-1.35798574,,,
imu,413.952379,-0.6980443176000002,-9.368269153600002,3.083477684,0.04496892999999999,2.60145467,-1.253309,,,
imu,413.960875,-0.7381205552000002,-9.3993730992,3.101422268000001,-0.33635348,2.27994754,-0.93927878,,,
imu,413.96937,-0.7829820152,-9.440047489600001,3.1397040472,-0.77749117,2.05564024,-0.6102947399999998,,,
imu,413.977865,-0.8350213088000001,-9.488497866400001,3.1905470352,-1.43545925,2.24256299,-0.1392494099999999,,,
imu,413.986361,-0.8661252544000001,-9.569248494400002,3.225838050400001,-1.77939711,2.69117759,0.30188828,,,
imu,413.994856,-0.8888550608000001,-9.6535880392,3.241988176,-2.08595042,3.25942275,0.8028412500000002,,,
imu,414.003351,-0.8721067824000002,-9.6912716656,3.262923524000001,-2.47474974,3.91739083,1.3636095,,,
imu,414.011847,-0.8691160184000001,-9.699047652,3.2844570248,-2.84111833,4.38095925,1.69259354,,,
imu,414.020342,-0.8613400320000001,-9.679308609600001,3.270101357600001,-2.8186876,5.0164966,2.13373123,,,
imu,414.028837,-0.8320305448000002,-9.6159044128,3.244978940000001,-2.86354906,5.569787939999999,2.21597724,,,
imu,414.037333,-0.8146841136000001,-9.5393408544,3.2222491336,-2.62428794,6.10812546,2.1860696,,,
imu,414.045828,-0.7895616960000001,-9.4669643656,3.1839673544,-2.0709966,6.489447869999999,2.08139286,,,
imu,414.054323,-0.7680281952000001,-9.409541696800002,3.161237548,-1.50275144,6.80347809,1.87203938,,,
imu,414.062819,-0.7351297912000001,-9.370063612000001,3.134320672,-0.74758353,7.222185049999999,1.63277826,,,
imu,414.071314,-0.7034276928000001,-9.347333805600002,3.123553921600001,0.11226112,7.39415398,1.23650203,,,
imu,414.079809,-0.6830904976000001,-9.343744888800002,3.109796407200001,0.8449983,7.54369218,0.8028412500000002,,,
imu,414.088305,-0.6519865520000001,-9.3545116392,3.101422268000001,1.48801256,7.66332274,0.3168421000000001,,,
imu,414.0968,-0.6196863008000001,-9.363483931200001,3.100225962400001,2.22822665,7.61098437,-0.1317724999999998,,,
imu,414.105295,-0.5945638832000001,-9.373054376,3.0840758368,2.74413344,7.44649235,-0.5654332799999999,,,
imu,414.113729,-0.5820026744000001,-9.391597112800001,3.074505392,3.27499405,7.364246339999999,-1.1785399,,,
imu,414.122164,-0.5933675776,-9.408943544000001,3.0667294056,3.4619168,7.13246213,-1.39537029,,,
imu,414.130598,-0.6346401208000001,-9.456795768000001,3.0882629064,3.64883955,7.04273921,-1.04395552,,,
imu,414.139032,-0.6717255944000001,-9.4908904776,3.0798887672,3.69370101,7.012831569999999,-0.7523560299999998,,,
imu,414.147514,-0.6771089696000001,-9.502255380800001,3.073309086400001,3.589024269999999,6.97544702,-0.4981410899999998,,,
imu,414.155948,-0.663949608,-9.5082369088,3.0673275584,3.43948607,6.98292393,-0.60281783,,,
imu,414.164382,-0.6525847048000001,-9.485507102400002,3.0451959048,3.40957843,6.82590882,-0.76730985,,,
imu,414.172817,-0.6412198016000001,-9.486105255200002,3.0188771816,3.42453225,6.624032249999999,-1.12620153,,,
imu,414.181251,-0.6149010784000001,-9.478927421600002,3.0021289032,3.42453225,6.37729422,-1.34303192,,,
imu,414.189685,-0.5879842024,-9.452010545600002,2.969828652,3.61893191,5.988494899999999,-1.53743158,,,
imu,414.198119,-0.5730303824,-9.430477044800002,2.9566692904,3.55911663,5.50249575,-1.8514618,,,
imu,414.206554,-0.5550857984,-9.436458572800001,2.9506877624,3.7609932,5.352957549999999,-1.90380017,,,
imu,414.214988,-0.5455153536,-9.4490197816,2.945304387200001,3.99277741,5.001542779999999,-1.90380017,,,
imu,414.223422,-0.5233837000000001,-9.481918185600001,2.9512859152,4.15726943,4.694989469999999,-1.94866163,,,
imu,414.231857,-0.5150095608,-9.4980683112,2.9530803736,4.2096078,4.30619015,-1.96361545,,,
imu,414.240291,-0.5090280328000001,-9.5184055064,2.9560711376,4.18717707,3.88748319,-2.04586146,,,
imu,414.248725,-0.5150095608,-9.533957479200001,2.959061901600001,4.16474634,3.61083752,-1.91875399,,,
imu,414.257159,-0.5168040192000001,-9.5668558832,2.966239735200001,4.03763887,3.33419185,-1.79164652,,,
imu,414.265594,-0.5126169496,-9.590183842400002,2.978800944,3.81333157,3.22951511,-1.76173888,,,
imu,414.274028,-0.5275707696,-9.594370912,2.9740157216,3.59650118,3.22951511,-1.58229304,,,
imu,412.776213,,,,,,,78.3213844,-29.97481000000002,119.734336
imu,412.877776,,,,,,,81.4464276,-30.48751240000001,117.1464096
imu,412.979338,,,,,,,78.724222,-29.7672876,119.3437056
imu,413.081633,,,,,,,81.50746360000001,-30.87814280000001,116.5482568
imu,413.182616,,,,,,,79.02940199999999,-30.01143160000002,119.429156
imu,413.284117,,,,,,,79.2247172,-29.77949480000002,119.4535704
imu,413.385619,,,,,,,79.1392668,-30.48751240000001,119.734336
imu,413.487151,,,,,,,79.16368119999998,-29.87715240000002,119.8197864
imu,414.282462,-0.5150095608,-9.599156134400001,2.979997249600001,3.36471697,3.21456129,-1.41780102,,,
imu,414.290897,-0.5090280328000001,-9.5985579816,2.993754764000001,2.998348379999999,3.38653022,-1.35798574,,,
imu,414.299331,-0.5042428104000001,-9.582407856000001,3.003325208800001,2.65441052,3.54354533,-1.28321664,,,
imu,414.307765,-0.4940742128000001,-9.558481744000002,3.0045215144,2.16093446,3.67812971,-1.44023175,,,
imu,414.316228,-0.4868963792000001,-9.572837411200002,3.0122975008,1.80951969,3.99963684,-1.58976995,,,
imu,414.32469,-0.4761296288000001,-9.590183842400002,3.029643932,1.47305874,4.194036499999999,-1.71687742,,,
imu,414.333152,-0.4539979752000001,-9.591978300800001,3.041606988,0.91229049,4.38095925,-1.87389253,,,
imu,414.341614,-0.4318663216,-9.562668813600002,3.0583552664,0.4861066199999999,4.62022037,-2.06081528,,,
imu,414.350077,-0.4085383624000001,-9.5447242296,3.061944183200001,0.01506129,4.85948149,-2.20287657,,,
imu,414.358539,-0.3804251808,-9.505246144800001,3.062542336,-0.25410747,4.92677368,-2.30755331,,,
imu,414.367001,-0.3559009160000001,-9.481320032800001,3.0553645024,-0.52327623,4.98658896,-2.40475314,,,
imu,414.375463,-0.3463304712,-9.462777296000002,3.0589534192,-0.62047606,4.8669584,-2.39727623,,,
imu,414.383926,-0.31403022,-9.440047489600001,3.051775585600001,-0.71767589,4.85200458,-2.29259949,,,
imu,414.392388,-0.2996745528,-9.425691822400001,3.063738641600001,-0.6503837,4.70246638,-2.3748455,,,
imu,414.40085,-0.3020671640000001,-9.4215047528,3.086468448,-0.60552224,4.216467229999999,-2.56924516,,,
imu,414.409312,-0.2889078024000001,-9.437654878400002,3.096637045600001,-0.66533752,3.8949601,-2.60662971,,,
imu,414.417775,-0.2877114968,-9.457393920800001,3.11039456,-0.60552224,3.54354533,-2.64401426,,,
imu,414.426237,-0.305057928,-9.479525574400002,3.1229557688,-0.67281443,3.25194584,-2.748691,,,
imu,414.434699,-0.3212080536,-9.475936657600002,3.116376088,-0.51579932,2.99025399,-2.91318302,,,
imu,414.443162,-0.3313766512,-9.460982837600001,3.1157779352,-0.51579932,2.50425484,-3.09262886,,,
imu,414.451624,-0.3421434016,-9.457393920800001,3.113385324,-0.32139966,2.22013226,-3.17487487,,,
imu,414.460086,-0.3499193880000001,-9.457992073600002,3.112189018400001,-0.18681528,1.93600968,-3.45899745,,,
imu,414.468548,-0.361882444,-9.453206851200001,3.1068056432,0.19450713,1.71917929,-3.66835093,,,
imu,414.477011,-0.3666676664,-9.4555994624,3.1020204208,0.58330645,1.40514907,-3.90761205,,,
imu,414.485473,-0.376836264,-9.453206851200001,3.100225962400001,0.8973366700000001,1.26308778,-4.22911918,,,
imu,414.493935,-0.3852104032000001,-9.454403156800002,3.0906555176,1.33099745,1.14345722,-4.41604193,,,
imu,414.502397,-0.391790084,-9.4460290176,3.082281378400001,1.73475059,0.9116730099999999,-4.81231816,,,
imu,414.51086,-0.4037531400000001,-9.462777296000002,3.0643367944,2.31047266,0.72475026,-5.10391765,,,
imu,414.519677,-0.4151180432000001,-9.460982837600001,3.0703183224,2.76656417,0.5527813299999997,-5.27588658,,,
imu,414.528494,-0.4151180432000001,-9.478927421600002,3.0643367944,3.33480933,0.4481045899999998,-5.50767079,,,
imu,414.53731,-0.4342589328000001,-9.498666464000001,3.063738641600001,3.56659354,0.2836125699999998,-5.62730135,,,
imu,414.546127,-0.4384460024000001,-9.513620284000002,3.0523737384,3.73856247,0.2237972899999998,-5.73197809,,,
imu,414.554944,-0.4504090584,-9.520199964800002,3.0481866688,3.90305449,0.02939763000000006,-5.82170101,,,
imu,414.563761,-0.454596128,-9.527377798400002,3.038616224000001,3.8357623,-0.23229422,-5.97123921,,,
imu,414.572578,-0.472540712,-9.522592576000001,3.011699348,3.70117792,-0.5089398900000002,-6.21050033,,,
imu,414.581395,-0.4916816016,-9.5154147424,2.9973436808,3.66379337,-0.6734319100000001,-6.337607799999999,,,
imu,414.590212,-0.5341504504000001,-9.507040603200002,2.9841843192,3.72360865,-0.76315483,-6.2628387,,,
imu,414.599029,-0.5485061176,-9.4873015608,2.978800944,3.74603938,-0.82297011,-6.36751544,,,
imu,414.607846,-0.5754229936,-9.477731116000001,2.972819416000001,3.69370101,-0.7781086500000001,-6.315177069999999,,,
imu,414.616663,-0.5945638832000001,-9.491488630400001,2.959061901600001,3.79837775,-0.6659550000000003,-6.292746339999999,,,
imu,414.62548,-0.6065269392000001,-9.5501076048,2.963847124,3.93296213,-0.6435242699999999,-6.404899990000001,,,
imu,414.634297,-0.61310662,-9.575230022400001,2.957865596,3.84323921,-0.6285704500000002,-6.397423079999999,,,
imu,414.643114,-0.62806044,-9.565061424800001,2.9542766792,3.70117792,-0.7108164600000002,-6.337607799999999,,,
imu,414.651931,-0.6232752176,-9.554294674400001,2.9614545128,3.611455,-0.8154932000000001,-6.315177069999999,,,
imu,414.660747,-0.6358364264000002,-9.553098368800002,2.9500896096,3.59650118,-0.8304470200000003,-6.180592689999999,,,
imu,414.669564,-0.6304530512000001,-9.577024480800002,2.949491456800001,3.64883955,-0.9575544899999997,-6.06096213,,,
imu,414.678381,-0.6244715232,-9.591380148,2.933939484000001,3.63388573,-0.94260067,-5.74693191,,,
imu,414.687198,-0.6424161072,-9.5842023144,2.94590254,3.48434753,-0.7930624700000002,-5.38056332,,,
imu,414.696015,-0.6454068712000001,-9.5740337168,2.9423136232,3.28994787,-0.6435242699999999,-5.08148692,,,
imu,414.704832,-0.6495939408000001,-9.585996772800002,2.942911776,2.78151799,-0.6360473600000001,-4.87961035,,,
imu,414.713649,-0.6543791632000001,-9.612315496,2.947696998400001,2.36281103,-0.4715553400000001,-4.52071867,,,
imu,414.722127,-0.6561736216000001,-9.6248767048,2.9656415824,1.89924261,-0.2173404000000003,-4.11696553,,,
imu,414.730604,-0.6591643856000001,-9.594370912,2.959061901600001,1.52539711,-0.2173404000000003,-3.7954584,,,
imu,414.739082,-0.6615569968000001,-9.562668813600002,2.9530803736,0.9197674,-0.04537147000000008,-3.48142818,,,
imu,414.747559,-0.6699311360000001,-9.545322382400002,2.9614545128,0.49358353,0.2312741999999997,-3.21225942,,,
imu,414.756037,-0.663949608,-9.546518688,2.9602582072,0.05244583999999999,0.4107200399999997,-3.0477674,,,
imu,414.764514,-0.6627533024,-9.547714993600001,2.971024957600001,-0.25410747,0.6798887999999996,-3.01038285,,,
imu,414.772992,-0.6717255944000001,-9.541135312800002,2.9764083328,-0.64290679,0.9415806499999997,-3.02533667,,,
imu,414.781469,-0.6585662328000002,-9.5291722568,2.978202791200001,-0.91955246,1.15093413,-3.07767504,,,
imu,414.789947,-0.6549773160000001,-9.527377798400002,3.0021289032,-1.10647521,1.47244126,-3.23469015,,,
imu,414.798424,-0.6477994824000001,-9.504647992000002,3.0021289032,-1.45788998,1.68927165,-3.50385891,,,
imu,414.806902,-0.6352382736000001,-9.4729458936,2.9913621528,-1.51022835,1.94348659,-3.60853565,,,
imu,414.815379,-0.6286585928,-9.455001309600002,2.9883713888,-1.3980747,2.15284007,-3.48142818,,,
imu,414.823857,-0.6286585928,-9.446627170400001,2.9871750832,-1.15881358,2.57154703,-3.48142818,,,
imu,414.832334,-0.6113121616,-9.426888128000002,2.9770064856,-0.85973718,2.81828506,-3.39170526,,,
imu,414.840812,-0.5903768136,-9.390998960000001,2.9644452768,-0.46346095,3.05006927,-3.30945925,,,
imu,414.849289,-0.5544876456000001,-9.360493167200001,2.963847124,-0.04475399000000001,3.30428421,-3.2720747,,,
imu,414.857767,-0.5275707696,-9.358100556000002,2.971024957600001,0.35152224,3.33419185,-3.43656672,,,
imu,414.866245,-0.5030465048,-9.364680236800002,2.9716231104,0.83004448,3.2968073,-3.5711511,,,
imu,414.874722,-0.4695499480000001,-9.3868118904,2.972819416000001,1.33847436,3.15474601,-3.8702275,,,
imu,414.8832,-0.4593813504000001,-9.393989724,2.975810180000001,1.61512003,2.87810034,-4.21416536,,,
imu,414.891677,-0.4420349192,-9.415523224800001,2.978800944,1.83195042,2.61640849,-4.52071867,,,
imu,414.900155,-0.4510072112,-9.4316733504,2.990764,2.04878081,2.29490136,-4.625395409999999,,,
imu,414.908632,-0.4504090584,-9.457992073600002,2.987773236,2.13850373,2.00330187,-4.670256869999999,,,
imu,414.91711,-0.4354552384000001,-9.495675700000001,2.996745528,2.39271867,1.68179474,-4.81231816,,,
imu,414.925575,-0.43366078,-9.4831144912,2.9925584584,2.31794957,1.15093413,-5.03662546,,,
imu,414.934039,-0.4468201416000001,-9.4980683112,2.9949510696,2.22822665,0.6948426199999997,-5.14877911,,,
imu,414.942504,-0.4462219888000001,-9.512423978400001,2.990764,2.34785721,0.2013665599999999,-5.35813259,,,
imu,414.950969,-0.4629702672000001,-9.526779645600001,2.9871750832,2.51234923,-0.23229422,-5.634778259999999,,,
imu,414.959434,-0.4791203928000001,-9.551303910400001,2.9925584584,2.72170271,-0.7781086500000001,-5.92637775,,,
imu,414.967899,-0.5048409632,-9.592576453600001,2.9913621528,2.82637945,-1.21924634,-6.19554651,,,
imu,414.976363,-0.5299633808,-9.623082246400001,2.984782472,3.00582529,-1.5631842,-6.382469260000001,,,
imu,414.984828,-0.56824516,-9.636839760800001,2.978202791200001,3.05068675,-1.9370297,-6.554438189999999,,,
imu,414.993293,-0.6029380224,-9.636241608,2.987773236,2.96844074,-2.11647554,-6.52453055,,,
imu,415.001758,-0.6268641344,-9.617100718400001,2.9734175688,2.97591765,-2.20619846,-6.27779252,,,
imu,415.010223,-0.6597625384000001,-9.609324732000001,2.9614545128,2.84133327,-1.98189116,-5.851608649999999,,,
imu,415.018687,-0.6795015808000001,-9.612913648800001,2.9560711376,2.7889949,-1.79496841,-5.283363489999999,,,
imu,415.027152,-0.6812960392000001,-9.5949690648,2.957865596,2.60207215,-1.47346128,-4.7674567,,,
imu,415.035617,-0.6842868032,-9.568052188800001,2.9542766792,2.21327283,-1.31644617,-4.43847266,,,
imu,415.044082,-0.6842868032,-9.572239258400002,2.9865769304,1.76465823,-1.00241595,-4.19173463,,,
imu,415.052547,-0.6729219000000001,-9.6009505928,3.0051196672,1.35342818,-0.71829337,-3.93004278,,,
imu,415.061012,-0.6651459136000001,-9.603343204000002,3.003325208800001,0.76275229,-0.6435242699999999,-3.78050458,,,
imu,415.069476,-0.648995788,-9.592576453600001,2.996147375200001,0.15712258,-0.37435551,-3.68330475,,,
imu,415.077941,-0.6561736216000001,-9.5632669664,2.9913621528,-0.25410747,-0.1276174800000001,-3.45152054,,,
imu,415.086406,-0.6585662328000002,-9.537546396000002,2.9829880136,-0.82235263,-0.03041764999999996,-3.33936689,,,
imu,415.094871,-0.6627533024,-9.499862769600002,2.982389860800001,-1.11395212,0.1191205499999999,-3.51133582,,,
imu,413.588784,,,,,,,78.6509788,-30.24336840000002,119.2094264
imu,413.690316,,,,,,,78.87070840000001,-29.87715240000002,119.6488856
imu,413.791878,,,,,,,79.6763836,-29.95039560000001,119.2216336
imu,413.893441,,,,,,,78.6143572,-29.66963000000003,119.6244712
imu,413.995034,,,,,,,81.2389052,-30.69503480000002,117.2074456
imu,414.096535,,,,,,,78.68760040000001,-29.5353508,119.2216336
imu,414.198128,,,,,,,81.04359000000001,-30.12129640000001,116.0599688
imu,414.299691,,,,,,,78.6143572,-29.49872920000001,119.5634352
imu,415.103336,-0.6633514552,-9.451412392800002,2.969828652,-1.27096723,0.1714589200000001,-3.48142818,,,
imu,415.1118,-0.6525847048000001,-9.431075197600002,2.9644452768,-1.28592105,0.2611818399999999,-3.48142818,,,
imu,415.120265,-0.6603606912000002,-9.419710294400002,2.954874832000001,-1.05413684,0.2611818399999999,-3.496382,,,
imu,415.12873,-0.6483976352,-9.396980488,2.952482220800001,-0.82235263,0.3060432999999998,-3.61601256,,,
imu,415.137195,-0.6615569968000001,-9.401167557600001,2.949491456800001,-0.38869185,0.3658585799999998,-3.69825857,,,
imu,415.14566,-0.6765108168000001,-9.418513988800001,2.9674360408,0.02253820000000001,0.3882893099999998,-3.88518132,,,
imu,415.154124,-0.6878757200000001,-9.426888128000002,2.9692304992,0.23936859,0.3658585799999998,-4.13939626,,,
imu,415.162589,-0.6932590952000001,-9.414925072,2.9704268048,0.5010604399999999,0.41819695,-4.244073,,,
imu,415.171054,-0.7082129152000001,-9.429878892000001,2.9704268048,0.9945364999999999,0.4555814999999996,-4.386134289999999,,,
imu,415.179519,-0.7100073736000001,-9.440645642400002,2.9776046384,1.33099745,0.4705353199999998,-4.625395409999999,,,
imu,415.187984,-0.726755652,-9.457393920800001,2.9841843192,1.55530475,0.52287369,-4.85717962,,,
imu,415.196449,-0.7411113192000001,-9.477731116000001,2.9811935552,1.74970441,0.5976427899999996,-5.08148692,,,
imu,415.204913,-0.7429057776,-9.4908904776,2.9943529168,2.0413039,0.8593346399999997,-5.20859439,,,
imu,415.213378,-0.7441020832,-9.516012895200001,2.9931566112,2.25065738,0.9565344699999998,-5.43290169,,,
imu,415.221843,-0.7345316384000001,-9.529770409600001,2.9973436808,2.13102682,0.98644211,-5.545055339999999,,,
imu,415.230308,-0.7411113192000001,-9.540537160000001,2.990764,2.18336519,0.9789651999999998,-5.61982444,,,
imu,415.238702,-0.7500836112000001,-9.5566872856,2.987773236,2.37776485,1.13598031,-5.70954736,,,
imu,415.247166,-0.7429057776,-9.557285438400001,2.9871750832,2.42262631,1.11354958,-5.73197809,,,
imu,415.255631,-0.7405131664000002,-9.5698466472,2.9889695416,2.48244159,1.11354958,-5.784316459999999,,,
imu,415.264096,-0.7375224024000001,-9.5704448,2.966239735200001,2.43010322,0.9116730099999999,-5.85908556,,,
imu,415.272561,-0.7488873056,-9.541733465600002,2.9423136232,2.3403803,0.80699627,-5.874039379999999,,,
imu,415.281026,-0.7644392784,-9.533957479200001,2.9441080816,2.53477996,0.8294269999999999,-5.88151629,,,
imu,415.28949,-0.7710189592000001,-9.514218436800002,2.9405191648,2.87124091,0.7097964399999999,-5.90394702,,,
imu,415.297955,-0.7710189592000001,-9.481320032800001,2.910611524800001,3.3123786,0.5527813299999997,-6.0385314,,,
imu,415.30642,-0.7638411256000001,-9.477731116000001,2.899246621600001,3.64136264,0.44062768,-5.93385466,,,
imu,415.314885,-0.7722152648000001,-9.460982837600001,2.87113344,4.01520814,0.27613566,-5.94880848,,,
imu,415.32335,-0.7614485144,-9.444832712,2.865151912,4.359146,0.1490281899999997,-5.99366994,,,
imu,415.33221,-0.7728134176000001,-9.426289975200001,2.856777772800001,4.71803768,0.1041667299999998,-5.85908556,,,
imu,415.341071,-0.7758041816000001,-9.420906600000002,2.8394313416,5.06197554,-0.0603252900000002,-5.829177919999999,,,
imu,415.349932,-0.7889635432000001,-9.423299211200002,2.835244272,5.20403683,-0.1126636599999999,-5.62730135,,,
imu,415.358793,-0.7811875568000001,-9.444234559200002,2.8406276472,5.31619048,-0.1201405700000002,-5.48524006,,,
imu,415.367653,-0.7758041816000001,-9.492684936000002,2.845412869600001,5.51059014,-0.2173404000000003,-5.38804023,,,
imu,415.376514,-0.7728134176000001,-9.538742701600002,2.844216564,5.22646756,-0.2397711300000003,-5.193640569999999,,,
imu,415.385375,-0.7728134176000001,-9.567454036,2.856777772800001,4.99468335,-0.03041764999999996,-4.715118329999999,,,
imu,415.394235,-0.7632429728000001,-9.595567217600001,2.877713120800001,4.48625347,-0.1201405700000002,-4.51324176,,,
imu,415.403096,-0.7632429728000001,-9.638036066400002,2.887283565600001,3.97782359,-0.1425713000000002,-4.244073,,,
imu,415.411957,-0.7470928472,-9.685888290400001,2.895059552,3.40210152,-0.0603252900000002,-4.11696553,,,
imu,415.420818,-0.7656355840000001,-9.731347903200001,2.905228149600001,2.66188743,0.02939763000000006,-3.95995042,,,
imu,415.429678,-0.7746078760000001,-9.7474980288,2.905228149600001,1.73475059,-0.09023292999999999,-3.60853565,,,
imu,415.438539,-0.7644392784,-9.722973764,2.9171912056,0.8973366700000001,-0.1575251200000003,-3.60853565,,,
imu,415.4474,-0.7578595976000001,-9.706225485600001,2.9183875112,0.19450713,-0.1799558500000003,-3.43656672,,,
imu,415.45626,-0.7740097232000002,-9.692467971200001,2.927957956,-0.36626112,-0.20986349,-3.39170526,,,
imu,415.465121,-0.7692245008,-9.703832874400002,2.9375284008,-0.94198319,-0.3594016900000003,-3.24964397,,,
imu,415.473982,-0.7752060288000001,-9.676317845600002,2.9273598032,-1.27844414,-0.1799558500000003,-2.95056757,,,
imu,415.482842,-0.8098988912000001,-9.633848996800001,2.9255653448,-1.33825942,-0.1650020300000001,-2.61410662,,,
imu,415.491703,-0.8194693360000002,-9.5842023144,2.905228149600001,-1.39059779,-0.01546383000000029,-2.14306129,,,
imu,415.500564,-0.8146841136000001,-9.519003659200001,2.8753205096,-1.40555161,0.1639820099999998,-1.8514618,,,
imu,415.509425,-0.8176748776000001,-9.432869656000001,2.8657500648,-1.23358268,0.44062768,-1.6271545,,,
imu,415.518285,-0.8027210576,-9.384419279200001,2.8543851616,-0.92702937,0.64250425,-1.49257012,,,
imu,415.527146,-0.7955432240000001,-9.364680236800002,2.852590703200001,-0.46346095,0.94905756,-1.49257012,,,
imu,415.535725,-0.7997302936000001,-9.373054376,2.8579740784,0.22441477,1.09111885,-1.52247776,,,
imu,415.544305,-0.804515516,-9.387410043200001,2.859170384,0.6954601,1.34533379,-1.67201596,,,
imu,415.552884,-0.7841783208,-9.3927934184,2.8789094264,0.97958268,1.47991817,-2.01595382,,,
imu,415.561463,-0.7877672376000001,-9.387410043200001,2.866348217600001,1.33099745,1.78647148,-2.17296893,,,
imu,415.570042,-0.7722152648000001,-9.4005694048,2.8615629952,1.79456587,2.04068642,-2.30755331,,,
imu,415.578622,-0.7734115704000001,-9.416719530400002,2.854983314400001,2.02635008,2.27994754,-2.47204533,,,
imu,415.587201,-0.7710189592000001,-9.420906600000002,2.845412869600001,2.37028794,2.59397776,-2.53933752,,,
imu,415.59578,-0.7536725280000001,-9.443038253600001,2.8543851616,2.66188743,2.79585433,-2.74121409,,,
imu,415.604359,-0.7363260968000002,-9.48072188,2.8484036336,3.04320984,3.11736146,-2.76364482,,,
imu,415.612939,-0.7231667352000001,-9.511227672800002,2.8484036336,3.26751714,3.23699202,-2.86084465,,,
imu,415.621518,-0.7129981376000001,-9.541135312800002,2.8537870088,3.36471697,3.25942275,-3.09262886,,,
imu,415.630097,-0.6956517064000001,-9.5704448,2.8609648424,3.31985551,3.28185348,-3.45899745,,,
imu,415.638676,-0.6896701784000001,-9.591380148,2.865151912,3.35724006,3.21456129,-3.47395127,,,
imu,415.647256,-0.6795015808000001,-9.617100718400001,2.8723297456,3.25256332,3.05754618,-3.66835093,,,
imu,415.655835,-0.6795015808000001,-9.633250844,2.8813020376,3.03573293,2.83323888,-3.90761205,,,
imu,415.664414,-0.6806978864000002,-9.664952942400001,2.8998447744,2.83385636,2.72108523,-4.034719519999999,,,
imu,415.672993,-0.6789034280000001,-9.694860582400002,2.9255653448,2.52730305,2.5491163,-4.02724261,,,
imu,415.681573,-0.6884738728,-9.7576666264,2.975810180000001,1.93662716,2.2500399,-4.21416536,,,
imu,415.690152,-0.6717255944000001,-9.837819101600003,3.0392143768,1.26370526,1.91357895,-4.25902682,,,
imu,415.698731,-0.6304530512000001,-9.9269438688,3.075103544800001,0.28423005,1.5023489,-4.49081103,,,
imu,415.70731,-0.5724322296000001,-9.9335235496,3.080486920000001,-0.82982954,1.02382666,-4.602964679999999,,,
imu,415.71589,-0.5335522976000001,-9.83961356,3.0553645024,-2.12333497,0.4032431299999999,-4.58801086,,,
imu,415.724469,-0.5479079648000001,-9.736731278400002,3.0350273072,-3.38693276,-0.4715553400000001,-4.430995749999999,,,
imu,415.733048,-0.6041343280000001,-9.6733270816,3.047588516000001,-4.24677741,-1.27158471,-4.19921154,,,
imu,415.741369,-0.6406216488000002,-9.611119190400002,3.0601497248,-4.85988403,-1.88469133,-3.98238115,,,
imu,415.74969,-0.6477994824000001,-9.568052188800001,3.0529718912,-5.15896043,-2.44545958,-4.17678081,,,
imu,415.758012,-0.6316493568000001,-9.522592576000001,3.044597752,-5.21877571,-2.97632019,-4.65530305,,,
imu,415.766333,-0.6454068712000001,-9.471749588000002,3.0350273072,-5.30102172,-3.70158046,-5.55253225,,,
imu,415.774654,-0.7076147624000001,-9.430477044800002,3.0439995992,-5.18139116,-4.3296409,-6.69649948,,,
imu,415.782975,-0.7859727792000001,-9.417915836,3.086468448,-4.88231476,-4.89040915,-7.75074379,,,
imu,415.791296,-0.8607418792,-9.434065961600002,3.1367132832,-4.43370016,-5.182008639999999,-9.21621815,,,
imu,415.799617,-0.9199590064000001,-9.464571754400001,3.1857618128,-4.32902342,-5.24182392,-11.0480611,,,
imu,415.807938,-0.9331183680000001,-9.507638756,3.179182132,-4.77016111,-5.137147179999999,-13.56030286,,,
imu,415.816259,-0.9277349928000002,-9.492684936000002,3.1480781864,-5.09914515,-4.65862494,-16.21460591,,,
imu,415.824581,-0.9379035904000002,-9.417915836,3.073309086400001,-5.57019048,-4.13524124,-18.53992492,,,
imu,415.832902,-0.9402962016,-9.3108464848,3.05057928,-5.8094516,-3.38755024,-19.99792237,,,
imu,415.841223,-0.9277349928000002,-9.249236746400001,3.05057928,-5.54028284,-2.55013632,-20.5437368,,,
imu,415.849544,-0.9079959504000001,-9.188823313600002,3.022466098400001,-4.95708386,-1.66038403,-20.58112135,,,
imu,415.857865,-0.8858642968000001,-9.1200357416,2.982389860800001,-4.10471612,-1.00241595,-19.93063018,,,
imu,415.866186,-0.8685178656000001,-9.060220461600002,2.9321450256,-2.98317962,-0.0603252900000002,-18.31561762,,,
imu,415.874507,-0.86732156,-9.0333035856,2.9237708864,-1.74948947,0.6051196999999999,-15.87814496,,,
imu,415.882828,-0.8703123240000001,-9.0476592528,2.924369039200001,-0.32139966,1.00887284,-12.95467315,,,
imu,415.89115,-0.8768920048000002,-9.058426003200001,2.8986484688,1.17398234,1.33037997,-9.79941713,,,
imu,415.899471,-0.9271368400000001,-9.0644075312,2.883096496000001,2.83385636,1.30794924,-6.748837849999999,,,
imu,415.907792,-0.998915176,-9.097904088000002,2.8962558576,4.57597639,1.34533379,-3.75807385,,,
imu,415.916113,-1.070693512,-9.171476882400002,2.9124059832,6.2283735,1.43505671,-0.8196482199999999,,,
imu,414.401436,,,,,,,78.29697,-29.14472040000003,118.4159584
imu,414.502816,,,,,,,78.44345640000002,-29.87715240000002,118.8065888
imu,414.604439,,,,,,,78.60215,-29.49872920000001,118.4892016
imu,414.705941,,,,,,,78.2603484,-29.24237800000002,119.1483904
imu,414.807473,,,,,,,78.3702132,-29.25458520000002,119.5023992
imu,414.909066,,,,,,,78.358006,-29.38886440000001,117.7933912
imu,415.010689,,,,,,,78.3824204,-29.54755800000002,118.8554176
imu,415.112252,,,,,,,80.9947612,-30.48751240000001,116.5360496
imu,415.924434,-1.1071808328,-9.247442288000002,2.9542766792,7.92563207,1.61450255,1.82717792,,,
imu,415.932755,-1.1107697496,-9.319818776800002,2.9853806248,9.241568229999999,1.69674856,3.71135924,,,
imu,415.941216,-1.127518028,-9.406550932800002,3.0045215144,10.07898215,1.62197946,4.862803380000001,,,
imu,415.949677,-1.133499556,-9.471749588000002,2.996147375200001,10.48273529,1.46496435,5.49086382,,,
imu,415.958138,-1.1281161808,-9.535153784800002,2.9901658472,10.63227349,1.43505671,5.89461696,,,
imu,415.966599,-1.1179475832,-9.5985579816,2.9644452768,10.5649813,1.41262598,5.67778657,,,
imu,415.97506,-1.1161531248,-9.6458120528,2.9231727336,10.28085872,1.47991817,5.386187079999999,,,
imu,415.983521,-1.1227328056,-9.697851346400002,2.892068788,9.764951929999999,1.59954873,5.206741239999999,,,
imu,415.991982,-1.1041900688,-9.727758986400001,2.8603666896,9.069599299999998,1.89862513,4.78803428,,,
imu,416.000443,-1.088638096,-9.7301515976,2.822084910400001,8.583600149999999,2.45939338,4.36932732,,,
imu,416.008904,-1.0700953592,-9.711608860800002,2.787392048000001,8.097601,2.8481927,3.76369761,,,
imu,416.017365,-1.0509544696,-9.680504915200002,2.7449231992,7.61907876,3.16222292,3.07582189,,,
imu,416.025826,-1.010878232,-9.672728928800002,2.7209970872,7.29757163,3.48373005,2.32065398,,,
imu,416.034287,-0.9869521200000001,-9.660765872800003,2.6683596408,7.20784871,3.820191,1.41594787,,,
imu,416.042748,-0.9606333968,-9.638634219200002,2.643835376000001,6.93867995,4.149175039999999,0.5710570399999999,,,
imu,416.051209,-0.9396980488000001,-9.632054538400002,2.628881556000001,6.94615686,4.47068217,-0.3037414299999999,,,
imu,416.05967,-0.9187627008000002,-9.633848996800001,2.6187129584,6.85643394,4.6426511,-1.27573973,,,
imu,416.068131,-0.9277349928000002,-9.654186192000001,2.643835376000001,6.75923411,4.70246638,-2.18792275,,,
imu,416.076592,-0.8798827688,-9.724768222400002,2.643835376000001,6.63960355,4.4183438,-3.44404363,,,
imu,416.085053,-0.8200674888,-9.790565030400002,2.634863084,6.42277316,4.16412886,-4.90204108,,,
imu,416.093514,-0.7638411256000001,-9.773218599200002,2.5547106088,6.10874294,3.54354533,-6.135731229999999,,,
imu,416.101975,-0.7458965416000001,-9.725964528,2.508652843200001,5.69751289,2.91548489,-6.9357606,,,
imu,416.110436,-0.7680281952000001,-9.696655040800001,2.4536227856,5.42086722,2.35471664,-7.17502172,,,
imu,416.118897,-0.8966310472000002,-9.722973764,2.4308929792,4.85262206,1.9509635,-6.905852959999999,,,
imu,416.127358,-1.0150653016,-9.812098531200002,2.4279022152,4.46382274,2.23508608,-5.4403786,,,
imu,416.135819,-1.0778713456,-9.928140174400001,2.4398652712,3.87314685,2.81828506,-3.66835093,,,
imu,416.144289,-1.1215365,-10.001114816,2.427304062400001,2.81142563,3.52859151,-1.75426197,,,
imu,416.152759,-1.1669961128,-10.0196575528,2.4111539368,1.25622835,4.410866889999999,-0.1093417699999999,,,
imu,416.161229,-1.1759684048,-10.0059000384,2.4332855904,-0.55318387,5.263234629999999,1.34865568,,,
imu,416.169699,-1.1370884728,-9.9131863544,2.4536227856,-2.32521154,6.033356359999999,2.36551544,,,
imu,416.178169,-1.10658268,-9.8461932408,2.4721655224,-3.7906859,6.6614168,2.84403768,,,
imu,416.186639,-1.0820584152,-9.789368724800001,2.467380300000001,-5.11409897,6.840862639999999,2.97114515,,,
imu,416.195108,-1.0671045952,-9.737927584000001,2.4685766056,-6.310404569999999,7.154892859999999,2.75431476,,,
imu,416.203578,-1.0479637056,-9.667345553600002,2.4769507448,-7.282402869999999,7.244615779999999,2.30570016,,,
imu,416.212048,-1.03181358,-9.5949690648,2.5164288296,-7.88055567,7.42406162,1.82717792,,,
imu,416.220518,-1.019850524,-9.537546396000002,2.543345705600001,-8.2020628,7.581076729999999,1.05705619,,,
imu,416.228988,-1.0162616072,-9.516611048000001,2.5547106088,-8.26187808,7.68575347,0.2495499100000003,,,
imu,416.237458,-0.9917373424000001,-9.4873015608,2.587609012800001,-7.970278589999999,8.007260599999999,-0.4158950799999999,,,
imu,416.245928,-0.9690075360000001,-9.477731116000001,2.6211055696,-7.850648029999999,8.25399863,-1.09629389,,,
imu,416.254398,-0.9492684936000001,-9.444234559200002,2.6510132096,-7.43941798,8.6801825,-1.53743158,,,
imu,416.262868,-0.9259405344000001,-9.429878892000001,2.6821171552,-6.803880629999999,9.13627401,-1.8514618,,,
imu,416.271338,-0.8870606024000001,-9.432869656000001,2.715613712000001,-6.32535839,9.46525805,-2.12063056,,,
imu,416.279807,-0.8475825176000001,-9.4346641144,2.7491102688,-5.91412834,9.80919591,-2.26269185,,,
imu,416.288277,-0.8021229048,-9.441841948000002,2.8029440208,-5.37579082,10.10827231,-2.53933752,,,
imu,416.296747,-0.7518780696000001,-9.458590226400002,2.8370387304,-5.02437605,10.37744107,-2.58419898,,,
imu,416.305217,-0.6956517064000001,-9.451412392800002,2.87113344,-4.59819218,10.57931764,-2.58419898,,,
imu,416.313687,-0.6519865520000001,-9.4753385048,2.913004136000001,-4.26173123,10.4746409,-2.76364482,,,
imu,416.322157,-0.6047324808000001,-9.486703408,2.954874832000001,-4.19443904,10.3998718,-2.77112173,,,
imu,416.330576,-0.5461135064000001,-9.504647992000002,2.997941833600001,-3.94770101,10.46716399,-2.42718387,,,
imu,416.339046,-0.5180003248000001,-9.533957479200001,3.0350273072,-3.94770101,10.25781051,-1.96361545,,,
imu,416.347863,-0.4779240872000001,-9.553696521600001,3.0691220168,-4.0897623,10.06341085,-1.7019236,,,
imu,416.35668,-0.4432312248,-9.580613397600002,3.1259465328,-4.493515439999999,9.69704226,-1.24583209,,,
imu,416.365497,-0.4049494456000001,-9.635045302400002,3.181574743200001,-4.79259184,9.38301204,-0.6476792899999999,,,
imu,416.374314,-0.370854736,-9.669738164800002,3.239595564800001,-5.360837,8.85962834,-0.1990646899999999,,,
imu,416.383131,-0.3361618736,-9.688280901600002,3.279671802400001,-6.11600491,8.4558752,0.2869344599999999,,,
imu,416.391948,-0.3337692624,-9.688280901600002,3.314364664800001,-6.89360355,7.79790712,0.81031816,,,
imu,416.400765,-0.3271895816000001,-9.6918698184,3.353842749600001,-7.64877146,7.20723123,1.04210237,,,
imu,416.409582,-0.3295821928000001,-9.693066124000001,3.3717873336,-8.54600066,6.564216969999999,1.46828624,,,
imu,416.418399,-0.3277877344,-9.665551095200001,3.3909282232,-9.525475870000001,5.831479789999999,1.64025517,,,
imu,416.427216,-0.3295821928000001,-9.624278552000002,3.411863571200001,-10.46756653,5.03892733,1.58043989,,,
imu,416.436033,-0.331974804,-9.577024480800002,3.423228474400001,-11.46947247,4.3435747,1.5131477,,,
imu,416.444849,-0.3427415544,-9.556089132800002,3.4238266272,-12.4639015,3.40896095,1.31127113,,,
imu,416.453666,-0.3672658192000001,-9.52558334,3.4405749056,-13.09943885,2.60893158,0.8850872600000002,,,
imu,416.462483,-0.382817792,-9.486105255200002,3.4447619752,-13.42842289,1.93600968,0.4962879400000002,,,
imu,416.4713,-0.4025568344,-9.4244955168,3.4489490448,-13.78731457,1.34533379,0.0626271599999999,,,
imu,416.480117,-0.4252866408000001,-9.374848834400002,3.453734267200001,-13.81722221,0.8593346399999997,-0.55047946,,,
imu,416.488934,-0.4444275304,-9.353315333600001,3.4525379616,-13.89199131,0.2686587499999997,-1.00657097,,,
imu,416.497751,-0.4665591840000001,-9.311444637600001,3.444163822400001,-13.61534564,0.02939763000000006,-1.47013939,,,
imu,416.506568,-0.4761296288000001,-9.260003496800001,3.446556433600001,-13.22654632,-0.09770984000000027,-1.82903107,,,
imu,416.515385,-0.4755314760000001,-9.210954967200001,3.451341656,-12.59100897,0.02192071999999978,-2.16549202,,,
imu,416.524202,-0.4707462536000001,-9.1852343968,3.4585194896,-11.7909796,0.2237972899999998,-2.41223005,,,
imu,416.533019,-0.4797185456,-9.166691660000001,3.470482545600001,-10.78907366,0.3658585799999998,-2.68139881,,,
imu,416.541836,-0.4761296288000001,-9.138578478400001,3.474669615200001,-9.7722139,0.72475026,-2.91318302,,,
imu,416.550311,-0.4617739616000001,-9.1062782272,3.4830437544,-8.85255397,0.8369039099999998,-3.13749032,,,
imu,416.558786,-0.4569887392,-9.0614167672,3.492614199200001,-7.74597129,1.18831868,-3.4216129,,,
imu,416.567261,-0.4456238360000001,-9.038088808000001,3.497997574400001,-6.68425007,1.34533379,-3.71321239,,,
imu,416.575736,-0.4354552384000001,-9.0225368352,3.5027827968,-5.60757503,1.45748744,-4.057150249999999,,,
imu,416.584211,-0.4169125016,-9.0339017384,3.5243162976,-4.62062291,1.59954873,-4.52071867,,,
imu,416.592686,-0.4103328208,-9.037490655200001,3.5458497984,-3.73834753,1.3528107,-5.021671639999999,,,
imu,416.601161,-0.4079402096,-9.0434721832,3.556018396000001,-2.71401086,1.2780416,-5.59739371,,,
imu,416.609636,-0.4234921824,-9.073977976,3.5745611328,-1.85416621,1.09859576,-5.95628539,,,
imu,416.618111,-0.4282774048000001,-9.087735490400002,3.585926036,-1.14385976,0.8518577299999999,-6.532007459999999,,,
imu,416.626586,-0.430670016,-9.118241283200001,3.606861384000001,-0.65786061,0.3658585799999998,-7.122683349999999,,,
imu,416.63506,-0.4450256832000001,-9.166093507200001,3.6056650784,-0.06718472,-0.06780220000000003,-7.66102087,,,
imu,416.643535,-0.4522035168,-9.205571592000002,3.620618898400001,0.52349117,-0.53884753,-8.109635469999999,,,
imu,416.65201,-0.4833074624000001,-9.2336847736,3.6325819544,1.01696723,-1.12204651,-8.5059117,,,
imu,416.660485,-0.5042428104000001,-9.2546201216,3.6439468576,1.49548947,-1.65290712,-8.9545263,,,
imu,416.66896,-0.5305615336,-9.3006778872,3.6343764128,1.83195042,-2.36321357,-9.14144905,,,
imu,416.677435,-0.5664507016000001,-9.343146736000001,3.645741316000001,2.04878081,-2.73705907,-9.268556519999999,,,
imu,416.68591,-0.5849934384000001,-9.334174444000002,3.615833676,2.37028794,-3.10342766,-9.41809472,,,
imu,416.694385,-0.5855915912,-9.294696359200001,3.600879856,2.58711833,-3.64176518,-9.63492511,,,
imu,416.70286,-0.5778156048000002,-9.267779483200002,3.588916800000001,2.69927198,-4.2548718,-9.99381679,,,
imu,416.711335,-0.5610673264,-9.252825663200001,3.572766674400001,3.05816366,-4.80068623,-10.53963122,,,
imu,416.71981,-0.5670488544000001,-9.256414580000001,3.5614017712,3.52173208,-5.43622358,-10.8985229,,,
imu,416.728285,-0.5640580904000001,-9.252825663200001,3.548840562400001,3.82080848,-6.056807109999999,-11.35461441,,,
imu,416.73676,-0.4868963792000001,-9.2486385936,3.5362793536,4.089977240000001,-6.954036309999999,-12.13968996,,,
imu,415.213692,,,,,,,78.4922852,-29.91377400000001,118.940868
imu,415.315254,,,,,,,81.00696839999999,-30.84152120000001,116.0233472
imu,415.416817,,,,,,,78.358006,-30.30440440000002,119.9418584
imu,415.518379,,,,,,,78.79746519999999,-29.96260280000001,118.1718144
imu,415.620033,,,,,,,78.541114,-29.84053080000002,120.0517232
imu,415.721535,,,,,,,78.56552839999999,-29.74287320000002,119.8197864
imu,415.823036,,,,,,,78.1993124,-30.24336840000002,120.222624
imu,415.924629,,,,,,,78.96836599999999,-30.52413400000002,118.7821744
imu,416.745235,-0.4258847936,-9.245647829600001,3.5362793536,4.374099820000001,-7.94846534,-13.3659032,,,
imu,416.753694,-0.4205014184,-9.258209038400002,3.5428590344,4.62831476,-9.10738639,-14.65940863,,,
imu,416.762152,-0.4450256832000001,-9.276751775200001,3.536877506400001,4.81523751,-10.22892289,-15.51177637,,,
imu,416.770611,-0.5239818528000001,-9.298285276000001,3.512353241600001,5.01711408,-11.03642917,-15.62393002,,,
imu,416.779069,-0.5963583416000001,-9.323407693600002,3.511156936,5.15917537,-11.60467433,-15.10802323,,,
imu,416.787528,-0.6531828576,-9.327594763200002,3.5015864912,5.15169846,-12.12805803,-14.5622088,,,
imu,416.795986,-0.7225685824,-9.340754124800002,3.506371713600001,5.02459099,-12.52433426,-13.85937926,,,
imu,416.804445,-0.7919543072000002,-9.344941194400002,3.517138464,5.16665228,-12.50938044,-12.7677504,,,
imu,416.812903,-0.8792846160000001,-9.339557819200001,3.5153440056,5.00963717,-12.51685735,-11.42938351,,,
imu,416.821361,-0.9761853696000001,-9.3664746952,3.52910152,4.93486807,-12.47199589,-9.94147842,,,
imu,416.82982,-1.0551415392,-9.401765710400001,3.5398682704,5.09188318,-12.41965752,-8.59563462,,,
imu,416.838278,-1.13649032,-9.401765710400001,3.517138464,5.3311443,-12.44208825,-7.578774859999999,,,
imu,416.846737,-1.1981000584,-9.343146736000001,3.4860345184,5.42086722,-12.53928808,-6.98062206,,,
imu,416.855195,-1.2286058512,-9.280938844800001,3.4597157952,5.69003598,-12.629011,-6.711453300000001,,,
imu,416.863654,-1.244157824,-9.218730953600001,3.456126878400001,6.3031426,-13.0028565,-6.599299649999999,,,
imu,416.872112,-1.2698783944,-9.176262104800001,3.402891279200001,6.96111068,-13.2271638,-6.61425347,,,
imu,416.880571,-1.2854303672,-9.184038091200001,3.4298081552,7.7985246,-13.49633256,-6.58434583,,,
imu,416.889029,-1.2967952704,-9.2546201216,3.4686880872,8.546215599999998,-13.69073222,-6.16563887,,,
imu,416.897488,-1.3057675624,-9.3174261656,3.4226303216,9.15932222,-13.69820913,-5.68711663,,,
imu,416.905946,-1.3003841872,-9.349726416800001,3.4351915304,9.38362952,-13.69073222,-5.328224949999999,,,
imu,416.914404,-1.262102408,-9.343146736000001,3.4507435032,9.56307536,-13.73559368,-4.759979789999999,,,
imu,416.922863,-1.2130538784,-9.343146736000001,3.435789683200001,9.77242884,-13.92999334,-4.06462716,,,
imu,416.931321,-1.1981000584,-9.324005846400002,3.3783670144,9.727567379999998,-13.93747025,-3.25712088,,,
imu,416.93978,-1.2028852808,-9.224114328800002,3.3233369568,9.959351589999999,-13.81783969,-2.29259949,,,
imu,416.948238,-1.2004926696,-9.150541534400002,3.2970182336,10.32572018,-13.69073222,-1.22340136,,,
imu,416.956704,-1.2058760448,-9.1331951032,3.27488658,10.87901152,-13.55614784,-0.01214194000000002,,,
imu,416.96517,-1.2339892264,-9.1224283528,3.2503623152,11.63417943,-13.39913273,1.04957928,,,
imu,416.973637,-1.2668876304,-9.1475507704,3.209089772,12.49402408,-12.98042577,1.87203938,,,
imu,416.982103,-1.3021786456,-9.190617772000001,3.1648264648,13.64546822,-12.4047037,2.62720729,,,
imu,416.990569,-1.3344788968,-9.204973439200002,3.1205631576,14.44549759,-11.90375073,3.27022155,,,
imu,416.999035,-1.3458438,-9.169084271200001,3.068523864000001,15.24552696,-11.08129063,3.62163632,,,
imu,417.007501,-1.399677552,-9.150541534400002,3.0332328488,16.34463273,-10.03452323,4.06277401,,,
imu,417.015967,-1.411640608,-9.212151272800002,3.023662404,17.39140013,-9.20458622,4.15249693,,,
imu,417.024433,-1.3841255792,-9.290509289600001,3.0158864176,18.59518264,-8.00828062,4.331942769999999,,,
imu,417.032899,-1.3631902312,-9.3377633608,2.980595402400001,19.44007347,-6.954036309999999,4.21231221,,,
imu,417.041365,-1.3434511888,-9.346735652800001,2.9321450256,19.82139588,-6.064284020000001,3.98800491,,,
imu,417.049831,-1.33088998,-9.3592968616,2.9046299968,20.1354261,-5.159577909999999,3.9057589,,,
imu,417.058297,-1.3243102992,-9.380830362400001,2.892068788,20.42702559,-4.33711781,3.6814516,,,
imu,417.066763,-1.3021786456,-9.410139849600002,2.8627593008,20.67376362,-3.38755024,3.59172868,,,
imu,417.07523,-1.2973934232,-9.448421628800002,2.87113344,20.89807092,-2.48284413,3.56182104,,,
imu,417.083696,-1.3195250768,-9.565061424800001,2.892068788,20.70367126,-1.50336892,3.50948267,,,
imu,417.092162,-1.2603079496,-9.599156134400001,2.853188856,20.12794919,-0.3220171400000003,3.65154396,,,
imu,417.100628,-1.22621324,-9.534555632000002,2.8537870088,19.7615806,0.5677351499999999,3.8309898,,,
imu,417.109094,-1.1975019056,-9.4753385048,2.880105732000001,19.79896515,1.42010289,3.55434413,,,
imu,417.11756,-1.2034834336,-9.520798117600002,2.8519925504,19.84382661,2.3995781,3.21040627,,,
imu,417.126026,-1.2076705032,-9.5740337168,2.7718400752,19.78401133,3.3715764,3.20292936,,,
imu,417.134492,-1.178361016,-9.499264616800001,2.700659892,19.76905751,4.433297619999999,3.44966739,,,
imu,417.142958,-1.1496496816,-9.370063612000001,2.6534058208,19.90364189,5.59969558,3.37489829,,,
imu,417.151424,-1.1358921672,-9.291107442400001,2.597179457600001,20.50179469,6.63150916,3.04591425,,,
imu,417.159897,-1.0659082896,-9.279144386400002,2.497287940000001,21.56351591,7.603507459999999,2.61973038,,,
imu,417.168369,-0.9857558144000002,-9.2617979552,2.4290985208,22.73739078,8.485782839999999,2.23093106,,,
imu,417.176842,-0.9157719368000001,-9.274957316800002,2.383040755200001,24.00846548,9.11384328,1.67016281,,,
imu,417.185314,-0.8571529624000002,-9.3443430416,2.3100661136,24.90569468,9.5026426,1.09444074,,,
imu,417.193786,-0.7901598488000001,-9.444832712,2.2023986096,25.48141675,9.69704226,0.6308723199999999,,,
imu,417.202259,-0.7566632920000002,-9.554892827200002,2.0779828272,25.97489281,9.77181136,0.05515025000000007,,,
imu,417.210731,-0.7225685824,-9.6745233872,1.9972321992,26.10200028,9.667134619999999,-0.63272547,,,
imu,417.219204,-0.6884738728,-9.7953502528,1.949978128,25.85526225,9.510119509999999,-1.20097063,,,
imu,417.227676,-0.6346401208000001,-9.917971576800003,1.9069111264,25.10757125,9.300766029999998,-1.74678506,,,
imu,417.236149,-0.5837971328000001,-10.0382002896,1.8710219584,24.2477266,8.92692053,-2.00847691,,,
imu,417.244621,-0.5467116592000001,-10.1153620008,1.8177863592,22.75982151,8.575505759999999,-2.19539966,,,
imu,417.253094,-0.5281689224000001,-10.1703920584,1.773523052,21.09994749,8.2315679,-2.17296893,,,
imu,417.261566,-0.5120187968000001,-10.2098701432,1.7322505088,19.3877351,7.82781476,-1.87389253,,,
imu,417.270038,-0.4922797544,-10.2146553656,1.6975576464,17.67552271,7.31190797,-1.64958523,,,
imu,417.278511,-0.4719425592000001,-10.1961126288,1.6796130624,16.26238672,6.840862639999999,-1.0290017,,,
imu,417.286983,-0.4510072112,-10.1859440312,1.650901728,14.65485107,6.23523293,-0.7224483899999998,,,
imu,417.295456,-0.4384460024000001,-10.177569892,1.6227885464,13.13703834,5.51744957,-0.62524856,,,
imu,417.303928,-0.4294737104000001,-10.156634544,1.60005874,12.02297875,4.85200458,-0.37103362,,,
imu,417.312401,-0.4384460024000001,-10.132708432,1.5863012256,10.64722731,4.05945212,-0.1392494099999999,,,
imu,417.320873,-0.4522035168,-10.099810028,1.5725437112,9.4434448,3.3715764,0.07758098000000002,,,
imu,417.329346,-0.4677554896000001,-10.096819264,1.5749363224,8.493877229999999,2.73603905,0.1972115400000001,,,
imu,417.337818,-0.4892889904,-10.0830617496,1.5755344752,7.70132477,2.04068642,0.21964227,,,
imu,417.34629,-0.5006538936,-10.0806691384,1.5719455584,6.69194192,1.36028761,-0.09438795,,,
imu,417.354763,-0.5180003248000001,-10.037003984,1.55519728,5.88443564,0.7097964399999999,-0.2289723299999999,,,
imu,417.363571,-0.5323559920000001,-9.9819739264,1.5737400168,5.03954481,0.06678217999999969,-0.55047946,,,
imu,416.026161,,,,,,,78.541114,-30.82931400000002,119.5878496
imu,416.127754,,,,,,,80.81165320000001,-31.94016920000002,118.8065888
imu,416.229378,,,,,,,79.0660236,-30.63399880000002,120.2104168
imu,416.330879,,,,,,,80.8238604,-30.68282760000001,117.414968
imu,416.432442,,,,,,,78.16269080000001,-28.96161240000001,118.696724
imu,416.534065,,,,,,,78.2603484,-27.65544200000001,116.072176
imu,416.636391,,,,,,,78.60215,-27.10611800000002,118.4281656
imu,416.73716,,,,,,,78.3946276,-27.22819000000001,118.4647872
imu,416.83875,,,,,,,78.2603484,-28.3512524,118.9286608
imu,416.94016,,,,,,,78.79746519999999,-29.21796360000002,120.0028944
imu,417.041722,,,,,,,79.72521239999999,-29.99922440000002,120.0761376
imu,417.143285,,,,,,,80.3477796,-30.70724200000001,121.565416
imu,417.244908,,,,,,,82.85025560000001,-32.45287160000001,119.2216336
imu,417.346684,,,,,,,79.6763836,-32.35521400000001,121.1137496
