Type,Timestamp,Data Accelerometer X,Data Accelerometer Y,Data Accelerometer Z,Data Gyroscope X,Data Gyroscope Y,Data Gyroscope Z,Data Magnetometer X,Data Magnetometer Y,Data Magnetometer Z
imu,421.484388,-0.1369769912,-9.807313308800001,1.6682481592,0.83004448,2.36967046,-4.11696553,,,
imu,421.492885,-0.1357806856,-9.803724392000001,1.6646592424,0.6954601,2.20517844,-4.33379592,,,
imu,421.501382,-0.1471455888,-9.782789044000001,1.6652573952,0.6281679099999999,2.21265535,-4.31136519,,,
imu,421.509878,-0.1501363528,-9.7534795568,1.6700426176,0.56087572,1.98834805,-4.22164227,,,
imu,421.518367,-0.143556672,-9.7510869456,1.6610703256,0.59078336,1.88367131,-4.079580979999999,,,
imu,421.526856,-0.1453511304,-9.7474980288,1.6580795616,0.80013684,1.90610204,-4.012288789999999,,,
imu,421.535345,-0.1513326584,-9.7612555432,1.6622666312,0.9048135799999999,1.75656384,-3.96742733,,,
imu,421.543833,-0.146547436,-9.772620446400001,1.668846312,0.9048135799999999,1.75656384,-3.81788913,,,
imu,421.552322,-0.1489400472,-9.758264779200001,1.6592758672,0.82256757,1.59207182,-3.67582784,,,
imu,421.560811,-0.146547436,-9.760059237600002,1.6694444648,0.9870595899999999,1.59954873,-3.44404363,,,
imu,421.5693,-0.1537252696,-9.7714241408,1.6724352288,0.9870595899999999,1.58459491,-3.43656672,,,
imu,421.577788,-0.1519308112,-9.7786019744,1.6754259928,1.09173633,1.53973345,-3.51133582,,,
imu,421.586277,-0.146547436,-9.797144711200001,1.6784167568,1.11416706,1.4275798,-3.60853565,,,
imu,421.594766,-0.1591086448,-9.791761336000002,1.6814075208,1.10669015,1.49487199,-3.54872037,,,
imu,421.603255,-0.1788476872,-9.788770572,1.68978166,0.91229049,1.36776452,-3.66835093,,,
imu,421.611743,-0.1836329096,-9.7845835024,1.6969594936,0.97958268,1.3528107,-3.72816621,,,
imu,421.620232,-0.2027737992,-9.752283251200002,1.6969594936,0.9272443100000001,1.41262598,-3.62348947,,,
imu,421.628721,-0.2261017584,-9.734338667200001,1.680809368,0.73284465,1.45748744,-3.69825857,,,
imu,421.63721,-0.2416537312,-9.719983000000001,1.6843982848,0.6281679099999999,1.50982581,-3.56367419,,,
imu,421.645699,-0.2458408008,-9.709216249600003,1.683800132,0.8524752099999999,1.86871749,-3.26459779,,,
imu,421.654187,-0.2368685088,-9.7163940832,1.6790149096,1.03192105,2.28742445,-3.21973633,,,
imu,421.662676,-0.2171294664,-9.718786694400002,1.6969594936,1.18145925,2.56407012,-3.05524431,,,
imu,421.671165,-0.2027737992,-9.745105417600001,1.6909779656,1.30856672,2.93791562,-2.94309066,,,
imu,421.679654,-0.1638938672,-9.758862932000001,1.6945668824,1.5179202,3.21456129,-2.88327538,,,
imu,421.688142,-0.11963056,-9.789368724800001,1.6921742712,1.54035093,3.30428421,-3.03281358,,,
imu,421.696631,-0.08194693360000001,-9.7995373224,1.6939687296,1.55530475,3.4463455,-3.18235178,,,
imu,421.70512,-0.06041343280000001,-9.800135475200001,1.698753952,1.60016621,3.3715764,-3.15992105,,,
imu,421.713609,-0.04486146000000001,-9.802528086400002,1.6981557992,1.49548947,3.22951511,-3.23469015,,,
imu,421.722097,-0.0293094872,-9.809107767200002,1.6903798128,1.47305874,2.94539253,-3.43656672,,,
imu,421.730824,-0.0245242648,-9.802528086400002,1.6849964376,1.368382,2.51173175,-3.43656672,,,
imu,421.739551,-0.03289840400000001,-9.767835224,1.680809368,1.45810492,2.14536316,-3.45899745,,,
imu,421.748278,-0.0466559184,-9.767835224,1.680809368,1.33847436,1.78647148,-3.56367419,,,
imu,421.757004,-0.068787572,-9.8013317808,1.6832019792,1.55530475,1.53225654,-3.60105874,,,
imu,421.765731,-0.08314323920000001,-9.802528086400002,1.6933705768,1.52539711,1.33037997,-3.61601256,,,
imu,421.774458,-0.1232194768,-9.773816752000002,1.6921742712,1.39081273,1.23318014,-3.65339711,,,
imu,421.783184,-0.1597067976,-9.768433376800001,1.7023428688,1.48801256,1.16588795,-3.77302767,,,
imu,421.79192,-0.1866236736,-9.797742864000002,1.67482784,1.48053565,0.94905756,-3.85527368,,,
imu,421.800647,-0.227298064,-9.766040765600001,1.6706407704,1.33099745,1.12102649,-3.77302767,,,
imu,421.809373,-0.2398592728,-9.714599624800002,1.6616684784,1.27865908,1.28551851,-3.66087402,,,
imu,421.8181,-0.2219146888,-9.70502918,1.6461165056,1.30108981,1.58459491,-3.43656672,,,
imu,421.826827,-0.2081571744,-9.737329431200001,1.6532943392,1.60016621,1.94348659,-3.11505959,,,
imu,421.835553,-0.2111479384,-9.769629682400002,1.6497054224,1.71231986,2.324809,-2.748691,,,
imu,421.84428,-0.1932033544,-9.777405668800002,1.647910964,1.90671952,2.75846978,-2.39727623,,,
imu,421.853007,-0.140565908,-9.802528086400002,1.6550887976,1.82447351,3.12483837,-2.14306129,,,
imu,421.861733,-0.08912476720000001,-9.818678212000002,1.6461165056,1.90671952,3.33419185,-2.40475314,,,
imu,421.87046,-0.06460050240000001,-9.8210708232,1.6455183528,1.79456587,3.43139168,-2.85336774,,,
imu,421.879187,-0.03289840400000001,-9.803126239200001,1.6413312832,1.71979677,3.2968073,-3.24216706,,,
imu,421.887914,-0.005981528000000001,-9.801929933600002,1.6431257416,1.63007385,3.10988455,-3.72816621,,,
imu,421.89664,-0.0017944584,-9.798341016800002,1.6353497552,1.47305874,2.85566961,-4.02724261,,,
imu,421.905367,-0.0107667504,-9.7780038216,1.6257793104,1.34595127,2.36219355,-4.07210407,,,
imu,421.914094,-0.01495382,-9.7540777096,1.6275737688,1.35342818,2.01077878,-3.84779677,,,
imu,421.92282,-0.0251224176,-9.743909112,1.6162088656,1.32352054,1.66684092,-3.59358183,,,
imu,421.931295,-0.0376836264,-9.749890640000002,1.6263774632,1.47305874,1.2780416,-3.38422835,,,
imu,421.93977,-0.0753672528,-9.767835224,1.6341534496,1.55530475,1.04625739,-3.24216706,,,
imu,421.948245,-0.09450814240000002,-9.786377960800001,1.6335552968,1.58521239,1.02382666,-3.36179762,,,
imu,421.95672,-0.09749890640000002,-9.7989391696,1.6467146584,1.65998149,0.9714882899999999,-3.71321239,,,
imu,421.965195,-0.1190324072,-9.805518850400002,1.6473128112,1.57773548,0.84438082,-4.079580979999999,,,
imu,421.97367,-0.1303973104,-9.824659740000001,1.6467146584,1.47305874,1.09111885,-4.27398064,,,
imu,421.982145,-0.1399677552,-9.820472670400001,1.6497054224,1.2188438,1.25561087,-4.51324176,,,
imu,421.99062,-0.1351825328,-9.8079114616,1.6664537008,1.06182869,1.17336486,-4.72259524,,,
imu,421.999095,-0.1477437416,-9.8013317808,1.6652573952,0.8524752099999999,1.29299542,-4.83474889,,,
imu,422.00757,-0.1495382,-9.785181655200002,1.6652573952,0.6954601,1.47244126,-4.8422258,,,
imu,422.016045,-0.1561178808,-9.7702278352,1.6574814088,0.58330645,1.46496435,-4.78988743,,,
imu,422.02452,-0.1537252696,-9.755872168000002,1.6700426176,0.8973366700000001,1.58459491,-4.363703559999999,,,
imu,422.032995,-0.140565908,-9.748096181600001,1.6652573952,0.91229049,1.65936401,-4.16182699,,,
imu,422.04147,-0.1268083936,-9.751685098400001,1.6664537008,1.05435178,1.54721036,-3.91508896,,,
imu,422.049945,-0.1280046992,-9.744507264800001,1.6676500064,1.15155161,1.59954873,-3.54124346,,,
imu,422.05842,-0.1034804344,-9.793555794400001,1.68978166,1.34595127,1.74908693,-3.29450543,,,
imu,422.066895,-0.08852661440000001,-9.842006171200001,1.6802112152,1.27118217,1.68927165,-3.21973633,,,
imu,422.07537,-0.06699311360000001,-9.825856045600002,1.6921742712,0.94967504,1.34533379,-3.39918217,,,
imu,422.083845,-0.0855358504,-9.8013317808,1.6933705768,0.9646288599999999,1.21074941,-3.41413599,,,
imu,422.09232,-0.06460050240000001,-9.7815927384,1.6909779656,0.85995212,1.21822632,-3.37675144,,,
imu,422.100795,-0.0783580168,-9.7845835024,1.6802112152,0.8823828499999999,1.09111885,-3.48142818,,,
imu,422.10927,-0.1058730456,-9.76484446,1.6915761184,0.88985976,0.9415806499999997,-3.40665908,,,
imu,422.117745,-0.1118545736,-9.749890640000002,1.6951650352,0.78518302,0.8294269999999999,-3.21225942,,,
imu,422.12622,-0.09450814240000002,-9.7534795568,1.6879872016,0.9272443100000001,1.00887284,-3.05524431,,,
imu,422.134685,-0.1088638096,-9.7576666264,1.6796130624,1.10669015,1.00139593,-3.18982869,,,
imu,422.14315,-0.1268083936,-9.7540777096,1.683800132,1.36090509,1.00887284,-3.35432071,,,
imu,422.151614,-0.1333880744,-9.748694334400001,1.686790896,1.61512003,1.15093413,-3.496382,,,
imu,422.160079,-0.1447529776,-9.748694334400001,1.6784167568,1.78708896,1.07616503,-3.69078166,,,
imu,422.168544,-0.158510492,-9.766040765600001,1.6694444648,1.92915025,1.14345722,-3.80293531,,,
imu,422.177009,-0.1686790896,-9.755274015200001,1.6736315344,2.01887317,1.33785688,-3.53376655,,,
imu,422.185474,-0.1716698536,-9.754675862400001,1.6610703256,2.18336519,1.55468727,-3.25712088,,,
imu,422.193938,-0.1603049504,-9.783387196800001,1.6556869504,2.2656112,1.8014253,-2.94309066,,,
imu,422.202403,-0.146547436,-9.7995373224,1.6610703256,2.37776485,2.04068642,-2.65896808,,,
imu,422.210868,-0.1292010048,-9.806715156000001,1.6634629368,2.31047266,2.20517844,-2.74121409,,,
imu,422.219333,-0.09630260080000001,-9.824659740000001,1.6562851032,2.25065738,2.19770153,-2.70382954,,,
imu,422.227798,-0.07118018320000001,-9.824061587200001,1.6467146584,1.98896553,2.20517844,-2.86084465,,,
imu,422.236263,-0.05802082160000001,-9.810304072800001,1.6443220472,1.92167334,2.10797861,-2.94309066,,,
imu,422.244727,-0.05443190480000001,-9.802528086400002,1.6610703256,1.83195042,1.79394839,-3.10758268,,,
imu,422.253192,-0.0562263632,-9.789368724800001,1.6413312832,1.6674584,1.74908693,-3.2720747,,,
imu,422.261657,-0.07775986400000001,-9.761853696000001,1.6407331304,1.49548947,1.5023489,-3.54872037,,,
imu,422.270122,-0.08433954480000001,-9.7636481544,1.6407331304,1.41324346,1.18831868,-3.72816621,,,
imu,422.278587,-0.1088638096,-9.7702278352,1.6413312832,1.41324346,0.9714882899999999,-3.84779677,,,
imu,422.287051,-0.1387714496,-9.772620446400001,1.6562851032,1.38333582,1.00139593,-3.74312003,,,
imu,422.295516,-0.1477437416,-9.7989391696,1.6610703256,1.40576655,1.12102649,-3.56367419,,,
imu,422.303981,-0.1573141864,-9.815089295200002,1.6574814088,1.19641307,1.24813396,-3.45152054,,,
imu,422.312446,-0.1483418944,-9.803126239200001,1.665855548,1.1440747,1.50982581,-3.48142818,,,
imu,422.320911,-0.1303973104,-9.7989391696,1.6640610896,1.12912088,1.64441019,-3.54872037,,,
imu,422.329375,-0.09989151760000002,-9.785779808000001,1.6784167568,1.05435178,1.85376367,-3.84031986,,,
imu,422.337844,-0.092713684,-9.777405668800002,1.6754259928,1.15902852,1.89114822,-3.82536604,,,
imu,422.346313,-0.04605776560000001,-9.755274015200001,1.668846312,1.09173633,1.89862513,-3.85527368,,,
imu,422.354781,-0.02871133440000001,-9.725964528,1.6760241456,0.9646288599999999,1.45001053,-4.04219643,,,
imu,422.36325,-0.0251224176,-9.710412555200001,1.6694444648,1.18145925,1.12102649,-4.18425772,,,
imu,422.371719,-0.04486146000000001,-9.725366375200002,1.6604721728,1.49548947,0.84438082,-4.22164227,,,
imu,422.380187,-0.09630260080000001,-9.7325442088,1.6616684784,1.42072037,0.5303505999999998,-4.33379592,,,
imu,422.388656,-0.1178361016,-9.7427128064,1.6706407704,1.5926893,0.3434278499999999,-4.33379592,,,
imu,422.397125,-0.146547436,-9.745105417600001,1.6694444648,1.75718132,0.2611818399999999,-4.22911918,,,
imu,422.405593,-0.167482784,-9.7492924872,1.6574814088,2.12354991,0.2013665599999999,-4.25154991,,,
imu,422.414062,-0.1920070488,-9.748096181600001,1.653892492,2.28804193,0.33595094,-4.32631901,,,
imu,422.42253,-0.2177276192,-9.745105417600001,1.6580795616,2.24318047,0.5976427899999996,-4.318842099999999,,,
imu,422.430999,-0.2177276192,-9.767835224,1.6520980336,2.37028794,0.98644211,-4.28893446,,,
imu,422.439468,-0.215335008,-9.787574266400002,1.638938672,2.61702597,1.31542615,-4.22911918,,,
imu,422.447936,-0.2129423968,-9.772620446400001,1.6305645328,2.48244159,1.60702564,-4.23659609,,,
imu,422.456405,-0.2075590216,-9.782789044000001,1.6186014768,2.51982614,1.8014253,-4.32631901,,,
imu,422.464874,-0.1836329096,-9.7923594888,1.6066384208,2.57216451,1.90610204,-4.37865738,,,
imu,421.501204,,,,,,,73.3896756,1.361072399999985,0.05494719999998843
imu,421.602767,,,,,,,74.46390920000002,1.348865199999993,-1.007079200000005
imu,421.712142,,,,,,,73.3286396,1.239000399999979,-0.8972144000000015
imu,421.813704,,,,,,,75.3794492,0.07931639999998463,-3.106717600000009
imu,422.473342,-0.1788476872,-9.815089295200002,1.6012550456,2.70674889,1.96591732,-4.34874974,,,
imu,422.481811,-0.1836329096,-9.837220948800002,1.612021796,2.76656417,2.08554788,-4.22911918,,,
imu,422.490279,-0.1926052016,-9.836024643200002,1.6078347264,2.65441052,2.12293243,-3.84779677,,,
imu,422.498748,-0.1818384512,-9.836024643200002,1.5982642816,2.60207215,2.1752708,-3.55619728,,,
imu,422.507217,-0.1902125904,-9.834230184800003,1.60005874,2.44505704,2.33976282,-3.37675144,,,
imu,422.515685,-0.1997830352,-9.8479876992,1.5988624344,2.29551884,2.36219355,-3.20478251,,,
imu,422.524154,-0.1920070488,-9.836024643200002,1.588095684,2.10859609,2.36967046,-3.16739796,,,
imu,422.532623,-0.1788476872,-9.820472670400001,1.6036476568,1.86933497,2.52668557,-3.02533667,,,
imu,422.541085,-0.1638938672,-9.802528086400002,1.582114156,1.65998149,2.70613141,-3.01038285,,,
imu,422.549547,-0.1477437416,-9.8013317808,1.5964698232,1.48801256,2.78837742,-3.00290594,,,
imu,422.558009,-0.1244157824,-9.8013317808,1.603049504,1.19641307,2.71360832,-3.10010577,,,
imu,422.566472,-0.1148453376,-9.7989391696,1.5976661288,1.12164397,2.81080815,-3.0477674,,,
imu,422.574934,-0.1100601152,-9.801929933600002,1.6102273376,1.20388998,2.93043871,-2.87579847,,,
imu,422.583396,-0.0855358504,-9.802528086400002,1.5982642816,0.94967504,2.91548489,-2.90570611,,,
imu,422.591858,-0.05562821040000001,-9.803724392000001,1.606040268,0.97958268,2.81080815,-2.9729983,,,
imu,422.600321,-0.0562263632,-9.779798280000001,1.5982642816,0.9571519499999999,2.65379304,-3.05524431,,,
imu,422.608783,-0.0502448352,-9.783985349600002,1.6126199488,1.12164397,2.51173175,-3.00290594,,,
imu,422.617245,-0.0502448352,-9.801929933600002,1.626975616,1.28613599,2.31733209,-3.04029049,,,
imu,422.625708,-0.068787572,-9.787574266400002,1.620994088,1.20388998,2.04816333,-3.14496723,,,
imu,422.63417,-0.092713684,-9.727160833600001,1.6371442136,0.97958268,1.73413311,-3.4216129,,,
imu,422.642632,-0.116639796,-9.735534972800002,1.6503035752,0.9197674,1.61450255,-3.61601256,,,
imu,422.651094,-0.1387714496,-9.7780038216,1.6491072696,1.10669015,1.63693328,-3.78798149,,,
imu,422.659557,-0.1626975616,-9.800733628000001,1.650901728,1.33099745,1.62197946,-3.80293531,,,
imu,422.668019,-0.1949978128,-9.758264779200001,1.6485091168,1.02444414,1.80890221,-3.78050458,,,
imu,422.676481,-0.1806421456,-9.739722042400002,1.6443220472,1.15902852,1.95844041,-3.60853565,,,
imu,422.684943,-0.1573141864,-9.766040765600001,1.6425275888,1.64502767,2.27247063,-3.3468438,,,
imu,422.693406,-0.1549215752,-9.796546558400001,1.6227885464,1.77213514,2.5491163,-3.05524431,,,
imu,422.701868,-0.1309954632,-9.779798280000001,1.6341534496,1.83195042,2.81828506,-2.63653735,,,
imu,422.71033,-0.09510629520000001,-9.763050001600002,1.6275737688,1.8917657,2.93791562,-2.56176825,,,
imu,422.718793,-0.0663949608,-9.7815927384,1.61501256,2.10859609,3.00520781,-2.5243837,,,
imu,422.727255,-0.03110394560000001,-9.797742864000002,1.6168070184,2.23570356,2.93791562,-2.95056757,,,
imu,422.735717,0.0005981528000000001,-9.800733628000001,1.6126199488,2.43758013,2.83323888,-3.47395127,,,
imu,422.74453,-0.0011963056,-9.8198745176,1.6144144072,2.46748777,2.60145467,-3.90013514,,,
imu,422.753343,-0.01495382,-9.842006171200001,1.6174051712,2.46001086,2.18274771,-4.15435008,,,
imu,422.762156,-0.0323002512,-9.825257892800002,1.6132181016,2.31047266,1.76404075,-4.07210407,,,
imu,422.770969,-0.026916876,-9.8013317808,1.606040268,2.09364227,1.56964109,-3.69078166,,,
imu,422.779782,-0.05981528000000001,-9.769031529600001,1.597067976,1.74970441,1.36028761,-3.35432071,,,
imu,422.788595,-0.06699311360000001,-9.744507264800001,1.5845067672,1.62259694,1.22570323,-3.14496723,,,
imu,422.797408,-0.101685976,-9.718188541600002,1.5833104616,1.77213514,1.2032725,-3.02533667,,,
imu,422.806221,-0.1130508792,-9.710412555200001,1.5785252392,1.8917657,1.11354958,-3.13001341,,,
imu,422.815034,-0.1309954632,-9.724170069600001,1.5803196976,2.07121154,1.29299542,-3.32441307,,,
imu,422.823846,-0.1447529776,-9.725964528,1.5904882952,2.19831901,1.45748744,-3.56367419,,,
imu,422.832659,-0.1471455888,-9.748096181600001,1.5934790592,2.47496468,1.43505671,-3.72816621,,,
imu,422.841472,-0.1387714496,-9.767237071200002,1.6084328792,2.60207215,1.6518871,-3.89265823,,,
imu,422.850285,-0.1232194768,-9.790565030400002,1.6174051712,2.60954906,1.88367131,-4.11696553,,,
imu,422.859098,-0.122621324,-9.802528086400002,1.632957144,2.4151494,2.01825569,-4.19921154,,,
imu,422.867911,-0.1333880744,-9.809107767200002,1.6263774632,2.21327283,2.1752708,-3.99733497,,,
imu,422.876724,-0.1274065464,-9.812696684000002,1.6335552968,2.02635008,2.37714737,-3.7954584,,,
imu,422.885495,-0.11963056,-9.803724392000001,1.609031032,2.05625772,2.3995781,-3.73564312,,,
imu,422.894308,-0.1070693512,-9.7989391696,1.6072365736,1.88428879,2.43696265,-3.81041222,,,
imu,422.903121,-0.09929336480000002,-9.766040765600001,1.5982642816,1.87681188,2.45191647,-3.78798149,,,
imu,422.911934,-0.1154434904,-9.7540777096,1.6036476568,1.99644244,2.34723973,-3.7954584,,,
imu,422.920747,-0.1220231712,-9.808509614400002,1.606040268,2.10859609,2.52668557,-3.68330475,,,
imu,422.92956,-0.09091922560000001,-9.824061587200001,1.594077212,2.19831901,2.45191647,-3.67582784,,,
imu,422.938372,-0.0903210728,-9.802528086400002,1.5898901424,2.1908421,2.3995781,-3.7954584,,,
imu,422.94685,-0.0813487808,-9.766638918400002,1.5785252392,2.29551884,2.26499372,-3.8702275,,,
imu,422.955328,-0.0861340032,-9.763050001600002,1.5785252392,2.43758013,2.13040934,-3.87770441,,,
imu,422.963805,-0.08972292000000001,-9.785181655200002,1.5677584888,2.6394567,2.13788625,-3.63844329,,,
imu,422.972283,-0.1118545736,-9.780396432800002,1.5557954328,2.85628709,2.18274771,-3.22721324,,,
imu,422.98076,-0.128602852,-9.789966877600001,1.5444305296,2.81142563,2.09302479,-3.09262886,,,
imu,422.989238,-0.1034804344,-9.7989391696,1.5390471544,2.85628709,2.09302479,-3.18982869,,,
imu,422.997715,-0.09929336480000002,-9.805518850400002,1.5211025704,2.88619473,2.1005017,-3.496382,,,
imu,423.006193,-0.1070693512,-9.836024643200002,1.5360563904,2.91610237,2.09302479,-3.97490424,,,
imu,423.01467,-0.125612088,-9.8461932408,1.5264859456,2.69179507,2.08554788,-4.32631901,,,
imu,423.023148,-0.1274065464,-9.838417254400001,1.52528964,2.62450288,2.22013226,-4.29641137,,,
imu,423.031625,-0.1232194768,-9.828846809600002,1.519308112,2.33290339,2.24256299,-4.386134289999999,,,
imu,423.040103,-0.1274065464,-9.812696684000002,1.5145228896,2.03382699,2.39210119,-4.18425772,,,
imu,423.04858,-0.1190324072,-9.803126239200001,1.5031579864,1.88428879,2.45191647,-3.95247351,,,
imu,423.057058,-0.1292010048,-9.8013317808,1.4989709168,1.58521239,2.46687029,-3.73564312,,,
imu,423.065535,-0.1483418944,-9.803126239200001,1.501363528,1.51044329,2.55659321,-3.53376655,,,
imu,423.074013,-0.1393696024,-9.803724392000001,1.5049524448,1.4431511,2.58650085,-3.50385891,,,
imu,423.08249,-0.1447529776,-9.8049206976,1.5001672224,1.38333582,2.67622377,-3.55619728,,,
imu,423.090968,-0.1238176296,-9.820472670400001,1.5061487504,1.35342818,2.78837742,-3.74312003,,,
imu,423.099446,-0.1178361016,-9.8228652816,1.5181118064,1.16650543,2.75846978,-3.9449966,,,
imu,423.107923,-0.1028822816,-9.8294449624,1.5228970288,0.80761375,2.6986545,-4.19173463,,,
imu,423.116401,-0.09630260080000001,-9.8479876992,1.5145228896,0.82256757,2.66874686,-4.20668845,,,
imu,423.124878,-0.1052748928,-9.8270523512,1.5169155008,0.88985976,2.60145467,-4.034719519999999,,,
imu,423.133356,-0.1058730456,-9.818678212000002,1.522298876,0.67302937,2.61640849,-3.82536604,,,
imu,423.141833,-0.1028822816,-9.7995373224,1.5121302784,0.70293701,2.52668557,-3.59358183,,,
imu,423.150307,-0.1052748928,-9.7815927384,1.5091395144,0.7104139199999999,2.58650085,-3.36179762,,,
imu,423.158781,-0.1028822816,-9.7612555432,1.5019616808,0.70293701,2.66874686,-3.27955161,,,
imu,423.167254,-0.06998387760000001,-9.745703570400002,1.5055505976,0.8823828499999999,2.87810034,-3.13749032,,,
imu,423.175728,-0.07177833600000001,-9.7636481544,1.5187099592,0.94967504,2.82576197,-3.27955161,,,
imu,423.184202,-0.0550300576,-9.776209363200001,1.519308112,1.15902852,2.65379304,-3.496382,,,
imu,423.192675,-0.0406743904,-9.7809945856,1.5181118064,1.368382,2.71360832,-3.57862801,,,
imu,423.201149,-0.020935348,-9.779200127200001,1.5211025704,1.368382,2.53416248,-3.81041222,,,
imu,423.209623,-0.0257205704,-9.791761336000002,1.5151210424,1.51044329,2.38462428,-4.0945348,,,
imu,423.218097,-0.0382817792,-9.803126239200001,1.5360563904,1.68241222,2.2500399,-4.341272829999999,,,
imu,423.22657,-0.04845037680000001,-9.810902225600001,1.5426360712,1.63007385,1.90610204,-4.33379592,,,
imu,423.235044,-0.0783580168,-9.808509614400002,1.5336637792,1.48053565,1.70422547,-4.386134289999999,,,
imu,423.243518,-0.116639796,-9.809107767200002,1.5300748624,1.37585891,1.54721036,-4.37865738,,,
imu,423.251991,-0.1262102408,-9.789966877600001,1.5348600848,1.17398234,1.56964109,-4.37865738,,,
imu,423.260465,-0.1220231712,-9.789966877600001,1.5360563904,1.22632071,1.76404075,-4.15435008,,,
imu,423.268939,-0.13458438,-9.7959484056,1.5408416128,1.17398234,1.79394839,-4.102011709999999,,,
imu,423.277413,-0.1130508792,-9.801929933600002,1.5384490016,1.18145925,1.98834805,-4.034719519999999,,,
imu,423.285886,-0.1004896704,-9.7911631832,1.5426360712,1.01696723,2.1005017,-4.012288789999999,,,
imu,421.915267,,,,,,,72.96242360000001,0.6164331999999773,-0.7263136000000059
imu,422.01686,,,,,,,75.64800760000001,0.4211179999999981,-3.595005600000012
imu,422.118392,,,,,,,72.84035159999999,1.300036399999982,-0.8972144000000015
imu,422.220015,,,,,,,73.02345960000001,1.153549999999992,-1.397709600000008
imu,422.321517,,,,,,,73.4995404,1.116928399999995,-0.7385208000000087
imu,422.423079,,,,,,,73.42629720000001,0.9582347999999907,-0.5920344000000077
imu,422.524825,,,,,,,73.18215320000002,0.9948563999999882,-1.373295200000002
imu,422.626204,,,,,,,73.0600812,1.300036399999982,-1.287844800000004
imu,423.29436,-0.07596540560000001,-9.775611210400001,1.5444305296,1.04687487,2.13788625,-3.91508896,,,
imu,423.302834,-0.06160973840000001,-9.7821908912,1.5324674736,1.20388998,2.18274771,-3.93751969,,,
imu,423.311307,-0.05742266880000001,-9.772022293600001,1.531271168,1.40576655,1.91357895,-4.04219643,,,
imu,423.319781,-0.05861897440000001,-9.776807516000002,1.5378508488,1.48053565,1.74161002,-4.102011709999999,,,
imu,423.328255,-0.04246884880000001,-9.803126239200001,1.5300748624,1.63007385,1.55468727,-3.95247351,,,
imu,423.336729,-0.0592171272,-9.802528086400002,1.552206516,1.62259694,1.26308778,-3.98238115,,,
imu,423.345202,-0.0723764888,-9.802528086400002,1.546224988,1.65250458,1.14345722,-3.90761205,,,
imu,423.353673,-0.08493769760000001,-9.8013317808,1.54024346,1.65998149,1.03130357,-3.78798149,,,
imu,423.362145,-0.1190324072,-9.7989391696,1.5420379184,1.41324346,1.03130357,-3.82536604,,,
imu,423.370616,-0.1280046992,-9.798341016800002,1.5450286824,1.32352054,1.06121121,-3.69078166,,,
imu,423.379087,-0.143556672,-9.802528086400002,1.5414397656,1.48053565,1.34533379,-3.70573548,,,
imu,423.387558,-0.1531271168,-9.794752100000002,1.5474212936,1.4431511,1.46496435,-3.78798149,,,
imu,423.396029,-0.1495382,-9.7989391696,1.5534028216,1.33847436,1.59207182,-3.9449966,,,
imu,423.404501,-0.1447529776,-9.802528086400002,1.552206516,1.39081273,1.86124058,-4.00481188,,,
imu,423.412972,-0.13458438,-9.802528086400002,1.5444305296,1.36090509,2.11545552,-4.04967334,,,
imu,423.421443,-0.1363788384,-9.803126239200001,1.5545991272,1.33099745,2.1752708,-4.102011709999999,,,
imu,423.429914,-0.1004896704,-9.803126239200001,1.5450286824,1.54035093,2.22013226,-4.012288789999999,,,
imu,423.438385,-0.07297464160000001,-9.7780038216,1.5426360712,1.5179202,2.22013226,-4.04967334,,,
imu,423.446856,-0.07177833600000001,-9.777405668800002,1.5575898912,1.42072037,2.08554788,-4.124442439999999,,,
imu,423.455328,-0.0675912664,-9.802528086400002,1.5593843496,1.48801256,1.86871749,-3.98985806,,,
imu,423.463799,-0.0855358504,-9.779200127200001,1.5629732664,1.41324346,1.63693328,-4.08705789,,,
imu,423.47227,-0.107667504,-9.727758986400001,1.5707492528,1.32352054,1.43505671,-4.0197657,,,
imu,423.480741,-0.1160416432,-9.734338667200001,1.5743381696,1.22632071,1.16588795,-4.012288789999999,,,
imu,423.489212,-0.101685976,-9.775611210400001,1.5767307808,1.39081273,1.06868812,-4.19173463,,,
imu,423.497683,-0.1363788384,-9.806715156000001,1.5545991272,1.39828964,0.94905756,-4.41604193,,,
imu,423.506155,-0.1680809368,-9.801929933600002,1.5665621832,1.48053565,0.7322271699999998,-4.42351884,,,
imu,423.514626,-0.1626975616,-9.779200127200001,1.5569917384,1.67493531,0.76213481,-4.26650373,,,
imu,423.523097,-0.1495382,-9.780396432800002,1.5468231408,1.80951969,0.86681155,-4.169303899999999,,,
imu,423.531568,-0.1680809368,-9.792957641600001,1.5408416128,2.00391935,0.9714882899999999,-3.98985806,,,
imu,423.540039,-0.176455076,-9.807313308800001,1.5318693208,2.2656112,1.06121121,-3.61601256,,,
imu,423.54851,-0.1686790896,-9.817481906400001,1.5324674736,2.53477996,1.12102649,-3.55619728,,,
imu,423.556964,-0.1531271168,-9.820472670400001,1.522298876,2.6394567,1.15093413,-3.66087402,,,
imu,423.565417,-0.1471455888,-9.830641268,1.5121302784,2.60207215,1.14345722,-3.81788913,,,
imu,423.573871,-0.167482784,-9.8300431152,1.5067469032,2.54225687,1.12102649,-3.81788913,,,
imu,423.582324,-0.1698753952,-9.815089295200002,1.5121302784,2.3403803,1.28551851,-3.68330475,,,
imu,423.590777,-0.1477437416,-9.806715156000001,1.4846152496,2.20579592,1.42010289,-3.62348947,,,
imu,423.599231,-0.1501363528,-9.7815927384,1.4732503464,1.98896553,1.4275798,-3.44404363,,,
imu,423.607684,-0.1459492832,-9.759461084800002,1.4690632768,1.80951969,1.59207182,-3.24964397,,,
imu,423.616137,-0.1268083936,-9.7427128064,1.4726521936,1.7422275,1.6518871,-3.07019813,,,
imu,423.624591,-0.110658268,-9.7504887928,1.4666706656,1.80951969,1.71170238,-3.17487487,,,
imu,423.633044,-0.09749890640000002,-9.761853696000001,1.4582965264,1.71231986,1.53973345,-3.33188998,,,
imu,423.641497,-0.1058730456,-9.769629682400002,1.4666706656,1.8169966,1.54721036,-3.51133582,,,
imu,423.649951,-0.1052748928,-9.803724392000001,1.4690632768,1.86185806,1.47991817,-3.66087402,,,
imu,423.658404,-0.1028822816,-9.824061587200001,1.4882041664,1.70484295,1.51730272,-3.60853565,,,
imu,423.666858,-0.101685976,-9.833632032,1.4905967776,1.54782784,1.51730272,-3.63844329,,,
imu,423.675311,-0.1028822816,-9.844996935200001,1.4995690696,1.37585891,1.53973345,-3.69825857,,,
imu,423.683764,-0.1058730456,-9.861147060800002,1.5001672224,1.24127453,1.48739508,-3.57862801,,,
imu,423.692218,-0.10467674,-9.845595088000001,1.5061487504,0.94219813,1.39767216,-3.53376655,,,
imu,423.700671,-0.1130508792,-9.833632032,1.4977746112,0.8674290299999999,1.58459491,-3.53376655,,,
imu,423.709124,-0.1124527264,-9.8234634344,1.4995690696,0.78518302,1.58459491,-3.60853565,,,
imu,423.717578,-0.1154434904,-9.825257892800002,1.4798300272,0.79265993,1.577118,-3.71321239,,,
imu,423.726031,-0.1130508792,-9.803126239200001,1.4828207912,0.94967504,1.65936401,-3.80293531,,,
imu,423.734485,-0.1190324072,-9.803126239200001,1.507345056,0.8823828499999999,1.78647148,-3.93004278,,,
imu,423.742938,-0.1058730456,-9.8593526024,1.519308112,1.15155161,1.83880985,-4.079580979999999,,,
imu,423.751391,-0.0855358504,-9.867128588800002,1.4965783056,1.19641307,1.77151766,-4.124442439999999,,,
imu,423.760203,-0.09869521200000002,-9.812098531200002,1.5169155008,1.00201341,1.85376367,-4.22911918,,,
imu,423.769015,-0.09091922560000001,-9.7923594888,1.5025598336,0.81509066,1.68927165,-4.363703559999999,,,
imu,423.777826,-0.0753672528,-9.798341016800002,1.4947838472,0.9048135799999999,1.68927165,-4.20668845,,,
imu,423.786638,-0.0813487808,-9.801929933600002,1.4882041664,1.07678251,1.61450255,-3.87770441,,,
imu,423.795449,-0.08852661440000001,-9.803126239200001,1.5019616808,1.12912088,1.55468727,-3.58610492,,,
imu,423.804261,-0.08673215600000002,-9.8079114616,1.492391236,1.05435178,1.5023489,-3.42908981,,,
imu,423.813073,-0.080750628,-9.8132948368,1.4989709168,0.8823828499999999,1.38271834,-3.56367419,,,
imu,423.821884,-0.07775986400000001,-9.802528086400002,1.5037561392,0.74779847,1.31542615,-3.90761205,,,
imu,423.830696,-0.08493769760000001,-9.801929933600002,1.4917930832,0.8749059399999999,1.26308778,-4.102011709999999,,,
imu,423.839507,-0.08733030880000002,-9.793555794400001,1.4905967776,0.7253677399999999,1.06121121,-4.40108811,,,
imu,423.848319,-0.1040785872,-9.7744149048,1.4876060136,0.76275229,0.8892422799999999,-4.453426479999999,,,
imu,423.857131,-0.1214250184,-9.763050001600002,1.4905967776,0.82256757,0.80699627,-4.51324176,,,
imu,423.865942,-0.1297991576,-9.7504887928,1.4792318744,0.7552753799999999,0.6051196999999999,-4.386134289999999,,,
imu,423.874754,-0.1579123392,-9.745703570400002,1.4905967776,0.63564482,0.4630584099999999,-4.17678081,,,
imu,423.883566,-0.1770532288,-9.758862932000001,1.4947838472,0.64312173,0.52287369,-4.00481188,,,
imu,423.892377,-0.17944584,-9.773816752000002,1.483418944,0.80013684,0.7322271699999998,-3.75807385,,,
imu,423.901189,-0.1902125904,-9.769629682400002,1.4888023192,0.71789083,0.8144731799999998,-3.63096638,,,
imu,423.91,-0.1878199792,-9.797742864000002,1.5031579864,0.8823828499999999,0.94905756,-3.54124346,,,
imu,423.918812,-0.185427368,-9.8079114616,1.516317348,0.8674290299999999,1.23318014,-3.59358183,,,
imu,423.927624,-0.1662864784,-9.825856045600002,1.52528964,0.82256757,1.36028761,-3.81788913,,,
imu,423.936435,-0.1591086448,-9.850380310400002,1.5426360712,0.94219813,1.53225654,-4.10948862,,,
imu,423.945247,-0.1567160336,-9.8581562968,1.5438323768,0.77770611,1.53225654,-4.386134289999999,,,
imu,423.954059,-0.1381732968,-9.860548908000002,1.5450286824,0.59078336,1.62945637,-4.6179185,,,
imu,423.962534,-0.1321917688,-9.8402117128,1.5498139048,0.42629134,1.46496435,-4.55062631,,,
imu,423.971008,-0.1309954632,-9.830641268,1.552206516,0.20946095,1.38271834,-4.58801086,,,
imu,423.979546,-0.1459492832,-9.8079114616,1.543234224,0.13469185,1.26308778,-4.58053395,,,
imu,423.988021,-0.155519728,-9.803126239200001,1.5504120576,0.31413769,1.34533379,-4.386134289999999,,,
imu,423.996496,-0.1632957144,-9.785181655200002,1.5420379184,0.44124516,1.24065705,-4.34874974,,,
imu,424.004971,-0.1806421456,-9.770825988000002,1.54024346,0.5982602699999999,1.18831868,-4.430995749999999,,,
imu,424.013446,-0.200381188,-9.7636481544,1.5498139048,0.7253677399999999,1.18084177,-4.3936112,,,
imu,424.021921,-0.2105497856,-9.7636481544,1.5486175992,0.79265993,1.21822632,-4.31136519,,,
imu,424.030396,-0.2075590216,-9.764246307200002,1.5486175992,0.9347212199999999,1.30047233,-4.29641137,,,
imu,424.038871,-0.2099516328,-9.765442612800001,1.55519728,1.06182869,1.47991817,-4.16182699,,,
imu,424.047346,-0.2057645632,-9.7606573904,1.5456268352,1.0693056,1.62197946,-4.25902682,,,
imu,424.055821,-0.1997830352,-9.769629682400002,1.5450286824,1.04687487,1.67431783,-3.99733497,,,
imu,424.064296,-0.1997830352,-9.776807516000002,1.528280404,1.09173633,1.71917929,-3.98238115,,,
imu,424.072771,-0.1788476872,-9.76484446,1.5426360712,1.11416706,1.90610204,-3.91508896,,,
imu,424.081246,-0.1818384512,-9.775611210400001,1.5354582376,1.18145925,2.0257326,-3.86275059,,,
imu,424.089721,-0.1961941184,-9.775611210400001,1.5486175992,1.13659779,2.04816333,-3.71321239,,,
imu,424.098196,-0.1818384512,-9.789368724800001,1.5408416128,1.11416706,1.97339423,-3.76555076,,,
imu,424.106671,-0.1680809368,-9.7995373224,1.5420379184,1.24127453,1.98834805,-3.66087402,,,
imu,422.72784,,,,,,,73.27981079999999,0.9826491999999964,-1.214601600000009
imu,422.829372,,,,,,,73.1577388,1.397693999999983,-0.8117640000000037
imu,422.930934,,,,,,,75.2085484,0.3967035999999924,-3.155546400000009
imu,423.032527,,,,,,,73.18215320000002,0.7751267999999811,-1.141358400000003
imu,423.134059,,,,,,,75.2695844,0.1891811999999771,-2.813744800000006
imu,423.235652,,,,,,,73.0356668,1.275621999999998,-0.7873496000000091
imu,423.337154,,,,,,,72.681658,1.104721199999981,-2.215592000000011
imu,423.438747,,,,,,,72.60841479999999,1.312243599999996,-0.5432056000000074
imu,424.115146,-0.1860255208,-9.801929933600002,1.5444305296,1.07678251,2.05564024,-3.66835093,,,
imu,424.123621,-0.1890162848,-9.803724392000001,1.5414397656,1.12164397,2.04068642,-3.54124346,,,
imu,424.132096,-0.1800439928,-9.803126239200001,1.5498139048,1.2936129,2.14536316,-3.38422835,,,
imu,424.140571,-0.188418132,-9.8049206976,1.5414397656,1.20388998,2.27247063,-3.32441307,,,
imu,424.149046,-0.1866236736,-9.802528086400002,1.5486175992,1.18145925,2.30237827,-3.33936689,,,
imu,424.157521,-0.1812402984,-9.802528086400002,1.549215752,1.18893616,2.50425484,-3.2720747,,,
imu,424.165983,-0.1692772424,-9.8013317808,1.546224988,1.1440747,2.55659321,-3.28702852,,,
imu,424.174446,-0.1591086448,-9.801929933600002,1.5408416128,1.03939796,2.63136231,-3.41413599,,,
imu,424.182908,-0.1453511304,-9.785779808000001,1.5294767096,1.07678251,2.65379304,-3.39918217,,,
imu,424.19137,-0.1423603664,-9.7809945856,1.5324674736,1.20388998,2.71360832,-3.36927453,,,
imu,424.199833,-0.1327899216,-9.777405668800002,1.5288785568,1.21136689,2.51920866,-3.48890509,,,
imu,424.208295,-0.1118545736,-9.790565030400002,1.5276822512,1.30108981,2.36967046,-3.59358183,,,
imu,424.216757,-0.1280046992,-9.803724392000001,1.534261932,1.48801256,2.20517844,-3.6459202,,,
imu,424.225219,-0.1381732968,-9.810304072800001,1.5324674736,1.4431511,2.07807097,-3.66087402,,,
imu,424.233682,-0.1567160336,-9.8162856008,1.5647677248,1.40576655,1.98834805,-3.66087402,,,
imu,424.242144,-0.16449202,-9.845595088000001,1.5510102104,1.35342818,1.85376367,-3.58610492,,,
imu,424.250606,-0.1626975616,-9.8432024768,1.5438323768,1.12164397,1.83133294,-3.63096638,,,
imu,424.259068,-0.173464312,-9.800135475200001,1.54024346,0.9870595899999999,1.78647148,-3.51881273,,,
imu,424.267531,-0.170473548,-9.785181655200002,1.5438323768,1.11416706,1.92853277,-3.20478251,,,
imu,424.275993,-0.1483418944,-9.782789044000001,1.5354582376,1.1440747,1.93600968,-3.36179762,,,
imu,424.284455,-0.1453511304,-9.736731278400002,1.5360563904,1.07678251,1.83880985,-3.42908981,,,
imu,424.292917,-0.1357806856,-9.7217774584,1.5408416128,1.08425942,1.61450255,-3.51133582,,,
imu,424.30138,-0.1297991576,-9.7606573904,1.5486175992,1.12164397,1.44253362,-3.62348947,,,
imu,424.309842,-0.1507345056,-9.803126239200001,1.5318693208,1.33099745,1.2780416,-3.59358183,,,
imu,424.318304,-0.1860255208,-9.796546558400001,1.5300748624,1.33099745,0.9714882899999999,-3.44404363,,,
imu,424.326767,-0.2075590216,-9.7636481544,1.5306730152,1.2936129,0.8817653699999997,-3.3468438,,,
imu,424.335229,-0.2045682576000001,-9.754675862400001,1.5354582376,1.2936129,0.80699627,-3.15992105,,,
imu,424.343691,-0.227298064,-9.803126239200001,1.5306730152,1.46558183,0.8144731799999998,-2.88327538,,,
imu,424.352153,-0.2506260232,-9.822267128800002,1.5276822512,1.62259694,0.9116730099999999,-2.50942988,,,
imu,424.360616,-0.2326814392,-9.821668976000002,1.5324674736,1.47305874,1.36776452,-2.21035348,,,
imu,424.369144,-0.215335008,-9.828846809600002,1.5264859456,1.5179202,1.63693328,-2.08324601,,,
imu,424.377672,-0.1908107432,-9.8294449624,1.5187099592,1.5926893,1.89114822,-2.3748455,,,
imu,424.386201,-0.1543234224,-9.803126239200001,1.5211025704,1.41324346,2.12293243,-2.74121409,,,
imu,424.394729,-0.1112564208,-9.7959484056,1.5151210424,1.41324346,2.44443956,-2.95056757,,,
imu,424.403258,-0.0693857248,-9.7989391696,1.51033582,1.40576655,2.37714737,-3.13001341,,,
imu,424.411786,-0.0281131816,-9.789966877600001,1.5067469032,1.4431511,2.00330187,-3.42908981,,,
imu,424.420314,-0.01495382,-9.783387196800001,1.4941856944,1.43567419,1.71170238,-3.28702852,,,
imu,424.428843,0.0005981528000000001,-9.773816752000002,1.4959801528,1.64502767,1.42010289,-2.95804448,,,
imu,424.437371,-0.0185427368,-9.764246307200002,1.5037561392,1.71231986,0.76213481,-2.92813684,,,
imu,424.4459,-0.0514411408,-9.796546558400001,1.5079432088,1.85438115,0.2088434699999997,-2.98047521,,,
imu,424.454428,-0.09390998960000001,-9.797742864000002,1.5097376672,1.93662716,-0.08275602000000015,-3.09262886,,,
imu,424.462956,-0.1423603664,-9.796546558400001,1.5211025704,1.72727368,-0.2023865800000002,-3.30198234,,,
imu,424.471485,-0.19439966,-9.802528086400002,1.519308112,1.78708896,-0.3070633200000001,-3.36179762,,,
imu,424.480013,-0.218325772,-9.803126239200001,1.5240933344,1.68988913,-0.1276174800000001,-3.48142818,,,
imu,424.488542,-0.2129423968,-9.8049206976,1.5300748624,1.36090509,0.35838167,-3.63096638,,,
imu,424.49707,-0.215335008,-9.802528086400002,1.531271168,1.27865908,0.94905756,-3.62348947,,,
imu,424.505598,-0.2255036056,-9.796546558400001,1.549215752,1.20388998,1.48739508,-3.63096638,,,
imu,424.514127,-0.1872218264,-9.797742864000002,1.5450286824,0.9870595899999999,1.97339423,-3.55619728,,,
imu,424.522655,-0.1441548248,-9.785181655200002,1.534261932,0.97958268,2.29490136,-3.43656672,,,
imu,424.531183,-0.1058730456,-9.789368724800001,1.5288785568,0.9347212199999999,2.41453192,-3.37675144,,,
imu,424.539712,-0.07955432240000002,-9.780396432800002,1.52528964,0.9945364999999999,2.50425484,-3.30198234,,,
imu,424.54824,-0.0406743904,-9.794752100000002,1.5205044176,1.27865908,2.45939338,-3.2720747,,,
imu,424.556769,-0.0382817792,-9.8013317808,1.5294767096,1.54782784,2.2500399,-3.28702852,,,
imu,424.565297,-0.04007623760000001,-9.818678212000002,1.5575898912,1.65998149,2.12293243,-3.31693616,,,
imu,424.573697,-0.04127254320000001,-9.890456548000001,1.5659640304,1.43567419,1.89862513,-3.21973633,,,
imu,424.582097,-0.0281131816,-9.911990048800002,1.567160336,1.24875144,1.62945637,-3.18982869,,,
imu,424.590497,-0.0550300576,-9.867128588800002,1.5683566416,1.09173633,1.41262598,-3.40665908,,,
imu,424.598897,-0.07596540560000001,-9.807313308800001,1.561178808,0.71789083,1.09859576,-3.77302767,,,
imu,424.607297,-0.0933118368,-9.800733628000001,1.5516083632,0.59078336,0.94905756,-3.98238115,,,
imu,424.615697,-0.1154434904,-9.794153947200002,1.5414397656,0.46367589,0.84438082,-3.95995042,,,
imu,424.624097,-0.1429585192,-9.746899876,1.5288785568,0.57582954,0.8219500899999996,-3.52628964,,,
imu,424.632497,-0.1489400472,-9.725964528,1.5181118064,0.82256757,1.00887284,-3.18982869,,,
imu,424.640897,-0.1327899216,-9.715795930400002,1.498372764,1.13659779,1.2780416,-3.02533667,,,
imu,424.649297,-0.1172379488,-9.731347903200001,1.492391236,1.56278166,1.38271834,-3.02533667,,,
imu,424.657697,-0.1004896704,-9.7474980288,1.4858115552,1.80951969,1.24813396,-3.1973056,,,
imu,424.666097,-0.1004896704,-9.772620446400001,1.4840170968,2.01139626,1.13598031,-3.48142818,,,
imu,424.674497,-0.10467674,-9.801929933600002,1.4965783056,2.14598064,1.07616503,-3.78798149,,,
imu,424.682897,-0.1184342544,-9.8168837536,1.4959801528,2.22074974,0.7696117199999999,-4.102011709999999,,,
imu,424.691296,-0.1274065464,-9.837220948800002,1.5145228896,2.04878081,0.58268897,-4.07210407,,,
imu,424.699696,-0.1471455888,-9.852174768800001,1.5306730152,1.6674584,0.4705353199999998,-3.93004278,,,
imu,424.708096,-0.1788476872,-9.866530436000001,1.5288785568,1.45062801,0.4555814999999996,-3.72816621,,,
imu,424.716496,-0.2027737992,-9.859950755200002,1.5336637792,1.09921324,0.4929660499999997,-3.52628964,,,
imu,424.724896,-0.251224176,-9.855165532800001,1.5246914872,0.8375213899999999,0.56025824,-3.3468438,,,
imu,424.733296,-0.2745521352,-9.8234634344,1.5199062648,0.46367589,0.8144731799999998,-3.2720747,,,
imu,424.741696,-0.2889078024000001,-9.802528086400002,1.528280404,0.23189168,1.15093413,-3.15992105,,,
imu,424.750096,-0.3116376088,-9.785779808000001,1.5288785568,0.1720764,1.7266562,-2.94309066,,,
imu,424.758496,-0.2984782472,-9.770825988000002,1.5217007232,0.18703022,2.36219355,-2.89075229,,,
imu,424.766896,-0.2542149400000001,-9.755274015200001,1.5294767096,0.3216146,2.90800798,-2.86832156,,,
imu,424.775721,-0.2039701048,-9.746899876,1.5276822512,0.3739529699999999,3.42391477,-3.04029049,,,
imu,424.784546,-0.1393696024,-9.746301723200002,1.5294767096,0.4861066199999999,3.73794499,-3.21973633,,,
imu,424.793371,-0.09869521200000002,-9.746301723200002,1.5181118064,0.9646288599999999,4.06692903,-3.1225365,,,
imu,424.802196,-0.05742266880000001,-9.7492924872,1.5217007232,1.27118217,4.03702139,-3.11505959,,,
imu,424.811021,-0.0167482784,-9.755274015200001,1.5181118064,1.45810492,3.820191,-3.02533667,,,
imu,424.819845,0.0,-9.7786019744,1.52528964,1.58521239,3.3715764,-3.05524431,,,
imu,424.82867,-0.007177833600000002,-9.802528086400002,1.5264859456,1.68988913,2.97530017,-2.95056757,,,
imu,424.837495,-0.0143556672,-9.8234634344,1.537252696,1.65998149,2.66874686,-2.86832156,,,
imu,424.84632,-0.03110394560000001,-9.824659740000001,1.5348600848,1.48801256,2.40705501,-2.89075229,,,
imu,424.855145,-0.0466559184,-9.803126239200001,1.5348600848,1.39828964,2.10797861,-2.8982292,,,
imu,424.86397,-0.07297464160000001,-9.800733628000001,1.5270840984,1.20388998,2.00330187,-3.17487487,,,
imu,424.872795,-0.08912476720000001,-9.792957641600001,1.52528964,1.07678251,2.0257326,-3.25712088,,,
imu,424.88162,-0.08254508640000002,-9.769629682400002,1.522298876,1.03939796,2.12293243,-3.3468438,,,
imu,424.890445,-0.06579680800000001,-9.779798280000001,1.5228970288,1.02444414,2.16779389,-3.53376655,,,
imu,424.899269,-0.05203929360000001,-9.7923594888,1.5240933344,0.9571519499999999,2.07807097,-3.63096638,,,
imu,424.908094,-0.0466559184,-9.794752100000002,1.5258877928,1.08425942,2.11545552,-3.69078166,,,
imu,424.916919,-0.04007623760000001,-9.800135475200001,1.5264859456,1.25622835,1.9509635,-3.86275059,,,
imu,424.925744,-0.03947808480000001,-9.8043225448,1.5246914872,1.34595127,1.81637912,-4.124442439999999,,,
imu,423.54034,,,,,,,72.9990452,1.00706359999998,-0.3356832000000032
imu,423.641902,,,,,,,72.925802,1.104721199999981,-0.5798272000000049
imu,423.743617,,,,,,,73.0356668,1.483144399999992,-1.043700800000003
imu,423.844997,,,,,,,72.71827959999999,1.019270799999994,-1.849376000000003
imu,423.94662,,,,,,,73.31643240000001,0.9948563999999882,-0.8361784000000094
imu,424.048152,,,,,,,75.428278,0.1891811999999771,-2.569600800000005
imu,424.149684,,,,,,,72.8281444,1.373279599999977,-0.4821696000000042
imu,424.251277,,,,,,,75.428278,0.2135955999999828,-3.460726400000003
imu,424.934569,-0.0406743904,-9.810304072800001,1.5348600848,1.39081273,1.47991817,-4.16182699,,,
imu,424.943394,-0.05443190480000001,-9.8264541984,1.5384490016,1.45062801,1.40514907,-3.96742733,,,
imu,424.952219,-0.0663949608,-9.8330338792,1.5366545432,1.21136689,1.15093413,-3.93751969,,,
imu,424.961044,-0.08852661440000001,-9.837819101600003,1.5498139048,1.15155161,0.8967191899999998,-3.68330475,,,
imu,424.969869,-0.1010878232,-9.8162856008,1.5408416128,1.01696723,0.9116730099999999,-3.53376655,,,
imu,424.978386,-0.1070693512,-9.802528086400002,1.5390471544,0.8449983,0.80699627,-3.53376655,,,
imu,424.986902,-0.1214250184,-9.772022293600001,1.52528964,0.8449983,0.8144731799999998,-3.58610492,,,
imu,424.995419,-0.1220231712,-9.7576666264,1.5121302784,0.79265993,0.78456554,-3.75807385,,,
imu,425.003936,-0.1333880744,-9.737927584000001,1.519308112,0.97210577,0.92662683,-3.84031986,,,
imu,425.012453,-0.1250139352,-9.746301723200002,1.507345056,1.22632071,1.03130357,-3.91508896,,,
imu,425.02097,-0.1268083936,-9.762451848800001,1.5091395144,1.42072037,1.08364194,-3.93751969,,,
imu,425.029487,-0.1088638096,-9.772620446400001,1.5127284312,1.52539711,1.14345722,-3.84031986,,,
imu,425.038004,-0.1040785872,-9.788770572,1.513326584,1.62259694,1.29299542,-3.77302767,,,
imu,425.046521,-0.1034804344,-9.8043225448,1.5258877928,1.52539711,1.48739508,-3.73564312,,,
imu,425.055038,-0.1010878232,-9.815089295200002,1.5306730152,1.40576655,1.47244126,-3.69078166,,,
imu,425.063555,-0.09630260080000001,-9.824659740000001,1.5366545432,1.39828964,1.34533379,-3.76555076,,,
imu,425.072016,-0.09211553120000002,-9.8210708232,1.5324674736,1.34595127,1.33785688,-3.91508896,,,
imu,425.080533,-0.1028822816,-9.8049206976,1.5444305296,1.15155161,1.44253362,-3.82536604,,,
imu,425.08905,-0.08792846160000001,-9.8210708232,1.5474212936,1.03192105,1.33037997,-3.7954584,,,
imu,425.097567,-0.08374139200000001,-9.8198745176,1.5456268352,1.15155161,1.44253362,-3.80293531,,,
imu,425.106084,-0.1022841288,-9.780396432800002,1.5557954328,0.94967504,1.25561087,-4.04967334,,,
imu,425.114601,-0.116639796,-9.779200127200001,1.5653658776,0.7403215599999999,1.23318014,-4.0945348,,,
imu,425.123118,-0.1292010048,-9.8043225448,1.5534028216,0.53844499,1.1285034,-4.124442439999999,,,
imu,425.131635,-0.1543234224,-9.803126239200001,1.5653658776,0.59078336,1.31542615,-4.07210407,,,
imu,425.140152,-0.1698753952,-9.779798280000001,1.5701511,0.5010604399999999,1.36776452,-3.99733497,,,
imu,425.148669,-0.1591086448,-9.744507264800001,1.5540009744,0.43376825,1.37524143,-3.91508896,,,
imu,425.157186,-0.1543234224,-9.755872168000002,1.5486175992,0.7552753799999999,1.64441019,-3.7206893,,,
imu,425.165703,-0.1776513816,-9.7750130576,1.5516083632,0.94219813,1.77151766,-3.39170526,,,
imu,425.17422,-0.1740624648,-9.773816752000002,1.5384490016,1.40576655,2.16031698,-2.80850628,,,
imu,425.182635,-0.137575144,-9.7606573904,1.5366545432,1.5179202,2.33976282,-2.57672207,,,
imu,425.19105,-0.09929336480000002,-9.7606573904,1.5240933344,1.57773548,2.58650085,-2.88327538,,,
imu,425.199465,-0.092713684,-9.759461084800002,1.5145228896,1.68241222,2.61640849,-3.08515195,,,
imu,425.207881,-0.06519865520000001,-9.766040765600001,1.504354292,1.93662716,2.74351596,-3.25712088,,,
imu,425.216296,-0.04127254320000001,-9.779200127200001,1.5127284312,2.10859609,2.71360832,-3.72816621,,,
imu,425.224711,-0.0245242648,-9.801929933600002,1.501363528,2.25813429,2.51173175,-4.06462716,,,
imu,425.233126,-0.0263187232,-9.809107767200002,1.5031579864,2.35533412,2.48930102,-4.079580979999999,,,
imu,425.241542,-0.0293094872,-9.831239420800001,1.5115321256,2.21327283,2.28742445,-3.90013514,,,
imu,425.249957,-0.0017944584,-9.837819101600003,1.5067469032,2.36281103,2.0257326,-3.69078166,,,
imu,425.258372,-0.0185427368,-9.8432024768,1.522298876,2.09364227,1.75656384,-3.60853565,,,
imu,425.266787,-0.05861897440000001,-9.844398782400003,1.5294767096,1.76465823,1.47991817,-3.55619728,,,
imu,425.275202,-0.0747691,-9.8198745176,1.5211025704,1.58521239,1.33037997,-3.58610492,,,
imu,425.283618,-0.09929336480000002,-9.801929933600002,1.519308112,1.20388998,1.13598031,-3.60105874,,,
imu,425.292033,-0.1040785872,-9.7821908912,1.5025598336,0.9272443100000001,1.32290306,-3.69078166,,,
imu,425.300448,-0.1124527264,-9.755274015200001,1.5181118064,0.8674290299999999,1.4275798,-3.82536604,,,
imu,425.308863,-0.1004896704,-9.739123889600002,1.5181118064,0.8524752099999999,1.60702564,-4.057150249999999,,,
imu,425.317279,-0.0980970592,-9.746301723200002,1.5306730152,0.7702292,1.71917929,-4.169303899999999,,,
imu,425.325694,-0.0903210728,-9.759461084800002,1.537252696,1.06182869,1.89862513,-4.0945348,,,
imu,425.334109,-0.0723764888,-9.76484446,1.5516083632,1.08425942,2.10797861,-4.146873169999999,,,
imu,425.342524,-0.06460050240000001,-9.779798280000001,1.549215752,1.11416706,1.99582496,-4.27398064,,,
imu,425.350939,-0.0490485296,-9.783985349600002,1.5468231408,1.23379762,1.92105586,-4.318842099999999,,,
imu,425.359355,-0.0532355992,-9.7923594888,1.5504120576,1.32352054,1.8761944,-4.4683803,,,
imu,425.36777,-0.06041343280000001,-9.780396432800002,1.5468231408,1.48801256,1.74908693,-4.43847266,,,
imu,425.376185,-0.07058203040000001,-9.756470320800002,1.5504120576,1.64502767,1.56964109,-4.50576485,,,
imu,425.384655,-0.09390998960000001,-9.777405668800002,1.5683566416,1.70484295,1.40514907,-4.58801086,,,
imu,425.393125,-0.1004896704,-9.811500378400002,1.5534028216,1.84690424,1.25561087,-4.46090339,,,
imu,425.401595,-0.1124527264,-9.803724392000001,1.5689547944,1.84690424,1.19579559,-4.625395409999999,,,
imu,425.410065,-0.1351825328,-9.763050001600002,1.5599825024,1.8169966,1.03130357,-4.909517989999999,,,
imu,425.418535,-0.1579123392,-9.725964528,1.5575898912,1.94410407,0.92662683,-5.07401001,,,
imu,425.427004,-0.1531271168,-9.748096181600001,1.5396453072,2.06373463,0.80699627,-5.22354821,,,
imu,425.435474,-0.2069608688,-9.760059237600002,1.534261932,2.3403803,0.8144731799999998,-5.05157928,,,
imu,425.443944,-0.236270356,-9.745105417600001,1.51033582,2.52730305,0.8219500899999996,-4.692687599999999,,,
imu,425.452414,-0.2386629672,-9.745703570400002,1.4959801528,2.69927198,0.9640113799999996,-4.47585721,,,
imu,425.460884,-0.2410555784,-9.758264779200001,1.4810263328,2.998348379999999,1.08364194,-4.29641137,,,
imu,425.469354,-0.257205704,-9.7780038216,1.4792318744,3.26751714,1.28551851,-4.16182699,,,
imu,425.477824,-0.2787392048,-9.796546558400001,1.46547436,3.30490169,1.41262598,-4.32631901,,,
imu,425.486294,-0.272159524,-9.808509614400002,1.4541094568,3.42453225,1.65936401,-4.28145755,,,
imu,425.494764,-0.2607946208,-9.825856045600002,1.4553057624,3.42453225,1.88367131,-4.08705789,,,
imu,425.503234,-0.2446444952,-9.8330338792,1.456502068,3.52920899,2.01077878,-4.00481188,,,
imu,425.511703,-0.2231109944,-9.851576616000001,1.4600909848,3.26751714,2.04068642,-3.91508896,,,
imu,425.520173,-0.212344244,-9.8778953392,1.453511304,2.92357928,2.01825569,-3.88518132,,,
imu,425.528643,-0.2099516328,-9.8653341304,1.4559039152,2.54973378,2.11545552,-3.59358183,,,
imu,425.537113,-0.1902125904,-9.8432024768,1.4553057624,2.25813429,2.13788625,-3.18982869,,,
imu,425.545583,-0.1716698536,-9.837819101600003,1.462483596,1.94410407,2.13040934,-2.92813684,,,
imu,425.554053,-0.1579123392,-9.8300431152,1.4481279288,1.8169966,1.9509635,-2.70382954,,,
imu,425.562523,-0.1567160336,-9.818080059200001,1.4487260816,1.63007385,1.74908693,-2.50942988,,,
imu,425.570993,-0.1489400472,-9.802528086400002,1.4481279288,1.65998149,1.63693328,-2.41223005,,,
imu,425.579463,-0.1561178808,-9.7959484056,1.4433427064,1.52539711,1.52477963,-2.45709151,,,
imu,425.588278,-0.1680809368,-9.798341016800002,1.441548248,1.6674584,1.577118,-2.41223005,,,
imu,425.597094,-0.1710717008,-9.8013317808,1.4403519424,1.90671952,1.8014253,-2.44213769,,,
imu,425.605909,-0.1656883256,-9.7959484056,1.4409500952,1.98148862,1.99582496,-2.54681443,,,
imu,425.614725,-0.16449202,-9.802528086400002,1.4391556368,1.95158098,2.13788625,-2.70382954,,,
imu,425.623541,-0.1597067976,-9.803126239200001,1.4541094568,2.04878081,2.46687029,-2.68887572,,,
imu,425.632356,-0.1459492832,-9.820472670400001,1.4559039152,1.98896553,2.71360832,-2.66644499,,,
imu,425.641172,-0.1124527264,-9.8270523512,1.4517168456,2.03382699,3.10988455,-2.61410662,,,
imu,425.649987,-0.08972292000000001,-9.8270523512,1.4588946792,2.06373463,3.2220382,-2.61410662,,,
imu,425.658803,-0.05981528000000001,-9.8264541984,1.456502068,1.87681188,3.31923803,-2.5991528,,,
imu,425.667619,-0.03648732080000001,-9.822267128800002,1.4618854432,1.63755076,3.37905331,-2.80102937,,,
imu,425.676434,-0.0011963056,-9.805518850400002,1.4636799016,1.5926893,3.27437657,-2.83841392,,,
imu,425.68525,0.0143556672,-9.802528086400002,1.4571002208,1.60764312,3.13231528,-2.85336774,,,
imu,425.694065,0.0346928624,-9.8043225448,1.456502068,1.63007385,2.81828506,-3.01785976,,,
imu,425.702881,0.04545961280000001,-9.8043225448,1.4612872904,1.61512003,2.51920866,-3.16739796,,,
imu,425.711697,0.02990764000000001,-9.8061170032,1.4666706656,1.48053565,2.11545552,-3.33188998,,,
imu,425.720512,0.0101685976,-9.793555794400001,1.4576983736,1.53287402,1.77899457,-3.37675144,,,
imu,425.729328,-0.0053833752,-9.7821908912,1.4559039152,1.5179202,1.4275798,-3.58610492,,,
imu,425.738143,-0.0466559184,-9.769031529600001,1.4493242344,1.60764312,1.23318014,-3.69825857,,,
imu,425.746959,-0.0903210728,-9.773218599200002,1.4636799016,1.72727368,0.9939190199999999,-3.75059694,,,
imu,424.352734,,,,,,,72.77931559999999,0.8971987999999875,-1.36108800000001
imu,424.454327,,,,,,,72.6938652,1.165757199999984,-3.192168000000006
imu,424.557507,,,,,,,73.230982,1.336657999999979,-0.4089264000000092
imu,424.659649,,,,,,,73.01125239999999,0.933820399999985,-0.9948720000000022
imu,424.758953,,,,,,,72.681658,0.7385051999999837,-0.6652776000000027
imu,424.860577,,,,,,,73.70706279999999,0.8239555999999926,-0.567620000000002
imu,424.962292,,,,,,,72.9013876,0.9826491999999964,-1.397709600000008
imu,425.063702,,,,,,,75.306206,0.4577395999999956,-1.470952800000003
imu,425.755775,-0.1297991576,-9.786377960800001,1.4571002208,1.65998149,0.92662683,-3.90013514,,,
imu,425.76459,-0.1579123392,-9.789966877600001,1.441548248,1.60764312,1.06868812,-3.81788913,,,
imu,425.773406,-0.1878199792,-9.800135475200001,1.4439408592,1.77961205,1.30794924,-3.66087402,,,
imu,425.782221,-0.1836329096,-9.802528086400002,1.4433427064,1.5926893,1.59207182,-3.78050458,,,
imu,425.790704,-0.1632957144,-9.803724392000001,1.4301833448,1.6674584,2.1005017,-3.46647436,,,
imu,425.799187,-0.1591086448,-9.8043225448,1.432575956,1.69736604,2.46687029,-3.38422835,,,
imu,425.807669,-0.1238176296,-9.803126239200001,1.4373611784,1.62259694,2.51173175,-3.41413599,,,
imu,425.816152,-0.107667504,-9.803126239200001,1.43556672,1.5926893,2.60893158,-3.51133582,,,
imu,425.824635,-0.08314323920000001,-9.825856045600002,1.4367630256,1.67493531,2.83323888,-3.24964397,,,
imu,425.833117,-0.0675912664,-9.8264541984,1.4373611784,1.65250458,2.82576197,-3.23469015,,,
imu,425.8416,-0.05742266880000001,-9.824061587200001,1.4421464008,1.56278166,2.60893158,-3.28702852,,,
imu,425.850082,-0.0562263632,-9.828846809600002,1.4487260816,1.45810492,2.44443956,-3.39170526,,,
imu,425.858565,-0.04964668240000001,-9.8264541984,1.4439408592,1.33847436,2.42200883,-3.38422835,,,
imu,425.867048,-0.0346928624,-9.8300431152,1.447529776,1.07678251,2.39210119,-3.38422835,,,
imu,425.87553,-0.02871133440000001,-9.8132948368,1.4553057624,0.9197674,2.14536316,-3.55619728,,,
imu,425.884013,-0.02871133440000001,-9.8079114616,1.4559039152,0.8524752099999999,1.9509635,-3.78798149,,,
imu,425.892495,-0.03110394560000001,-9.7923594888,1.4427445536,0.7403215599999999,1.81637912,-3.87770441,,,
imu,425.900978,-0.04605776560000001,-9.7612555432,1.453511304,0.77770611,1.46496435,-3.98985806,,,
imu,425.909461,-0.0514411408,-9.789966877600001,1.4636799016,0.9646288599999999,1.0537343,-3.95995042,,,
imu,425.917943,-0.06579680800000001,-9.793555794400001,1.4618854432,1.10669015,0.84438082,-3.90013514,,,
imu,425.926426,-0.07596540560000001,-9.755872168000002,1.4738484992,1.08425942,0.6724118899999998,-3.99733497,,,
imu,425.934909,-0.1172379488,-9.7534795568,1.4905967776,1.08425942,0.58268897,-3.95247351,,,
imu,425.943391,-0.1303973104,-9.800733628000001,1.4738484992,1.22632071,0.4854891399999999,-3.87770441,,,
imu,425.951874,-0.1668846312,-9.803126239200001,1.4582965264,1.28613599,0.4331507699999997,-3.91508896,,,
imu,425.960356,-0.2039701048,-9.7612555432,1.456502068,1.16650543,0.5677351499999999,-3.82536604,,,
imu,425.968839,-0.2159331608,-9.7295534448,1.4702595824,1.27865908,0.6873657099999999,-3.69078166,,,
imu,425.977322,-0.2051664104,-9.737329431200001,1.4517168456,1.57773548,0.9041961000000001,-3.6459202,,,
imu,425.985804,-0.2099516328,-9.773816752000002,1.4391556368,1.97401171,1.26308778,-3.27955161,,,
imu,425.994264,-0.2039701048,-9.7714241408,1.4421464008,2.1908421,1.78647148,-2.95056757,,,
imu,426.002724,-0.1878199792,-9.7786019744,1.429585192,2.24318047,2.15284007,-2.86084465,,,
imu,426.011183,-0.155519728,-9.7953502528,1.4092479968,2.38524176,2.30985518,-3.00290594,,,
imu,426.019643,-0.1208268656,-9.8013317808,1.4038646216,2.60207215,2.51173175,-3.05524431,,,
imu,426.028103,-0.1100601152,-9.8132948368,1.4014720104,2.68431816,2.69117759,-3.31693616,,,
imu,426.036563,-0.0741709472,-9.839015407200002,1.4008738576,2.6394567,2.57154703,-3.82536604,,,
imu,426.045022,-0.0502448352,-9.841408018400001,1.393696024,2.76656417,2.52668557,-4.11696553,,,
imu,426.053482,-0.0352910152,-9.844398782400003,1.387714496,2.66936434,2.34723973,-4.10948862,,,
imu,426.061942,-0.04964668240000001,-9.860548908000002,1.3763495928,2.52730305,2.15284007,-3.92256587,,,
imu,426.070401,-0.0442633072,-9.861147060800002,1.3703680648,2.28056502,1.75656384,-3.81788913,,,
imu,426.078861,-0.0634041968,-9.860548908000002,1.3739569816,2.13102682,1.36776452,-3.58610492,,,
imu,426.087321,-0.0980970592,-9.83961356,1.3739569816,2.01887317,1.25561087,-3.33936689,,,
imu,426.095781,-0.10467674,-9.8294449624,1.3733588288,1.79456587,1.24065705,-3.11505959,,,
imu,426.10424,-0.1040785872,-9.818678212000002,1.3871163432,1.54035093,1.17336486,-3.06272122,,,
imu,426.1127,-0.1202287128,-9.8270523512,1.3972849408,1.40576655,1.28551851,-3.15992105,,,
imu,426.12116,-0.1351825328,-9.8402117128,1.4020701632,1.24875144,1.2780416,-3.1973056,,,
imu,426.12962,-0.1148453376,-9.8270523512,1.3948923296,1.03939796,1.51730272,-3.27955161,,,
imu,426.138079,-0.1004896704,-9.818678212000002,1.402668316,0.85995212,1.74908693,-3.51881273,,,
imu,426.146539,-0.08314323920000001,-9.810902225600001,1.408649844,0.68798319,1.81637912,-3.68330475,,,
imu,426.154999,-0.0675912664,-9.803126239200001,1.4092479968,0.60573718,1.73413311,-3.78798149,,,
imu,426.163365,-0.05562821040000001,-9.800135475200001,1.4182202888,0.6132140899999999,1.66684092,-3.84779677,,,
imu,426.171825,-0.04007623760000001,-9.803126239200001,1.4230055112,0.620691,1.45001053,-3.90761205,,,
imu,426.180285,-0.03947808480000001,-9.802528086400002,1.426594428,0.66555246,1.30794924,-3.90013514,,,
imu,426.188745,-0.05742266880000001,-9.800135475200001,1.429585192,0.620691,1.15093413,-3.76555076,,,
imu,426.197206,-0.07716171120000001,-9.783985349600002,1.432575956,0.77770611,0.94905756,-3.54872037,,,
imu,426.205667,-0.09929336480000002,-9.815687448000002,1.4511186928,0.77770611,0.8593346399999997,-3.3468438,,,
imu,426.214128,-0.110658268,-9.862343366400001,1.4547076096,0.83004448,0.7322271699999998,-3.38422835,,,
imu,426.222589,-0.125612088,-9.8617452136,1.4660725128,0.76275229,0.76213481,-3.58610492,,,
imu,426.23105,-0.140565908,-9.821668976000002,1.474446652,0.620691,0.9789651999999998,-3.63096638,,,
imu,426.239511,-0.1393696024,-9.8144911424,1.456502068,0.70293701,1.19579559,-3.58610492,,,
imu,426.247972,-0.1184342544,-9.802528086400002,1.4720540408,0.64312173,1.47244126,-3.54872037,,,
imu,426.256433,-0.1321917688,-9.7923594888,1.4690632768,0.55339881,1.7266562,-3.36179762,,,
imu,426.264894,-0.1292010048,-9.7959484056,1.4648762072,0.5459219,1.97339423,-3.13001341,,,
imu,426.273355,-0.09091922560000001,-9.8013317808,1.4529131512,0.78518302,2.34723973,-2.9729983,,,
imu,426.281816,-0.05562821040000001,-9.7989391696,1.4553057624,0.94967504,2.42948574,-3.13001341,,,
imu,426.290277,-0.04486146000000001,-9.773816752000002,1.4421464008,0.9347212199999999,2.324809,-3.37675144,,,
imu,426.298738,-0.05383375200000001,-9.758862932000001,1.4307814976,0.9347212199999999,2.2500399,-3.7954584,,,
imu,426.307199,-0.04964668240000001,-9.751685098400001,1.4218092056,1.00201341,2.12293243,-4.124442439999999,,,
imu,426.31566,-0.06220789120000001,-9.7283571392,1.4074535384,1.19641307,2.04068642,-4.16182699,,,
imu,426.324121,-0.0723764888,-9.731946056000002,1.4044627744,1.39828964,1.98087114,-4.07210407,,,
imu,426.332582,-0.08194693360000001,-9.737329431200001,1.4020701632,1.56278166,1.95844041,-4.00481188,,,
imu,426.341043,-0.113649032,-9.758862932000001,1.3984812464,1.93662716,2.01077878,-3.5711511,,,
imu,426.349504,-0.1178361016,-9.793555794400001,1.4044627744,2.00391935,2.27994754,-3.15244414,,,
imu,426.357965,-0.11963056,-9.819276364800002,1.40565908,2.04878081,2.5491163,-2.95804448,,,
imu,426.366426,-0.1142471848,-9.8593526024,1.4128369136,1.94410407,2.79585433,-2.93561375,,,
imu,426.374887,-0.1100601152,-9.8713156584,1.4242018168,1.65250458,2.87810034,-3.02533667,,,
imu,426.383348,-0.09630260080000001,-9.878493492,1.4319778032,1.39081273,3.06502309,-3.18982869,,,
imu,426.391809,-0.07177833600000001,-9.892849159200003,1.4224073584,1.06182869,3.18465365,-3.33188998,,,
imu,426.400276,-0.04725407120000001,-9.864137824800002,1.4224073584,0.70293701,3.30428421,-3.61601256,,,
imu,426.408743,-0.04127254320000001,-9.853969227200002,1.4128369136,0.36647606,3.2220382,-3.8702275,,,
imu,426.417211,-0.04007623760000001,-9.85456738,1.4104443024,0.23189168,3.02763854,-3.89265823,,,
imu,426.425678,-0.0376836264,-9.838417254400001,1.4259962752,0.05244583999999999,2.98277708,-3.90761205,,,
imu,426.434145,-0.0323002512,-9.809107767200002,1.4397537896,0.0001074699999999984,2.69117759,-4.034719519999999,,,
imu,426.442613,-0.05861897440000001,-9.822267128800002,1.417622136,0.04496892999999999,2.52668557,-3.93004278,,,
imu,426.45108,-0.08433954480000001,-9.803126239200001,1.4319778032,-0.02232326000000001,2.36967046,-3.73564312,,,
imu,426.459547,-0.0693857248,-9.7989391696,1.4337722616,0.10478421,2.23508608,-3.78050458,,,
imu,426.468015,-0.0747691,-9.8013317808,1.423603664,0.3889067899999999,2.25751681,-3.78798149,,,
imu,426.476482,-0.1004896704,-9.7714241408,1.4283888864,0.26927623,2.16031698,-3.76555076,,,
imu,425.165234,,,,,,,73.230982,0.7262979999999919,-0.8728000000000069
imu,425.266858,,,,,,,75.428278,0.1159379999999821,-3.30203280000001
imu,425.368359,,,,,,,72.8159372,1.226793199999987,-0.567620000000002
imu,425.469952,,,,,,,73.2065676,0.3722891999999867,-3.021267200000011
imu,425.571484,,,,,,,72.8159372,0.567604399999988,-0.7873496000000091
imu,425.673108,,,,,,,73.27981079999999,0.6652619999999887,-1.092529600000003
imu,425.77467,,,,,,,72.7549012,0.6042259999999855,-0.06712480000000687
imu,425.876172,,,,,,,72.9380092,1.031477999999986,-0.4455480000000067
imu,425.977839,,,,,,,72.681658,0.5065683999999848,-0.2258184000000107
imu,426.079371,,,,,,,73.1577388,0.4089107999999841,-0.2502328000000054
imu,426.181086,,,,,,,75.306206,0.6652619999999887,-1.092529600000003
imu,426.282526,,,,,,,72.79152280000001,0.3112531999999835,-0.4699624000000013
imu,426.38415,,,,,,,75.6846292,0.274631599999986,-3.240996800000007
