Type,Timestamp,Data Accelerometer X,Data Accelerometer Y,Data Accelerometer Z,Data Gyroscope X,Data Gyroscope Y,Data Gyroscope Z,Data Magnetometer X,Data Magnetometer Y,Data Magnetometer Z
imu,56.530009,0.221316536,-9.6733270816,2.2059875264,-0.03727708,2.19022462,-1.08134007,,,
imu,56.538475,0.215335008,-9.699047652,2.2023986096,-0.02980017,2.15284007,-1.27573973,,,
imu,56.546941,0.2105497856,-9.724768222400002,2.216156124,0.0001074699999999984,1.91357895,-1.39537029,,,
imu,56.555407,0.218325772,-9.724768222400002,2.219146888,-0.29149202,1.71917929,-1.64958523,,,
imu,56.563873,0.2314851336,-9.739722042400002,2.243073,-0.40364567,1.55468727,-1.67201596,,,
imu,56.572339,0.197390424,-9.728955292000002,2.240082236,-0.40364567,1.56964109,-1.5523854,,,
imu,56.580805,0.2015774936,-9.710412555200001,2.231109944,-0.62047606,1.52477963,-1.29817046,,,
imu,56.589271,0.1979885768,-9.685290137600001,2.216156124,-0.77001426,1.44253362,-1.30564737,,,
imu,56.597737,0.2021756464,-9.657775108800001,2.2047912208,-0.53823005,1.43505671,-1.17106299,,,
imu,56.606204,0.2015774936,-9.614109954400002,2.1820614144,-0.5681376899999999,1.45748744,-1.21592445,,,
imu,56.61467,0.2111479384,-9.595567217600001,2.1611260664,-0.59056842,1.46496435,-1.253309,,,
imu,56.623136,0.2117460912,-9.5566872856,2.1605279136,-0.66533752,1.39019525,-1.38789338,,,
imu,56.631602,0.20935348,-9.5213962704,2.1724909696,-0.76253735,1.28551851,-1.47013939,,,
imu,56.640068,0.2051664104,-9.513022131200001,2.1467703992,-0.84478336,1.29299542,-1.43275484,,,
imu,56.648534,0.2075590216,-9.5004609224,2.1551445384,-0.70272207,1.3528107,-1.47013939,,,
imu,56.657,0.2075590216,-9.481918185600001,2.150359316,-0.9943215599999999,1.28551851,-1.63463141,,,
imu,56.665466,0.19439966,-9.472347740800002,2.1545463856,-0.92702937,1.30047233,-1.61220068,,,
imu,56.673932,0.2189239248,-9.485507102400002,2.1318165792,-0.80739881,1.25561087,-1.60472377,,,
imu,56.682398,0.2081571744,-9.482516338400002,2.1407888712,-0.81487572,1.39767216,-1.49257012,,,
imu,56.690864,0.218325772,-9.4944793944,2.1527519272,-0.85973718,1.38271834,-1.46266248,,,
imu,56.69933,0.2135405496,-9.490292324800002,2.1569389968,-0.97189083,1.39767216,-1.4776163,,,
imu,56.707683,0.2117460912,-9.5004609224,2.1461722464,-1.20367504,1.36028761,-1.49257012,,,
imu,56.716149,0.206362716,-9.489694172,2.162322372,-1.44293616,1.3528107,-1.65706214,,,
imu,56.724615,0.1985867296,-9.4843107968,2.1419851768,-1.57752054,1.21822632,-1.81407725,,,
imu,56.733081,0.1949978128,-9.4938812416,2.1360036488,-1.51770526,1.11354958,-1.94118472,,,
imu,56.741901,0.19439966,-9.478329268800001,2.1419851768,-1.5476129,1.17336486,-2.12810747,,,
imu,56.75072,0.1949978128,-9.487899713600001,2.1377981072,-1.66724346,1.1285034,-2.24026112,,,
imu,56.75954,0.185427368,-9.5004609224,2.1485648576,-1.53265908,1.16588795,-2.13558438,,,
imu,56.768359,0.1668846312,-9.513022131200001,2.1485648576,-1.37564397,1.18084177,-2.1505382,,,
imu,56.777179,0.1740624648,-9.519003659200001,2.15335008,-1.34573633,1.23318014,-2.26269185,,,
imu,56.785999,0.1650901728,-9.5393408544,2.1467703992,-1.36816706,1.18831868,-2.46456842,,,
imu,56.794818,0.1531271168,-9.567454036,2.150359316,-1.41302852,1.2780416,-2.49447606,,,
imu,56.803638,0.1638938672,-9.6015487456,2.1665094416,-1.1737674,1.44253362,-2.57672207,,,
imu,56.812457,0.1507345056,-9.635643455200002,2.180266956,-1.36069015,1.52477963,-2.748691,,,
imu,56.821277,0.1429585192,-9.6434194416,2.2000059984,-1.49527453,1.4275798,-2.72626027,,,
imu,56.830097,0.1369769912,-9.6499991224,2.2006041512,-1.81678166,1.67431783,-2.64401426,,,
imu,56.838916,0.1297991576,-9.630858232800001,2.2029967624,-2.04108896,1.80890221,-2.63653735,,,
imu,56.847736,0.13458438,-9.639232372,2.2155579712,-2.16819643,1.86871749,-2.50942988,,,
imu,56.856555,0.140565908,-9.645213900000002,2.2095764432,-2.36259609,2.20517844,-2.41970696,,,
imu,56.865375,0.1399677552,-9.6458120528,2.2179505824,-2.53456502,2.45939338,-2.25521494,,,
imu,56.874194,0.1423603664,-9.6326526912,2.2143616656,-2.8186876,2.67622377,-2.12063056,,,
imu,56.883014,0.152528964,-9.614109954400002,2.2239321104,-2.90093361,2.96034635,-1.88136944,,,
imu,56.891834,0.1483418944,-9.578818939200001,2.222137652,-3.13271782,3.11736146,-1.55986231,,,
imu,56.900653,0.1567160336,-9.5602762024,2.232306249600001,-3.40188658,3.43886859,-1.34303192,,,
imu,56.909473,0.1513326584,-9.529770409600001,2.2394840832,-3.58133242,3.66317589,-1.37293956,,,
imu,56.918292,0.1513326584,-9.5118258256,2.2382877776,-3.88788573,3.78280645,-1.5523854,,,
imu,56.927112,0.1597067976,-9.513022131200001,2.2448674584,-3.85797809,3.72299117,-1.86641562,,,
imu,56.935931,0.1740624648,-9.534555632000002,2.2741769456,-4.231823589999999,3.7454219,-2.30755331,,,
imu,56.944718,0.1650901728,-9.5357519376,2.2897289184,-4.321546509999999,3.66317589,-2.57672207,,,
imu,56.953505,0.1746606176,-9.495077547200001,2.281952932,-4.418746339999999,3.62579134,-2.64401426,,,
imu,56.962291,0.1902125904,-9.4735440464,2.2885326128,-4.47108471,3.82766791,-2.41223005,,,
imu,56.971078,0.185427368,-9.48072188,2.2921215296,-4.157054489999999,4.06692903,-2.08324601,,,
imu,56.979864,0.2015774936,-9.481320032800001,2.2855418488,-4.14210067,4.32862088,-1.56733922,,,
imu,56.988651,0.2105497856,-9.450216087200001,2.2783640152,-3.99256247,4.530497449999999,-1.42527793,,,
imu,56.997437,0.2344758976,-9.446627170400001,2.2658028064,-3.76825517,4.70994329,-1.44023175,,,
imu,57.006224,0.2428500368,-9.443038253600001,2.2646065008,-3.39440967,4.56040509,-1.58229304,,,
imu,57.01501,0.2727576768,-9.422102905600001,2.2921215296,-3.117764,4.410866889999999,-1.61220068,,,
imu,57.023797,0.2799355104,-9.418513988800001,2.2855418488,-2.78877996,4.23889796,-1.6271545,,,
imu,57.032583,0.28412258,-9.420906600000002,2.3010938216,-2.39250373,4.11179049,-1.67201596,,,
imu,57.04137,0.2907022608000001,-9.420906600000002,2.2951122936,-2.13828879,3.95477538,-1.69444669,,,
imu,57.050156,0.2996745528,-9.417915836,2.3034864328,-1.75696638,3.86505246,-1.59724686,,,
imu,57.058943,0.2930948720000001,-9.4173176832,2.30288828,-1.41302852,3.72299117,-1.51500085,,,
imu,57.067729,0.3074505392,-9.406550932800002,2.290925224,-1.18124431,3.51363769,-1.43275484,,,
imu,57.076516,0.2918985664000001,-9.419710294400002,2.3010938216,-0.71019898,3.40896095,-1.30564737,,,
imu,57.085302,0.287113344,-9.453206851200001,2.3010938216,-0.41859949,3.18465365,-1.18601681,,,
imu,57.094089,0.2823281216,-9.478329268800001,2.2987012104,-0.16438455,3.10240764,-1.03647861,,,
imu,57.102875,0.2655798432,-9.4962738528,2.2963085992,0.10478421,2.98277708,-1.00657097,,,
imu,57.111662,0.2679724544000001,-9.5154147424,2.3220291696,0.05992275,3.02763854,-0.96918642,,,
imu,57.120448,0.2655798432,-9.519601812000001,2.3292070032,-0.01484635000000001,3.10240764,-0.8719865899999999,,,
imu,57.129235,0.2619909264,-9.5459205352,2.325019933600001,0.05244583999999999,3.21456129,-0.7897405799999999,,,
imu,57.138021,0.2590001624000001,-9.555490980000002,2.3339922256,-0.11204618,3.17717674,-0.82712513,,,
imu,57.146808,0.2578038568000001,-9.5566872856,2.3363848368,-0.26906129,3.39400713,-0.71497148,,,
imu,57.154966,0.245242648,-9.585398620000001,2.3381792952,-0.50832241,3.63326825,-0.91684805,,,
imu,57.163125,0.2410555784,-9.609922884800001,2.3226273224,-0.82982954,3.90243701,-0.9243249599999999,,,
imu,57.171283,0.2566075512,-9.5638651192,2.3202347112,-1.30087487,4.02206757,-1.06638625,,,
imu,57.179441,0.251224176,-9.520199964800002,2.3196365584,-1.33825942,4.2688056,-1.04395552,,,
imu,57.1876,0.260196468,-9.553696521600001,2.311262419200001,-1.42798234,4.4931129,-1.18601681,,,
imu,57.195758,0.2506260232,-9.551303910400001,2.2992993632,-1.61490509,4.807143119999999,-1.47013939,,,
imu,57.203916,0.2799355104,-9.506442450400002,2.2915233768,-1.93641222,4.79966621,-1.73183124,,,
imu,57.212075,0.2942911776,-9.4938812416,2.2981030576,-2.20558098,4.979112049999999,-2.04586146,,,
imu,57.220233,0.2847207328,-9.496872005600002,2.3052808912,-2.11585806,5.12117334,-2.18792275,,,
imu,57.228392,0.2978800944000001,-9.482516338400002,2.3154494888,-2.19062716,5.21837317,-2.25521494,,,
imu,57.23655,0.3056560808,-9.481320032800001,2.3070753496,-2.2205348,5.308096089999999,-2.2253073,,,
imu,57.244708,0.3224043592,-9.486703408,2.3004956688,-2.12333497,5.315573,-2.38979932,,,
imu,57.252867,0.3343674152,-9.486703408,2.2885326128,-1.98875059,5.30061918,-2.39727623,,,
imu,57.261025,0.352910152,-9.471749588000002,2.2837473904,-1.72705874,5.285665359999999,-2.55429134,,,
imu,57.269183,0.3600879856,-9.465169907200002,2.28793446,-1.43545925,5.23332699,-2.62906044,,,
imu,57.277342,0.3654713608,-9.4526086984,2.2831492376,-1.06161375,4.96415823,-2.68887572,,,
imu,57.2855,0.3756399584,-9.450216087200001,2.2861400016,-0.84478336,4.694989469999999,-2.93561375,,,
imu,57.293659,0.3804251808,-9.4424401008,2.2873363072,-0.71019898,4.51554363,-3.11505959,,,
imu,57.301817,0.3780325696000001,-9.4454308648,2.3100661136,-0.56066078,4.20899032,-2.9729983,,,
imu,57.309975,0.3535083048,-9.440645642400002,2.311262419200001,-0.34383039,3.94729847,-2.80850628,,,
imu,57.318134,0.3630787496,-9.420906600000002,2.2992993632,-0.14195382,3.91739083,-2.77859864,,,
imu,57.326292,0.35889168,-9.4203084472,2.2825510848,-0.09709236,3.77532954,-2.5243837,,,
imu,57.33445,0.3379563320000001,-9.4286825864,2.2765695568,0.26179932,3.61831443,-2.2253073,,,
imu,57.342609,0.3325729568,-9.409541696800002,2.2448674584,0.60573718,3.66317589,-2.01595382,,,
imu,57.351061,0.3301803456000001,-9.3868118904,2.2269228744,1.35342818,3.49120696,-1.91127708,,,
imu,57.359513,0.3014690112,-9.4005694048,2.204193068,1.89924261,3.48373005,-1.84398489,,,
imu,57.367965,0.2853188856,-9.429878892000001,2.2077819848,2.30299575,3.38653022,-1.63463141,,,
imu,57.376417,0.2745521352,-9.443038253600001,2.210174596,2.46748777,3.31923803,-1.64958523,,,
imu,57.384869,0.2637853848,-9.465169907200002,2.2095764432,2.69179507,3.46129932,-1.61967759,,,
imu,57.393321,0.2667761488000001,-9.4801237272,2.2167542768,3.05068675,3.64822207,-1.54490849,,,
imu,57.401773,0.2548130928,-9.488497866400001,2.2119690544,3.21517877,3.76785263,-1.37293956,,,
imu,57.410225,0.2859170384,-9.499264616800001,2.2035949152,3.37967079,3.90243701,-1.24583209,,,
imu,57.418678,0.2889078024000001,-9.51062952,2.192230012,3.61893191,3.98468302,-1.1037708,,,
imu,57.42713,0.2835244272,-9.531564868,2.1988096928,3.64136264,4.26132869,-1.05143243,,,
imu,57.435582,0.2799355104,-9.530368562400001,2.1844540256,3.61893191,4.38095925,-0.9617095099999999,,,
imu,57.444034,0.2883096496000001,-9.5213962704,2.1790706504,3.589024269999999,4.54545127,-0.99161715,,,
imu,57.452486,0.3032634696000001,-9.539939007200001,2.1790706504,3.51425517,4.70994329,-1.05143243,,,
imu,57.460938,0.2924967192,-9.565061424800001,2.1754817336,3.32733242,4.75480475,-1.3280781,,,
imu,57.46939,0.2966837888,-9.578220786400001,2.1790706504,3.26751714,4.70994329,-1.53743158,,,
imu,57.477842,0.311039456,-9.588389384000001,2.170696511200001,3.11050203,4.694989469999999,-1.76173888,,,
imu,57.486294,0.3170209840000001,-9.5800152448,2.1689020528,2.84881018,4.7921893,-2.06081528,,,
imu,57.494746,0.3517138464,-9.5776226336,2.180266956,2.51982614,4.84452767,-2.3000764,,,
imu,57.503199,0.3654713608,-9.588389384000001,2.1874447896,2.01887317,4.807143119999999,-2.47204533,,,
imu,57.511651,0.3612842912,-9.5949690648,2.1826595672,1.62259694,4.74732784,-2.47952224,,,
imu,57.520103,0.3391526376000001,-9.568650341600001,2.1587334552,1.12164397,4.672558739999999,-2.56924516,,,
imu,57.528555,0.3469286240000001,-9.574631869600001,2.1306202736,1.06182869,4.694989469999999,-2.46456842,,,
imu,57.537007,0.3505175408000001,-9.550705757600001,2.0869551192,0.9945364999999999,4.72489711,-2.43466078,,,
imu,57.545459,0.3553027632,-9.531564868,2.0684123824,1.01696723,4.53797436,-2.59167589,,,
imu,57.55431,0.3989679176000001,-9.517807353600002,2.0600382432,1.00201341,4.478159079999999,-2.84589083,,,
imu,57.563162,0.4079402096,-9.541733465600002,2.1031052448,0.94967504,4.26132869,-3.17487487,,,
imu,57.572013,0.4043512928,-9.627269316000001,2.150957468800001,1.02444414,3.91739083,-3.28702852,,,
imu,57.580865,0.3971734592000001,-9.676915998400002,2.164714983200001,0.57582954,3.53606842,-3.50385891,,,
imu,57.589716,0.376836264,-9.657775108800001,2.1700983584,0.10478421,3.21456129,-3.60105874,,,
imu,57.598568,0.376836264,-9.616502565600001,2.170696511200001,-0.29896893,2.87062343,-3.80293531,,,
imu,57.607419,0.3451341656,-9.6087265792,2.1587334552,-0.5980453299999999,2.6238854,-3.90761205,,,
imu,57.61627,0.3152265256,-9.6039413568,2.1431814824,-0.71767589,2.49677793,-3.67582784,,,
imu,57.625122,0.2954874832,-9.578220786400001,2.1276295096,-0.9943215599999999,2.52668557,-3.43656672,,,
imu,57.633973,0.2996745528,-9.541135312800002,2.0953292584,-1.24105959,2.63136231,-3.31693616,,,
imu,57.642825,0.3092449976000001,-9.5172092008,2.0791791328,-1.19619813,2.67622377,-3.30945925,,,
imu,57.651676,0.3026653168,-9.5148165896,2.0731976048,-1.20367504,2.83323888,-3.10758268,,,
imu,57.660528,0.2787392048,-9.520798117600002,2.0773846744,-0.91955246,3.05006927,-2.75616791,,,
imu,57.669379,0.2823281216,-9.5010590752,2.0618327016,-1.00927538,3.19960747,-2.62906044,,,
imu,57.67823,0.2607946208,-9.4962738528,2.0618327016,-0.77749117,3.35662258,-2.6739219,,,
imu,57.687082,0.2524204816,-9.504647992000002,2.0612345488,-0.63542988,3.56597606,-2.71878336,,,
imu,57.695933,0.2548130928,-9.519601812000001,2.0761883688,-0.44103022,3.6706528,-2.70382954,,,
imu,57.704785,0.266177996,-9.5423316184,2.0959274112,-0.30644584,3.77532954,-2.72626027,,,
imu,57.713636,0.2679724544000001,-9.587193078400002,2.1096849256,-0.21672292,4.1192674,-2.71878336,,,
imu,57.722488,0.2667761488000001,-9.599156134400001,2.120451676000001,-0.13447691,4.388436159999999,-2.49447606,,,
imu,57.731339,0.2763465936,-9.609324732000001,2.1366018016,-0.127,4.59778964,-2.28512258,,,
imu,57.74019,0.28412258,-9.626671163200001,2.1515556216,-0.23167674,4.94920441,-1.94866163,,,
imu,57.749042,0.3044597752,-9.6326526912,2.1659112888,-0.48589168,5.41277283,-1.58229304,,,
imu,57.757486,0.3086468448,-9.635045302400002,2.1868466368,-1.03918302,5.58474176,-1.27573973,,,
imu,57.765931,0.3283858872000001,-9.6434194416,2.2047912208,-1.25601341,5.74175687,-1.1037708,,,
imu,57.774375,0.3337692624,-9.648204664000001,2.22811918,-1.81678166,5.7641876,-1.12620153,,,
imu,57.78282,0.3403489432000001,-9.657775108800001,2.249652680800001,-2.34764227,5.74175687,-1.05890934,,,
imu,57.791264,0.3457323184,-9.641624983200002,2.2622138896,-2.7439185,5.62960322,-1.23835518,,,
imu,57.799709,0.3445360128,-9.627867468800002,2.264008348,-3.32711748,5.375388279999999,-1.60472377,,,
imu,57.80817,0.3463304712,-9.575828175200002,2.2454656112,-3.95517792,5.05388115,-2.04586146,,,
imu,57.816614,0.3499193880000001,-9.520199964800002,2.2233339576,-4.254254319999999,4.837050759999999,-2.25521494,,,
imu,57.825059,0.3535083048,-9.505844297600001,2.2059875264,-4.50099235,4.58283582,-2.32998404,,,
imu,57.833503,0.340947096,-9.485507102400002,2.1976133872,-4.54585381,4.32862088,-2.26269185,,,
imu,57.841948,0.3445360128,-9.475936657600002,2.1844540256,-4.396315609999999,4.23142105,-1.91875399,,,
imu,57.850392,0.3582935272000001,-9.4490197816,2.1844540256,-4.02994702,4.47068217,-1.45518557,,,
imu,57.858837,0.367863972,-9.440047489600001,2.210174596,-3.96265483,4.61274346,-0.99909406,,,
imu,57.867281,0.3517138464,-9.431075197600002,2.2376896248,-3.865455,4.61274346,-0.4233719899999999,,,
imu,57.875725,0.3696584304000001,-9.4412437952,2.2083801376,-3.64862461,4.79966621,0.02524261000000028,,,
imu,57.88417,0.3732473472,-9.443636406400001,2.2203431936,-3.476655679999999,4.8669584,0.13739626,,,
imu,57.892614,0.3696584304000001,-9.4203084472,2.208978290400001,-2.98317962,5.0164966,0.2345960900000001,,,
imu,57.901059,0.3995660704000001,-9.4215047528,2.164714983200001,-2.48970356,4.837050759999999,0.36170356,,,
imu,57.909503,0.400762376,-9.384419279200001,2.1276295096,-2.1457657,4.762281659999999,0.2271191799999999,,,
imu,57.917948,0.4199032656,-9.33118368,2.0959274112,-1.45041307,4.62769728,-0.07943412999999988,,,
imu,57.926392,0.4264829464000001,-9.3006778872,2.0702068408,-0.71767589,4.50806672,-0.55047946,,,
imu,57.934837,0.4450256832000001,-9.3060612624,2.045682576,0.20946095,4.433297619999999,-0.85703277,,,
imu,56.623027,,,,,,,-89.613066,177.5964188,110.7498368
imu,56.72465,,,,,,,-89.307886,177.1569596,110.4446568
imu,56.826091,,,,,,,-89.69851639999999,177.4621396,110.7986656
imu,56.927714,,,,,,,-89.40554359999999,177.5964188,111.0794312
imu,57.029277,,,,,,,-88.8440124,176.9860588,110.7742512
imu,57.1309,,,,,,,-89.18581400000001,177.4499324,110.456864
imu,57.943281,0.451605364,-9.322809540800002,2.0379065896,1.30108981,4.31366706,-1.20844754,,,
imu,57.951726,0.4456238360000001,-9.3754469872,2.0444862704,2.09364227,4.27628251,-1.63463141,,,
imu,57.960188,0.4288755576000001,-9.420906600000002,2.0660197712,2.78151799,4.35105161,-1.85893871,,,
imu,57.96865,0.4378478496000001,-9.4801237272,2.0749920632,3.23013259,4.40338998,-1.99352309,,,
imu,57.977112,0.4551942808000001,-9.527377798400002,2.0827680496,3.43948607,4.40338998,-2.24026112,,,
imu,57.985575,0.4557924336,-9.555490980000002,2.1060960088,3.4619168,4.44825144,-2.38979932,,,
imu,57.994037,0.4533998224,-9.562668813600002,2.1162646064,3.20770186,4.36600543,-2.61410662,,,
imu,58.002499,0.4719425592000001,-9.578220786400001,2.1276295096,3.0880713,4.32114397,-2.64401426,,,
imu,58.010962,0.4677554896000001,-9.6075302736,2.1186572176,2.88619473,4.18655959,-2.80850628,,,
imu,58.019424,0.4551942808000001,-9.609922884800001,2.1138719952,2.4151494,4.05945212,-3.09262886,,,
imu,58.027886,0.4533998224,-9.61530626,2.1162646064,1.71979677,3.88000628,-3.33936689,,,
imu,58.036348,0.4492127528000001,-9.616502565600001,2.0821698968,1.38333582,3.85009864,-3.38422835,,,
imu,58.044811,0.4282774048000001,-9.599156134400001,2.0684123824,1.07678251,3.84262173,-3.30198234,,,
imu,58.053273,0.4390441552000001,-9.596763523200002,2.0492714928,0.83004448,3.99215993,-3.13749032,,,
imu,58.061735,0.4384460024000001,-9.597959828800002,2.0582437848,0.71789083,3.93982156,-2.93561375,,,
imu,58.070197,0.4342589328000001,-9.593174606400002,2.0420936592,0.40386061,4.216467229999999,-2.78607555,,,
imu,58.07866,0.4468201416000001,-9.590183842400002,2.0408973536,0.11973803,4.27628251,-2.62906044,,,
imu,58.087122,0.4390441552000001,-9.583006008800002,2.0414955064,-0.28401511,4.17908268,-2.57672207,,,
imu,58.095584,0.4318663216,-9.562668813600002,2.051664104,-0.4260764,4.216467229999999,-2.56176825,,,
imu,58.104047,0.4480164472000001,-9.572837411200002,2.0618327016,-0.44850713,4.29871324,-2.43466078,,,
imu,58.112509,0.430670016,-9.575828175200002,2.07858098,-0.61299915,4.25385178,-2.65896808,,,
imu,58.120971,0.4366515440000001,-9.5602762024,2.0761883688,-1.11395212,4.246374869999999,-2.78607555,,,
imu,58.129433,0.4444275304,-9.573435564,2.0857588136,-1.31582869,4.32862088,-2.9729983,,,
imu,58.137896,0.4450256832000001,-9.571641105600001,2.0797772856,-1.54013599,4.35105161,-3.18235178,,,
imu,58.146358,0.4569887392,-9.554892827200002,2.0911421888,-1.5476129,4.26132869,-3.36179762,,,
imu,58.15482,0.4683536424000001,-9.5429297712,2.0887495776,-1.61490509,4.29123633,-3.52628964,,,
imu,58.16329,0.4599795032,-9.520199964800002,2.0791791328,-1.67472037,4.23142105,-3.78050458,,,
imu,58.17176,0.4665591840000001,-9.516611048000001,2.0833662024,-1.65976655,4.126744309999999,-3.99733497,,,
imu,58.18023,0.4617739616000001,-9.495675700000001,2.084562508,-1.70462801,4.07440594,-4.13191935,,,
imu,58.1887,0.4414367664,-9.46576806,2.081571744,-1.73453565,3.90991392,-4.25902682,,,
imu,58.19717,0.4504090584,-9.4753385048,2.0989181752,-1.64481273,3.93234465,-4.386134289999999,,,
imu,58.20564,0.4378478496000001,-9.499264616800001,2.120451676000001,-1.74201256,3.70803735,-4.55810322,,,
imu,58.214109,0.4234921824,-9.5327611736,2.1371999544,-1.68219728,3.5958837,-4.82727198,,,
imu,58.222579,0.4085383624000001,-9.558481744000002,2.1491630104,-1.70462801,3.30428421,-5.08148692,,,
imu,58.231049,0.3995660704000001,-9.554892827200002,2.162322372,-1.89902767,3.10240764,-5.350655679999999,,,
imu,58.239519,0.4091365152000001,-9.5381445488,2.1437796352,-1.89155076,2.93791562,-5.42542478,,,
imu,58.247989,0.4061457512000001,-9.529770409600001,2.1377981072,-1.73453565,2.83323888,-5.238502029999999,,,
imu,58.256459,0.4037531400000001,-9.5237888816,2.1282276624,-1.49527453,2.81080815,-4.80484125,,,
imu,58.264929,0.3882011672000001,-9.520199964800002,2.1007126336,-1.23358268,2.82576197,-4.23659609,,,
imu,58.273399,0.4013605288,-9.519601812000001,2.0911421888,-0.9644139199999999,2.78837742,-3.83284295,,,
imu,58.281869,0.3947808480000001,-9.5172092008,2.1156664536,-0.65786061,2.70613141,-3.68330475,,,
imu,58.290339,0.4049494456000001,-9.517807353600002,2.1318165792,-0.30644584,2.54163939,-3.66835093,,,
imu,58.298808,0.4270810992000001,-9.5291722568,2.1240405928,-0.26906129,2.4743472,-3.70573548,,,
imu,58.307278,0.4001642232,-9.548313146400002,2.1318165792,-0.23167674,2.26499372,-3.93004278,,,
imu,58.315748,0.3965753064,-9.5704448,2.1330128848,-0.23167674,1.90610204,-4.23659609,,,
imu,58.324218,0.382817792,-9.588987536800001,2.126433204,-0.45598404,1.55468727,-4.57305704,,,
imu,58.332688,0.3756399584,-9.569248494400002,2.1276295096,-0.4260764,1.28551851,-4.78988743,,,
imu,58.341158,0.3600879856,-9.538742701600002,2.1090867728,-0.67281443,1.0537343,-5.05905619,,,
imu,58.349628,0.3600879856,-9.5249851872,2.0983200224,-0.85973718,1.00887284,-5.283363489999999,,,
imu,58.358098,0.3307784984000001,-9.528574104,2.0929366472,-1.10647521,1.08364194,-5.38804023,,,
imu,58.366544,0.3265914288,-9.5393408544,2.1019089392,-1.07656757,1.00139593,-5.35813259,,,
imu,58.37499,0.3026653168,-9.541733465600002,2.1013107864,-0.9494601,1.24813396,-5.350655679999999,,,
imu,58.383436,0.2883096496000001,-9.5501076048,2.1001144808,-1.24105959,1.41262598,-5.38056332,,,
imu,58.391882,0.2865151912,-9.534555632000002,2.1120775368,-1.10647521,1.68179474,-5.42542478,,,
imu,58.400328,0.2907022608000001,-9.548313146400002,2.1120775368,-1.36069015,1.91357895,-5.589916799999999,,,
imu,58.408774,0.2859170384,-9.543527924000001,2.130022120800001,-1.37564397,2.14536316,-5.53757843,,,
imu,58.41722,0.2649816904,-9.527377798400002,2.1395925656,-1.36816706,2.36967046,-5.42542478,,,
imu,58.425666,0.2715613712,-9.530368562400001,2.13839626,-1.29339796,2.63883922,-5.45533242,,,
imu,58.434112,0.2703650656,-9.513022131200001,2.1252368984,-1.31582869,2.76594669,-5.35813259,,,
imu,58.442558,0.2883096496000001,-9.5040498392,2.12344244,-1.21862886,3.02016163,-5.18616366,,,
imu,58.451004,0.2769447464000001,-9.516012895200001,2.099516328,-1.15133667,3.10240764,-5.2908404,,,
imu,58.45945,0.2817299688000001,-9.522592576000001,2.1037033976,-0.78496808,3.05754618,-5.27588658,,,
imu,58.467896,0.2895059552,-9.508835061600001,2.1192553704,-0.80739881,2.79585433,-5.45533242,,,
imu,58.476342,0.2907022608000001,-9.520199964800002,2.132414732,-0.65786061,2.67622377,-5.72450118,,,
imu,58.484788,0.281131816,-9.554892827200002,2.1360036488,-0.61299915,2.36967046,-5.851608649999999,,,
imu,58.493234,0.2948893304,-9.551303910400001,2.1222461344,-0.5307531400000001,2.07807097,-5.85908556,,,
imu,58.50168,0.2907022608000001,-9.5602762024,2.1401907184,-0.48589168,1.91357895,-5.85908556,,,
imu,58.510127,0.2500278704,-9.578220786400001,2.1467703992,-0.40364567,1.59207182,-5.477763149999999,,,
imu,58.518573,0.2278962168,-9.636839760800001,2.1479667048,-0.41112258,1.577118,-5.03662546,,,
imu,58.527019,0.1866236736,-9.655382497600002,2.1180590648,-0.60552224,1.51730272,-4.78988743,,,
imu,58.535465,0.1979885768,-9.614708107200002,2.106694161600001,-0.82982954,1.50982581,-4.64034923,,,
imu,58.543911,0.2021756464,-9.591978300800001,2.1180590648,-0.85973718,1.43505671,-4.59548777,,,
imu,58.552357,0.1746606176,-9.582407856000001,2.0989181752,-0.9494601,1.2780416,-4.4683803,,,
imu,58.560803,0.1507345056,-9.571042952800001,2.0803754384,-0.88964482,1.13598031,-4.43847266,,,
imu,58.569249,0.1363788384,-9.539939007200001,2.0654216184,-0.874691,1.28551851,-4.49081103,,,
imu,58.577842,0.1297991576,-9.4962738528,2.060636396,-0.7251528,1.47244126,-4.3936112,,,
imu,58.586435,0.09749890640000002,-9.496872005600002,2.036710284,-0.64290679,1.61450255,-4.30388828,,,
imu,58.595029,0.080750628,-9.506442450400002,2.0265416864,-0.53823005,1.83133294,-4.057150249999999,,,
imu,58.603622,0.08852661440000001,-9.5172092008,2.0079989496,-0.19429219,2.20517844,-4.102011709999999,,,
imu,58.612215,0.07716171120000001,-9.519003659200001,2.012784172,-0.18681528,2.43696265,-4.04219643,,,
imu,58.620808,0.09151737840000002,-9.533957479200001,2.0151767832,0.06739966,2.75846978,-3.91508896,,,
imu,58.629402,0.0933118368,-9.583006008800002,2.0259435336,0.08235347999999998,3.10988455,-3.90013514,,,
imu,58.637995,0.09390998960000001,-9.6159044128,2.0408973536,-0.07466163,3.39400713,-3.91508896,,,
imu,58.646588,0.107667504,-9.633848996800001,2.0474770344,-0.35878421,3.58092988,-3.98238115,,,
imu,58.655181,0.1208268656,-9.632054538400002,2.0510659512,-0.77749117,3.80523718,-4.13191935,,,
imu,58.663775,0.1238176296,-9.634447149600001,2.051664104,-1.03170611,3.96225229,-4.19921154,,,
imu,58.672368,0.1441548248,-9.620689635200002,2.0444862704,-1.31582869,3.91739083,-4.31136519,,,
imu,58.680961,0.170473548,-9.599754287200001,2.030728756,-1.52518217,4.0444983,-4.29641137,,,
imu,58.689554,0.1830347568,-9.5907819952,2.0325232144,-1.75696638,4.07440594,-4.47585721,,,
imu,58.698147,0.173464312,-9.599156134400001,2.036710284,-1.87659694,4.02954448,-4.58053395,,,
imu,58.706741,0.173464312,-9.617100718400001,2.0385047424,-2.03361205,3.77532954,-4.53567249,,,
imu,58.715334,0.1967922712,-9.616502565600001,2.0432899648,-2.18315025,3.63326825,-4.55810322,,,
imu,58.723927,0.1872218264,-9.626671163200001,2.0618327016,-2.34764227,3.3715764,-4.715118329999999,,,
imu,58.73252,0.1728661592,-9.609922884800001,2.0749920632,-2.61681103,3.24446893,-4.68521069,,,
imu,58.741114,0.1638938672,-9.599754287200001,2.1072923144,-2.81121069,3.06502309,-4.55062631,,,
imu,58.749707,0.1668846312,-9.6775141512,2.117460912,-2.85607215,2.86314652,-4.453426479999999,,,
imu,57.232465,,,,,,,-87.11059000000002,176.4123204,109.1018648
imu,57.333997,,,,,,,-89.40554359999999,177.730698,110.5911432
imu,57.435559,,,,,,,-86.8298244,177.0348876,108.3450184
imu,57.537061,,,,,,,-89.124778,177.5597972,111.6653768
imu,57.638867,,,,,,,-89.1980212,177.3766892,110.0418192
imu,57.740247,,,,,,,-89.24685000000001,177.1569596,111.799656
imu,57.84184,,,,,,,-89.40554359999999,177.6818692,111.8973136
imu,57.943341,,,,,,,-89.1980212,177.6452476,111.3357824
imu,58.7583,0.173464312,-9.6326526912,2.1060960088,-3.32711748,2.6238854,-4.28893446,,,
imu,58.766893,0.1609031032,-9.592576453600001,2.1330128848,-3.59628624,2.41453192,-4.13191935,,,
imu,58.775487,0.1477437416,-9.5949690648,2.1312184264,-3.46170186,2.25751681,-4.06462716,,,
imu,58.784155,0.1411640608,-9.611119190400002,2.1377981072,-3.73834753,1.96591732,-4.079580979999999,,,
imu,58.792823,0.1208268656,-9.5985579816,2.1288258152,-3.87293191,1.90610204,-4.00481188,,,
imu,58.801492,0.1172379488,-9.562668813600002,2.1348073432,-4.11966994,1.86871749,-3.96742733,,,
imu,58.81016,0.1082656568,-9.527975951200002,2.1366018016,-4.157054489999999,1.79394839,-3.81041222,,,
imu,58.818828,0.09151737840000002,-9.507040603200002,2.1431814824,-4.11219303,1.75656384,-3.47395127,,,
imu,58.827497,0.0741709472,-9.5219944232,2.1467703992,-4.0149932,1.83880985,-3.26459779,,,
imu,58.836165,0.0562263632,-9.5381445488,2.1617242192,-4.11219303,1.81637912,-3.40665908,,,
imu,58.844833,0.0532355992,-9.5249851872,2.1748835808,-3.9402241,1.67431783,-3.42908981,,,
imu,58.853502,0.0634041968,-9.538742701600002,2.205389373600001,-4.12714685,1.71917929,-3.60853565,,,
imu,58.86217,0.0382817792,-9.579417092000002,2.2239321104,-4.07480848,1.67431783,-3.68330475,,,
imu,58.870838,0.0275150288,-9.596165370400001,2.2317080968,-4.12714685,1.75656384,-3.6459202,,,
imu,58.879506,0.03887993200000001,-9.571042952800001,2.2442693056,-4.08228539,1.98834805,-3.48142818,,,
imu,58.888175,0.04545961280000001,-9.5381445488,2.2352970136,-4.41126943,2.23508608,-3.1973056,,,
imu,58.896693,0.03588916800000001,-9.516611048000001,2.2436711528,-4.044900839999999,2.5491163,-2.5991528,,,
imu,58.905362,0.04964668240000001,-9.513022131200001,2.2209413464,-3.93274719,2.80333124,-2.35989168,,,
imu,58.91403,0.05443190480000001,-9.486105255200002,2.210174596,-3.760778259999999,3.02763854,-2.34493786,,,
imu,58.922698,0.06519865520000001,-9.456197615200002,2.2095764432,-3.44674804,3.17717674,-2.49447606,,,
imu,58.931367,0.080750628,-9.423897364000002,2.1958189288,-3.28225602,3.1472691,-2.56924516,,,
imu,58.940035,0.0813487808,-9.415523224800001,2.2006041512,-2.72896468,3.17717674,-2.6739219,,,
imu,58.948703,0.0723764888,-9.418513988800001,2.2077819848,-2.45979592,3.16222292,-2.83841392,,,
imu,58.957371,0.0741709472,-9.423897364000002,2.2119690544,-2.25791935,3.16969983,-3.01038285,,,
imu,58.96604,0.0741709472,-9.422102905600001,2.208978290400001,-2.11585806,3.19213056,-2.95804448,,,
imu,58.974708,0.06998387760000001,-9.429878892000001,2.210174596,-1.73453565,3.32671494,-2.89075229,,,
imu,58.983187,0.06460050240000001,-9.441841948000002,2.216156124,-1.57004363,3.46877623,-2.83841392,,,
imu,58.991666,0.0753672528,-9.468160671200001,2.2215394992,-1.21862886,3.42391477,-2.77112173,,,
imu,59.000145,0.0783580168,-9.481918185600001,2.2305117912,-0.92702937,3.45382241,-2.68887572,,,
imu,59.008623,0.0753672528,-9.4980683112,2.2269228744,-0.80739881,3.57345297,-2.62906044,,,
imu,59.017102,0.08792846160000001,-9.507040603200002,2.2173524296,-0.68029134,3.65569898,-2.44213769,,,
imu,59.025581,0.08314323920000001,-9.5148165896,2.2388859304,-0.68776825,3.71551426,-2.28512258,,,
imu,59.03406,0.0735727944,-9.520798117600002,2.232306249600001,-0.60552224,3.78280645,-2.31503022,,,
imu,59.042539,0.0753672528,-9.536350090400001,2.2239321104,-0.55318387,3.78280645,-2.32250713,,,
imu,59.051017,0.0933118368,-9.522592576000001,2.2263247216,-0.59056842,3.68560662,-2.3748455,,,
imu,59.059496,0.09570444800000001,-9.533957479200001,2.231109944,-0.66533752,3.58092988,-2.40475314,,,
imu,59.067975,0.09989151760000002,-9.527975951200002,2.228717332800001,-0.6279529699999999,3.64074516,-2.46456842,,,
imu,59.076454,0.09151737840000002,-9.560874355200001,2.2137635128,-0.5980453299999999,3.63326825,-2.46456842,,,
imu,59.084933,0.08852661440000001,-9.5381445488,2.2173524296,-0.82982954,3.61083752,-2.62906044,,,
imu,59.093411,0.1220231712,-9.5501076048,2.2143616656,-0.97189083,3.71551426,-2.5991528,,,
imu,59.10189,0.107667504,-9.583604161600002,2.2394840832,-0.98684465,3.6706528,-2.65896808,,,
imu,59.110369,0.09510629520000001,-9.617100718400001,2.243073,-1.14385976,3.6706528,-2.83093701,,,
imu,59.118848,0.1040785872,-9.6296619272,2.2466619168,-1.45788998,3.61831443,-2.99542903,,,
imu,59.127327,0.1268083936,-9.597959828800002,2.2448674584,-1.79435093,3.49120696,-3.07019813,,,
imu,59.135805,0.1292010048,-9.579417092000002,2.2652046536,-2.17567334,3.34914567,-3.11505959,,,
imu,59.144284,0.1070693512,-9.595567217600001,2.2646065008,-2.30278081,3.32671494,-2.86832156,,,
imu,59.152763,0.101685976,-9.595567217600001,2.2508489864,-2.4448421,3.26689966,-2.79355246,,,
imu,59.161242,0.1010878232,-9.5740337168,2.249054528,-2.82616451,3.16222292,-2.70382954,,,
imu,59.169721,0.107667504,-9.537546396000002,2.2317080968,-3.07290254,3.22951511,-2.62158353,,,
imu,59.178199,0.1184342544,-9.51062952,2.2299136384,-2.93084125,3.16222292,-2.62906044,,,
imu,59.186761,0.09869521200000002,-9.4735440464,2.2209413464,-3.05047181,2.96034635,-2.70382954,,,
imu,59.195322,0.08912476720000001,-9.475936657600002,2.2185487352,-2.93831816,2.84071579,-2.80102937,,,
imu,59.203884,0.08493769760000001,-9.46576806,2.2197450408,-2.75887232,2.78837742,-2.9729983,,,
imu,59.212445,0.07118018320000001,-9.4555994624,2.2107727488,-2.73644159,2.72856214,-3.21225942,,,
imu,59.221007,0.07118018320000001,-9.4591883792,2.2083801376,-2.25044244,2.73603905,-3.21973633,,,
imu,59.229568,0.07177833600000001,-9.46576806,2.2233339576,-1.96631986,2.66126995,-3.2720747,,,
imu,59.23813,0.04845037680000001,-9.478927421600002,2.222137652,-1.59247436,2.76594669,-3.18982869,,,
imu,59.246691,0.0382817792,-9.48072188,2.2352970136,-1.42798234,2.80333124,-2.95804448,,,
imu,59.255252,0.0442633072,-9.4944793944,2.243073,-1.42798234,2.99025399,-2.80102937,,,
imu,59.263814,0.05562821040000001,-9.505844297600001,2.2466619168,-1.35321324,3.08745382,-2.77859864,,,
imu,59.272375,0.04545961280000001,-9.499862769600002,2.253839750400001,-1.2485365,3.16222292,-2.64401426,,,
imu,59.280937,0.06699311360000001,-9.5184055064,2.2717843344,-1.26349032,3.22951511,-2.68887572,,,
imu,59.289498,0.0663949608,-9.529770409600001,2.2783640152,-1.23358268,3.2968073,-2.68139881,,,
imu,59.29806,0.0735727944,-9.530966715200002,2.2933178352,-1.30835178,3.34914567,-2.71878336,,,
imu,59.306621,0.07058203040000001,-9.513620284000002,2.293915988,-1.42798234,3.31923803,-2.72626027,,,
imu,59.315183,0.0753672528,-9.51062952,2.290925224,-1.50275144,3.38653022,-2.65896808,,,
imu,59.323744,0.06160973840000001,-9.495077547200001,2.2795603208,-1.40555161,3.4463455,-2.47952224,,,
imu,59.332305,0.04845037680000001,-9.487899713600001,2.2687935704,-1.44293616,3.45382241,-2.68139881,,,
imu,59.340867,0.0502448352,-9.486105255200002,2.2646065008,-1.34573633,3.5211146,-2.71878336,,,
imu,59.349428,0.05084298800000001,-9.484908949600001,2.278962168,-1.22610577,3.45382241,-2.77112173,,,
imu,59.35799,0.05084298800000001,-9.474740352000001,2.2604194312,-1.0989983,3.49868387,-2.78607555,,,
imu,59.366551,0.06699311360000001,-9.471151435200001,2.2753732512,-1.00179847,3.55102224,-2.94309066,,,
imu,59.375113,0.04605776560000001,-9.4801237272,2.2628120424,-0.79244499,3.72299117,-3.00290594,,,
imu,59.383674,0.05742266880000001,-9.481320032800001,2.2705880288,-0.62047606,3.79028336,-2.88327538,,,
imu,59.392042,0.0592171272,-9.48072188,2.255036056,-0.38121494,3.76785263,-2.89075229,,,
imu,59.400411,0.07177833600000001,-9.488497866400001,2.2514471392,-0.33635348,3.78280645,-3.00290594,,,
imu,59.408779,0.07656355840000001,-9.5040498392,2.2598212784,-0.38121494,3.75289881,-3.05524431,,,
imu,59.417147,0.07955432240000002,-9.5219944232,2.264008348,-0.35878421,3.78280645,-3.09262886,,,
imu,59.425515,0.08433954480000001,-9.553696521600001,2.2741769456,-0.38869185,3.73046808,-3.07767504,,,
imu,59.433883,0.08912476720000001,-9.554892827200002,2.2735787928,-0.33635348,3.67812971,-3.03281358,,,
imu,59.442251,0.08792846160000001,-9.533359326400001,2.2616157368,-0.5681376899999999,3.46129932,-2.8982292,,,
imu,59.45062,0.09690075360000001,-9.520798117600002,2.280756626400001,-0.47841477,3.5211146,-2.59167589,,,
imu,59.458988,0.0903210728,-9.532163020800002,2.2723824872,-0.68029134,3.46877623,-2.32250713,,,
imu,59.467356,0.0861340032,-9.557285438400001,2.2646065008,-0.90459864,3.26689966,-2.34493786,,,
imu,59.475724,0.08254508640000002,-9.557883591200001,2.2711861816,-1.01675229,3.22951511,-2.21783039,,,
imu,59.484092,0.08733030880000002,-9.568650341600001,2.286738154400001,-1.12890594,3.10988455,-2.20287657,,,
imu,59.49246,0.05861897440000001,-9.606932120800002,2.3034864328,-1.36816706,2.9977309,-2.33746095,,,
imu,59.500829,0.0550300576,-9.6039413568,2.311860572000001,-1.57752054,2.79585433,-2.32250713,,,
imu,59.509197,0.05383375200000001,-9.558481744000002,2.2992993632,-1.75696638,2.91548489,-2.24026112,,,
imu,59.517565,0.04845037680000001,-9.5172092008,2.3022901272,-1.87659694,3.12483837,-1.85893871,,,
imu,59.525933,0.03349655680000001,-9.507040603200002,2.290925224,-2.13828879,3.31923803,-1.46266248,,,
imu,59.534301,0.007177833600000002,-9.5172092008,2.2622138896,-2.12333497,3.5211146,-1.29069355,,,
imu,59.54267,0.004785222400000001,-9.520199964800002,2.2574286672,-2.00370441,3.66317589,-1.27573973,,,
imu,59.551038,0.0137575144,-9.470553282400001,2.2358951664,-1.68219728,3.88000628,-1.32060119,,,
imu,59.559406,0.03349655680000001,-9.416719530400002,2.2317080968,-1.4728438,4.01459066,-1.60472377,,,
imu,59.567774,0.03289840400000001,-9.414326919200002,2.2329044024,-1.24105959,4.246374869999999,-1.97109236,,,
imu,58.044965,,,,,,,-88.9172556,178.035878,111.1038456
imu,58.146466,,,,,,,-88.6242828,177.4621396,110.8597016
imu,58.249036,,,,,,,-89.55203,177.8893916,111.0306024
imu,58.349713,,,,,,,-86.89086040000001,177.0715092,109.0286216
imu,58.458997,,,,,,,-89.3811292,177.5231756,110.6033504
imu,58.560559,,,,,,,-87.1960404,176.8884012,110.9817736
imu,58.662091,,,,,,,-89.7839668,177.2912388,111.2259176
imu,58.767072,,,,,,,-90.0281108,177.0837164,110.7254224
imu,59.576142,0.0340947096,-9.4322715032,2.2275210272,-1.00927538,4.38095925,-2.15801511,,,
imu,59.58451,0.04127254320000001,-9.436458572800001,2.2454656112,-0.70272207,4.50806672,-2.24773803,,,
imu,59.593322,0.04845037680000001,-9.4412437952,2.255036056,-0.23167674,4.6426511,-2.32250713,,,
imu,59.602134,0.06579680800000001,-9.4526086984,2.2693917232,-0.02232326000000001,4.7921893,-2.32250713,,,
imu,59.610945,0.0753672528,-9.4591883792,2.2783640152,0.01506129,5.05388115,-2.18044584,,,
imu,59.619757,0.0861340032,-9.469356976800002,2.2711861816,0.35152224,5.001542779999999,-1.91127708,,,
imu,59.628568,0.09450814240000002,-9.4843107968,2.2658028064,0.36647606,5.06135806,-1.75426197,,,
imu,59.63738,0.1094619624,-9.4962738528,2.2675972648,0.49358353,5.00901969,-1.61220068,,,
imu,59.646192,0.125612088,-9.495077547200001,2.2544379032,0.50853735,4.8669584,-1.51500085,,,
imu,59.655003,0.1214250184,-9.519003659200001,2.2562323616,0.44872207,4.65760492,-1.50752394,,,
imu,59.663815,0.1274065464,-9.52558334,2.237091472,0.50853735,4.59778964,-1.42527793,,,
imu,59.672627,0.1333880744,-9.5291722568,2.22811918,0.27675314,4.60526655,-1.41032411,,,
imu,59.681438,0.1381732968,-9.5291722568,2.2305117912,0.29170696,4.51554363,-1.28321664,,,
imu,59.69025,0.1531271168,-9.547116840800001,2.2239321104,0.30666078,4.433297619999999,-1.34303192,,,
imu,59.699061,0.1495382,-9.567454036,2.216156124,0.22441477,4.216467229999999,-1.35798574,,,
imu,59.707873,0.1477437416,-9.593174606400002,2.2173524296,0.20198404,4.194036499999999,-1.29817046,,,
imu,59.716685,0.1513326584,-9.6039413568,2.222137652,0.08983038999999998,4.194036499999999,-1.29817046,,,
imu,59.725496,0.1483418944,-9.602146898400001,2.2239321104,-0.14943073,4.149175039999999,-1.31312428,,,
imu,59.734308,0.1567160336,-9.603343204000002,2.2382877776,-0.34383039,4.07440594,-1.19349372,,,
imu,59.74312,0.1459492832,-9.651195428000001,2.261017584,-0.71019898,3.99215993,-1.36546265,,,
imu,59.751931,0.1274065464,-9.669140012000002,2.2622138896,-1.18872122,3.88000628,-1.60472377,,,
imu,59.760743,0.1411640608,-9.655382497600002,2.2556342088,-1.54013599,3.86505246,-1.78416961,,,
imu,59.769554,0.1567160336,-9.608128426400002,2.2604194312,-2.11585806,3.80523718,-2.03838455,,,
imu,59.778366,0.1609031032,-9.591978300800001,2.2687935704,-2.55699575,3.99215993,-2.1505382,,,
imu,59.787178,0.1453511304,-9.597361676,2.2526434448,-2.63924176,4.08935976,-2.04586146,,,
imu,59.795656,0.128602852,-9.592576453600001,2.252045292,-2.8186876,4.35852852,-1.91127708,,,
imu,59.804135,0.1274065464,-9.5566872856,2.2418766944,-2.94579507,4.51554363,-1.94866163,,,
imu,59.812614,0.1447529776,-9.5429297712,2.2376896248,-3.07290254,4.53797436,-2.12063056,,,
imu,59.821093,0.1495382,-9.5219944232,2.234100708,-2.96074889,4.68751256,-2.30755331,,,
imu,59.829572,0.1591086448,-9.506442450400002,2.2335025552,-3.10281018,4.68751256,-2.57672207,,,
imu,59.83805,0.1668846312,-9.468160671200001,2.222735804800001,-3.14767164,4.59031273,-2.98795212,,,
imu,59.846529,0.1746606176,-9.440047489600001,2.2239321104,-2.8934567,4.63517419,-3.08515195,,,
imu,59.855008,0.1698753952,-9.430477044800002,2.204193068,-2.5196112,4.500589809999999,-3.16739796,,,
imu,59.863487,0.1746606176,-9.432869656000001,2.207183832,-2.370073,4.48563599,-3.25712088,,,
imu,59.871966,0.1728661592,-9.447225323200001,2.2065856792,-2.13081188,4.39591307,-3.33936689,,,
imu,59.880444,0.1603049504,-9.453805004000001,2.205389373600001,-1.8466893,4.35852852,-3.32441307,,,
imu,59.888923,0.1788476872,-9.457393920800001,2.2095764432,-1.74201256,4.32862088,-3.06272122,,,
imu,59.897402,0.1662864784,-9.4669643656,2.1964170816,-1.52518217,4.3435747,-2.85336774,,,
imu,59.905881,0.1656883256,-9.4938812416,2.210174596,-1.31582869,4.18655959,-2.66644499,,,
imu,59.91436,0.17944584,-9.5118258256,2.2203431936,-1.21115195,4.06692903,-2.39727623,,,
imu,59.922838,0.1728661592,-9.5327611736,2.232306249600001,-1.20367504,3.9697292,-2.35241477,,,
imu,59.931317,0.1758569232,-9.552500216,2.2317080968,-1.39059779,3.64074516,-2.24026112,,,
imu,59.939796,0.1692772424,-9.5602762024,2.2329044024,-1.12142903,3.70803735,-1.93370781,,,
imu,59.948275,0.1770532288,-9.564463272000001,2.2448674584,-1.1737674,3.68560662,-1.69444669,,,
imu,59.956754,0.1638938672,-9.561472508000001,2.22811918,-1.18872122,3.61831443,-1.4776163,,,
imu,59.965232,0.1591086448,-9.5638651192,2.2448674584,-1.16629049,3.58840679,-1.39537029,,,
imu,59.973711,0.155519728,-9.559678049600002,2.2299136384,-1.57004363,3.47625314,-1.49257012,,,
imu,59.98219,0.1417622136,-9.551902063200002,2.228717332800001,-1.76444329,3.43886859,-1.41780102,,,
imu,59.990565,0.1597067976,-9.5357519376,2.2203431936,-1.8466893,3.49120696,-1.41780102,,,
imu,59.999014,0.1591086448,-9.536948243200001,2.2335025552,-2.01865823,3.48373005,-1.50004703,,,
imu,60.007462,0.1573141864,-9.556089132800002,2.2526434448,-2.01118132,3.61831443,-1.56733922,,,
imu,60.015911,0.1507345056,-9.556089132800002,2.2502508336,-2.34016536,3.72299117,-1.52247776,,,
imu,60.024359,0.1573141864,-9.5566872856,2.2526434448,-2.32521154,3.70056044,-1.64958523,,,
imu,60.032808,0.1519308112,-9.554892827200002,2.2592231256,-2.40745755,3.85009864,-1.78416961,,,
imu,60.041256,0.1567160336,-9.543527924000001,2.2717843344,-2.40745755,3.95477538,-1.87389253,,,
imu,60.049705,0.158510492,-9.547714993600001,2.2711861816,-2.64671867,4.07440594,-2.06829219,,,
imu,60.058153,0.185427368,-9.5393408544,2.2747750984,-2.66167249,4.16412886,-2.12810747,,,
imu,60.066602,0.1848292152,-9.555490980000002,2.2921215296,-2.71401086,4.18655959,-2.23278421,,,
imu,60.07505,0.2039701048,-9.554892827200002,2.307673502400001,-2.78877996,4.29123633,-2.35241477,,,
imu,60.083499,0.2069608688,-9.533359326400001,2.3004956688,-2.94579507,4.35852852,-2.34493786,,,
imu,60.091947,0.2129423968,-9.5082369088,2.307673502400001,-3.10281018,4.32114397,-2.27764567,,,
imu,60.100396,0.2117460912,-9.487899713600001,2.3022901272,-3.38693276,4.25385178,-2.3748455,,,
imu,60.108844,0.218325772,-9.493283088800002,2.3022901272,-3.30468675,4.06692903,-2.53933752,,,
imu,60.117293,0.2201202304,-9.512423978400001,2.314851336,-3.46917877,3.85009864,-2.94309066,,,
imu,60.125741,0.2105497856,-9.535153784800002,2.321431016800001,-3.43179422,3.64074516,-3.24964397,,,
imu,60.13419,0.1991848824,-9.568650341600001,2.3381792952,-3.40188658,3.50616078,-3.38422835,,,
imu,60.142638,0.2027737992,-9.571641105600001,2.3363848368,-3.6411477,3.40148404,-3.52628964,,,
imu,60.151087,0.2051664104,-9.583006008800002,2.3405719064,-3.66357843,3.28933039,-3.46647436,,,
imu,60.159535,0.1848292152,-9.584800467200001,2.3429645176,-3.4916095,3.35662258,-3.14496723,,,
imu,60.167984,0.170473548,-9.585398620000001,2.3369829896,-3.52899405,3.4463455,-2.57672207,,,
imu,60.176432,0.1626975616,-9.5812115504,2.325019933600001,-3.65610152,3.42391477,-2.2253073,,,
imu,60.184881,0.1698753952,-9.5698466472,2.3226273224,-3.6411477,3.61083752,-2.11315365,,,
imu,60.193329,0.1716698536,-9.536948243200001,2.325019933600001,-3.760778259999999,3.71551426,-2.11315365,,,
imu,60.201778,0.1680809368,-9.511227672800002,2.3321977672,-4.0149932,3.67812971,-2.30755331,,,
imu,60.210422,0.1632957144,-9.499264616800001,2.3345903784,-4.05985466,3.797760269999999,-2.38232241,,,
imu,60.219066,0.170473548,-9.478329268800001,2.344758976,-4.20191595,3.90991392,-2.54681443,,,
imu,60.22771,0.1836329096,-9.4280844336,2.353731268,-4.38136179,3.8949601,-2.72626027,,,
imu,60.236354,0.2069608688,-9.404756474400001,2.3633017128,-4.43370016,3.88000628,-2.77859864,,,
imu,60.244998,0.19439966,-9.390998960000001,2.3495441984,-4.24677741,3.92486774,-2.65149117,,,
imu,60.253642,0.19439966,-9.380830362400001,2.3393756008,-4.09723921,4.08188285,-2.56924516,,,
imu,60.262286,0.20935348,-9.349726416800001,2.3399737536,-3.91031646,3.98468302,-2.47952224,,,
imu,60.27093,0.215335008,-9.3383615136,2.350740504,-3.4916095,4.00711375,-2.41223005,,,
imu,60.279574,0.2266999112,-9.358100556000002,2.36270356,-3.03551799,4.01459066,-2.33746095,,,
imu,60.288219,0.2141387024,-9.396980488,2.3782555328,-2.63176485,3.9697292,-2.45709151,,,
imu,60.296863,0.2284943696,-9.423299211200002,2.398592728,-2.28782699,3.91739083,-2.61410662,,,
imu,60.305507,0.2249054528,-9.452010545600002,2.420126228800001,-2.1457657,3.6706528,-2.8234601,,,
imu,60.314151,0.2350740504,-9.4735440464,2.4476412576,-2.15324261,3.49868387,-3.08515195,,,
imu,60.322795,0.2536167872,-9.5148165896,2.471567369600001,-2.07847351,3.43886859,-3.15992105,,,
imu,60.331439,0.2290925224000001,-9.544126076800001,2.488315648,-2.15324261,3.36409949,-3.17487487,,,
imu,60.340083,0.2284943696,-9.557285438400001,2.473361828,-2.57194957,3.22951511,-3.15992105,,,
imu,60.348727,0.2350740504,-9.5602762024,2.4817359672,-3.00561035,3.16969983,-3.13749032,,,
imu,60.357371,0.2284943696,-9.549509452,2.4787452032,-2.94579507,3.19213056,-3.14496723,,,
imu,60.366016,0.2195220776,-9.5219944232,2.4637913832,-3.13271782,3.17717674,-3.08515195,,,
imu,60.37466,0.2225128416,-9.499264616800001,2.4667821472,-3.17757928,3.02763854,-3.10010577,,,
imu,60.383304,0.2266999112,-9.514218436800002,2.487717495200001,-3.35702512,2.96034635,-3.45152054,,,
imu,60.391948,0.2039701048,-9.527377798400002,2.4919045648,-3.1925331,2.86314652,-3.71321239,,,
imu,58.865149,,,,,,,-89.21022840000002,177.059302,111.5310976
imu,58.966711,,,,,,,-89.3200932,177.4987612,111.3479896
imu,59.068243,,,,,,,-89.5886516,177.4133108,111.006188
imu,59.169836,,,,,,,-87.50122040000001,176.693086,110.6888008
imu,59.271826,,,,,,,-89.2346428,177.5720044,111.7019984
imu,59.375341,,,,,,,-87.1472116,177.0226804,109.7488464
imu,59.474554,,,,,,,-89.7595524,177.5964188,111.4090256
imu,59.576208,,,,,,,-89.5886516,177.6330404,110.1028552
imu,60.400592,0.203371952,-9.5154147424,2.4829322728,-3.24487147,2.67622377,-3.98238115,,,
imu,60.409236,0.2087553272,-9.487899713600001,2.500278704,-3.20748692,2.59397776,-4.32631901,,,
imu,60.417853,0.1908107432,-9.486703408,2.5164288296,-3.16262546,2.56407012,-4.386134289999999,,,
imu,60.426469,0.1722680064,-9.483712644000002,2.5140362184,-2.75139541,2.58650085,-4.23659609,,,
imu,60.435086,0.1812402984,-9.460384684800001,2.5188214408,-2.82616451,2.58650085,-4.341272829999999,,,
imu,60.443702,0.1758569232,-9.435860420000001,2.521214052,-2.8186876,2.59397776,-4.48333412,,,
imu,60.452319,0.1561178808,-9.435860420000001,2.5140362184,-2.63176485,2.45191647,-4.65530305,,,
imu,60.460935,0.1477437416,-9.4316733504,2.4895119536,-2.37754991,2.45191647,-4.82727198,,,
imu,60.469552,0.1447529776,-9.4071490856,2.4895119536,-2.28782699,2.26499372,-5.01419473,,,
imu,60.478169,0.1321917688,-9.367671000800001,2.4799415088,-2.26539626,2.19770153,-5.12634838,,,
imu,60.486785,0.1238176296,-9.349726416800001,2.4637913832,-2.19810407,2.04068642,-5.08148692,,,
imu,60.495402,0.1160416432,-9.342548583200001,2.462595077600001,-1.98127368,2.04068642,-5.24597894,,,
imu,60.504018,0.1154434904,-9.3377633608,2.4536227856,-1.71210492,2.01825569,-4.98428709,,,
imu,60.512635,0.1118545736,-9.3377633608,2.4530246328,-1.43545925,2.1005017,-4.737549059999999,,,
imu,60.521251,0.1094619624,-9.3479319584,2.4542209384,-1.00927538,2.13040934,-4.42351884,,,
imu,60.529868,0.1004896704,-9.379035904000002,2.4608006192,-0.55318387,2.07807097,-4.012288789999999,,,
imu,60.538485,0.1052748928,-9.4077472384,2.4631932304,-0.21672292,2.07807097,-3.73564312,,,
imu,60.547101,0.1004896704,-9.422701058400001,2.4721655224,0.007584380000000002,1.97339423,-3.40665908,,,
imu,60.555718,0.1022841288,-9.452010545600002,2.4895119536,0.25432241,1.91357895,-3.1973056,,,
imu,60.564334,0.09690075360000001,-9.499264616800001,2.5014750096,0.33656842,1.93600968,-2.99542903,,,
imu,60.572951,0.1010878232,-9.527975951200002,2.51224176,0.3739529699999999,1.85376367,-2.90570611,,,
imu,60.581567,0.08792846160000001,-9.5381445488,2.531980802400001,0.3739529699999999,1.81637912,-2.80850628,,,
imu,60.590184,0.05802082160000001,-9.534555632000002,2.5248029688,0.07487657,1.78647148,-2.73373718,,,
imu,60.598801,0.05562821040000001,-9.536350090400001,2.5355697192,0.03749201999999999,1.84628676,-2.61410662,,,
imu,60.607417,0.04785222400000001,-9.539939007200001,2.5218122048,-0.30644584,1.97339423,-2.59167589,,,
imu,60.615904,0.04486146000000001,-9.5213962704,2.503269468,-0.61299915,2.1752708,-2.64401426,,,
imu,60.62439,0.0550300576,-9.507638756,2.5020731624,-0.7401066199999999,2.19770153,-2.73373718,,,
imu,60.632876,0.05802082160000001,-9.4980683112,2.4901101064,-0.8522602699999999,2.57154703,-2.71130645,,,
imu,60.641363,0.03588916800000001,-9.516012895200001,2.479343356,-0.7401066199999999,2.79585433,-2.71130645,,,
imu,60.649849,0.04246884880000001,-9.499862769600002,2.471567369600001,-0.79244499,2.88557725,-2.74121409,,,
imu,60.658336,0.04725407120000001,-9.481320032800001,2.4781470504,-0.92702937,3.23699202,-2.84589083,,,
imu,60.666822,0.06220789120000001,-9.4729458936,2.4655858416,-0.66533752,3.3715764,-2.8982292,,,
imu,60.675309,0.06101158560000001,-9.48072188,2.4679784528,-0.5008455,3.46129932,-3.17487487,,,
imu,60.683795,0.07058203040000001,-9.496872005600002,2.4655858416,-0.5681376899999999,3.76037572,-3.39170526,,,
imu,60.692281,0.0813487808,-9.501657228000001,2.470371064,-0.41859949,3.85757555,-3.68330475,,,
imu,60.700768,0.0903210728,-9.461580990400002,2.4679784528,-0.39616876,3.77532954,-3.73564312,,,
imu,60.709254,0.1028822816,-9.4280844336,2.461398772,-0.44103022,3.84262173,-3.65339711,,,
imu,60.717741,0.1148453376,-9.4071490856,2.4661839944,-0.41112258,3.86505246,-3.66087402,,,
imu,60.726227,0.1124527264,-9.409541696800002,2.4512301744,-0.28401511,3.72299117,-3.60105874,,,
imu,60.734714,0.107667504,-9.403560168800002,2.4482394104,-0.127,3.57345297,-3.75807385,,,
imu,60.7432,0.1148453376,-9.394587876800001,2.4530246328,-0.14943073,3.40148404,-4.13939626,,,
imu,60.751686,0.1172379488,-9.429280739200001,2.473959980800001,-0.08213854000000001,3.15474601,-4.42351884,,,
imu,60.760173,0.09211553120000002,-9.489694172,2.481137814400001,0.03001510999999998,2.90800798,-4.58801086,,,
imu,60.768659,0.08194693360000001,-9.524387034400002,2.4751562864,-0.17933837,2.70613141,-4.65530305,,,
imu,60.777146,0.08972292000000001,-9.5213962704,2.476352592,-0.20924601,2.71360832,-4.5431494,,,
imu,60.785632,0.08194693360000001,-9.52558334,2.4745581336,-0.45598404,2.68370068,-4.17678081,,,
imu,60.794119,0.0675912664,-9.5656595776,2.4572117024,-0.50832241,2.81080815,-3.51133582,,,
imu,60.802605,0.0532355992,-9.599156134400001,2.4482394104,-0.5756146,2.9229618,-3.23469015,,,
imu,60.811091,0.026916876,-9.5740337168,2.4213225344,-0.80739881,2.80333124,-2.99542903,,,
imu,60.819546,0.0251224176,-9.532163020800002,2.4111539368,-0.93450628,2.73603905,-2.98795212,,,
imu,60.828001,0.0550300576,-9.4980683112,2.3991908808,-1.20367504,2.72108523,-3.24964397,,,
imu,60.836455,0.02871133440000001,-9.486105255200002,2.374666616,-1.22610577,2.74351596,-3.37675144,,,
imu,60.84491,0.03349655680000001,-9.498666464000001,2.3902185888,-1.18124431,2.51920866,-3.61601256,,,
imu,60.853365,0.0281131816,-9.5291722568,2.396798269600001,-1.22610577,2.64631613,-3.75807385,,,
imu,60.861819,0.0,-9.512423978400001,2.4069668672,-1.52518217,2.73603905,-3.98985806,,,
imu,60.870274,0.0233279592,-9.446627170400001,2.4039761032,-1.89155076,2.74351596,-3.89265823,,,
imu,60.878729,0.007177833600000002,-9.441841948000002,2.3860315192,-1.86164312,3.02016163,-3.93004278,,,
imu,60.887183,-0.0107667504,-9.450216087200001,2.4033779504,-1.67472037,3.10988455,-3.93751969,,,
imu,60.895638,0.017944584,-9.446627170400001,2.4147428536,-1.71210492,3.36409949,-3.92256587,,,
imu,60.904093,0.0376836264,-9.498666464000001,2.449435716,-1.50275144,3.28933039,-3.85527368,,,
imu,60.912547,-0.0011963056,-9.6667474008,2.4183317704,-1.21862886,3.42391477,-3.83284295,,,
imu,60.921002,-0.04366515440000001,-9.540537160000001,2.42251884,-1.31582869,3.55102224,-3.95247351,,,
imu,60.929456,0.05203929360000001,-9.298883428800002,2.4290985208,-1.42050543,3.73046808,-3.87770441,,,
imu,60.937911,0.06460050240000001,-9.267181330400001,2.4111539368,-1.37564397,3.68560662,-4.07210407,,,
imu,60.946366,0.002990764,-9.401167557600001,2.4123502424,-0.91955246,3.56597606,-4.21416536,,,
imu,60.95482,0.004187069600000001,-9.441841948000002,2.383638908,-0.52327623,3.41643786,-4.19921154,,,
imu,60.963275,0.03289840400000001,-9.380830362400001,2.3842370608,-0.26906129,3.38653022,-4.25154991,,,
imu,60.97173,0.04187069600000001,-9.3652783896,2.3938075056,0.02253820000000001,3.35662258,-4.37118047,,,
imu,60.980184,0.0203371952,-9.410139849600002,2.3908167416,0.44872207,3.42391477,-4.30388828,,,
imu,60.988639,0.020935348,-9.4412437952,2.401583492,0.81509066,3.17717674,-4.08705789,,,
imu,60.997094,0.02990764000000001,-9.4735440464,2.4422578824,0.9870595899999999,3.02016163,-4.21416536,,,
imu,61.005548,0.011963056,-9.527377798400002,2.4518283272,0.97210577,2.79585433,-4.22911918,,,
imu,61.014003,0.007775986400000001,-9.554294674400001,2.447043104800001,1.00949032,2.57902394,-4.41604193,,,
imu,61.022472,0.0305057928,-9.541135312800002,2.4542209384,0.68050628,2.45939338,-4.43847266,,,
imu,61.03094,0.0125612088,-9.551902063200002,2.4661839944,0.43376825,2.29490136,-4.22164227,,,
imu,61.039409,-0.004785222400000001,-9.593174606400002,2.471567369600001,0.14216876,2.07807097,-3.90761205,,,
imu,61.047877,-0.0317020984,-9.626671163200001,2.4667821472,-0.17186146,2.25751681,-3.46647436,,,
imu,61.056346,-0.04725407120000001,-9.6260730104,2.4530246328,-0.38869185,2.324809,-3.23469015,,,
imu,61.064815,-0.04964668240000001,-9.591978300800001,2.443454188,-0.94198319,2.41453192,-3.13749032,,,
imu,61.073283,-0.06220789120000001,-9.562668813600002,2.4350800488,-1.29339796,2.42948574,-3.08515195,,,
imu,61.082015,-0.06160973840000001,-9.543527924000001,2.423715145600001,-1.53265908,2.43696265,-3.07767504,,,
imu,61.090484,-0.0532355992,-9.519601812000001,2.4069668672,-1.71210492,2.51173175,-3.25712088,,,
imu,61.098952,-0.0532355992,-9.496872005600002,2.4027797976,-1.73453565,2.63136231,-3.44404363,,,
imu,61.107421,-0.04545961280000001,-9.481320032800001,2.4027797976,-1.81678166,2.84071579,-3.54124346,,,
imu,61.115889,-0.05203929360000001,-9.468758824,2.4081631728,-1.83921239,2.87062343,-3.63844329,,,
imu,61.124358,-0.05084298800000001,-9.4621791432,2.4087613256,-1.61490509,2.91548489,-3.53376655,,,
imu,61.132827,-0.0442633072,-9.460384684800001,2.425509604,-1.80930475,3.06502309,-3.67582784,,,
imu,61.141295,-0.04785222400000001,-9.4699551296,2.4338837432,-1.75696638,3.02763854,-3.52628964,,,
imu,61.149764,-0.05084298800000001,-9.474740352000001,2.440463424,-1.96631986,3.08745382,-3.58610492,,,
imu,61.158233,-0.03947808480000001,-9.474740352000001,2.4458467992,-2.07847351,3.05754618,-3.61601256,,,
imu,61.166701,-0.04845037680000001,-9.471749588000002,2.4488375632,-2.15324261,3.00520781,-3.5711511,,,
imu,61.17517,-0.0490485296,-9.4729458936,2.4458467992,-2.13081188,3.05754618,-3.53376655,,,
imu,61.183638,-0.04246884880000001,-9.4663662128,2.446444952,-2.25791935,3.05754618,-3.54872037,,,
imu,61.192107,-0.0490485296,-9.461580990400002,2.449435716,-2.07847351,3.18465365,-3.39918217,,,
imu,61.200576,-0.0466559184,-9.474142199200001,2.4458467992,-2.07847351,3.21456129,-3.36179762,,,
imu,61.209044,-0.04725407120000001,-9.4663662128,2.4428560352,-2.10838115,3.30428421,-3.23469015,,,
imu,59.677618,,,,,,,-89.8205884,177.5842116,111.6653768
imu,59.77915,,,,,,,-89.27126439999999,177.6330404,110.8352872
imu,59.880743,,,,,,,-89.34450760000001,177.8405628,111.4090256
imu,59.982275,,,,,,,-89.3567148,177.3278604,111.0794312
imu,60.091803,,,,,,,-89.6008588,178.2311932,110.21272
imu,60.193274,,,,,,,-89.73513799999999,177.486554,111.3357824
imu,60.294836,,,,,,,-87.53784200000001,176.8639868,108.442676
imu,60.396368,,,,,,,-89.71072360000001,178.4875444,110.701008
imu,61.217513,-0.0466559184,-9.457393920800001,2.4488375632,-1.95884295,3.25194584,-3.1973056,,,
imu,61.225982,-0.03947808480000001,-9.455001309600002,2.4482394104,-1.89902767,3.22951511,-3.16739796,,,
imu,61.23445,-0.04785222400000001,-9.4591883792,2.449435716,-1.77939711,3.19213056,-3.25712088,,,
imu,61.242919,-0.0323002512,-9.443636406400001,2.449435716,-1.54013599,3.21456129,-3.32441307,,,
imu,61.251387,-0.0466559184,-9.439449336800001,2.4392671184,-1.48032071,3.16969983,-3.496382,,,
imu,61.259856,-0.04545961280000001,-9.4412437952,2.4488375632,-1.53265908,3.07997691,-3.62348947,,,
imu,61.268325,-0.05383375200000001,-9.459786532,2.4446504936,-1.1737674,3.09493073,-3.63096638,,,
imu,61.276793,-0.06160973840000001,-9.486703408,2.4560153968,-1.21862886,3.12483837,-3.7954584,,,
imu,61.285262,-0.05682451600000001,-9.501657228000001,2.471567369600001,-1.12890594,3.10240764,-3.75059694,,,
imu,61.293731,-0.06460050240000001,-9.538742701600002,2.4787452032,-1.03918302,3.0725,-3.88518132,,,
imu,61.302199,-0.06699311360000001,-9.553098368800002,2.4769507448,-1.1737674,3.01268472,-3.92256587,,,
imu,61.310668,-0.04486146000000001,-9.5291722568,2.471567369600001,-1.29339796,3.05006927,-3.77302767,,,
imu,61.319137,-0.0735727944,-9.503451686400002,2.4709692168,-1.21115195,3.11736146,-3.38422835,,,
imu,61.327605,-0.0723764888,-9.485507102400002,2.4578098552,-1.37564397,3.03511545,-3.27955161,,,
imu,61.336074,-0.05981528000000001,-9.468160671200001,2.4482394104,-1.43545925,2.94539253,-3.32441307,,,
imu,61.344542,-0.05981528000000001,-9.457393920800001,2.4476412576,-1.4728438,2.76594669,-3.55619728,,,
imu,61.353011,-0.05443190480000001,-9.468758824,2.4566135496,-1.62985891,2.67622377,-3.59358183,,,
imu,61.36148,-0.06579680800000001,-9.516012895200001,2.4661839944,-1.68967419,2.54163939,-3.75807385,,,
imu,61.369948,-0.08194693360000001,-9.5249851872,2.461398772,-1.83173548,2.324809,-3.7206893,,,
imu,61.378417,-0.08912476720000001,-9.492086783200001,2.4596043136,-1.96631986,2.324809,-3.68330475,,,
imu,61.386886,-0.0861340032,-9.459786532,2.458408008,-1.95136604,2.39210119,-3.24964397,,,
imu,61.395354,-0.1094619624,-9.499862769600002,2.458408008,-1.94388913,2.4743472,-2.73373718,,,
imu,61.403823,-0.1268083936,-9.536350090400001,2.45242648,-1.89155076,2.51920866,-2.47952224,,,
imu,61.412291,-0.128602852,-9.533359326400001,2.4386689656,-1.80182784,2.67622377,-2.32250713,,,
imu,61.42076,-0.1178361016,-9.503451686400002,2.437472660000001,-1.82425857,2.81828506,-2.31503022,,,
imu,61.42958,-0.1208268656,-9.4765348104,2.4386689656,-1.80182784,2.88557725,-2.38232241,,,
imu,61.438399,-0.1148453376,-9.467562518400001,2.4422578824,-1.74948947,2.96782326,-2.54681443,,,
imu,61.447219,-0.1100601152,-9.456197615200002,2.425509604,-1.54013599,3.05006927,-2.74121409,,,
imu,61.456038,-0.1100601152,-9.446627170400001,2.4386689656,-1.57752054,3.05006927,-2.8982292,,,
imu,61.464858,-0.1088638096,-9.444234559200002,2.4458467992,-1.67472037,3.19960747,-2.95056757,,,
imu,61.473678,-0.1100601152,-9.440645642400002,2.4482394104,-1.46536689,3.46877623,-2.87579847,,,
imu,61.482497,-0.09869521200000002,-9.4286825864,2.4326874376,-1.41302852,3.63326825,-2.83841392,,,
imu,61.491317,-0.09989151760000002,-9.4412437952,2.4440523408,-1.35321324,3.78280645,-2.83841392,,,
imu,61.500136,-0.08972292000000001,-9.457393920800001,2.4512301744,-1.15133667,3.91739083,-2.74121409,,,
imu,61.508956,-0.07297464160000001,-9.462777296000002,2.4518283272,-1.27844414,3.90243701,-2.74121409,,,
imu,61.517775,-0.0783580168,-9.465169907200002,2.4536227856,-1.45788998,3.93982156,-2.77112173,,,
imu,61.526595,-0.07177833600000001,-9.485507102400002,2.455417244,-1.44293616,3.88000628,-2.748691,,,
imu,60.498199,,,,,,,-87.6843284,177.4377252,108.2229464
imu,60.599761,,,,,,,-90.0159036,178.2067788,110.7254224
imu,60.701354,,,,,,,-89.53982280000001,178.1701572,110.945152
imu,60.803008,,,,,,,-89.7839668,178.035878,111.5310976
imu,60.904479,,,,,,,-89.5276156,177.6330404,111.5799264
imu,61.006042,,,,,,,-89.5642372,177.7184908,111.1648816
imu,61.107574,,,,,,,-90.1379756,177.85277,111.5433048
imu,61.209136,,,,,,,-88.0383372,177.6452476,111.0183952
imu,61.310729,,,,,,,-89.7595524,177.6940764,111.9705568
imu,61.412261,,,,,,,-90.0769396,177.730698,111.616548
imu,61.513824,,,,,,,-89.613066,176.9006084,109.2117296
