Type,Timestamp,Data Accelerometer X,Data Accelerometer Y,Data Accelerometer Z,Data Gyroscope X,Data Gyroscope Y,Data Gyroscope Z,Data Magnetometer X,Data Magnetometer Y,Data Magnetometer Z
imu,453.331491,-0.05802082160000001,-9.5237888816,2.4308929792,-0.3513073,4.27628251,-2.73373718,,,
imu,453.340314,-0.06041343280000001,-9.513022131200001,2.4231169928,-0.41859949,4.29123633,-2.69635263,,,
imu,453.349136,-0.06400234960000001,-9.502255380800001,2.3991908808,-0.18681528,4.59031273,-2.48699915,,,
imu,453.357958,-0.07118018320000001,-9.506442450400002,2.4033779504,0.06739966,4.68751256,-2.32998404,,,
imu,453.36678,-0.08194693360000001,-9.5004609224,2.3878259776,0.11973803,4.807143119999999,-2.45709151,,,
imu,453.375603,-0.08433954480000001,-9.503451686400002,2.383040755200001,0.01506129,4.77723548,-2.84589083,,,
imu,453.384425,-0.1058730456,-9.529770409600001,2.3944056584,0.09730729999999999,4.91181986,-3.16739796,,,
imu,453.393247,-0.1489400472,-9.575828175200002,2.4009853392,0.03001510999999998,4.99406587,-3.56367419,,,
imu,453.402069,-0.2296906752000001,-9.578220786400001,2.3734703104,-0.22419983,5.158557889999999,-3.93004278,,,
imu,453.410891,-0.2231109944,-9.594370912,2.4153410064,-0.38121494,5.81652597,-4.37865738,,,
imu,453.419714,-0.1788476872,-9.6260730104,2.4207243816,-0.7550604399999999,6.706278259999999,-4.6179185,,,
imu,453.428536,-0.125612088,-9.627269316000001,2.4428560352,-1.12890594,7.37920016,-4.55062631,,,
imu,453.437358,-0.068787572,-9.6015487456,2.4452486464,-1.74948947,7.7081842,-4.19921154,,,
imu,453.44618,-0.04007623760000001,-9.590183842400002,2.434481896,-2.19810407,7.80538403,-3.62348947,,,
imu,453.455003,-0.01495382,-9.594370912,2.4213225344,-2.49718047,7.75304566,-3.23469015,,,
imu,453.463825,0.01495382,-9.572239258400002,2.4069668672,-2.73644159,7.54369218,-2.98795212,,,
imu,453.472647,0.04187069600000001,-9.535153784800002,2.40756502,-2.8934567,7.13246213,-2.84589083,,,
imu,453.481469,0.0783580168,-9.517807353600002,2.395601964,-2.98317962,6.624032249999999,-2.89075229,,,
imu,453.490292,0.07058203040000001,-9.516012895200001,2.413546548,-3.00561035,5.98101799,-2.93561375,,,
imu,453.499114,0.0735727944,-9.520798117600002,2.427304062400001,-2.6691494,5.2408039,-2.76364482,,,
imu,453.507936,0.0352910152,-9.536350090400001,2.4416597296,-2.82616451,4.70994329,-2.57672207,,,
imu,453.516411,0.0370854736,-9.471749588000002,2.4231169928,-2.97570271,4.216467229999999,-2.60662971,,,
imu,453.524886,0.023926112,-9.387410043200001,2.4207243816,-3.0429949,3.93982156,-2.71130645,,,
imu,453.533361,0.008972292000000002,-9.399971252000002,2.423715145600001,-2.7439185,3.78280645,-2.66644499,,,
imu,453.541836,-0.004785222400000001,-9.4215047528,2.4051724088,-2.39250373,3.42391477,-2.61410662,,,
imu,453.550311,-0.0245242648,-9.419112141600001,2.40756502,-1.90650458,3.27437657,-2.6739219,,,
imu,453.558786,-0.03349655680000001,-9.410139849600002,2.410555784,-1.52518217,3.16222292,-2.90570611,,,
imu,453.567261,-0.05203929360000001,-9.408943544000001,2.4081631728,-1.20367504,3.10988455,-3.18235178,,,
imu,453.575736,-0.06160973840000001,-9.413130613600002,2.4147428536,-1.14385976,3.12483837,-3.60853565,,,
imu,453.584211,-0.08015247520000002,-9.420906600000002,2.4129483952,-0.6503837,3.10240764,-3.7954584,,,
imu,453.592686,-0.07716171120000001,-9.423299211200002,2.4189299232,-0.34383039,3.04259236,-3.93004278,,,
imu,453.601161,-0.0747691,-9.4382530312,2.4350800488,-0.32887657,3.13231528,-4.146873169999999,,,
imu,453.609636,-0.07895616960000001,-9.460384684800001,2.4386689656,-0.08961545,3.16222292,-4.20668845,,,
imu,453.618111,-0.0813487808,-9.478329268800001,2.42251884,0.13469185,3.19960747,-4.04967334,,,
imu,453.626586,-0.0980970592,-9.478329268800001,2.420126228800001,0.15712258,3.24446893,-3.75059694,,,
imu,453.635061,-0.0813487808,-9.488497866400001,2.40756502,0.22441477,3.16969983,-3.48142818,,,
imu,453.643536,-0.08673215600000002,-9.4980683112,2.40756502,0.3739529699999999,3.25942275,-3.28702852,,,
imu,453.652011,-0.0861340032,-9.533957479200001,2.4153410064,0.22441477,3.26689966,-3.06272122,,,
imu,453.660486,-0.1034804344,-9.561472508000001,2.4117520896,0.36647606,3.33419185,-2.85336774,,,
imu,453.668961,-0.09929336480000002,-9.565061424800001,2.409957631200001,0.36647606,3.4463455,-2.71878336,,,
imu,453.677436,-0.09510629520000001,-9.5668558832,2.428500368,0.46367589,3.52859151,-2.62158353,,,
imu,453.685911,-0.1052748928,-9.593772759200002,2.4362763544,0.20198404,3.70056044,-2.53933752,,,
imu,453.694386,-0.1100601152,-9.6087265792,2.4476412576,0.3739529699999999,3.97720611,-2.24026112,,,
imu,453.702861,-0.1064711984,-9.602146898400001,2.4356782016,0.29918387,4.32862088,-1.89632326,,,
imu,453.711336,-0.1100601152,-9.5949690648,2.4362763544,-0.07466163,4.62769728,-1.8514618,,,
imu,453.719816,-0.09211553120000002,-9.6117173432,2.425509604,-0.17186146,4.84452767,-2.08324601,,,
imu,453.728296,-0.0855358504,-9.633250844,2.4261077568,-0.15690764,4.93425059,-2.35241477,,,
imu,453.736776,-0.08433954480000001,-9.611119190400002,2.4069668672,-0.18681528,4.96415823,-2.80850628,,,
imu,453.745256,-0.09091922560000001,-9.557883591200001,2.4057705616,-0.23915365,4.8669584,-3.30198234,,,
imu,453.753736,-0.07716171120000001,-9.522592576000001,2.4123502424,-0.61299915,4.7921893,-3.91508896,,,
imu,453.762216,-0.0855358504,-9.5219944232,2.4081631728,-0.78496808,4.61274346,-4.29641137,,,
imu,453.770696,-0.08972292000000001,-9.4831144912,2.4027797976,-0.97189083,4.58283582,-4.47585721,,,
imu,453.779176,-0.1010878232,-9.443636406400001,2.406368714400001,-1.12142903,4.47068217,-4.46090339,,,
imu,453.787656,-0.0980970592,-9.426888128000002,2.379451838400001,-1.21115195,4.46320526,-4.37118047,,,
imu,453.796136,-0.09510629520000001,-9.443636406400001,2.3860315192,-1.18872122,4.28375942,-4.31136519,,,
imu,453.804616,-0.08912476720000001,-9.482516338400002,2.37765738,-0.874691,4.3435747,-3.93751969,,,
imu,453.813097,-0.09989151760000002,-9.5154147424,2.3644980184,-0.41112258,4.29123633,-3.77302767,,,
imu,453.821577,-0.1082656568,-9.541135312800002,2.3818444496,-0.26158438,4.33609779,-3.66087402,,,
imu,453.830057,-0.1112564208,-9.544126076800001,2.3842370608,0.05244583999999999,4.29871324,-3.63096638,,,
imu,453.838537,-0.1244157824,-9.529770409600001,2.380648144,0.09730729999999999,4.29123633,-3.78798149,,,
imu,453.847017,-0.1292010048,-9.5423316184,2.4009853392,0.26179932,4.216467229999999,-3.84779677,,,
imu,453.855497,-0.1507345056,-9.5668558832,2.404574256,0.43376825,4.16412886,-4.15435008,,,
imu,453.863977,-0.1680809368,-9.5632669664,2.4093594784,0.42629134,4.15665195,-4.34874974,,,
imu,453.872457,-0.182436604,-9.5800152448,2.429696673600001,0.44872207,4.36600543,-4.52819558,,,
imu,453.880937,-0.2045682576000001,-9.612913648800001,2.4392671184,0.18703022,4.46320526,-4.6179185,,,
imu,453.889417,-0.2195220776,-9.5949690648,2.428500368,-0.08961545,4.63517419,-4.625395409999999,,,
imu,453.897897,-0.233279592,-9.544126076800001,2.4422578824,-0.4260764,4.979112049999999,-4.6179185,,,
imu,453.906377,-0.2584020096,-9.520199964800002,2.4332855904,-0.88964482,5.36043446,-4.408565019999999,,,
imu,453.914857,-0.2936930248,-9.4729458936,2.4183317704,-1.36069015,5.681941589999999,-4.22911918,,,
imu,453.923299,-0.2566075512,-9.437056725600002,2.4171354648,-1.71210492,6.24270984,-3.99733497,,,
imu,453.931741,-0.2613927736,-9.4071490856,2.4177336176,-1.80182784,6.69132444,-3.67582784,,,
imu,453.940183,-0.2284943696,-9.388008196000001,2.4261077568,-1.92893531,7.222185049999999,-3.15992105,,,
imu,453.948625,-0.2045682576000001,-9.410139849600002,2.454819091200001,-2.24296553,7.66332274,-2.68139881,,,
imu,453.957067,-0.185427368,-9.4526086984,2.4769507448,-2.63924176,7.90258386,-2.21035348,,,
imu,453.965509,-0.1692772424,-9.4286825864,2.4889138008,-2.80373378,8.13436807,-1.79912343,,,
imu,453.973951,-0.1447529776,-9.4286825864,2.4805396616,-2.90093361,8.27642936,-1.58976995,,,
imu,453.982393,-0.1567160336,-9.437056725600002,2.4847267312,-3.01308726,8.27642936,-1.79164652,,,
imu,453.990835,-0.1567160336,-9.4203084472,2.4578098552,-2.82616451,8.12689116,-1.86641562,,,
imu,453.999277,-0.1459492832,-9.398774946400001,2.4386689656,-2.370073,8.10446043,-2.00847691,,,
imu,454.007719,-0.1573141864,-9.403560168800002,2.4362763544,-1.9214584,8.044645150000001,-2.08324601,,,
imu,454.016161,-0.1543234224,-9.3832229736,2.4117520896,-1.22610577,8.10446043,-2.001,,,
imu,454.024602,-0.140565908,-9.343744888800002,2.401583492,-0.41859949,8.13436807,-1.76173888,,,
imu,454.033044,-0.1363788384,-9.328791068800001,2.4021816448,0.06739966,8.306337,-1.58976995,,,
imu,454.041486,-0.1178361016,-9.307257568,2.3938075056,0.7552753799999999,8.508213569999999,-1.13367844,,,
imu,454.049928,-0.101685976,-9.283331456,2.3902185888,1.12912088,8.612890310000001,-0.8346020399999998,,,
imu,454.05837,-0.08852661440000001,-9.2755554696,2.3878259776,1.71979677,8.62784413,-0.6177716499999999,,,
imu,454.066812,-0.0741709472,-9.307855720800001,2.4009853392,2.16841137,8.53812121,-0.4981410899999998,,,
imu,454.075254,-0.0562263632,-9.414326919200002,2.42251884,2.57216451,8.51569048,-0.4158950799999999,,,
imu,454.083696,-0.0550300576,-9.5148165896,2.406368714400001,2.98339456,8.508213569999999,-0.3635567099999999,,,
imu,454.092138,-0.03110394560000001,-9.557883591200001,2.3854333664,3.21517877,8.43344447,-0.37851053,,,
imu,454.10058,-0.0215335008,-9.597959828800002,2.3638998656,3.66379337,8.35867537,-0.40094126,,,
imu,454.109022,-0.0382817792,-9.676915998400002,2.3471515872,4.27689999,8.40353683,-0.2738337899999999,,,
imu,454.117464,-0.0275150288,-9.7504887928,2.3202347112,4.47877656,8.43344447,-0.2514030599999999,,,
imu,454.125927,-0.02990764000000001,-9.746301723200002,2.3232254752,4.8825297,8.54559812,-0.2738337899999999,,,
imu,454.134391,-0.0275150288,-9.7295534448,2.3304033088,4.83019133,8.553075029999999,-0.4532796299999999,,,
imu,454.142854,-0.0101685976,-9.7301515976,2.3226273224,4.516161110000001,8.49325975,-0.6925407499999998,,,
imu,454.151318,-0.01495382,-9.6703363176,2.33279592,4.08250033,8.32876773,-0.9841402399999999,,,
imu,454.159781,0.0023926112,-9.5985579816,2.3315996144,3.36471697,8.21661408,-1.33555501,,,
imu,454.168245,0.0137575144,-9.4873015608,2.3052808912,2.87124091,8.24652172,-1.47013939,,,
imu,454.176708,0.0251224176,-9.334174444000002,2.2628120424,1.97401171,8.044645150000001,-1.5523854,,,
imu,454.185172,0.0406743904,-9.230694009600002,2.2717843344,1.21136689,8.007260599999999,-1.41032411,,,
imu,454.193636,0.068787572,-9.2970889704,2.3064771968,0.55339881,7.932491499999999,-1.41780102,,,
imu,454.202099,0.07177833600000001,-9.430477044800002,2.3304033088,0.13469185,7.603507459999999,-1.35798574,,,
imu,454.210563,0.0550300576,-9.463973601600001,2.3010938216,-0.25410747,7.25209269,-1.32060119,,,
imu,454.219026,0.068787572,-9.463973601600001,2.2592231256,-0.48589168,6.97544702,-1.52247776,,,
imu,454.22749,0.05682451600000001,-9.450216087200001,2.210174596,-0.26906129,6.65393989,-1.7766927,,,
imu,454.235953,0.0352910152,-9.416121377600001,2.162322372,0.27675314,6.2128022,-2.00847691,,,
imu,454.244417,0.0406743904,-9.4071490856,2.1258350512,1.07678251,5.86138743,-2.19539966,,,
imu,454.25288,0.0376836264,-9.4215047528,2.1096849256,1.97401171,5.7641876,-2.18044584,,,
imu,454.261344,0.04246884880000001,-9.453805004000001,2.1102830784,3.05068675,5.749233779999999,-2.09819983,,,
imu,454.269807,0.03588916800000001,-9.510031367200002,2.1401907184,3.9105314,5.67446468,-1.88884635,,,
imu,454.278271,0.0233279592,-9.573435564,2.147368552000001,4.71803768,5.592218669999999,-1.51500085,,,
imu,454.286734,0.04964668240000001,-9.611119190400002,2.147368552000001,5.1816061,5.62960322,-1.26826282,,,
imu,454.295198,0.06041343280000001,-9.599156134400001,2.1695002056,5.1816061,5.84643361,-1.08881698,,,
imu,454.303662,0.0855358504,-9.617698871200002,2.2023986096,5.15917537,5.78661833,-0.8346020399999998,,,
imu,454.312125,0.09570444800000001,-9.699047652,2.1898374008,5.21899065,5.74175687,-0.6402023799999998,,,
imu,454.320589,0.09151737840000002,-9.797144711200001,2.18325772,4.74046841,5.73427996,-0.77478676,,,
imu,454.329407,0.1094619624,-9.8593526024,2.2023986096,4.41896128,5.4651112,-1.08881698,,,
imu,454.338225,0.1112564208,-9.9131863544,2.1790706504,3.81333157,5.023973509999999,-1.65706214,,,
imu,454.347043,0.1112564208,-9.928738327200001,2.150359316,3.22265568,4.47068217,-2.38979932,,,
imu,454.355862,0.1250139352,-9.916177118400002,2.1401907184,2.63197979,3.797760269999999,-3.06272122,,,
imu,454.36468,0.1010878232,-9.9101955904,2.1587334552,1.74970441,3.41643786,-3.74312003,,,
imu,454.373498,0.06519865520000001,-9.892251006400002,2.1748835808,0.4861066199999999,3.16969983,-4.20668845,,,
imu,454.382316,0.03349655680000001,-9.851576616000001,2.1724909696,-0.28401511,2.93791562,-4.453426479999999,,,
imu,454.391135,0.007775986400000001,-9.788172419200002,2.1814632616,-1.15881358,2.89305416,-4.670256869999999,,,
imu,454.399953,0.0053833752,-9.766040765600001,2.174285428,-2.13828879,2.78837742,-5.20859439,,,
imu,454.408771,-0.007775986400000001,-9.748694334400001,2.1910337064,-2.70653395,2.75099287,-5.59739371,,,
imu,454.417542,-0.0101685976,-9.724768222400002,2.191631859200001,-3.45422495,2.72856214,-5.97123921,,,
imu,454.42636,-0.0113649032,-9.696056888000001,2.1856503312,-3.94770101,2.57154703,-6.24040797,,,
imu,454.435178,-0.0203371952,-9.659569567200002,2.1874447896,-4.17200831,2.46687029,-6.53948437,,,
imu,454.443996,-0.0053833752,-9.612913648800001,2.1898374008,-4.3888387,2.324809,-6.703976389999999,,,
imu,454.452815,-0.003588916800000001,-9.554294674400001,2.2173524296,-4.90474549,2.15284007,-6.726407119999999,,,
imu,454.461633,-0.0011963056,-9.4980683112,2.2454656112,-5.09914515,1.96591732,-6.5619151,,,
imu,454.470451,-0.0011963056,-9.4382530312,2.261017584,-5.27859099,1.81637912,-6.21797724,,,
imu,454.479269,-0.0143556672,-9.3868118904,2.2741769456,-5.652436489999999,1.53973345,-5.97871612,,,
imu,454.488088,-0.0352910152,-9.342548583200001,2.2747750984,-5.37579082,1.26308778,-5.65720899,,,
imu,454.496906,-0.06160973840000001,-9.2917055952,2.2646065008,-5.151483519999999,0.9789651999999998,-5.08148692,,,
imu,454.505724,-0.07895616960000001,-9.242657065600001,2.2454656112,-4.8374533,0.6873657099999999,-4.73007215,,,
imu,454.514542,-0.09749890640000002,-9.245647829600001,2.22811918,-4.08228539,0.3733354899999997,-4.453426479999999,,,
imu,454.523361,-0.1280046992,-9.268377636,2.2263247216,-3.20001001,0.3284740299999998,-4.11696553,,,
imu,454.531843,-0.1609031032,-9.28632222,2.1976133872,-2.03361205,0.2836125699999998,-3.77302767,,,
imu,454.540326,-0.1967922712,-9.316229860000002,2.191631859200001,-0.91955246,0.4854891399999999,-3.48142818,,,
imu,454.548808,-0.2069608688,-9.338959666400001,2.1874447896,0.09730729999999999,0.80699627,-3.1225365,,,
imu,454.557291,-0.2284943696,-9.3658765424,2.1844540256,0.9646288599999999,1.18831868,-2.71130645,,,
imu,454.565774,-0.2595983152,-9.379035904000002,2.1958189288,1.83195042,1.73413311,-2.3748455,,,
imu,454.574256,-0.28412258,-9.393391571200002,2.2185487352,2.37028794,2.45939338,-2.06829219,,,
imu,454.582739,-0.3134320672,-9.430477044800002,2.22811918,2.91610237,3.28185348,-1.81407725,,,
imu,454.591222,-0.3379563320000001,-9.502853533600002,2.2442693056,3.10302512,4.25385178,-1.74678506,,,
imu,454.599704,-0.3247969704000001,-9.557883591200001,2.249652680800001,3.15536349,5.38286519,-1.76173888,,,
imu,454.608187,-0.3038616224,-9.593174606400002,2.2514471392,3.24508641,6.4371095,-1.76921579,,,
imu,454.616669,-0.275150288,-9.612315496,2.2484563752,2.75161035,7.506307629999999,-1.83650798,,,
imu,454.625152,-0.242251884,-9.6637566368,2.232306249600001,2.48244159,8.4558752,-2.08324601,,,
imu,454.633635,-0.1985867296,-9.711010708000002,2.2155579712,2.34785721,9.34562749,-2.12810747,,,
imu,454.642117,-0.1501363528,-9.731946056000002,2.222137652,2.09364227,10.04845703,-2.21783039,,,
imu,454.6506,-0.1052748928,-9.752283251200002,2.222735804800001,1.62259694,10.48959472,-2.42718387,,,
imu,454.659082,-0.05861897440000001,-9.738525736800002,2.2233339576,1.00201341,10.68399438,-2.71130645,,,
imu,454.667565,-0.03887993200000001,-9.728955292000002,2.21316536,0.53096808,10.90830168,-2.86832156,,,
imu,454.676048,-0.0185427368,-9.711608860800002,2.2239321104,0.13469185,10.76624039,-3.03281358,,,
imu,454.68453,0.0490485296,-9.708019944000002,2.228717332800001,-0.09709236,10.59427146,-3.17487487,,,
imu,454.693013,0.0753672528,-9.6775141512,2.2376896248,-0.48589168,10.34005652,-3.06272122,,,
imu,454.701496,0.1178361016,-9.646410205600002,2.266999112000001,-1.03918302,9.711996079999999,-2.98047521,,,
imu,454.709978,0.1357806856,-9.669738164800002,2.2885326128,-1.45041307,8.99421272,-2.70382954,,,
imu,454.718461,0.1447529776,-9.661962178400001,2.2777658624,-2.03361205,8.14932189,-2.60662971,,,
imu,454.726943,0.1710717008,-9.593772759200002,2.264008348,-2.75139541,7.13993904,-2.6739219,,,
imu,454.735404,0.1818384512,-9.548313146400002,2.2777658624,-2.81121069,6.14551001,-2.51690679,,,
imu,454.743865,0.176455076,-9.532163020800002,2.2771677096,-3.01308726,5.10621952,-2.32998404,,,
imu,454.752326,0.152528964,-9.498666464000001,2.2514471392,-3.17757928,3.99963684,-1.95613854,,,
imu,454.760787,0.131593616,-9.436458572800001,2.2335025552,-3.13271782,3.33419185,-1.51500085,,,
imu,454.769248,0.09510629520000001,-9.382026668000002,2.2059875264,-2.82616451,2.63883922,-1.14115535,,,
imu,454.777709,0.07596540560000001,-9.3868118904,2.1766780392,-2.07847351,2.16779389,-0.4233719899999999,,,
imu,454.78617,0.0735727944,-9.429878892000001,2.162322372,-1.12890594,1.6518871,-0.2065416,,,
imu,454.794631,0.03110394560000001,-9.4382530312,2.135405496,-0.48589168,1.0537343,-0.34860289,,,
imu,454.803092,0.0125612088,-9.417915836,2.1407888712,0.13469185,0.5153967799999997,-0.6402023799999998,,,
imu,454.811553,-0.008972292000000002,-9.405952780000002,2.1617242192,0.65807555,-0.2472480400000001,-1.00657097,,,
imu,454.820014,-0.0281131816,-9.4322715032,2.1617242192,1.21136689,-0.71829337,-1.60472377,,,
imu,453.398509,,,,,,,-92.1643708,179.744886,112.104836
imu,453.500041,,,,,,,-89.9670748,179.0002468,109.90754
imu,453.601604,,,,,,,-92.56720840000001,179.5739852,112.3856016
imu,453.703197,,,,,,,-90.7239212,178.4143012,109.7488464
imu,453.804698,,,,,,,-92.7503164,179.0246612,112.2757368
imu,453.906261,,,,,,,-92.5305868,179.07349,112.5687096
imu,454.007823,,,,,,,-92.2254068,179.5861924,112.287944
imu,454.109386,,,,,,,-92.847974,179.4519132,112.8006464
imu,454.828475,-0.0634041968,-9.4460290176,2.1814632616,1.39081273,-1.17438488,-2.3000764,,,
imu,454.836936,-0.080750628,-9.451412392800002,2.2143616656,1.63755076,-1.63047639,-2.70382954,,,
imu,454.845397,-0.1064711984,-9.468758824,2.2394840832,1.55530475,-1.94450661,-2.86084465,,,
imu,454.853858,-0.1184342544,-9.516611048000001,2.2448674584,1.57025857,-2.07161408,-2.83841392,,,
imu,454.862319,-0.1507345056,-9.520798117600002,2.249054528,1.40576655,-1.98936807,-2.66644499,,,
imu,454.87078,-0.1632957144,-9.528574104,2.2376896248,1.30856672,-1.94450661,-2.44213769,,,
imu,454.879241,-0.1926052016,-9.561472508000001,2.210174596,1.26370526,-1.66786094,-2.21035348,,,
imu,454.887702,-0.197390424,-9.585398620000001,2.1844540256,1.10669015,-1.55570729,-2.14306129,,,
imu,454.896163,-0.218325772,-9.591978300800001,2.177276192,0.88985976,-1.62299948,-2.10567674,,,
imu,454.904624,-0.2207183832,-9.597959828800002,2.1754817336,1.08425942,-1.51832274,-2.24026112,,,
imu,454.913085,-0.218325772,-9.616502565600001,2.170696511200001,1.33847436,-1.44355364,-2.48699915,,,
imu,454.921546,-0.2398592728,-9.639232372,2.1808651088,1.39828964,-1.48093819,-2.57672207,,,
imu,454.930007,-0.2410555784,-9.659569567200002,2.188042942400001,1.24875144,-1.43607673,-2.66644499,,,
imu,454.938468,-0.2237091472,-9.644017594400001,2.1910337064,1.22632071,-1.428599820000001,-2.63653735,,,
imu,454.946929,-0.2374666616,-9.644615747200001,2.2125672072,1.20388998,-1.52579965,-2.5991528,,,
imu,454.95539,-0.2560093984,-9.6709344704,2.2185487352,1.09921324,-1.60056875,-2.38232241,,,
imu,454.963851,-0.2237091472,-9.667345553600002,2.2023986096,1.03192105,-1.5631842,-1.86641562,,,
imu,454.972312,-0.2590001624000001,-9.603343204000002,2.1838558728,0.8449983,-1.63047639,-1.5523854,,,
imu,454.980773,-0.2595983152,-9.5800152448,2.171294664,0.9347212199999999,-1.49589201,-0.93927878,,,
imu,454.989234,-0.2249054528,-9.575230022400001,2.1724909696,0.66555246,-1.45103055,-0.4757103599999999,,,
imu,454.997695,-0.2679724544000001,-9.560874355200001,2.177276192,0.50853735,-1.4884151,-0.3112183399999999,,,
imu,455.006156,-0.2607946208,-9.533359326400001,2.1515556216,0.52349117,-1.31644617,0.002811879999999878,,,
imu,455.014617,-0.2458408008,-9.499862769600002,2.132414732,0.77770611,-1.06970814,0.36170356,,,
imu,455.023078,-0.2649816904,-9.481320032800001,2.1419851768,0.8823828499999999,-0.7930624700000002,0.5934877699999999,,,
imu,455.031539,-0.2326814392,-9.499264616800001,2.1222461344,1.05435178,-0.4042631500000002,1.00471782,,,
imu,455.04,-0.2261017584,-9.477132963200003,2.117460912,1.48801256,0.1041667299999998,1.49071697,,,
imu,455.048461,-0.2141387024,-9.4801237272,2.1138719952,1.77213514,0.35838167,1.91690084,,,
imu,455.056922,-0.1991848824,-9.489096019200002,2.0989181752,1.94410407,0.7471809899999999,2.23093106,,,
imu,455.065383,-0.1878199792,-9.486105255200002,2.0983200224,2.08616536,1.2032725,2.50009982,,,
imu,455.073844,-0.1573141864,-9.4938812416,2.0917403416,2.25813429,1.56216418,2.76179167,,,
imu,455.082305,-0.1417622136,-9.5291722568,2.0833662024,2.47496468,1.86871749,3.02348352,,,
imu,455.090766,-0.1292010048,-9.555490980000002,2.084562508,2.72917962,2.01077878,3.04591425,,,
imu,455.099227,-0.1232194768,-9.567454036,2.0983200224,2.55721069,2.31733209,3.03096043,,,
imu,455.107688,-0.1154434904,-9.593174606400002,2.0863569664,2.3403803,2.51173175,2.98609897,,,
imu,455.116149,-0.1142471848,-9.6117173432,2.0821698968,2.46748777,2.61640849,2.99357588,,,
imu,455.12461,-0.09091922560000001,-9.627867468800002,2.0773846744,2.28804193,2.88557725,3.07582189,,,
imu,455.133071,-0.0735727944,-9.642223136000002,2.0654216184,2.23570356,3.23699202,3.21788318,,,
imu,455.141539,-0.05562821040000001,-9.66016772,2.0618327016,2.19831901,3.55102224,3.27769846,,,
imu,455.150006,-0.03289840400000001,-9.678710456800001,2.0564493264,1.76465823,3.84262173,3.56182104,,,
imu,455.158473,-0.01495382,-9.692467971200001,2.0510659512,1.55530475,4.23889796,3.77865143,,,
imu,455.166941,0.002990764,-9.6942624296,2.027737992,1.48053565,4.54545127,4.010435640000001,,,
imu,455.175408,0.020935348,-9.696056888000001,2.0259435336,1.27118217,4.784712389999999,4.077727830000001,,,
imu,455.183875,0.0526374464,-9.702636568800001,2.0265416864,1.02444414,5.07631188,4.2796044,,,
imu,455.192343,0.08912476720000001,-9.696655040800001,2.0229527696,1.00949032,5.29314227,4.466527149999999,,,
imu,455.20081,0.09390998960000001,-9.690075360000002,2.0187657,0.7403215599999999,5.352957549999999,4.376804229999999,,,
imu,455.209278,0.1148453376,-9.672130776000001,2.027737992,0.23936859,5.43520356,4.15249693,,,
imu,455.217745,0.1184342544,-9.669140012000002,2.0163730888,-0.007369440000000005,5.47258811,4.100158560000001,,,
imu,455.226212,0.1549215752,-9.6458120528,2.0079989496,-0.30644584,5.40529592,3.83846671,,,
imu,455.23468,0.173464312,-9.625474857600002,2.0187657,-0.5980453299999999,5.40529592,3.55434413,,,
imu,455.243147,0.1692772424,-9.6224840936,2.024747228,-1.09152139,5.36791137,3.24031391,,,
imu,455.251614,0.1908107432,-9.6009505928,2.0032137272,-1.36816706,5.45015738,3.06834498,,,
imu,455.260082,0.200381188,-9.592576453600001,2.0133823248,-1.73453565,5.442680469999999,2.92628369,,,
imu,455.268549,0.2261017584,-9.582407856000001,1.98885806,-1.95884295,5.47258811,2.82908386,,,
imu,455.277016,0.2386629672,-9.569248494400002,1.9846709904,-2.0709966,5.50249575,2.53748437,,,
imu,455.285484,0.2691687600000001,-9.580613397600002,1.997830352,-2.07847351,5.4651112,2.56739201,,,
imu,455.293951,0.2990764,-9.587193078400002,2.024747228,-2.30278081,5.3903421,2.45523836,,,
imu,455.302418,0.3182172896000001,-9.5949690648,2.060636396,-2.54951884,5.17351171,2.29822325,,,
imu,455.310886,0.3331711096,-9.589585689600002,2.0935348,-3.028041079999999,4.979112049999999,2.14120814,,,
imu,455.319353,0.3385544848000001,-9.590183842400002,2.1210498288,-3.54394787,4.68751256,2.08886977,,,
imu,455.327821,0.3600879856,-9.599156134400001,2.15335008,-3.865455,4.35105161,2.04400831,,,
imu,455.336288,0.3600879856,-9.627269316000001,2.1964170816,-4.50099235,3.9697292,1.737455,,,
imu,455.345114,0.3582935272000001,-9.6428212888,2.205389373600001,-4.92717622,3.61831443,1.4383786,,,
imu,455.35394,0.3463304712,-9.688879054400001,2.2239321104,-5.38326773,3.20708438,1.07948692,,,
imu,455.362767,0.2948893304,-9.7337405144,2.2454656112,-5.89917452,2.89305416,0.7579797899999998,,,
imu,455.371593,0.3092449976000001,-9.7576666264,2.2137635128,-6.04123581,2.48930102,0.4140419300000002,,,
imu,455.380419,0.2847207328,-9.7086180968,2.204193068,-5.89917452,2.12293243,-0.02709575999999991,,,
imu,455.389245,0.2655798432,-9.699047652,2.1994078456,-5.929082159999999,1.78647148,-0.62524856,,,
imu,455.398071,0.2470371064,-9.709216249600003,2.1886410952,-5.52532902,1.60702564,-1.1037708,,,
imu,455.406898,0.2428500368,-9.690075360000002,2.1970152344,-5.37579082,1.37524143,-1.44770866,,,
imu,455.415724,0.2440463424,-9.669140012000002,2.2083801376,-5.2112988,1.34533379,-1.63463141,,,
imu,455.42455,0.242251884,-9.66016772,2.2029967624,-5.01689914,1.32290306,-1.57481613,,,
imu,455.433376,0.245242648,-9.6290637744,2.2023986096,-4.85240712,1.52477963,-1.253309,,,
imu,455.442202,0.2643835376,-9.637437913600001,2.2245302632,-4.74025347,1.66684092,-0.7224483899999998,,,
imu,455.451029,0.2757484408,-9.655980650400002,2.2257265688,-5.031852959999999,1.70422547,-0.3037414299999999,,,
imu,455.459855,0.3259932760000001,-9.709216249600003,2.2209413464,-5.42812919,1.65936401,-0.11681868,,,
imu,455.468681,0.334965568,-9.718188541600002,2.232306249600001,-6.16086637,1.48739508,-0.03457266999999997,,,
imu,455.477507,0.382817792,-9.678112304,2.1976133872,-6.923511189999999,1.34533379,0.1972115400000001,,,
imu,455.486334,0.3864067088000001,-9.6290637744,2.1754817336,-7.88803258,0.9939190199999999,0.21964227,,,
imu,455.49516,0.4019586816,-9.595567217600001,2.1569389968,-8.560954480000001,0.6724118899999998,0.2570268200000001,,,
imu,455.503986,0.3941826952,-9.5357519376,2.1605279136,-9.241353290000001,0.3658585799999998,0.4364726600000002,,,
imu,455.512762,0.3947808480000001,-9.457393920800001,2.1431814824,-9.57781424,0.1191205499999999,0.5934877699999999,,,
imu,455.521588,0.3852104032000001,-9.384419279200001,2.1306202736,-9.846983,-0.2397711300000003,0.5411494000000001,,,
imu,455.530415,0.370854736,-9.353913486400002,2.129423968,-9.86193682,-0.5014629800000003,0.5411494000000001,,,
imu,455.539241,0.3511156936,-9.373054376,2.150359316,-9.80212154,-0.76315483,0.6308723199999999,,,
imu,455.547721,0.3648732080000001,-9.405354627200001,2.2006041512,-10.18344395,-0.9201699400000001,0.6607799600000002,,,
imu,455.556201,0.3241988176,-9.450216087200001,2.2472600696,-9.93670592,-1.08466196,0.4065650199999999,,,
imu,455.564681,0.3176191368,-9.4753385048,2.2693917232,-9.525475870000001,-1.16690797,0.1972115400000001,,,
imu,455.573161,0.3014690112,-9.440047489600001,2.3106642664,-9.40584531,-1.05475432,0.13739626,,,
imu,455.581641,0.2930948720000001,-9.404756474400001,2.3351885312,-9.45070677,-0.7108164600000002,-0.04952648999999987,,,
imu,455.590121,0.2823281216,-9.3586987088,2.3633017128,-9.20396874,-0.4416477000000003,-0.03457266999999997,,,
imu,455.598601,0.2907022608000001,-9.337165208000002,2.396798269600001,-8.66563122,-0.01546383000000029,-0.02709575999999991,,,
imu,455.607081,0.3026653168,-9.330585527200002,2.447043104800001,-8.560954480000001,0.56025824,-0.05700339999999993,,,
imu,455.615561,0.3152265256,-9.3210150824,2.4279022152,-8.06747842,1.12102649,0.05515025000000007,,,
imu,455.624042,0.31403022,-9.294696359200001,2.4147428536,-7.41698725,1.75656384,0.3542266500000002,,,
imu,455.632522,0.3194135952000001,-9.285724067200002,2.4159391592,-6.77397299,2.31733209,0.7205952400000002,,,
imu,455.641002,0.3493212352000001,-9.305463109600002,2.398592728,-5.764590139999999,2.81828506,0.8177950699999998,,,
imu,454.210891,,,,,,,-92.9822532,179.5495708,111.6897912
imu,454.312484,,,,,,,-92.86018120000001,179.2077692,112.165872
imu,454.414107,,,,,,,-90.50419160000001,178.46313,112.3001512
imu,454.515609,,,,,,,-92.8845956,179.500742,111.860692
imu,454.617141,,,,,,,-90.74833559999999,178.7561028,110.0784408
imu,454.718703,,,,,,,-93.4095052,179.0856972,112.34898
imu,454.820296,,,,,,,-92.847974,178.6828596,110.4202424
imu,454.921828,,,,,,,-93.42171240000002,179.0612828,112.7518176
imu,455.649482,0.3576953744,-9.271368400000002,2.4057705616,-4.6879151,3.15474601,0.6757337799999998,,,
imu,455.657962,0.4169125016,-9.283929608800001,2.4051724088,-3.58880933,3.45382241,0.2794575500000001,,,
imu,455.666442,0.4216977240000001,-9.332379985600001,2.40756502,-2.77382614,3.65569898,-0.2813106999999999,,,
imu,455.674922,0.4707462536000001,-9.368269153600002,2.447043104800001,-2.2205348,3.57345297,-0.7598329399999999,,,
imu,455.683402,0.4827093096,-9.3688673064,2.48233412,-1.98875059,3.26689966,-1.16358608,,,
imu,455.691882,0.5018501992000001,-9.3592968616,2.4966897872,-1.93641222,3.18465365,-1.30564737,,,
imu,455.700362,0.4952705184000001,-9.385017432000001,2.4931008704,-2.01118132,3.05006927,-1.27573973,,,
imu,455.708842,0.5245800056000001,-9.399971252000002,2.5056620792,-2.45979592,2.81828506,-0.9766633299999998,,,
imu,455.717322,0.5221873944000001,-9.412532460800001,2.51224176,-2.87102597,2.67622377,-0.7000176599999999,,,
imu,455.725802,0.5239818528000001,-9.4424401008,2.4996805512,-3.028041079999999,2.50425484,-0.52057182,,,
imu,455.734282,0.5120187968000001,-9.4669643656,2.500278704,-3.09533327,2.27247063,-0.37103362,,,
imu,455.742763,0.5012520464000001,-9.4938812416,2.4954934816,-3.10281018,2.23508608,-0.1915877799999999,,,
imu,455.751216,0.5096261856000001,-9.531564868,2.4889138008,-3.08785636,2.26499372,-0.12429559,,,
imu,455.759669,0.5036446576000001,-9.562668813600002,2.4889138008,-2.63924176,2.29490136,-0.05700339999999993,,,
imu,455.768123,0.5191966304000001,-9.5668558832,2.499082398400001,-2.51213429,2.2500399,0.0177657,,,
imu,455.776576,0.517402172,-9.5602762024,2.5236066632,-2.48222665,2.2500399,-0.1317724999999998,,,
imu,455.785029,0.517402172,-9.548313146400002,2.5409530944,-2.28035008,2.324809,-0.3934643499999999,,,
imu,455.793483,0.5138132552000001,-9.4944793944,2.5678699704,-2.71401086,2.30985518,-0.6701100199999999,,,
imu,455.801936,0.5156077136000001,-9.46576806,2.566673664800001,-2.73644159,2.25751681,-0.7822636699999999,,,
imu,455.810389,0.5108224912,-9.455001309600002,2.5894034712,-2.98317962,2.45939338,-0.79721749,,,
imu,455.818843,0.5156077136000001,-9.460384684800001,2.583421943200001,-3.22991765,2.52668557,-0.93927878,,,
imu,455.827296,0.5072335744,-9.4490197816,2.5822256376,-3.24487147,2.51173175,-0.99161715,,,
imu,455.83575,0.4970649768000001,-9.444832712,2.5582995256,-2.99813344,2.52668557,-1.26826282,,,
imu,455.844203,0.4910834488,-9.450814240000001,2.525401121600001,-2.81121069,2.60893158,-1.52247776,,,
imu,455.852656,0.4761296288000001,-9.4663662128,2.508652843200001,-2.21305789,2.73603905,-1.50004703,,,
imu,455.86111,0.4773259344000001,-9.484908949600001,2.506260232,-1.78687402,3.01268472,-1.61220068,,,
imu,455.869563,0.4779240872000001,-9.4974701584,2.5056620792,-1.28592105,3.1472691,-1.67201596,,,
imu,455.878016,0.4862982264000001,-9.516012895200001,2.503269468,-1.00179847,3.26689966,-1.90380017,,,
imu,455.88647,0.4982612824000001,-9.502853533600002,2.512839912800001,-0.39616876,3.55849915,-2.03090764,,,
imu,455.894923,0.5000557408,-9.482516338400002,2.5565050672,-0.30644584,3.64822207,-2.2253073,,,
imu,455.903377,0.5084298800000001,-9.470553282400001,2.5792348736,-0.40364567,3.63326825,-2.42718387,,,
imu,455.91183,0.5239818528000001,-9.474740352000001,2.5852164016,-0.20924601,3.64822207,-2.41970696,,,
imu,455.920283,0.5144114080000001,-9.4765348104,2.5911979296,-0.50832241,3.55102224,-2.49447606,,,
imu,455.928737,0.5215892416000001,-9.4526086984,2.6001702216,-0.8672140899999999,3.43139168,-2.65149117,,,
imu,455.93719,0.520392936,-9.434065961600002,2.5935905408,-1.44293616,3.38653022,-2.81598319,,,
imu,455.945643,0.5197947832,-9.403560168800002,2.5864127072,-1.6971511,3.17717674,-2.95056757,,,
imu,455.954102,0.5120187968000001,-9.395186029600001,2.5642810536,-1.87659694,3.02763854,-3.13749032,,,
imu,455.96256,0.4958686712000001,-9.3832229736,2.5403549416,-1.96631986,2.81080815,-3.36179762,,,
imu,455.971019,0.4713444064,-9.367072848000001,2.508652843200001,-2.04856587,2.66874686,-3.58610492,,,
imu,455.979477,0.4533998224,-9.338959666400001,2.4936990232,-1.80182784,2.66874686,-3.75807385,,,
imu,455.987936,0.4294737104000001,-9.335370749600001,2.488315648,-1.3980747,2.57154703,-3.71321239,,,
imu,455.996394,0.4121272792,-9.355109792000002,2.494297176,-1.15881358,2.50425484,-3.83284295,,,
imu,456.004853,0.400762376,-9.401167557600001,2.5218122048,-0.92702937,2.68370068,-4.02724261,,,
imu,456.013311,0.3816214864,-9.444234559200002,2.5427475528,-0.63542988,2.75846978,-4.25154991,,,
imu,456.021769,0.3876030144000001,-9.4412437952,2.548729080800001,-0.77001426,2.93791562,-4.40108811,,,
imu,456.030228,0.3660695136000001,-9.4555994624,2.5636829008,-0.62047606,3.18465365,-4.244073,,,
imu,456.038686,0.3696584304000001,-9.489694172,2.5768422624,-0.5756146,3.23699202,-3.92256587,,,
imu,456.047145,0.3606861384,-9.4974701584,2.5923942352,-0.54570696,3.37905331,-3.72816621,,,
imu,456.055603,0.3636769024000001,-9.502255380800001,2.5846182488,-0.70272207,3.50616078,-3.7206893,,,
imu,456.064062,0.3684621248000001,-9.5010590752,2.585814554400001,-0.68776825,3.62579134,-3.74312003,,,
imu,456.07252,0.3696584304000001,-9.5010590752,2.601366527200001,-1.03918302,3.47625314,-3.83284295,,,
imu,456.080979,0.3672658192000001,-9.508835061600001,2.6001702216,-1.22610577,3.58840679,-3.85527368,,,
imu,456.089437,0.3714528888,-9.4765348104,2.5798330264,-1.36069015,3.64074516,-3.87770441,,,
imu,456.097896,0.3840140976,-9.437056725600002,2.578038568,-1.41302852,3.73794499,-3.89265823,,,
imu,456.106354,0.3864067088000001,-9.401167557600001,2.5594958312,-1.12890594,3.820191,-3.61601256,,,
imu,456.114812,0.3666676664,-9.390998960000001,2.5409530944,-1.00179847,3.96225229,-3.32441307,,,
imu,456.123271,0.35889168,-9.385615584800002,2.5265974272,-0.60552224,4.05197521,-3.18235178,,,
imu,456.131729,0.3660695136000001,-9.394587876800001,2.5248029688,-0.20924601,4.05945212,-3.21973633,,,
imu,456.140188,0.3660695136000001,-9.346735652800001,2.5403549416,0.06739966,4.0444983,-3.45152054,,,
imu,456.148646,0.3720510416,-9.355109792000002,2.499082398400001,0.57582954,3.98468302,-3.73564312,,,
imu,456.157107,0.3606861384,-9.355109792000002,2.5074565376,0.97210577,3.96225229,-4.04219643,,,
imu,456.165568,0.3774344168000001,-9.3545116392,2.52719558,1.36090509,3.9697292,-4.37865738,,,
imu,456.174029,0.361882444,-9.358100556000002,2.543345705600001,1.68988913,3.81271409,-4.58801086,,,
imu,456.18249,0.3893974728000001,-9.3658765424,2.5445420112,1.84690424,3.8949601,-4.61044159,,,
imu,456.190951,0.4061457512000001,-9.3652783896,2.5385604832,1.92915025,4.00711375,-4.50576485,,,
imu,456.199412,0.4181088072000001,-9.364082084000001,2.530186344,2.05625772,3.90243701,-4.0945348,,,
imu,456.207873,0.430670016,-9.3963823352,2.527793732800001,2.06373463,3.6706528,-3.7206893,,,
imu,456.216334,0.4055475984,-9.423299211200002,2.512839912800001,2.21327283,3.5211146,-3.40665908,,,
imu,456.224795,0.406743904,-9.404756474400001,2.5056620792,2.25813429,3.3715764,-3.25712088,,,
imu,456.233256,0.4240903352000001,-9.398176793600001,2.4919045648,2.25813429,3.25942275,-3.21973633,,,
imu,456.241717,0.4139217376000001,-9.413130613600002,2.4769507448,2.48244159,3.04259236,-3.22721324,,,
imu,456.250178,0.3911919312,-9.432869656000001,2.4721655224,2.60207215,2.90800798,-3.2720747,,,
imu,456.258639,0.3834159448,-9.444234559200002,2.4727636752,2.63197979,2.86314652,-3.22721324,,,
imu,456.2671,0.3899956256000001,-9.450216087200001,2.4721655224,2.69179507,2.90053107,-3.29450543,,,
imu,456.275561,0.3523119992,-9.502255380800001,2.4769507448,2.94601001,2.78837742,-3.54124346,,,
imu,456.284022,0.3487230824000001,-9.517807353600002,2.4709692168,2.998348379999999,2.81080815,-3.75807385,,,
imu,456.292483,0.3564990688,-9.505246144800001,2.460202466400001,2.96096383,2.84071579,-3.90013514,,,
imu,456.300944,0.3379563320000001,-9.5291722568,2.476352592,3.07311748,2.98277708,-4.20668845,,,
imu,456.309405,0.3218062064,-9.562668813600002,2.462595077600001,3.02077911,3.11736146,-4.52071867,,,
imu,456.317866,0.3104413032000001,-9.536948243200001,2.45242648,3.0880713,3.24446893,-4.72259524,,,
imu,456.326327,0.3062542336,-9.499862769600002,2.4452486464,3.11050203,3.43139168,-5.05157928,,,
imu,456.334788,0.2978800944000001,-9.517807353600002,2.4446504936,3.282470959999999,3.38653022,-5.350655679999999,,,
imu,456.343249,0.2829262744000001,-9.5172092008,2.4362763544,3.47687062,3.5211146,-5.69459354,,,
imu,456.35171,0.2972819416,-9.507040603200002,2.427304062400001,3.55163972,3.70803735,-5.93385466,,,
imu,456.36053,0.2883096496000001,-9.4980683112,2.4183317704,3.52920899,3.76037572,-6.16563887,,,
imu,456.369349,0.2865151912,-9.516012895200001,2.4177336176,3.43200916,3.80523718,-6.464715269999999,,,
imu,456.378169,0.2966837888,-9.520199964800002,2.4129483952,3.36471697,3.70803735,-6.34508471,,,
imu,456.386989,0.2895059552,-9.516611048000001,2.3902185888,3.34976315,3.76037572,-6.337607799999999,,,
imu,456.395808,0.275150288,-9.5148165896,2.3860315192,3.42453225,3.78280645,-6.38994617,,,
imu,456.404628,0.2745521352,-9.5004609224,2.3752647688,3.34228624,3.68560662,-6.374992349999999,,,
imu,456.413447,0.2990764,-9.5154147424,2.3752647688,3.35724006,3.5958837,-6.45723836,,,
imu,456.422267,0.2883096496000001,-9.517807353600002,2.3770592272,3.34228624,3.43139168,-6.360038530000001,,,
imu,456.431087,0.2799355104,-9.520199964800002,2.3644980184,2.87124091,3.24446893,-6.30022325,,,
imu,456.439906,0.2787392048,-9.507638756,2.365694324000001,2.63197979,3.11736146,-6.225454149999999,,,
imu,456.448726,0.236270356,-9.546518688,2.3884241304,2.54973378,2.94539253,-6.17311578,,,
imu,456.457545,0.2129423968,-9.568052188800001,2.3812462968,2.07121154,2.83323888,-5.98619303,,,
imu,455.023421,,,,,,,-92.7503164,178.7805172,112.3123584
imu,455.124953,,,,,,,-93.0066676,178.76831,112.715196
imu,455.226546,,,,,,,-92.6526588,178.7194812,111.9583496
imu,455.328078,,,,,,,-92.115542,179.3054268,112.1170432
imu,455.429671,,,,,,,-90.1501828,178.4753372,110.4690712
imu,455.531234,,,,,,,-92.37189320000002,179.6960572,112.287944
imu,455.632979,,,,,,,-89.490994,179.256598,109.5535312
imu,455.734328,,,,,,,-92.4085148,180.3796604,111.494476
imu,456.466365,0.188418132,-9.554892827200002,2.3633017128,1.77961205,2.75099287,-5.62730135,,,
imu,456.475184,0.1788476872,-9.554294674400001,2.3615072544,1.70484295,2.67622377,-5.26840967,,,
imu,456.484004,0.1471455888,-9.559678049600002,2.3603109488,1.33099745,2.57902394,-4.98428709,,,
imu,456.492824,0.1339862272,-9.539939007200001,2.3555257264,1.26370526,2.65379304,-4.670256869999999,,,
imu,456.501643,0.1160416432,-9.523190728800001,2.3411700592,1.19641307,2.76594669,-4.49081103,,,
imu,456.510463,0.1052748928,-9.516611048000001,2.3393756008,1.16650543,2.9229618,-4.16182699,,,
imu,456.519282,0.1040785872,-9.5010590752,2.3363848368,1.03939796,3.13979219,-4.034719519999999,,,
imu,456.528102,0.1142471848,-9.485507102400002,2.3405719064,1.33847436,3.3715764,-3.8702275,,,
imu,456.536921,0.1220231712,-9.4801237272,2.3315996144,1.50296638,3.70803735,-3.77302767,,,
imu,456.545741,0.1082656568,-9.492086783200001,2.3220291696,1.61512003,3.91739083,-3.6459202,,,
imu,456.554561,0.1112564208,-9.520798117600002,2.321431016800001,1.86933497,4.16412886,-3.6459202,,,
imu,456.563036,0.1142471848,-9.5237888816,2.3172439472,1.93662716,4.31366706,-3.68330475,,,
imu,456.571511,0.1292010048,-9.530966715200002,2.3256180864,2.09364227,4.523020539999999,-3.75807385,,,
imu,456.579986,0.1417622136,-9.562070660800002,2.3202347112,2.28804193,4.814620029999999,-3.81788913,,,
imu,456.588461,0.1471455888,-9.574631869600001,2.3262162392,2.21327283,4.82209694,-4.057150249999999,,,
imu,456.596936,0.161501256,-9.589585689600002,2.325019933600001,2.05625772,5.023973509999999,-4.27398064,,,
imu,456.605372,0.182436604,-9.580613397600002,2.3333940728,1.8917657,5.03892733,-4.53567249,,,
imu,456.613847,0.1949978128,-9.585996772800002,2.3339922256,1.60016621,4.95668132,-4.67773378,,,
imu,456.622322,0.19439966,-9.626671163200001,2.3315996144,1.33099745,4.979112049999999,-4.70016451,,,
imu,456.630797,0.212344244,-9.633250844,2.3232254752,1.06182869,4.85948149,-4.73007215,,,
imu,456.639272,0.215335008,-9.631456385600002,2.30288828,0.60573718,4.76975857,-4.759979789999999,,,
imu,456.647747,0.2195220776,-9.6428212888,2.299897516,0.50853735,4.552928179999999,-4.7674567,,,
imu,456.656222,0.212344244,-9.6428212888,2.30288828,0.3216146,4.38095925,-4.84970271,,,
imu,456.664697,0.2087553272,-9.631456385600002,2.3004956688,0.15712258,3.99963684,-5.01419473,,,
imu,456.673172,0.2021756464,-9.613511801600001,2.2951122936,-0.22419983,3.62579134,-5.238502029999999,,,
imu,456.681647,0.1806421456,-9.591380148,2.2843455432,-0.53823005,3.34914567,-5.45533242,,,
imu,456.690122,0.1686790896,-9.557285438400001,2.2753732512,-0.68776825,3.0725,-5.65720899,,,
imu,456.698597,0.1483418944,-9.519003659200001,2.278962168,-0.7550604399999999,2.68370068,-5.62730135,,,
imu,456.707072,0.1208268656,-9.496872005600002,2.2747750984,-0.7401066199999999,2.40705501,-5.65720899,,,
imu,456.715547,0.09510629520000001,-9.479525574400002,2.2652046536,-0.7401066199999999,2.38462428,-5.58243989,,,
imu,456.724022,0.0855358504,-9.458590226400002,2.2508489864,-0.62047606,2.23508608,-5.67963972,,,
imu,456.732497,0.06400234960000001,-9.440645642400002,2.240082236,-0.5008455,1.99582496,-5.8142241,,,
imu,456.740972,0.0370854736,-9.4460290176,2.2484563752,-0.10456927,1.79394839,-5.88151629,,,
imu,456.749447,0.0376836264,-9.4729458936,2.2532415976,-0.01484635000000001,1.70422547,-6.075915950000001,,,
imu,456.757922,0.023926112,-9.4765348104,2.2466619168,0.44124516,1.65936401,-5.9637623,,,
imu,456.766439,0.01495382,-9.490292324800002,2.2628120424,0.77770611,1.69674856,-5.73197809,,,
imu,456.774956,0.0101685976,-9.506442450400002,2.2741769456,0.8823828499999999,1.62197946,-5.43290169,,,
imu,456.783473,0.0011963056,-9.5249851872,2.2843455432,0.9347212199999999,1.73413311,-5.021671639999999,,,
imu,456.79199,-0.0005981528000000001,-9.5602762024,2.269989876,1.05435178,1.83133294,-4.66277996,,,
imu,456.800507,0.0,-9.555490980000002,2.2628120424,1.09173633,2.01825569,-4.37865738,,,
imu,456.809024,0.008374139200000002,-9.5489112992,2.2598212784,1.23379762,2.04816333,-4.057150249999999,,,
imu,456.817541,0.0053833752,-9.557285438400001,2.2592231256,1.15155161,2.16779389,-3.84031986,,,
imu,456.826058,0.004785222400000001,-9.5632669664,2.2574286672,1.15155161,2.19022462,-3.66835093,,,
imu,456.834575,-0.002990764,-9.568650341600001,2.2436711528,1.00201341,2.20517844,-3.39918217,,,
imu,456.843092,-0.0131593616,-9.566257730400002,2.228717332800001,0.9945364999999999,2.44443956,-3.22721324,,,
imu,456.851609,-0.0137575144,-9.559678049600002,2.2083801376,0.9571519499999999,2.71360832,-3.09262886,,,
imu,456.860126,-0.004785222400000001,-9.550705757600001,2.1844540256,1.03192105,2.71360832,-3.00290594,,,
imu,456.868642,-0.003588916800000001,-9.5590798968,2.1683039,0.94967504,2.9229618,-2.91318302,,,
imu,456.877159,-0.0011963056,-9.578220786400001,2.164714983200001,1.00201341,3.05754618,-2.80102937,,,
imu,456.885676,0.0011963056,-9.6051376624,2.1671075944,0.8749059399999999,3.24446893,-2.71878336,,,
imu,456.894193,0.011963056,-9.612315496,2.1569389968,0.7702292,3.45382241,-2.748691,,,
imu,456.90271,0.0227298064,-9.6290637744,2.156340844,0.70293701,3.51363769,-2.92813684,,,
imu,456.911227,0.0317020984,-9.6428212888,2.188042942400001,0.65059864,3.52859151,-3.18982869,,,
imu,456.919744,0.0203371952,-9.654186192000001,2.1964170816,0.14216876,3.53606842,-3.23469015,,,
imu,456.928261,0.0346928624,-9.6470083584,2.2107727488,-0.34383039,3.40148404,-3.50385891,,,
imu,456.936778,0.0233279592,-9.638634219200002,2.2299136384,-0.6279529699999999,3.27437657,-3.60105874,,,
imu,456.945295,0.0323002512,-9.6218859408,2.222735804800001,-0.8821679099999999,3.2220382,-3.74312003,,,
imu,456.953812,0.0167482784,-9.626671163200001,2.2329044024,-1.12142903,3.13979219,-3.76555076,,,
imu,456.962329,0.0131593616,-9.6075302736,2.2269228744,-1.58499745,3.15474601,-3.78798149,,,
imu,456.97074,0.0197390424,-9.578818939200001,2.2077819848,-1.83173548,2.93043871,-3.9449966,,,
imu,456.979152,0.004785222400000001,-9.546518688,2.2006041512,-1.80182784,2.81828506,-4.04219643,,,
imu,456.987563,0.0,-9.527377798400002,2.2077819848,-2.00370441,2.67622377,-3.95247351,,,
imu,456.995975,-0.005981528000000001,-9.543527924000001,2.2215394992,-1.89902767,2.52668557,-3.90013514,,,
imu,457.004386,-0.0430670016,-9.545322382400002,2.219146888,-1.92893531,2.31733209,-4.04219643,,,
imu,457.012797,-0.0502448352,-9.520199964800002,2.2329044024,-1.98875059,2.16031698,-4.08705789,,,
imu,457.021209,-0.05682451600000001,-9.4974701584,2.2424748472,-1.86912003,2.06311715,-3.98985806,,,
imu,457.02962,-0.07596540560000001,-9.502853533600002,2.2466619168,-1.95884295,1.95844041,-3.86275059,,,
imu,457.038032,-0.09869521200000002,-9.513022131200001,2.2574286672,-1.77939711,1.94348659,-3.5711511,,,
imu,457.046443,-0.1160416432,-9.527377798400002,2.261017584,-1.76444329,2.07059406,-3.26459779,,,
imu,457.054854,-0.11963056,-9.539939007200001,2.2532415976,-1.71210492,2.2500399,-3.0477674,,,
imu,457.063266,-0.1190324072,-9.5393408544,2.2376896248,-1.62985891,2.46687029,-2.69635263,,,
imu,457.071677,-0.122621324,-9.534555632000002,2.2436711528,-1.37564397,2.67622377,-2.51690679,,,
imu,457.080089,-0.1202287128,-9.527975951200002,2.237091472,-1.22610577,2.87062343,-2.47204533,,,
imu,457.0885,-0.1268083936,-9.537546396000002,2.2209413464,-1.12890594,3.01268472,-2.38232241,,,
imu,457.096911,-0.1363788384,-9.549509452,2.2215394992,-0.9494601,3.28933039,-2.27764567,,,
imu,457.105323,-0.1357806856,-9.5668558832,2.222137652,-0.9644139199999999,3.53606842,-2.12063056,,,
imu,457.113734,-0.1238176296,-9.592576453600001,2.2406803888,-0.77749117,3.83514482,-1.98604618,,,
imu,457.122146,-0.116639796,-9.603343204000002,2.2472600696,-0.93450628,4.22394414,-1.89632326,,,
imu,457.130557,-0.1004896704,-9.591978300800001,2.2317080968,-1.04665993,4.4183438,-1.72435433,,,
imu,457.138968,-0.08912476720000001,-9.593772759200002,2.2329044024,-1.06161375,4.75480475,-1.47013939,,,
imu,457.14738,-0.0855358504,-9.591978300800001,2.2358951664,-1.36069015,5.12865025,-1.34303192,,,
imu,457.155791,-0.0693857248,-9.591380148,2.246063764000001,-1.75696638,5.08378879,-1.23087827,,,
imu,457.164203,-0.04545961280000001,-9.574631869600001,2.2424748472,-2.00370441,5.18098862,-1.18601681,,,
imu,457.172668,-0.0323002512,-9.547116840800001,2.2376896248,-2.04856587,5.25575772,-1.13367844,,,
imu,457.181132,-0.0197390424,-9.546518688,2.2508489864,-2.15324261,5.33800373,-1.05143243,,,
imu,457.189597,-0.0053833752,-9.539939007200001,2.2382877776,-2.370073,5.48754193,-0.8944173199999998,,,
imu,457.198062,0.0017944584,-9.5213962704,2.2329044024,-2.27287317,5.49501884,-0.7000176599999999,,,
imu,457.206527,0.0185427368,-9.499264616800001,2.2305117912,-2.08595042,5.4651112,-0.6476792899999999,,,
imu,457.214992,0.03110394560000001,-9.489096019200002,2.228717332800001,-2.03361205,5.33800373,-0.52057182,,,
imu,457.223456,0.0352910152,-9.5082369088,2.2299136384,-2.04108896,5.420249739999999,-0.6102947399999998,,,
imu,457.231921,0.04545961280000001,-9.5040498392,2.2406803888,-1.92893531,5.50997266,-0.63272547,,,
imu,457.240386,0.04725407120000001,-9.513620284000002,2.2388859304,-1.58499745,5.4651112,-0.5953409199999999,,,
imu,457.248851,0.05682451600000001,-9.5154147424,2.249652680800001,-1.65228964,5.38286519,-0.77478676,,,
imu,457.257316,0.0562263632,-9.5393408544,2.2586249728,-1.65976655,5.308096089999999,-1.04395552,,,
imu,457.26578,0.06400234960000001,-9.5381445488,2.2562323616,-1.3980747,5.22585008,-1.29069355,,,
imu,457.274245,0.05443190480000001,-9.555490980000002,2.2747750984,-1.16629049,5.17351171,-1.38789338,,,
imu,455.835907,,,,,,,-91.7615332,180.1965524,110.762044
imu,455.937439,,,,,,,-92.2864428,180.4651108,111.7874488
imu,456.039734,,,,,,,-91.51738920000001,179.8181292,112.1170432
imu,456.140533,,,,,,,-91.73711879999999,180.0744804,112.1292504
imu,456.242126,,,,,,,-91.3709028,179.3054268,111.8851064
imu,456.343658,,,,,,,-91.48076760000001,179.805922,112.2513224
imu,456.445221,,,,,,,-91.4929748,179.5983996,112.0926288
imu,456.546814,,,,,,,-89.17360679999999,178.0724996,110.334792
imu,457.28271,0.0490485296,-9.5590798968,2.2735787928,-1.33825942,5.263234629999999,-1.59724686,,,
imu,457.291175,0.04366515440000001,-9.5740337168,2.2765695568,-1.37564397,5.285665359999999,-1.82155416,,,
imu,457.29964,0.0442633072,-9.614109954400002,2.269989876,-1.33825942,5.38286519,-1.93370781,,,
imu,457.308105,0.04845037680000001,-9.592576453600001,2.2717843344,-1.51022835,5.48006502,-2.00847691,,,
imu,457.316569,0.0550300576,-9.572837411200002,2.280756626400001,-1.51770526,5.6894185,-2.12063056,,,
imu,457.325034,0.0430670016,-9.599156134400001,2.2675972648,-1.35321324,5.74175687,-2.0757691,,,
imu,457.333499,0.0526374464,-9.603343204000002,2.278962168,-1.57004363,5.90624889,-2.06081528,,,
imu,457.341964,0.0663949608,-9.583604161600002,2.278962168,-1.63733582,6.01840254,-2.05333837,,,
imu,457.350429,0.07177833600000001,-9.556089132800002,2.2747750984,-1.64481273,6.033356359999999,-2.01595382,,,
imu,457.358893,0.0741709472,-9.530368562400001,2.2681954176,-1.68967419,6.05578709,-1.90380017,,,
imu,457.367358,0.07297464160000001,-9.509433214400001,2.2717843344,-1.98875059,5.943633439999999,-1.97856927,,,
imu,457.376182,0.09749890640000002,-9.516611048000001,2.2885326128,-2.16071952,5.7641876,-2.09072292,,,
imu,457.385005,0.09690075360000001,-9.5184055064,2.2891307656,-2.19810407,5.56231103,-2.31503022,,,
imu,457.393829,0.09630260080000001,-9.5184055064,2.3004956688,-2.23548862,5.33800373,-2.53933752,,,
imu,457.402652,0.09510629520000001,-9.561472508000001,2.321431016800001,-2.46727283,5.06135806,-2.71130645,,,
imu,457.411476,0.07775986400000001,-9.553696521600001,2.3244217808,-2.33268845,4.84452767,-2.6739219,,,
imu,457.4203,0.09450814240000002,-9.534555632000002,2.3339922256,-2.39998064,4.79966621,-2.60662971,,,
imu,457.429123,0.06579680800000001,-9.5237888816,2.325019933600001,-2.45979592,4.739850929999999,-2.05333837,,,
imu,457.437947,0.0526374464,-9.5184055064,2.3130568776,-2.37754991,4.77723548,-1.47013939,,,
imu,457.44677,0.04545961280000001,-9.4944793944,2.3034864328,-2.23548862,4.94920441,-1.11872462,,,
imu,457.455594,0.0592171272,-9.487899713600001,2.2693917232,-1.96631986,5.068834969999999,-1.06638625,,,
imu,457.464417,0.06460050240000001,-9.468758824,2.2562323616,-1.60742818,5.03145042,-1.0290017,,,
imu,457.473241,0.07297464160000001,-9.456795768000001,2.264008348,-1.28592105,5.08378879,-1.03647861,,,
imu,457.482064,0.07716171120000001,-9.474740352000001,2.2484563752,-1.04665993,5.068834969999999,-1.20097063,,,
imu,457.490888,0.06699311360000001,-9.478329268800001,2.2556342088,-0.64290679,4.99406587,-1.4776163,,,
imu,457.499712,0.06699311360000001,-9.469356976800002,2.2741769456,-0.34383039,5.023973509999999,-1.57481613,,,
imu,457.508535,0.0735727944,-9.4735440464,2.2598212784,-0.26906129,5.03892733,-1.81407725,,,
imu,457.517359,0.07895616960000001,-9.488497866400001,2.2717843344,0.02253820000000001,4.98658896,-1.96361545,,,
imu,457.526182,0.0933118368,-9.495675700000001,2.2861400016,0.14216876,5.06135806,-2.001,,,
imu,457.535006,0.1040785872,-9.505844297600001,2.2885326128,0.0001074699999999984,5.03892733,-2.0757691,,,
imu,457.543829,0.1118545736,-9.531564868,2.304084585600001,-0.23167674,5.03145042,-2.0757691,,,
imu,457.552653,0.1112564208,-9.539939007200001,2.30288828,-0.4260764,4.91181986,-2.12063056,,,
imu,457.561477,0.1142471848,-9.549509452,2.2987012104,-0.49336859,4.89686604,-1.95613854,,,
imu,457.5703,0.1094619624,-9.556089132800002,2.3022901272,-0.62047606,5.00901969,-1.89632326,,,
imu,457.57877,0.1130508792,-9.556089132800002,2.2891307656,-0.91955246,4.88938913,-1.86641562,,,
imu,457.58724,0.1112564208,-9.564463272000001,2.2873363072,-1.04665993,4.88938913,-1.86641562,,,
imu,457.59571,0.1190324072,-9.5602762024,2.2891307656,-1.15133667,4.91181986,-1.79912343,,,
imu,457.60418,0.1154434904,-9.554892827200002,2.299897516,-1.28592105,5.06135806,-2.00847691,,,
imu,457.61265,0.1148453376,-9.565061424800001,2.305879044,-1.50275144,5.18098862,-2.05333837,,,
imu,457.621119,0.113649032,-9.578220786400001,2.311262419200001,-1.59995127,5.18098862,-2.08324601,,,
imu,457.629589,0.1220231712,-9.5949690648,2.3226273224,-1.82425857,5.18846553,-2.4496146,,,
imu,457.638059,0.1274065464,-9.592576453600001,2.3333940728,-1.92893531,5.315573,-2.56924516,,,
imu,457.646529,0.1309954632,-9.585398620000001,2.34774974,-1.81678166,5.420249739999999,-2.68887572,,,
imu,457.654999,0.131593616,-9.590183842400002,2.3561238792,-2.11585806,5.375388279999999,-2.94309066,,,
imu,457.663469,0.1309954632,-9.6015487456,2.3644980184,-2.39250373,5.33800373,-3.27955161,,,
imu,457.671939,0.128602852,-9.588987536800001,2.3710776992,-2.48970356,5.24828081,-3.53376655,,,
imu,457.680409,0.140565908,-9.545322382400002,2.3555257264,-2.7439185,5.05388115,-3.78050458,,,
imu,457.688879,0.1447529776,-9.531564868,2.3728721576,-2.69905704,4.7921893,-3.96742733,,,
imu,457.697315,0.1411640608,-9.538742701600002,2.3782555328,-2.7439185,4.70994329,-3.75807385,,,
imu,457.705785,0.1387714496,-9.531564868,2.3525349624,-2.93831816,4.60526655,-3.48142818,,,
imu,457.714255,0.1417622136,-9.520798117600002,2.3561238792,-2.92336434,4.47068217,-3.18235178,,,
imu,457.722725,0.1357806856,-9.513022131200001,2.3453571288,-2.66167249,4.20899032,-2.95056757,,,
imu,457.731195,0.1321917688,-9.474740352000001,2.3471515872,-2.54204193,4.126744309999999,-2.90570611,,,
imu,457.739664,0.1268083936,-9.460384684800001,2.3286088504,-2.25791935,3.6706528,-2.84589083,,,
imu,457.748134,0.1160416432,-9.458590226400002,2.3220291696,-2.03361205,3.43139168,-2.8234601,,,
imu,457.756604,0.1082656568,-9.458590226400002,2.3106642664,-1.89902767,3.05754618,-2.84589083,,,
imu,457.765074,0.09390998960000001,-9.452010545600002,2.3094679608,-1.67472037,2.84071579,-2.80102937,,,
imu,457.773544,0.07895616960000001,-9.444234559200002,2.311860572000001,-1.34573633,2.63883922,-2.66644499,,,
imu,457.782009,0.0753672528,-9.4621791432,2.3154494888,-1.11395212,2.63136231,-2.55429134,,,
imu,457.790474,0.05802082160000001,-9.478927421600002,2.3244217808,-0.81487572,2.57154703,-2.35241477,,,
imu,457.798939,0.0514411408,-9.4753385048,2.3321977672,-0.65786061,2.59397776,-2.18044584,,,
imu,457.807403,0.02990764000000001,-9.4801237272,2.3333940728,-0.6503837,2.73603905,-2.01595382,,,
imu,457.815868,0.0305057928,-9.489096019200002,2.3411700592,-0.64290679,2.85566961,-1.89632326,,,
imu,457.824333,0.023926112,-9.492086783200001,2.3405719064,-0.74758353,3.13979219,-1.91127708,,,
imu,457.832798,0.020935348,-9.4962738528,2.3441608232,-0.65786061,3.40148404,-1.80660034,,,
imu,457.841263,0.0293094872,-9.510031367200002,2.3393756008,-0.68029134,3.64074516,-1.7766927,,,
imu,457.849727,0.0227298064,-9.5213962704,2.326814392,-0.47841477,3.90991392,-1.75426197,,,
imu,457.858192,0.04007623760000001,-9.52558334,2.3315996144,-0.41859949,4.17908268,-1.84398489,,,
imu,457.866657,0.05084298800000001,-9.535153784800002,2.3256180864,-0.44103022,4.48563599,-1.97109236,,,
imu,457.875122,0.06160973840000001,-9.541733465600002,2.3154494888,-0.23915365,4.60526655,-2.21035348,,,
imu,457.883587,0.05802082160000001,-9.551902063200002,2.3256180864,-0.26158438,4.762281659999999,-2.36736859,,,
imu,457.892051,0.08314323920000001,-9.556089132800002,2.3345903784,-0.23167674,4.85200458,-2.60662971,,,
imu,457.900516,0.08972292000000001,-9.556089132800002,2.3262162392,-0.16438455,4.90434295,-2.76364482,,,
imu,457.908981,0.1178361016,-9.553098368800002,2.3375811424,-0.44103022,4.88938913,-2.86832156,,,
imu,457.917446,0.1250139352,-9.571042952800001,2.3381792952,-0.53823005,4.82209694,-3.01038285,,,
imu,457.925911,0.1292010048,-9.578220786400001,2.341768212,-0.63542988,4.77723548,-3.01785976,,,
imu,457.934376,0.122621324,-9.562668813600002,2.356722032,-0.88964482,4.60526655,-3.07019813,,,
imu,457.94284,0.1303973104,-9.5602762024,2.3501423512,-1.06161375,4.44077453,-2.91318302,,,
imu,457.951305,0.1238176296,-9.549509452,2.3345903784,-1.3980747,4.32862088,-2.79355246,,,
imu,457.95977,0.1357806856,-9.536350090400001,2.3280106976,-1.3233056,4.22394414,-2.65896808,,,
imu,457.968235,0.1369769912,-9.537546396000002,2.3166457944,-1.66724346,3.97720611,-2.61410662,,,
imu,457.9767,0.125612088,-9.533957479200001,2.3166457944,-1.49527453,3.72299117,-2.47204533,,,
imu,457.985175,0.116639796,-9.5237888816,2.3202347112,-1.57004363,3.65569898,-2.45709151,,,
imu,457.99365,0.09749890640000002,-9.532163020800002,2.3184402528,-1.5476129,3.62579134,-2.28512258,,,
imu,458.002125,0.09151737840000002,-9.522592576000001,2.3166457944,-1.60742818,3.5211146,-2.35241477,,,
imu,458.0106,0.0813487808,-9.528574104,2.323823628,-1.56256672,3.40148404,-2.44213769,,,
imu,458.019075,0.0681894192,-9.543527924000001,2.3405719064,-1.37564397,3.40896095,-2.49447606,,,
imu,458.02755,0.06101158560000001,-9.548313146400002,2.344758976,-1.45041307,3.39400713,-2.66644499,,,
imu,458.036024,0.062806044,-9.546518688,2.3579183376,-1.63733582,3.52859151,-2.69635263,,,
imu,458.044499,0.05443190480000001,-9.536948243200001,2.3543294208,-1.68967419,3.55102224,-2.5991528,,,
imu,458.052974,0.04486146000000001,-9.5172092008,2.34774974,-1.76444329,3.70056044,-2.77112173,,,
imu,458.061449,0.04725407120000001,-9.499264616800001,2.3543294208,-1.59995127,3.797760269999999,-2.62906044,,,
imu,458.069924,0.06041343280000001,-9.479525574400002,2.3453571288,-1.73453565,3.84262173,-2.76364482,,,
imu,458.078399,0.04366515440000001,-9.489096019200002,2.3489460456,-1.65976655,3.91739083,-2.84589083,,,
imu,458.086874,0.05203929360000001,-9.5148165896,2.3603109488,-1.74948947,3.90243701,-3.15992105,,,
imu,458.095349,0.05443190480000001,-9.527377798400002,2.365694324000001,-1.65976655,3.94729847,-3.18235178,,,
imu,456.648376,,,,,,,-91.57842520000001,179.134526,112.9715472
imu,456.749908,,,,,,,-89.7839668,178.5485804,110.0784408
imu,456.851745,,,,,,,-91.6028396,178.1823644,112.5198808
imu,456.953064,,,,,,,-91.3342812,179.0856972,112.5076736
imu,457.054565,,,,,,,-91.4685604,178.8049316,113.2156912
imu,457.156219,,,,,,,-91.3464884,179.37867,112.898304
imu,457.257751,,,,,,,-91.3342812,179.0490756,112.7640248
imu,457.359314,,,,,,,-91.6516684,178.9025892,112.9715472
imu,458.103824,0.0562263632,-9.513620284000002,2.365694324000001,-1.43545925,4.06692903,-3.02533667,,,
imu,458.112299,0.06460050240000001,-9.505246144800001,2.3698813936,-1.60742818,4.20899032,-2.81598319,,,
imu,458.120774,0.062806044,-9.5172092008,2.379451838400001,-1.36816706,4.29123633,-2.4496146,,,
imu,458.129249,0.05383375200000001,-9.524387034400002,2.368685088,-1.04665993,4.410866889999999,-1.91127708,,,
imu,458.137724,0.0562263632,-9.512423978400001,2.362105407200001,-1.12890594,4.530497449999999,-1.75426197,,,
imu,458.146199,0.0741709472,-9.513022131200001,2.3579183376,-1.07656757,4.552928179999999,-1.60472377,,,
imu,458.154674,0.08733030880000002,-9.5040498392,2.3585164904,-1.08404448,4.59778964,-1.5523854,,,
imu,458.163149,0.0813487808,-9.4873015608,2.3531331152,-0.9494601,4.567882,-1.69444669,,,
imu,458.171624,0.08972292000000001,-9.489096019200002,2.3543294208,-0.8821679099999999,4.38095925,-1.97109236,,,
imu,458.180099,0.0747691,-9.4831144912,2.34774974,-0.7251528,4.37348234,-2.01595382,,,
imu,458.188937,0.080750628,-9.502853533600002,2.3453571288,-0.65786061,4.29871324,-2.21035348,,,
imu,458.197776,0.09151737840000002,-9.498666464000001,2.3609091016,-0.70272207,4.25385178,-2.27764567,,,
imu,458.206614,0.08852661440000001,-9.499264616800001,2.3644980184,-0.7251528,4.35105161,-2.12063056,,,
imu,458.215452,0.0861340032,-9.495675700000001,2.3638998656,-0.73262971,4.246374869999999,-2.08324601,,,
imu,458.22429,0.1022841288,-9.4944793944,2.3680869352,-0.79244499,4.2688056,-2.00847691,,,
imu,458.233128,0.1010878232,-9.502255380800001,2.3644980184,-0.7550604399999999,4.27628251,-1.97856927,,,
imu,458.241966,0.1034804344,-9.5184055064,2.362105407200001,-0.84478336,4.32862088,-1.90380017,,,
imu,458.250805,0.1022841288,-9.502853533600002,2.3555257264,-0.9644139199999999,4.09683667,-2.06829219,,,
imu,458.259643,0.1034804344,-9.509433214400001,2.3704795464,-0.89712173,4.06692903,-2.05333837,,,
imu,458.268481,0.09749890640000002,-9.520798117600002,2.3722740048,-0.91955246,3.9697292,-2.04586146,,,
imu,458.277319,0.0980970592,-9.5154147424,2.368685088,-0.9644139199999999,3.96225229,-2.00847691,,,
imu,458.286157,0.09450814240000002,-9.516012895200001,2.3734703104,-0.85973718,3.93982156,-1.98604618,,,
imu,458.294995,0.09570444800000001,-9.5148165896,2.3758629216,-0.89712173,3.85009864,-2.08324601,,,
imu,458.303833,0.09630260080000001,-9.527377798400002,2.374666616,-0.98684465,3.87252937,-2.09072292,,,
imu,458.312672,0.0861340032,-9.536948243200001,2.3848352136,-1.11395212,3.92486774,-2.04586146,,,
imu,458.32151,0.09390998960000001,-9.543527924000001,2.3973964224,-1.00179847,3.90243701,-1.89632326,,,
imu,457.460761,,,,,,,-89.8450028,178.8049316,113.1058264
imu,457.562323,,,,,,,-92.1033348,179.2810124,112.8494752
imu,457.663916,,,,,,,-89.22243560000001,178.46313,110.0540264
imu,457.765448,,,,,,,-91.9446412,179.6106068,112.532088
imu,457.867011,,,,,,,-91.932434,178.8415532,109.8709184
imu,457.968604,,,,,,,-91.68829000000001,179.5861924,112.776232
imu,458.070258,,,,,,,-91.50518199999999,179.1833548,112.837268
imu,458.171698,,,,,,,-91.6028396,179.4152916,112.8128536
imu,458.273322,,,,,,,-91.99347,179.7326788,112.2635296
