Type,Timestamp,Data Accelerometer X,Data Accelerometer Y,Data Accelerometer Z,Data Gyroscope X,Data Gyroscope Y,Data Gyroscope Z,Data Magnetometer X,Data Magnetometer Y,Data Magnetometer Z
imu,95.693041,-0.708811068,-9.711010708000002,2.718604476,2.06373463,4.126744309999999,-4.00481188,,,
imu,95.701507,-0.7123999848000001,-9.6954587352,2.7299693792,1.13659779,4.20151341,-4.04219643,,,
imu,95.709974,-0.70282954,-9.696056888000001,2.6863042248,0.46367589,4.50806672,-3.90013514,,,
imu,95.71844,-0.6872775672000001,-9.7056273328,2.7078377256,-0.21672292,4.76975857,-3.60105874,,,
imu,95.726906,-0.6681366776000001,-9.7122070136,2.736549060000001,-0.91207555,5.10621952,-3.24964397,,,
imu,95.735372,-0.6286585928,-9.706823638400001,2.694678364,-1.18124431,5.681941589999999,-2.71878336,,,
imu,95.743838,-0.5461135064000001,-9.679308609600001,2.730567532,-1.59995127,6.09317164,-2.19539966,,,
imu,95.752304,-0.5389356728,-9.700243957600001,2.801747715200001,-2.04856587,6.33243276,-1.71687742,,,
imu,95.76077,-0.5215892416000001,-9.693066124000001,2.759877019200001,-2.370073,6.444586409999999,-1.49257012,,,
imu,95.769236,-0.4749333232000001,-9.656578803200002,2.7383435184,-2.62428794,6.489447869999999,-1.50004703,,,
imu,95.777702,-0.4468201416000001,-9.600352440000002,2.7664567,-3.06542563,6.467017139999999,-1.54490849,,,
imu,95.786168,-0.4073420568000001,-9.508835061600001,2.7652603944,-3.23739456,6.444586409999999,-1.7766927,,,
imu,95.794634,-0.3726491944000001,-9.5172092008,2.7939717288,-3.13271782,6.42963259,-1.88136944,,,
imu,95.8031,-0.3146283728000001,-9.571641105600001,2.822084910400001,-3.10281018,6.23523293,-1.86641562,,,
imu,95.811567,-0.2787392048,-9.6218859408,2.847207328000001,-3.22244074,5.93615653,-1.79912343,,,
imu,95.820033,-0.2374666616,-9.596165370400001,2.8543851616,-3.37945585,5.60717249,-1.61220068,,,
imu,95.828499,-0.2261017584,-9.541733465600002,2.8579740784,-3.7906859,5.23332699,-1.5523854,,,
imu,95.836965,-0.2284943696,-9.5010590752,2.843020258400001,-4.02247011,4.739850929999999,-1.80660034,,,
imu,95.845431,-0.2548130928,-9.446627170400001,2.852590703200001,-4.17948522,3.98468302,-2.10567674,,,
imu,95.853897,-0.2679724544000001,-9.350324569600001,2.8603666896,-4.08228539,3.35662258,-2.64401426,,,
imu,95.862429,-0.2829262744000001,-9.374848834400002,2.8866854128,-3.89536264,2.79585433,-3.21973633,,,
imu,95.870961,-0.3044597752,-9.418513988800001,2.8729278984,-3.53647096,2.28742445,-3.55619728,,,
imu,95.879494,-0.3421434016,-9.410139849600002,2.8627593008,-3.48413259,1.79394839,-3.90761205,,,
imu,95.888026,-0.4049494456000001,-9.346137500000001,2.8765168152,-3.25982529,1.54721036,-3.93004278,,,
imu,95.896558,-0.4498109056,-9.338959666400001,2.904031844000001,-2.885979789999999,1.50982581,-4.04967334,,,
imu,95.90509,-0.502448352,-9.391597112800001,2.924967192,-2.53456502,1.5023489,-4.11696553,,,
imu,95.913622,-0.5455153536,-9.443636406400001,2.936930248,-2.39998064,1.63693328,-4.37865738,,,
imu,95.922155,-0.5820026744000001,-9.4496179344,2.936930248,-2.22801171,1.98834805,-4.68521069,,,
imu,95.930687,-0.6190881480000001,-9.401167557600001,2.9327431784,-2.15324261,2.27247063,-4.81979507,,,
imu,95.939219,-0.6364345792000001,-9.403560168800002,2.9482951512,-1.94388913,2.59397776,-4.7674567,,,
imu,95.947751,-0.6244715232,-9.471749588000002,2.9865769304,-1.74948947,2.99025399,-4.67773378,,,
imu,95.956283,-0.6238733704,-9.527377798400002,2.999736292,-1.91398149,3.4463455,-4.55062631,,,
imu,95.964816,-0.5987509528,-9.535153784800002,2.9793990968,-1.8466893,3.78280645,-4.408565019999999,,,
imu,95.973348,-0.6089195504,-9.519003659200001,2.9859787776,-1.79435093,4.05197521,-4.37865738,,,
imu,95.98188,-0.5520950344000001,-9.4873015608,2.987773236,-1.61490509,4.410866889999999,-4.22164227,,,
imu,95.990412,-0.5461135064000001,-9.439449336800001,2.963847124,-1.45041307,4.46320526,-3.98238115,,,
imu,95.998944,-0.5550857984,-9.411934308000001,2.971024957600001,-1.01675229,4.672558739999999,-3.58610492,,,
imu,96.007477,-0.5550857984,-9.398176793600001,2.9530803736,-0.55318387,4.85200458,-3.15244414,,,
imu,96.015934,-0.5443190480000001,-9.360493167200001,2.9423136232,-0.06718472,5.046404239999999,-2.66644499,,,
imu,96.024466,-0.5377393672000002,-9.28632222,2.9321450256,0.2468455,5.24828081,-2.44213769,,,
imu,96.032998,-0.5281689224000001,-9.238469996000001,2.910611524800001,0.9347212199999999,5.42772665,-2.11315365,,,
imu,96.04153,-0.5197947832,-9.2091605088,2.9195838168,1.30108981,5.42772665,-2.03838455,,,
imu,96.050063,-0.4988594352000001,-9.235479232000001,2.9237708864,2.01139626,5.40529592,-1.89632326,,,
imu,96.058595,-0.4928779072000001,-9.2935000536,2.9291542616,2.43010322,5.45763429,-1.97856927,,,
imu,96.066991,-0.4797185456,-9.3377633608,2.9261634976,2.87124091,5.45763429,-2.001,,,
imu,96.075387,-0.4522035168,-9.464571754400001,2.9417154704,3.21517877,5.420249739999999,-1.91127708,,,
imu,96.083783,-0.4551942808000001,-9.444832712,2.9255653448,3.282470959999999,5.2408039,-1.96361545,,,
imu,96.092179,-0.4647647256,-9.4250936696,2.910013372,3.15536349,5.1660348,-2.16549202,,,
imu,96.100575,-0.4575868920000001,-9.398774946400001,2.8848909544,3.37219388,5.136127159999999,-1.98604618,,,
imu,96.108972,-0.4312681688,-9.429878892000001,2.898050316,3.66379337,5.046404239999999,-1.82155416,,,
imu,96.117368,-0.4133235848,-9.4765348104,2.8962558576,4.00773123,4.837050759999999,-2.10567674,,,
imu,96.125764,-0.4019586816,-9.5632669664,2.895657704800001,4.41896128,4.42582071,-2.24773803,,,
imu,96.13416,-0.4079402096,-9.5949690648,2.864553759200001,4.26942308,4.06692903,-2.34493786,,,
imu,96.142556,-0.4163143488000001,-9.5632669664,2.817897840800001,3.89557758,3.60336061,-2.48699915,,,
imu,96.150952,-0.4228940296000001,-9.533359326400001,2.7909809648,3.77594702,3.31176112,-2.59167589,,,
imu,96.159349,-0.4270810992000001,-9.558481744000002,2.8005514096,3.55163972,3.05006927,-2.34493786,,,
imu,96.167745,-0.4438293776000001,-9.593174606400002,2.8286645912,3.51425517,2.8481927,-1.69444669,,,
imu,96.176141,-0.4599795032,-9.642223136000002,2.8184959936,3.29742478,2.78090051,-1.08134007,,,
imu,96.184537,-0.4671573368000001,-9.66016772,2.801747715200001,2.96844074,2.78090051,-0.51309491,,,
imu,96.192933,-0.4163143488000001,-9.597361676,2.7999532568,2.25813429,2.90800798,-0.07943412999999988,,,
imu,96.201329,-0.565254396,-9.627867468800002,2.7652603944,1.92167334,2.96034635,0.3542266500000002,,,
imu,96.209725,-0.5132151024,-9.688280901600002,2.7915791176,1.63007385,2.93791562,0.5112417599999999,,,
imu,96.218122,-0.4857000736000001,-9.635045302400002,2.793373576,0.6954601,3.23699202,0.10001171,,,
imu,96.226518,-0.5233837000000001,-9.600352440000002,2.8095237016,0.06739966,3.34914567,-0.1018648599999998,,,
imu,96.234914,-0.5359449088000001,-9.593174606400002,2.7981587984,-0.54570696,3.40148404,-0.79721749,,,
imu,96.24331,-0.5413282840000001,-9.582407856000001,2.7915791176,-0.78496808,3.46129932,-1.53743158,,,
imu,96.251706,-0.55329134,-9.610521037600002,2.8214867576,-1.11395212,3.66317589,-2.0757691,,,
imu,96.260102,-0.535346756,-9.600352440000002,2.8310572024,-1.88407385,3.9697292,-2.55429134,,,
imu,96.268923,-0.5180003248000001,-9.520199964800002,2.8310572024,-2.42988828,4.194036499999999,-2.79355246,,,
imu,96.277744,-0.5018501992000001,-9.469356976800002,2.8394313416,-2.93084125,4.29123633,-3.10758268,,,
imu,96.286565,-0.5078317272000001,-9.440645642400002,2.8394313416,-3.17757928,4.50806672,-3.07019813,,,
imu,96.295386,-0.4952705184000001,-9.4621791432,2.8513943976,-3.37197894,4.58283582,-3.10010577,,,
imu,96.304207,-0.4952705184000001,-9.5148165896,2.889078024,-3.4916095,4.6426511,-3.21973633,,,
imu,96.313028,-0.4982612824000001,-9.536350090400001,2.8974521632,-3.51404023,4.717420199999999,-3.36927453,,,
imu,96.321849,-0.481513004,-9.534555632000002,2.904031844000001,-3.760778259999999,4.88191222,-3.46647436,,,
imu,96.33067,-0.4671573368000001,-9.531564868,2.904031844000001,-3.95517792,4.97163514,-3.37675144,,,
imu,96.33949,-0.4312681688,-9.48072188,2.8884798712,-3.85050118,5.20341935,-2.90570611,,,
imu,96.348311,-0.4121272792,-9.462777296000002,2.880105732000001,-3.66357843,5.45015738,-2.38979932,,,
imu,96.357132,-0.3935845424,-9.3963823352,2.8699371344,-3.27477911,5.592218669999999,-1.78416961,,,
imu,96.365953,-0.3876030144000001,-9.3419504304,2.853188856,-2.85607215,5.65203395,-1.44770866,,,
imu,96.374774,-0.3702565832000001,-9.363483931200001,2.866348217600001,-2.02613514,5.77166451,-1.05890934,,,
imu,96.383595,-0.3535083048,-9.359895014400001,2.8615629952,-1.60742818,5.7641876,-0.99161715,,,
imu,96.392416,-0.3786307224000001,-9.415523224800001,2.8747223568,-0.90459864,5.77166451,-1.03647861,,,
imu,96.401237,-0.4031549872,-9.457393920800001,2.883096496000001,-0.37373803,5.659510859999999,-1.253309,,,
imu,96.410058,-0.3911919312,-9.461580990400002,2.910611524800001,-0.2017691,5.569787939999999,-1.52995467,,,
imu,96.418879,-0.4127254320000001,-9.444832712,2.896854010400001,-0.08961545,5.614649399999999,-1.7766927,,,
imu,96.4277,-0.4169125016,-9.420906600000002,2.8848909544,0.11973803,5.7641876,-1.84398489,,,
imu,96.43652,-0.3947808480000001,-9.393989724,2.8723297456,0.36647606,5.77914142,-1.97856927,,,
imu,96.445341,-0.3989679176000001,-9.3796340568,2.868142676,0.7403215599999999,5.69689541,-2.18792275,,,
imu,96.454162,-0.3941826952,-9.3993730992,2.8717315928,1.16650543,5.74175687,-2.1505382,,,
imu,96.462983,-0.370854736,-9.412532460800001,2.8723297456,1.53287402,5.69689541,-2.00847691,,,
imu,96.471467,-0.3612842912,-9.434065961600002,2.8675445232,1.54782784,5.5398803,-1.85893871,,,
imu,96.479951,-0.3511156936,-9.4490197816,2.874124204,1.68988913,5.56231103,-1.7766927,,,
imu,96.488435,-0.3343674152,-9.486703408,2.8513943976,1.89924261,5.32304991,-1.57481613,,,
imu,96.496919,-0.3218062064,-9.524387034400002,2.8495999392,2.21327283,5.15108098,-1.14863226,,,
imu,96.505403,-0.3146283728000001,-9.580613397600002,2.862161148000001,2.31047266,5.03145042,-0.79721749,,,
imu,96.513886,-0.3020671640000001,-9.602146898400001,2.880105732000001,2.0413039,4.82209694,-0.4532796299999999,,,
imu,96.52237,-0.2745521352,-9.602146898400001,2.8693389816,1.65250458,4.59778964,-0.03457266999999997,,,
imu,96.530854,-0.2763465936,-9.5704448,2.853188856,1.33099745,4.1192674,0.0177657,,,
imu,96.539338,-0.2733558296,-9.584800467200001,2.8585722312,1.09921324,3.60336061,-0.18411087,,,
imu,96.547822,-0.2595983152,-9.6117173432,2.8555814672,0.82256757,3.20708438,-0.54300255,,,
imu,96.556306,-0.2769447464000001,-9.641624983200002,2.8418239528,0.34404533,2.68370068,-0.9318018699999999,,,
imu,96.56479,-0.3080486920000001,-9.642223136000002,2.82627198,0.05244583999999999,2.45939338,-1.27573973,,,
imu,96.573274,-0.3271895816000001,-9.608128426400002,2.825075674400001,-0.26906129,2.19770153,-1.35798574,,,
imu,96.581758,-0.3415452488,-9.5704448,2.8208886048,-0.64290679,2.12293243,-1.39537029,,,
imu,96.590241,-0.3505175408000001,-9.5590798968,2.8274682856,-0.7401066199999999,2.22760917,-1.35050883,,,
imu,96.598725,-0.361882444,-9.568650341600001,2.831655355200001,-0.93450628,2.42200883,-1.32060119,,,
imu,96.607209,-0.3714528888,-9.595567217600001,2.837636883200001,-1.22610577,2.69117759,-1.30564737,,,
imu,96.615693,-0.3654713608,-9.599754287200001,2.8406276472,-1.3980747,2.78837742,-1.35798574,,,
imu,96.624177,-0.3594898328000001,-9.535153784800002,2.8238793688,-1.80182784,2.78090051,-1.58229304,,,
imu,96.632661,-0.3457323184,-9.438851184,2.841225800000001,-2.10838115,2.87062343,-1.88136944,,,
imu,96.641145,-0.3511156936,-9.405952780000002,2.8340479664,-2.00370441,2.91548489,-2.06829219,,,
imu,96.649629,-0.3505175408000001,-9.420906600000002,2.8190941464,-1.82425857,2.96034635,-2.24026112,,,
imu,96.658113,-0.3648732080000001,-9.4113361552,2.823281216,-1.67472037,2.93791562,-2.40475314,,,
imu,96.666596,-0.367863972,-9.389204501600002,2.8304590496,-1.48779762,2.82576197,-2.79355246,,,
imu,96.675047,-0.367863972,-9.3796340568,2.866348217600001,-1.10647521,2.87062343,-2.748691,,,
imu,96.683498,-0.3642750552,-9.423299211200002,2.870535287200001,-1.04665993,2.99025399,-2.50942988,,,
imu,96.691949,-0.3720510416,-9.443038253600001,2.8693389816,-1.00179847,3.11736146,-2.09072292,,,
imu,96.7004,-0.3792288752000001,-9.452010545600002,2.8819001904,-0.9644139199999999,3.27437657,-1.56733922,,,
imu,96.708851,-0.3780325696000001,-9.464571754400001,2.8765168152,-0.78496808,3.48373005,-1.13367844,,,
imu,96.717301,-0.3517138464,-9.490292324800002,2.877114968,-0.6503837,3.78280645,-0.76730985,,,
imu,96.725752,-0.3277877344,-9.509433214400001,2.874124204,-0.26906129,3.93982156,-0.4458027199999999,,,
imu,96.734203,-0.3068523864000001,-9.481320032800001,2.8723297456,0.05244583999999999,4.0444983,-0.2214954199999999,,,
imu,96.742654,-0.2972819416,-9.443038253600001,2.862161148000001,0.66555246,4.18655959,-0.09438795,,,
imu,96.751105,-0.266177996,-9.408943544000001,2.8585722312,0.9945364999999999,4.22394414,-0.11681868,,,
imu,96.759556,-0.260196468,-9.415523224800001,2.8633574536,1.5179202,4.18655959,-0.1691570499999999,,,
imu,96.768006,-0.245242648,-9.446627170400001,2.862161148000001,1.83195042,4.171605769999999,-0.3336490699999999,,,
imu,96.776457,-0.2171294664,-9.469356976800002,2.8603666896,2.1908421,4.01459066,-0.68506384,,,
imu,96.784908,-0.2165313136,-9.507040603200002,2.877114968,2.60207215,3.97720611,-0.91684805,,,
imu,96.793359,-0.2195220776,-9.522592576000001,2.8669463704,2.69927198,3.91739083,-1.27573973,,,
imu,96.80181,-0.2296906752000001,-9.5656595776,2.868142676,2.78151799,3.72299117,-1.74678506,,,
imu,96.81026,-0.2338777448,-9.591978300800001,2.856777772800001,2.52730305,3.60336061,-2.32998404,,,
imu,96.818711,-0.263187232,-9.593174606400002,2.841225800000001,2.116073,3.42391477,-2.94309066,,,
imu,96.827162,-0.2763465936,-9.5740337168,2.8340479664,1.77961205,3.40896095,-3.33936689,,,
imu,96.835613,-0.2954874832,-9.527377798400002,2.833449813600001,1.65250458,3.63326825,-3.5711511,,,
imu,96.844064,-0.31403022,-9.5357519376,2.838235036,1.34595127,3.6706528,-3.72816621,,,
imu,96.852515,-0.320011748,-9.534555632000002,2.8214867576,1.06182869,3.90991392,-3.85527368,,,
imu,96.860965,-0.3128339144,-9.524387034400002,2.8095237016,0.9347212199999999,4.171605769999999,-3.77302767,,,
imu,96.869416,-0.3068523864000001,-9.516012895200001,2.801747715200001,0.9347212199999999,4.552928179999999,-3.56367419,,,
imu,96.87788,-0.2954874832,-9.5148165896,2.805934784800001,0.71789083,4.672558739999999,-3.47395127,,,
imu,96.886343,-0.2913004136,-9.5489112992,2.815505229600001,0.5010604399999999,4.84452767,-3.30198234,,,
imu,96.894807,-0.2655798432,-9.561472508000001,2.814308924,0.3739529699999999,4.91929677,-3.2720747,,,
imu,96.90327,-0.2625890792,-9.572837411200002,2.837636883200001,0.23189168,5.06135806,-3.44404363,,,
imu,96.911734,-0.2691687600000001,-9.5602762024,2.8490017864,-0.17933837,5.068834969999999,-3.54872037,,,
imu,96.920198,-0.266177996,-9.551303910400001,2.863955606400001,-0.91207555,4.73237402,-3.84031986,,,
imu,96.928661,-0.2673743016,-9.6009505928,2.8555814672,-1.30087487,4.54545127,-4.124442439999999,,,
imu,96.937125,-0.2266999112,-9.5800152448,2.8274682856,-1.60742818,4.4183438,-4.48333412,,,
imu,96.945588,-0.242251884,-9.553098368800002,2.8406276472,-1.89155076,4.26132869,-4.37865738,,,
imu,96.954052,-0.2757484408,-9.4280844336,2.8603666896,-2.21305789,4.02206757,-4.17678081,,,
imu,96.962515,-0.1991848824,-9.5656595776,2.8944613992,-2.25044244,3.82766791,-4.19921154,,,
imu,95.705543,,,,,,,-92.9822532,160.5917892,117.8544272
imu,95.806983,,,,,,,-92.6892804,160.9213836,118.0375352
imu,95.908485,,,,,,,-93.4461268,161.3486356,116.9999232
imu,96.010047,,,,,,,-93.0066676,160.884762,117.9398776
imu,96.11161,,,,,,,-90.9680652,160.640618,116.865644
imu,96.213142,,,,,,,-93.8001356,161.1411132,118.208436
imu,96.314735,,,,,,,-90.87040760000001,160.15233,115.1322216
imu,96.970979,-0.2314851336,-9.618297024,2.844216564,-2.24296553,3.41643786,-4.0945348,,,
imu,96.979442,-0.173464312,-9.4633754488,2.8340479664,-2.40745755,3.20708438,-3.80293531,,,
imu,96.987906,-0.2990764,-9.260003496800001,2.9094152192,-2.24296553,3.00520781,-3.67582784,,,
imu,96.996369,-0.2649816904,-9.349726416800001,2.8813020376,-1.56256672,2.79585433,-3.60105874,,,
imu,97.004833,-0.2536167872,-9.519601812000001,2.8406276472,-0.9793677399999999,2.60145467,-3.09262886,,,
imu,97.013296,-0.2847207328,-9.467562518400001,2.853188856,-0.8672140899999999,2.42948574,-3.02533667,,,
imu,97.02176,-0.2793373576,-9.370063612000001,2.8657500648,-0.84478336,2.324809,-3.11505959,,,
imu,97.030224,-0.272159524,-9.329987374400002,2.8657500648,-0.64290679,2.24256299,-3.23469015,,,
imu,97.038687,-0.2924967192,-9.3628857784,2.8807038848,-0.11204618,2.04816333,-3.42908981,,,
imu,97.047151,-0.3044597752,-9.4244955168,2.8795075792,0.53096808,1.96591732,-3.58610492,,,
imu,97.055614,-0.3176191368,-9.453805004000001,2.856777772800001,0.8524752099999999,2.18274771,-3.45152054,,,
imu,97.064078,-0.3182172896000001,-9.4526086984,2.850198092000001,1.20388998,2.44443956,-3.24216706,,,
imu,97.072541,-0.3373581792000001,-9.455001309600002,2.8603666896,1.34595127,2.64631613,-3.11505959,,,
imu,97.081006,-0.3313766512,-9.4753385048,2.852590703200001,1.61512003,2.88557725,-2.95056757,,,
imu,97.089471,-0.3182172896000001,-9.502853533600002,2.854983314400001,1.77961205,3.10240764,-2.98047521,,,
imu,97.097936,-0.3170209840000001,-9.560874355200001,2.8448147168,1.7422275,3.19960747,-3.16739796,,,
imu,97.106378,-0.3277877344,-9.578220786400001,2.8286645912,1.63007385,3.2968073,-3.54872037,,,
imu,97.114843,-0.3188154424,-9.5154147424,2.814308924,1.42072037,3.43886859,-3.83284295,,,
imu,97.123308,-0.3188154424,-9.478329268800001,2.82627198,1.08425942,3.56597606,-3.98238115,,,
imu,97.131773,-0.3253951232,-9.4980683112,2.852590703200001,0.91229049,3.69308353,-4.13939626,,,
imu,97.140238,-0.3158246784000001,-9.5740337168,2.8579740784,0.80013684,3.77532954,-4.244073,,,
imu,97.148702,-0.3044597752,-9.634447149600001,2.845412869600001,0.59078336,3.91739083,-4.244073,,,
imu,97.157167,-0.290104108,-9.635643455200002,2.8424221056,0.21693786,4.03702139,-4.17678081,,,
imu,97.165632,-0.2877114968,-9.591978300800001,2.841225800000001,-0.47093786,4.149175039999999,-4.10948862,,,
imu,97.174097,-0.2554112456,-9.554892827200002,2.8537870088,-1.08404448,4.13422122,-3.82536604,,,
imu,97.182562,-0.2225128416,-9.557883591200001,2.863955606400001,-1.45041307,3.90991392,-3.77302767,,,
imu,97.191027,-0.2278962168,-9.554892827200002,2.8448147168,-1.45788998,3.39400713,-4.11696553,,,
imu,97.199491,-0.2278962168,-9.527377798400002,2.8418239528,-1.56256672,2.91548489,-4.318842099999999,,,
imu,97.207956,-0.2428500368,-9.501657228000001,2.8298608968,-1.59247436,2.41453192,-4.67773378,,,
imu,97.216421,-0.2859170384,-9.478927421600002,2.8274682856,-1.45788998,1.77899457,-5.01419473,,,
imu,97.224886,-0.3361618736,-9.447225323200001,2.8286645912,-1.30835178,1.2032725,-5.11139456,,,
imu,97.233351,-0.3804251808,-9.4286825864,2.837636883200001,-1.15881358,1.09859576,-5.16373293,,,
imu,97.241815,-0.4330626272,-9.4215047528,2.838235036,-0.80739881,1.17336486,-4.9169949,,,
imu,97.25028,-0.4749333232000001,-9.440047489600001,2.845412869600001,-0.5980453299999999,1.44253362,-4.6179185,,,
imu,97.258745,-0.502448352,-9.446627170400001,2.8495999392,-0.43355331,1.69674856,-4.33379592,,,
imu,97.26721,-0.5185984776000001,-9.450814240000001,2.8573759256,-0.16438455,2.21265535,-3.98238115,,,
imu,97.275675,-0.5108224912,-9.4621791432,2.8543851616,-0.04475399000000001,2.73603905,-3.71321239,,,
imu,97.28449,-0.5030465048,-9.477731116000001,2.856777772800001,0.12721494,3.22951511,-3.36927453,,,
imu,97.293306,-0.4862982264000001,-9.4753385048,2.854983314400001,0.3216146,3.58840679,-3.23469015,,,
imu,97.302121,-0.4731388648000001,-9.458590226400002,2.862161148000001,0.32909151,3.92486774,-3.15992105,,,
imu,97.310937,-0.4599795032,-9.440047489600001,2.8908724824,0.05244583999999999,4.06692903,-3.24216706,,,
imu,97.319753,-0.442633072,-9.460982837600001,2.889078024,0.22441477,4.31366706,-3.36927453,,,
imu,97.328568,-0.4354552384000001,-9.4801237272,2.862161148000001,0.20198404,4.25385178,-3.66087402,,,
imu,97.337384,-0.439642308,-9.491488630400001,2.8627593008,0.40386061,4.410866889999999,-3.6459202,,,
imu,97.346199,-0.4324644744,-9.4669643656,2.875918662400001,0.15712258,4.500589809999999,-3.44404363,,,
imu,97.355015,-0.3947808480000001,-9.458590226400002,2.8394313416,0.18703022,4.68751256,-3.07019813,,,
imu,97.363831,-0.3834159448,-9.482516338400002,2.832253508,0.49358353,4.77723548,-2.57672207,,,
imu,97.372646,-0.3684621248000001,-9.472347740800002,2.8513943976,0.66555246,4.82209694,-2.23278421,,,
imu,97.381462,-0.3379563320000001,-9.435262267200002,2.8280664384,0.83004448,4.58283582,-1.94866163,,,
imu,97.390277,-0.3182172896000001,-9.4843107968,2.8161033824,1.2188438,4.530497449999999,-1.82155416,,,
imu,97.399093,-0.2978800944000001,-9.519601812000001,2.829262744000001,1.24127453,4.23889796,-2.02343073,,,
imu,97.407909,-0.3044597752,-9.506442450400002,2.843020258400001,1.24127453,3.99215993,-2.21035348,,,
imu,97.416724,-0.3134320672,-9.491488630400001,2.841225800000001,1.22632071,3.65569898,-2.45709151,,,
imu,97.42554,-0.3259932760000001,-9.504647992000002,2.817299688,1.30108981,3.37905331,-2.64401426,,,
imu,97.434355,-0.3313766512,-9.530966715200002,2.817897840800001,1.30108981,3.22951511,-2.87579847,,,
imu,97.443171,-0.3343674152,-9.552500216,2.8029440208,1.30108981,3.1472691,-3.1225365,,,
imu,97.451987,-0.3487230824000001,-9.5148165896,2.784999436800001,1.28613599,2.90053107,-3.1973056,,,
imu,97.460802,-0.3672658192000001,-9.4753385048,2.778419756,1.27865908,2.78090051,-3.13749032,,,
imu,97.469618,-0.3870048616000001,-9.488497866400001,2.7748308392,1.61512003,2.89305416,-3.01785976,,,
imu,97.478433,-0.3935845424,-9.546518688,2.7748308392,1.95905789,3.08745382,-2.96552139,,,
imu,97.486919,-0.4061457512000001,-9.557285438400001,2.7526991856,1.73475059,3.16969983,-3.11505959,,,
imu,97.495404,-0.4163143488000001,-9.528574104,2.7532973384,1.65250458,3.41643786,-3.09262886,,,
imu,97.503889,-0.4222958768,-9.4938812416,2.7664567,1.40576655,3.61831443,-2.98047521,,,
imu,97.512374,-0.4252866408000001,-9.546518688,2.8011495624,1.1440747,3.79028336,-2.9729983,,,
imu,97.520859,-0.4193051128000001,-9.648204664000001,2.82627198,1.06182869,3.97720611,-3.01038285,,,
imu,97.529344,-0.3899956256000001,-9.716992236000001,2.8256738272,0.53844499,4.08188285,-3.1225365,,,
imu,97.53783,-0.3846122504,-9.7122070136,2.808327396000001,-0.23915365,4.17908268,-3.39170526,,,
imu,97.546315,-0.3870048616000001,-9.635643455200002,2.778419756,-1.18872122,4.30619015,-3.33188998,,,
imu,97.5548,-0.3630787496,-9.553098368800002,2.7700456168,-1.622382,4.39591307,-2.98795212,,,
imu,97.563285,-0.3684621248000001,-9.532163020800002,2.778419756,-1.82425857,4.36600543,-2.88327538,,,
imu,97.57177,-0.3582935272000001,-9.517807353600002,2.7820086728,-1.80182784,4.26132869,-2.79355246,,,
imu,97.580255,-0.3553027632,-9.486105255200002,2.764064088800001,-1.63733582,4.18655959,-2.77859864,,,
imu,97.588741,-0.3660695136000001,-9.485507102400002,2.773634533600001,-1.74201256,4.0444983,-2.87579847,,,
imu,97.597226,-0.3726491944000001,-9.4801237272,2.7867938952,-1.23358268,4.0444983,-2.77859864,,,
imu,97.605711,-0.370854736,-9.485507102400002,2.7975606456,-1.13638285,4.03702139,-2.65149117,,,
imu,97.614196,-0.3840140976,-9.48072188,2.81131816,-1.0242292,4.05945212,-2.47204533,,,
imu,97.622681,-0.3935845424,-9.488497866400001,2.8208886048,-0.94198319,4.18655959,-2.31503022,,,
imu,97.631166,-0.3876030144000001,-9.48072188,2.8370387304,-1.24105959,4.23142105,-2.17296893,,,
imu,97.639651,-0.3762381112000001,-9.477132963200003,2.8400294944,-1.3233056,4.29871324,-1.98604618,,,
imu,97.648137,-0.3570972216000001,-9.447225323200001,2.843020258400001,-1.37564397,4.32862088,-2.10567674,,,
imu,97.656622,-0.3582935272000001,-9.460982837600001,2.8573759256,-1.51770526,4.29871324,-2.21783039,,,
imu,97.665107,-0.3535083048,-9.477132963200003,2.8603666896,-1.58499745,4.194036499999999,-2.39727623,,,
imu,97.673592,-0.34393786,-9.471151435200001,2.880105732000001,-1.77939711,4.07440594,-2.76364482,,,
imu,97.682077,-0.3415452488,-9.4699551296,2.8854891072,-1.70462801,3.94729847,-3.07767504,,,
imu,97.690531,-0.3427415544,-9.4663662128,2.875918662400001,-1.57752054,3.73794499,-3.36927453,,,
imu,97.698984,-0.3391526376000001,-9.457393920800001,2.8866854128,-1.27844414,3.81271409,-3.45899745,,,
imu,97.707437,-0.3421434016,-9.465169907200002,2.889078024,-1.22610577,3.69308353,-3.33936689,,,
imu,97.715891,-0.3463304712,-9.481918185600001,2.899246621600001,-1.07656757,3.62579134,-3.1973056,,,
imu,97.724344,-0.3289840400000001,-9.496872005600002,2.9034336912,-0.7550604399999999,3.85009864,-2.91318302,,,
imu,97.732797,-0.3152265256,-9.487899713600001,2.8783112736,-0.5756146,3.82766791,-2.48699915,,,
imu,97.741251,-0.31403022,-9.468758824,2.8819001904,-0.19429219,3.73046808,-2.14306129,,,
imu,97.749704,-0.296085636,-9.478927421600002,2.8932650936,-0.02232326000000001,3.76037572,-2.05333837,,,
imu,97.758158,-0.2853188856,-9.516611048000001,2.898050316,0.12721494,3.64074516,-2.08324601,,,
imu,97.766611,-0.2763465936,-9.5237888816,2.891470635200001,0.14964567,3.1472691,-2.29259949,,,
imu,97.775064,-0.2877114968,-9.505246144800001,2.883096496000001,-0.10456927,2.80333124,-2.77112173,,,
imu,97.783518,-0.3068523864000001,-9.478329268800001,2.8854891072,-0.40364567,2.63883922,-2.98047521,,,
imu,96.416297,,,,,,,-93.7390996,160.9702124,118.1229856
imu,96.51786,,,,,,,-93.3728836,161.5195364,117.659112
imu,96.619422,,,,,,,-93.153154,161.5927796,117.2196528
imu,96.721015,,,,,,,-93.1775684,161.2875996,117.9154632
imu,96.822578,,,,,,,-93.32405480000001,161.556158,117.4637968
imu,96.924293,,,,,,,-93.3606764,161.312014,116.7679864
imu,97.02906,,,,,,,-93.12873960000002,161.4096716,117.7567696
imu,97.130317,,,,,,,-90.8826148,160.7504828,114.8636632
imu,97.791971,-0.3331711096,-9.474740352000001,2.8807038848,-0.43355331,2.50425484,-2.83093701,,,
imu,97.800424,-0.34393786,-9.453805004000001,2.866348217600001,-0.44850713,2.46687029,-2.65896808,,,
imu,97.808878,-0.3559009160000001,-9.438851184,2.8507962448,-0.44103022,2.58650085,-2.47952224,,,
imu,97.817331,-0.3564990688,-9.4215047528,2.8507962448,0.03001510999999998,2.69117759,-2.13558438,,,
imu,97.825785,-0.3511156936,-9.4113361552,2.8340479664,0.33656842,2.93791562,-1.94118472,,,
imu,97.834238,-0.3559009160000001,-9.4215047528,2.833449813600001,0.7403215599999999,2.9977309,-1.95613854,,,
imu,97.842691,-0.3630787496,-9.429878892000001,2.832253508,1.2936129,2.87810034,-2.00847691,,,
imu,97.851145,-0.361882444,-9.444832712,2.8280664384,1.48053565,2.81080815,-2.46456842,,,
imu,97.859598,-0.3852104032000001,-9.468160671200001,2.817299688,1.58521239,2.79585433,-2.86084465,,,
imu,97.868051,-0.3947808480000001,-9.4669643656,2.8095237016,1.75718132,2.81080815,-3.16739796,,,
imu,97.876505,-0.4073420568000001,-9.495077547200001,2.835244272,1.79456587,2.80333124,-3.29450543,,,
imu,97.884958,-0.4025568344,-9.533957479200001,2.8418239528,1.51044329,2.97530017,-3.25712088,,,
imu,97.893422,-0.4025568344,-9.541135312800002,2.8400294944,1.2936129,3.23699202,-3.01038285,,,
imu,97.901885,-0.3989679176000001,-9.536948243200001,2.8436184112,0.7552753799999999,3.46129932,-2.80102937,,,
imu,97.910349,-0.3905937784,-9.523190728800001,2.823281216,0.68050628,3.64822207,-2.43466078,,,
imu,97.918812,-0.3720510416,-9.5154147424,2.8101218544,0.7403215599999999,3.93234465,-2.03090764,,,
imu,97.927276,-0.3547046104000001,-9.528574104,2.808327396000001,0.7104139199999999,3.91739083,-1.78416961,,,
imu,97.935739,-0.3469286240000001,-9.546518688,2.79636434,0.76275229,4.01459066,-1.85893871,,,
imu,97.944203,-0.3134320672,-9.5566872856,2.8029440208,0.8375213899999999,4.09683667,-1.91875399,,,
imu,97.952666,-0.3164228312,-9.583006008800002,2.8137107712,0.85995212,4.06692903,-2.06829219,,,
imu,97.96113,-0.305057928,-9.5800152448,2.8167015352,0.7702292,4.05197521,-2.09819983,,,
imu,97.969594,-0.2966837888,-9.583604161600002,2.8184959936,0.41133752,3.94729847,-2.19539966,,,
imu,97.978057,-0.3002727056,-9.5668558832,2.815505229600001,0.23189168,4.03702139,-2.25521494,,,
imu,97.986521,-0.3008708584000001,-9.580613397600002,2.8167015352,0.03749201999999999,3.94729847,-2.3000764,,,
imu,97.994984,-0.290104108,-9.588389384000001,2.833449813600001,-0.16438455,3.94729847,-2.40475314,,,
imu,98.003448,-0.2835244272,-9.568052188800001,2.8119163128,-0.51579932,3.88748319,-2.41970696,,,
imu,98.011911,-0.2823281216,-9.528574104,2.796962492800001,-0.7550604399999999,3.80523718,-2.57672207,,,
imu,98.020375,-0.2823281216,-9.495077547200001,2.8005514096,-0.97189083,3.70803735,-2.748691,,,
imu,98.028838,-0.2817299688000001,-9.512423978400001,2.796962492800001,-0.76253735,3.56597606,-2.84589083,,,
imu,98.037302,-0.2895059552,-9.506442450400002,2.778419756,-0.77749117,3.47625314,-3.07767504,,,
imu,98.045765,-0.3068523864000001,-9.483712644000002,2.7760271448,-0.65786061,3.40148404,-3.22721324,,,
imu,98.054229,-0.3301803456000001,-9.468758824,2.794569881600001,-0.65786061,3.32671494,-3.51133582,,,
imu,98.062692,-0.3505175408000001,-9.477731116000001,2.8089255488,-0.40364567,3.17717674,-3.6459202,,,
imu,98.071156,-0.3666676664,-9.4962738528,2.8107200072,-0.45598404,3.10240764,-3.81788913,,,
imu,98.07962,-0.3834159448,-9.5249851872,2.8298608968,-0.62047606,3.19213056,-3.9449966,,,
imu,98.088083,-0.3929863896,-9.526779645600001,2.8184959936,-0.91207555,3.30428421,-4.0945348,,,
imu,98.096903,-0.4127254320000001,-9.498666464000001,2.8286645912,-0.90459864,3.34914567,-4.146873169999999,,,
imu,98.105722,-0.4258847936,-9.463973601600001,2.822084910400001,-1.08404448,3.36409949,-4.0945348,,,
imu,98.114542,-0.4276792520000001,-9.4424401008,2.8394313416,-1.08404448,3.67812971,-3.97490424,,,
imu,98.123361,-0.4384460024000001,-9.468758824,2.8627593008,-0.97189083,3.85757555,-3.67582784,,,
imu,98.132181,-0.4294737104000001,-9.516611048000001,2.8609648424,-1.0242292,4.09683667,-3.43656672,,,
imu,98.141001,-0.4163143488000001,-9.5172092008,2.8603666896,-1.03170611,4.31366706,-3.24964397,,,
imu,98.14982,-0.4037531400000001,-9.4908904776,2.844216564,-1.06909066,4.57535891,-3.00290594,,,
imu,98.15864,-0.3864067088000001,-9.46576806,2.8507962448,-1.05413684,4.82209694,-2.63653735,,,
imu,98.167459,-0.3642750552,-9.4460290176,2.859768536800001,-0.78496808,4.95668132,-2.10567674,,,
imu,98.176279,-0.340947096,-9.482516338400002,2.8669463704,-0.40364567,5.136127159999999,-1.60472377,,,
imu,98.185099,-0.3236006648,-9.489096019200002,2.859768536800001,-0.2765382,5.03145042,-1.50752394,,,
imu,98.193918,-0.3020671640000001,-9.477731116000001,2.8495999392,-0.127,4.91181986,-1.56733922,,,
imu,98.202708,-0.2972819416,-9.475936657600002,2.866348217600001,0.0001074699999999984,4.672558739999999,-1.84398489,,,
imu,98.211527,-0.3008708584000001,-9.477132963200003,2.8753205096,0.28423005,4.39591307,-2.03838455,,,
imu,98.220347,-0.3044597752,-9.4831144912,2.865151912,0.35899915,4.11179049,-2.27016876,,,
imu,98.229166,-0.323002512,-9.465169907200002,2.8633574536,0.30666078,3.97720611,-2.57672207,,,
imu,98.237986,-0.3277877344,-9.443636406400001,2.8585722312,0.19450713,3.84262173,-2.56924516,,,
imu,98.246806,-0.3391526376000001,-9.431075197600002,2.847207328000001,0.19450713,3.81271409,-2.47204533,,,
imu,98.255625,-0.3361618736,-9.422102905600001,2.8370387304,0.29170696,3.82766791,-2.30755331,,,
imu,98.264445,-0.3373581792000001,-9.419710294400002,2.833449813600001,0.52349117,4.01459066,-2.14306129,,,
imu,98.273264,-0.3415452488,-9.430477044800002,2.8460110224,0.71789083,4.05945212,-1.97109236,,,
imu,98.282084,-0.3253951232,-9.444234559200002,2.8478054808,0.97958268,4.17908268,-1.96361545,,,
imu,98.290903,-0.305057928,-9.469356976800002,2.838235036,1.30856672,4.23889796,-1.90380017,,,
imu,98.299384,-0.2823281216,-9.4843107968,2.8268701328,1.45810492,4.194036499999999,-2.23278421,,,
imu,98.307864,-0.2799355104,-9.4699551296,2.822084910400001,1.48801256,3.99963684,-2.71878336,,,
imu,98.316344,-0.2948893304,-9.4831144912,2.8208886048,1.60764312,3.82766791,-2.95056757,,,
imu,98.324824,-0.290104108,-9.529770409600001,2.8208886048,1.55530475,3.76785263,-3.37675144,,,
imu,98.333304,-0.2757484408,-9.5602762024,2.819692299200001,1.88428879,3.7454219,-3.57862801,,,
imu,98.341784,-0.2757484408,-9.572837411200002,2.814308924,1.78708896,3.69308353,-3.56367419,,,
imu,98.350264,-0.2865151912,-9.557285438400001,2.793373576,1.71231986,3.820191,-3.39170526,,,
imu,98.358744,-0.2799355104,-9.547714993600001,2.789186506400001,1.60016621,3.94729847,-3.23469015,,,
imu,98.367224,-0.2847207328,-9.577024480800002,2.8095237016,1.34595127,3.94729847,-3.15244414,,,
imu,98.375704,-0.2655798432,-9.602146898400001,2.8035421736,1.18145925,3.87252937,-3.24216706,,,
imu,98.384184,-0.2637853848,-9.590183842400002,2.799355104,0.7104139199999999,3.60336061,-3.38422835,,,
imu,98.392664,-0.2859170384,-9.567454036,2.7957661872,0.44872207,3.34914567,-3.58610492,,,
imu,98.401144,-0.3194135952000001,-9.5668558832,2.8214867576,0.07487657,3.22951511,-3.65339711,,,
imu,98.409624,-0.3301803456000001,-9.596165370400001,2.819692299200001,-0.07466163,3.27437657,-3.3468438,,,
imu,98.418105,-0.3331711096,-9.593772759200002,2.794569881600001,-0.33635348,3.25942275,-3.16739796,,,
imu,98.426585,-0.3331711096,-9.594370912,2.7939717288,-0.51579932,3.41643786,-2.95056757,,,
imu,98.435065,-0.3241988176,-9.572239258400002,2.7772234504,-0.63542988,3.43886859,-2.8234601,,,
imu,98.443545,-0.3212080536,-9.5249851872,2.7760271448,-0.59056842,3.34914567,-2.53186061,,,
imu,98.452025,-0.3194135952000001,-9.488497866400001,2.775428992000001,-0.5307531400000001,3.37905331,-2.41970696,,,
imu,98.460505,-0.3080486920000001,-9.472347740800002,2.784401284,-0.44103022,3.28933039,-2.24773803,,,
imu,98.468985,-0.3062542336,-9.496872005600002,2.784999436800001,-0.24663056,3.2968073,-2.13558438,,,
imu,98.477465,-0.3056560808,-9.507638756,2.7879902008,-0.2765382,3.09493073,-2.33746095,,,
imu,98.485945,-0.3128339144,-9.5172092008,2.8029440208,-0.32887657,2.93791562,-2.41223005,,,
imu,98.494425,-0.3224043592,-9.5219944232,2.8071310904,-0.5980453299999999,2.81080815,-2.45709151,,,
imu,98.502861,-0.3331711096,-9.52558334,2.805934784800001,-1.05413684,2.6986545,-2.58419898,,,
imu,98.511298,-0.3630787496,-9.522592576000001,2.822084910400001,-1.42798234,2.6986545,-2.59167589,,,
imu,98.519734,-0.35889168,-9.511227672800002,2.812514465600001,-1.75696638,2.74351596,-2.69635263,,,
imu,98.52817,-0.3750418056000001,-9.491488630400001,2.804140326400001,-1.80930475,2.91548489,-2.72626027,,,
imu,98.536607,-0.3726491944000001,-9.4753385048,2.81131816,-1.88407385,3.11736146,-2.83093701,,,
imu,98.545043,-0.3846122504,-9.4496179344,2.8071310904,-1.80182784,3.31923803,-2.95804448,,,
imu,98.553479,-0.385808556,-9.444234559200002,2.796962492800001,-1.66724346,3.50616078,-2.93561375,,,
imu,98.561915,-0.3762381112000001,-9.458590226400002,2.8214867576,-1.34573633,3.53606842,-2.90570611,,,
imu,98.570352,-0.3666676664,-9.477132963200003,2.832253508,-1.11395212,3.76037572,-2.87579847,,,
imu,98.578788,-0.3576953744,-9.505246144800001,2.8256738272,-0.91207555,3.820191,-2.90570611,,,
imu,98.587224,-0.3391526376000001,-9.5148165896,2.8274682856,-0.6279529699999999,3.93982156,-2.87579847,,,
imu,98.595661,-0.3325729568,-9.517807353600002,2.8543851616,-0.4260764,3.90243701,-2.94309066,,,
imu,98.604097,-0.3253951232,-9.527377798400002,2.866348217600001,-0.59056842,3.97720611,-2.9729983,,,
imu,97.228788,,,,,,,-93.2386044,161.1655276,117.4393824
imu,97.33032,,,,,,,-90.93144360000001,160.5307532,114.7171768
imu,97.431883,,,,,,,-93.18977560000002,161.7636804,117.170824
imu,97.533445,,,,,,,-93.2386044,161.2631852,117.6469048
imu,97.635008,,,,,,,-93.22639720000001,161.4096716,117.0609592
imu,97.73654,,,,,,,-93.54378439999999,161.1533204,116.9510944
imu,97.838133,,,,,,,-93.03108200000001,161.1533204,117.6224904
imu,97.939695,,,,,,,-93.43391960000001,161.0922844,117.4271752
imu,98.612533,-0.3068523864000001,-9.536350090400001,2.8717315928,-0.61299915,3.97720611,-2.75616791,,,
imu,98.620969,-0.2883096496000001,-9.536350090400001,2.8687408288,-0.59056842,3.88748319,-2.71130645,,,
imu,98.629406,-0.2817299688000001,-9.550705757600001,2.870535287200001,-0.66533752,3.797760269999999,-2.65149117,,,
imu,98.637842,-0.2865151912,-9.516611048000001,2.8585722312,-0.8821679099999999,3.58840679,-2.65896808,,,
imu,98.646278,-0.2865151912,-9.4843107968,2.845412869600001,-0.7251528,3.45382241,-2.64401426,,,
imu,98.654714,-0.2877114968,-9.4555994624,2.833449813600001,-0.59056842,3.25942275,-2.73373718,,,
imu,98.663151,-0.2978800944000001,-9.439449336800001,2.8238793688,-0.30644584,3.16969983,-2.68887572,,,
imu,98.671587,-0.3098431504,-9.399971252000002,2.823281216,-0.02232326000000001,2.9977309,-2.81598319,,,
imu,98.680023,-0.3313766512,-9.447225323200001,2.8238793688,0.20946095,2.81080815,-2.91318302,,,
imu,98.68846,-0.3277877344,-9.498666464000001,2.8460110224,0.27675314,2.7734236,-2.98795212,,,
imu,98.696896,-0.3104413032000001,-9.508835061600001,2.843020258400001,0.2468455,2.89305416,-2.89075229,,,
imu,98.705332,-0.3152265256,-9.484908949600001,2.8406276472,0.05244583999999999,2.85566961,-2.77112173,,,
imu,98.713813,-0.3457323184,-9.440645642400002,2.8519925504,-0.127,2.79585433,-2.75616791,,,
imu,98.722295,-0.3355637208,-9.426888128000002,2.8406276472,-0.11204618,2.78837742,-2.64401426,,,
imu,98.730776,-0.3523119992,-9.478927421600002,2.8687408288,-0.0522309,2.88557725,-2.69635263,,,
imu,98.739257,-0.3780325696000001,-9.548313146400002,2.8842928016,-0.127,2.97530017,-2.77859864,,,
imu,98.747738,-0.3899956256000001,-9.5566872856,2.8848909544,-0.31392275,2.93043871,-2.86832156,,,
imu,98.75622,-0.4019586816,-9.526181492800001,2.8848909544,-0.6503837,3.05006927,-3.07019813,,,
imu,98.764701,-0.4228940296000001,-9.4908904776,2.8789094264,-0.56066078,3.30428421,-3.02533667,,,
imu,98.773182,-0.4181088072000001,-9.470553282400001,2.8609648424,-0.45598404,3.5211146,-2.6739219,,,
imu,98.781663,-0.4061457512000001,-9.4801237272,2.841225800000001,-0.07466163,3.91739083,-2.27764567,,,
imu,98.790144,-0.4019586816,-9.477731116000001,2.8340479664,0.26927623,4.216467229999999,-2.01595382,,,
imu,98.798626,-0.3654713608,-9.4621791432,2.8184959936,0.73284465,4.40338998,-1.90380017,,,
imu,98.807107,-0.3373581792000001,-9.4591883792,2.8149070768,0.9646288599999999,4.44077453,-1.93370781,,,
imu,98.815588,-0.3325729568,-9.4735440464,2.8161033824,1.27118217,4.44825144,-1.97856927,,,
imu,98.824069,-0.3253951232,-9.492086783200001,2.820290452000001,1.43567419,4.478159079999999,-2.06081528,,,
imu,98.832551,-0.3038616224,-9.512423978400001,2.837636883200001,1.46558183,4.65760492,-2.09819983,,,
imu,98.841032,-0.3038616224,-9.5219944232,2.8460110224,1.09173633,4.65760492,-1.97109236,,,
imu,98.849513,-0.2757484408,-9.532163020800002,2.8573759256,0.68050628,4.54545127,-1.75426197,,,
imu,98.857994,-0.2584020096,-9.533359326400001,2.8495999392,0.26927623,4.4931129,-1.66453905,,,
imu,98.866476,-0.2386629672,-9.527975951200002,2.838235036,0.12721494,4.567882,-1.58229304,,,
imu,98.874957,-0.230288828,-9.516611048000001,2.8280664384,-0.34383039,4.38095925,-1.5523854,,,
imu,98.883438,-0.218325772,-9.503451686400002,2.8256738272,-0.22419983,4.32114397,-1.50752394,,,
imu,98.891919,-0.2189239248,-9.475936657600002,2.820290452000001,-0.53823005,4.171605769999999,-1.82903107,,,
imu,98.9004,-0.2171294664,-9.460982837600001,2.8256738272,-0.45598404,3.83514482,-2.01595382,,,
imu,98.908889,-0.2189239248,-9.469356976800002,2.8358424248,-0.21672292,3.66317589,-2.29259949,,,
imu,98.917378,-0.212344244,-9.5172092008,2.8484036336,-0.22419983,3.49868387,-2.59167589,,,
imu,98.925867,-0.2255036056,-9.547714993600001,2.85617962,-0.16438455,3.34914567,-2.90570611,,,
imu,98.934356,-0.230288828,-9.533957479200001,2.853188856,-0.14195382,3.25942275,-3.01785976,,,
imu,98.942845,-0.2398592728,-9.4873015608,2.843020258400001,-0.19429219,3.13979219,-3.18982869,,,
imu,98.951334,-0.2637853848,-9.443038253600001,2.8394313416,-0.40364567,2.95286944,-3.41413599,,,
imu,98.959823,-0.2739539824000001,-9.478329268800001,2.8615629952,-0.23915365,2.86314652,-3.55619728,,,
imu,98.968312,-0.3104413032000001,-9.539939007200001,2.870535287200001,-0.02232326000000001,2.78837742,-3.93004278,,,
imu,98.976801,-0.3277877344,-9.5501076048,2.859170384,0.03001510999999998,2.78837742,-4.19173463,,,
imu,98.98529,-0.3505175408000001,-9.520798117600002,2.863955606400001,-0.007369440000000005,2.6986545,-4.35622665,,,
imu,98.993779,-0.3642750552,-9.492684936000002,2.8615629952,0.007584380000000002,2.86314652,-4.408565019999999,,,
imu,99.002268,-0.3690602776000001,-9.5154147424,2.8537870088,0.0001074699999999984,3.10240764,-4.00481188,,,
imu,99.010757,-0.3702565832000001,-9.540537160000001,2.852590703200001,0.02253820000000001,3.40148404,-3.63844329,,,
imu,99.019246,-0.3541064576,-9.517807353600002,2.838833188800001,-0.10456927,3.820191,-3.33188998,,,
imu,99.027735,-0.352910152,-9.443636406400001,2.823281216,0.08983038999999998,4.13422122,-2.92813684,,,
imu,99.036224,-0.3241988176,-9.4412437952,2.832253508,0.3963837,4.37348234,-2.81598319,,,
imu,99.044713,-0.2883096496000001,-9.475936657600002,2.8167015352,0.5982602699999999,4.4931129,-2.74121409,,,
imu,99.053202,-0.287113344,-9.4729458936,2.7981587984,0.6954601,4.47068217,-2.63653735,,,
imu,99.061691,-0.2691687600000001,-9.444234559200002,2.8029440208,0.65807555,4.36600543,-2.81598319,,,
imu,99.07018,-0.2679724544000001,-9.4424401008,2.817897840800001,0.7403215599999999,4.23889796,-2.96552139,,,
imu,99.078669,-0.2727576768,-9.438851184,2.808327396000001,0.8524752099999999,3.93234465,-3.21973633,,,
imu,99.087158,-0.2757484408,-9.437654878400002,2.8119163128,0.9048135799999999,3.73794499,-3.54124346,,,
imu,99.095647,-0.287113344,-9.4496179344,2.823281216,1.09921324,3.69308353,-3.45152054,,,
imu,99.104136,-0.2996745528,-9.479525574400002,2.7999532568,1.08425942,3.58092988,-3.52628964,,,
imu,99.11294,-0.3188154424,-9.4962738528,2.799355104,1.06182869,3.51363769,-3.39170526,,,
imu,99.121743,-0.3325729568,-9.477731116000001,2.7915791176,1.17398234,3.61831443,-3.21973633,,,
imu,99.130547,-0.3475267768,-9.4663662128,2.8119163128,1.22632071,3.84262173,-3.10758268,,,
imu,99.13935,-0.3469286240000001,-9.489694172,2.8274682856,1.22632071,3.94729847,-2.90570611,,,
imu,99.148154,-0.334965568,-9.507638756,2.8244775216,1.41324346,3.96225229,-2.69635263,,,
imu,99.156958,-0.3164228312,-9.52558334,2.823281216,1.5179202,4.08188285,-2.68139881,,,
imu,99.165761,-0.296085636,-9.548313146400002,2.844216564,1.42072037,4.09683667,-2.79355246,,,
imu,99.174565,-0.275150288,-9.5429297712,2.8244775216,1.39081273,3.99215993,-2.92065993,,,
imu,99.183369,-0.2697669128,-9.513022131200001,2.81131816,1.24127453,3.93234465,-2.98047521,,,
imu,99.192172,-0.2613927736,-9.486703408,2.796962492800001,1.37585891,3.76785263,-2.99542903,,,
imu,99.200976,-0.2590001624000001,-9.482516338400002,2.7867938952,1.5179202,3.61083752,-2.80850628,,,
imu,99.20978,-0.260196468,-9.504647992000002,2.7897846592,1.50296638,3.5958837,-2.69635263,,,
imu,99.218583,-0.2542149400000001,-9.5249851872,2.796962492800001,1.67493531,3.47625314,-2.47204533,,,
imu,99.227387,-0.245242648,-9.531564868,2.784401284,1.60016621,3.40148404,-2.35241477,,,
imu,99.236191,-0.2542149400000001,-9.52558334,2.7778216032,1.57025857,3.31176112,-2.21783039,,,
imu,99.244994,-0.2506260232,-9.5357519376,2.7790179088,1.39828964,3.25942275,-2.24773803,,,
imu,99.253798,-0.2554112456,-9.558481744000002,2.784401284,1.20388998,3.16969983,-2.31503022,,,
imu,99.262602,-0.263187232,-9.561472508000001,2.7742326864,1.00201341,2.96034635,-2.42718387,,,
imu,99.271405,-0.2829262744000001,-9.554892827200002,2.7760271448,0.7702292,2.87810034,-2.71878336,,,
imu,99.280209,-0.2948893304,-9.528574104,2.763465936,0.5982602699999999,2.9977309,-3.0477674,,,
imu,99.289013,-0.3194135952000001,-9.514218436800002,2.764064088800001,0.22441477,2.88557725,-3.42908981,,,
imu,99.297745,-0.3068523864000001,-9.5148165896,2.761671477600001,0.30666078,2.93043871,-3.70573548,,,
imu,99.306549,-0.3164228312,-9.532163020800002,2.7371472128,0.18703022,3.04259236,-3.72816621,,,
imu,99.315024,-0.3343674152,-9.519601812000001,2.7497084216,0.18703022,3.0725,-3.91508896,,,
imu,99.323499,-0.3343674152,-9.486105255200002,2.7646622416,0.13469185,3.13231528,-4.0945348,,,
imu,99.331974,-0.3457323184,-9.505844297600001,2.775428992000001,0.32909151,3.28185348,-4.0197657,,,
imu,99.340449,-0.3511156936,-9.583006008800002,2.8047384792,0.44872207,3.30428421,-3.93004278,,,
imu,99.348924,-0.3559009160000001,-9.619493329600001,2.8131126184,0.20198404,3.5211146,-3.87770441,,,
imu,99.357399,-0.3570972216000001,-9.617100718400001,2.822084910400001,-0.14195382,3.69308353,-3.75807385,,,
imu,99.365874,-0.3576953744,-9.5907819952,2.8161033824,-0.40364567,3.8949601,-3.63096638,,,
imu,99.374349,-0.3403489432000001,-9.562070660800002,2.805934784800001,-0.8522602699999999,3.78280645,-3.35432071,,,
imu,99.382824,-0.3164228312,-9.5381445488,2.804140326400001,-0.95693701,3.85757555,-2.98795212,,,
imu,99.391299,-0.3038616224,-9.519601812000001,2.7879902008,-0.71767589,3.76785263,-2.84589083,,,
imu,99.399774,-0.290104108,-9.4873015608,2.7700456168,-0.66533752,3.58840679,-2.92813684,,,
imu,99.408249,-0.2817299688000001,-9.468160671200001,2.764064088800001,-0.47093786,3.2220382,-2.9729983,,,
imu,99.416724,-0.2853188856,-9.4424401008,2.7449231992,-0.29149202,2.84071579,-3.08515195,,,
imu,99.425199,-0.2990764,-9.431075197600002,2.7592788664,-0.0522309,2.48182411,-3.22721324,,,
imu,98.041258,,,,,,,-91.3342812,160.8359332,116.3529416
imu,98.143003,,,,,,,-93.6292348,161.0312484,118.1107784
imu,98.244413,,,,,,,-91.3098668,160.4086812,115.1200144
imu,98.345945,,,,,,,-93.4095052,161.5195364,117.414968
imu,98.447508,,,,,,,-91.6516684,160.6039964,114.851456
imu,98.54907,,,,,,,-93.2386044,160.9091764,117.4271752
imu,98.650633,,,,,,,-93.1653612,161.2143564,117.5614544
imu,98.752195,,,,,,,-93.5315772,161.5683652,118.3549224
imu,99.433674,-0.31403022,-9.4490197816,2.739539824,0.23189168,2.27247063,-3.43656672,,,
imu,99.442149,-0.3367600264,-9.4735440464,2.747913963200001,0.42629134,2.04816333,-3.45899745,,,
imu,99.450624,-0.3672658192000001,-9.488497866400001,2.725184156800001,0.60573718,2.01825569,-3.29450543,,,
imu,99.459099,-0.3654713608,-9.474740352000001,2.7281749208,0.73284465,1.96591732,-3.22721324,,,
imu,99.467574,-0.3864067088000001,-9.467562518400001,2.722791545600001,0.9347212199999999,2.07059406,-3.01038285,,,
imu,99.476049,-0.3905937784,-9.471749588000002,2.7192026288,1.24875144,2.33976282,-2.75616791,,,
imu,99.484524,-0.3983697648000001,-9.508835061600001,2.730567532,1.42072037,2.41453192,-2.54681443,,,
imu,99.492999,-0.3971734592000001,-9.545322382400002,2.7263804624,1.48053565,2.5491163,-2.35989168,,,
imu,99.501474,-0.3816214864,-9.562668813600002,2.7281749208,1.45810492,2.7734236,-2.21783039,,,
imu,99.509949,-0.3846122504,-9.577024480800002,2.740736129600001,1.22632071,2.89305416,-2.16549202,,,
imu,99.51842,-0.3672658192000001,-9.571641105600001,2.743726893600001,0.82256757,3.05006927,-2.27016876,,,
imu,99.526891,-0.3684621248000001,-9.5865949256,2.745521352,0.71789083,3.35662258,-2.35241477,,,
imu,99.535362,-0.3582935272000001,-9.595567217600001,2.743726893600001,0.35899915,3.3715764,-2.41970696,,,
imu,99.543833,-0.3403489432000001,-9.618297024,2.746119504800001,0.09730729999999999,3.36409949,-2.38232241,,,
imu,99.552304,-0.3307784984000001,-9.578220786400001,2.7449231992,-0.25410747,3.6706528,-2.42718387,,,
imu,99.560776,-0.3241988176,-9.5566872856,2.7550917968,-0.51579932,3.87252937,-2.33746095,,,
imu,99.569247,-0.3068523864000001,-9.568052188800001,2.784999436800001,-0.46346095,3.85009864,-2.26269185,,,
imu,99.577718,-0.3038616224,-9.604539509600002,2.784401284,-0.37373803,4.02206757,-2.41223005,,,
imu,99.586189,-0.2763465936,-9.591978300800001,2.7556899496,-0.47841477,3.90991392,-2.72626027,,,
imu,99.59466,-0.2709632184,-9.531564868,2.7562881024,-0.59056842,3.94729847,-3.05524431,,,
imu,99.603131,-0.3002727056,-9.475936657600002,2.789186506400001,-0.41112258,3.99963684,-3.23469015,,,
imu,99.611603,-0.3008708584000001,-9.4873015608,2.7766252976,-0.44103022,4.09683667,-3.1225365,,,
imu,99.620074,-0.2996745528,-9.557285438400001,2.7688493112,-0.39616876,4.216467229999999,-2.91318302,,,
imu,99.628545,-0.2889078024000001,-9.557285438400001,2.7855975896,-0.48589168,4.23142105,-2.84589083,,,
imu,99.637016,-0.2733558296,-9.5327611736,2.7628677832,-0.5980453299999999,4.36600543,-2.81598319,,,
imu,99.645487,-0.2667761488000001,-9.524387034400002,2.746119504800001,-0.74758353,4.410866889999999,-2.8234601,,,
imu,99.653959,-0.2506260232,-9.504647992000002,2.754493644000001,-0.82982954,4.20899032,-2.91318302,,,
imu,99.66243,-0.260196468,-9.468160671200001,2.7610733248,-0.68029134,4.104313579999999,-3.07767504,,,
imu,99.670901,-0.2739539824000001,-9.456795768000001,2.7568862552,-0.68776825,3.8949601,-3.30945925,,,
imu,99.679372,-0.2835244272,-9.4765348104,2.757484408000001,-0.68776825,3.64822207,-3.50385891,,,
imu,99.687843,-0.3104413032000001,-9.504647992000002,2.7568862552,-0.77001426,3.55102224,-3.65339711,,,
imu,99.696314,-0.3146283728000001,-9.495077547200001,2.7509047272,-0.67281443,3.50616078,-3.6459202,,,
imu,99.704786,-0.3206099008000001,-9.471151435200001,2.7658585472,-0.65786061,3.52859151,-3.35432071,,,
imu,99.713257,-0.3283858872000001,-9.482516338400002,2.7778216032,-0.34383039,3.61083752,-2.98795212,,,
imu,99.721713,-0.31403022,-9.5082369088,2.778419756,-0.09709236,3.52859151,-2.92065993,,,
imu,99.730169,-0.3128339144,-9.5154147424,2.7742326864,0.02253820000000001,3.38653022,-2.80102937,,,
imu,99.738624,-0.3122357616,-9.513022131200001,2.7820086728,-0.02232326000000001,3.37905331,-2.86084465,,,
imu,99.74708,-0.3062542336,-9.5148165896,2.7897846592,-0.01484635000000001,3.25194584,-2.81598319,,,
imu,99.755536,-0.287113344,-9.529770409600001,2.796962492800001,-0.02980017,3.19960747,-2.71878336,,,
imu,99.763992,-0.2829262744000001,-9.5381445488,2.7861957424,0.01506129,3.02016163,-2.6739219,,,
imu,99.772448,-0.2775428992,-9.526779645600001,2.7718400752,0.21693786,2.84071579,-2.65896808,,,
imu,99.780904,-0.2775428992,-9.503451686400002,2.7670548528,0.10478421,2.6238854,-2.66644499,,,
imu,99.78936,-0.281131816,-9.493283088800002,2.745521352,0.31413769,2.48182411,-2.58419898,,,
imu,99.797816,-0.3032634696000001,-9.499264616800001,2.743726893600001,0.53096808,2.42948574,-2.46456842,,,
imu,99.806272,-0.3128339144,-9.508835061600001,2.745521352,0.83004448,2.33228591,-2.4496146,,,
imu,99.814728,-0.3158246784000001,-9.52558334,2.7341564488,1.09173633,2.37714737,-2.38979932,,,
imu,99.823184,-0.3206099008000001,-9.527377798400002,2.736549060000001,1.13659779,2.28742445,-2.49447606,,,
imu,99.831639,-0.3289840400000001,-9.5172092008,2.742530588,0.85995212,2.30985518,-2.56924516,,,
imu,99.840095,-0.3271895816000001,-9.522592576000001,2.7538954912,0.8973366700000001,2.54163939,-2.57672207,,,
imu,99.848551,-0.334965568,-9.5459205352,2.754493644000001,0.80013684,2.5491163,-2.68887572,,,
imu,99.857007,-0.3313766512,-9.5602762024,2.7568862552,0.40386061,2.64631613,-2.72626027,,,
imu,99.865463,-0.3289840400000001,-9.574631869600001,2.7592788664,0.14964567,2.90800798,-2.80102937,,,
imu,99.873919,-0.3313766512,-9.558481744000002,2.762269630400001,-0.19429219,2.97530017,-2.89075229,,,
imu,99.882375,-0.340947096,-9.539939007200001,2.7664567,-0.5980453299999999,3.06502309,-3.26459779,,,
imu,99.890831,-0.3576953744,-9.539939007200001,2.778419756,-0.9793677399999999,3.05754618,-3.51133582,,,
imu,99.899287,-0.3612842912,-9.556089132800002,2.7820086728,-1.12142903,3.13979219,-3.59358183,,,
imu,99.907743,-0.3630787496,-9.562070660800002,2.7838031312,-1.36816706,3.22951511,-3.81041222,,,
imu,99.916199,-0.3750418056000001,-9.530368562400001,2.783204978400001,-1.49527453,3.35662258,-3.74312003,,,
imu,99.924669,-0.3738455000000001,-9.475936657600002,2.7867938952,-1.29339796,3.41643786,-3.7954584,,,
imu,99.933138,-0.3714528888,-9.4424401008,2.7957661872,-1.23358268,3.53606842,-3.99733497,,,
imu,99.941608,-0.3846122504,-9.4765348104,2.820290452000001,-1.10647521,3.67812971,-4.04219643,,,
imu,99.950078,-0.3780325696000001,-9.5249851872,2.822084910400001,-0.93450628,3.67812971,-3.93751969,,,
imu,99.958548,-0.3750418056000001,-9.527377798400002,2.820290452000001,-1.12890594,3.77532954,-3.80293531,,,
imu,99.967018,-0.3720510416,-9.5010590752,2.8274682856,-1.08404448,3.820191,-3.66835093,,,
imu,99.975488,-0.3756399584,-9.478329268800001,2.831655355200001,-0.9644139199999999,4.01459066,-3.40665908,,,
imu,99.983958,-0.3606861384,-9.4843107968,2.829262744000001,-0.78496808,4.09683667,-2.92813684,,,
imu,99.992428,-0.3469286240000001,-9.485507102400002,2.8119163128,-0.60552224,4.18655959,-2.61410662,,,
imu,100.000898,-0.3325729568,-9.460384684800001,2.7939717288,-0.40364567,4.22394414,-2.44213769,,,
imu,100.009367,-0.3152265256,-9.434065961600002,2.779616061600001,-0.007369440000000005,4.149175039999999,-2.29259949,,,
imu,100.017837,-0.2996745528,-9.4203084472,2.7646622416,0.32909151,4.07440594,-2.25521494,,,
imu,100.026307,-0.2924967192,-9.408943544000001,2.7521010328,0.8674290299999999,3.92486774,-2.3748455,,,
imu,100.034777,-0.2954874832,-9.437056725600002,2.7532973384,1.36090509,3.70056044,-2.38232241,,,
imu,100.043247,-0.290104108,-9.4496179344,2.7419324352,1.77961205,3.51363769,-2.49447606,,,
imu,100.051717,-0.2930948720000001,-9.4765348104,2.739539824,1.95905789,3.40148404,-2.58419898,,,
imu,100.060187,-0.3068523864000001,-9.510031367200002,2.745521352,2.19831901,3.31923803,-2.53933752,,,
imu,100.068657,-0.3068523864000001,-9.5447242296,2.7521010328,1.93662716,3.22951511,-2.44213769,,,
imu,100.077127,-0.3158246784000001,-9.554892827200002,2.7526991856,1.71979677,3.31176112,-2.17296893,,,
imu,100.085597,-0.3259932760000001,-9.556089132800002,2.7509047272,1.33099745,3.28185348,-2.06081528,,,
imu,100.094066,-0.3445360128,-9.571042952800001,2.7491102688,1.05435178,3.25194584,-2.15801511,,,
imu,100.102536,-0.3642750552,-9.575828175200002,2.722791545600001,0.67302937,3.26689966,-2.42718387,,,
imu,100.111006,-0.3660695136000001,-9.5668558832,2.709632184,0.44124516,3.25942275,-2.76364482,,,
imu,100.119476,-0.3726491944000001,-9.536948243200001,2.704248808800001,0.3889067899999999,3.37905331,-3.1225365,,,
imu,100.128286,-0.3822196392,-9.520199964800002,2.704248808800001,0.44124516,3.51363769,-3.30198234,,,
imu,100.137097,-0.3905937784,-9.52558334,2.7054451144,0.44124516,3.70803735,-3.43656672,,,
imu,100.145907,-0.3750418056000001,-9.553098368800002,2.7180063232,0.620691,3.82766791,-3.24216706,,,
imu,100.154717,-0.35889168,-9.564463272000001,2.7012580448,0.6954601,4.171605769999999,-3.23469015,,,
imu,100.163528,-0.34393786,-9.5566872856,2.696472822400001,0.68050628,4.39591307,-3.1225365,,,
imu,100.172338,-0.3164228312,-9.5381445488,2.682715308000001,0.83004448,4.552928179999999,-2.77112173,,,
imu,100.181148,-0.2972819416,-9.562668813600002,2.7072395728,0.66555246,4.47068217,-2.41970696,,,
imu,100.189959,-0.2727576768,-9.611119190400002,2.726978615200001,0.73284465,4.56040509,-2.1505382,,,
imu,100.198769,-0.2440463424,-9.630260080000001,2.7090340312,0.49358353,4.33609779,-2.23278421,,,
imu,100.207579,-0.2386629672,-9.610521037600002,2.7048469616,0.14216876,3.9697292,-2.35989168,,,
imu,100.216389,-0.2380648144,-9.595567217600001,2.7150155592,-0.07466163,3.55102224,-2.47204533,,,
imu,100.2252,-0.2458408008,-9.5949690648,2.7054451144,-0.26906129,3.42391477,-2.45709151,,,
imu,100.23401,-0.2458408008,-9.596763523200002,2.6940802112,-0.48589168,3.10240764,-2.31503022,,,
imu,100.24282,-0.2697669128,-9.597361676,2.6910894472,-0.56066078,2.97530017,-2.27764567,,,
imu,98.853708,,,,,,,-93.1775684,161.6904372,117.7689768
imu,98.95524,,,,,,,-93.22639720000001,161.800302,118.208436
imu,99.057108,,,,,,,-92.95783879999999,161.3852572,117.6346976
imu,99.158365,,,,,,,-91.32207400000001,161.0190412,116.2064552
imu,99.259928,,,,,,,-93.51937000000001,161.1533204,117.7079408
imu,99.361612,,,,,,,-91.0046868,160.9946268,115.3519512
imu,99.463053,,,,,,,-93.8733788,161.617194,117.4271752
imu,99.564615,,,,,,,-93.61702760000001,161.7758876,117.6469048
imu,100.251631,-0.2649816904,-9.574631869600001,2.673144863200001,-1.0242292,2.75099287,-2.39727623,,,
imu,100.260441,-0.2775428992,-9.552500216,2.668957793600001,-1.0242292,2.7734236,-2.44213769,,,
imu,100.269251,-0.2930948720000001,-9.549509452,2.6916876,-1.07656757,2.68370068,-2.56176825,,,
imu,100.278061,-0.3062542336,-9.550705757600001,2.686902377600001,-1.13638285,2.70613141,-2.71878336,,,
imu,100.286872,-0.3313766512,-9.543527924000001,2.6940802112,-1.27096723,2.89305416,-2.92813684,,,
imu,100.295682,-0.3511156936,-9.536948243200001,2.6934820584,-1.52518217,2.91548489,-3.07019813,,,
imu,100.304492,-0.3612842912,-9.5459205352,2.7114266424,-1.65976655,2.97530017,-3.05524431,,,
imu,100.313303,-0.3523119992,-9.554294674400001,2.7192026288,-1.92893531,3.36409949,-3.10010577,,,
imu,100.322113,-0.352910152,-9.5447242296,2.7198007816,-1.94388913,3.56597606,-3.0477674,,,
imu,100.33059,-0.3505175408000001,-9.552500216,2.724586004,-2.2205348,3.73794499,-2.98795212,,,
imu,100.339068,-0.3385544848000001,-9.5429297712,2.726978615200001,-2.45231901,3.83514482,-2.95804448,,,
imu,100.347545,-0.3158246784000001,-9.5501076048,2.7449231992,-2.57194957,3.90991392,-2.93561375,,,
imu,100.356023,-0.3044597752,-9.554294674400001,2.7491102688,-2.49718047,4.02954448,-2.8982292,,,
imu,100.364501,-0.2990764,-9.533359326400001,2.7467176576,-2.39998064,3.93982156,-3.00290594,,,
imu,100.372978,-0.3068523864000001,-9.526181492800001,2.7538954912,-2.39998064,3.73046808,-3.18235178,,,
imu,100.381456,-0.2978800944000001,-9.526779645600001,2.771241922400001,-2.10090424,3.78280645,-3.14496723,,,
imu,100.389917,-0.3080486920000001,-9.548313146400002,2.7861957424,-1.98127368,3.7454219,-3.22721324,,,
imu,100.398394,-0.3188154424,-9.557285438400001,2.793373576,-2.12333497,3.61083752,-3.29450543,,,
imu,100.406872,-0.3247969704000001,-9.568650341600001,2.798756951200001,-2.13081188,3.5211146,-3.39170526,,,
imu,100.415349,-0.3289840400000001,-9.5489112992,2.7957661872,-2.04856587,3.4463455,-3.15992105,,,
imu,100.423827,-0.3283858872000001,-9.536948243200001,2.808327396000001,-2.17567334,3.58092988,-3.04029049,,,
imu,100.432304,-0.3253951232,-9.523190728800001,2.815505229600001,-2.2205348,3.61083752,-2.95804448,,,
imu,100.440782,-0.3373581792000001,-9.499862769600002,2.8035421736,-2.33268845,3.57345297,-2.92813684,,,
imu,100.44926,-0.3307784984000001,-9.493283088800002,2.8149070768,-2.31773463,3.68560662,-2.83841392,,,
imu,100.457737,-0.3194135952000001,-9.505844297600001,2.819692299200001,-2.39250373,3.68560662,-2.76364482,,,
imu,100.466215,-0.2996745528,-9.496872005600002,2.8077292432,-2.42241137,3.81271409,-2.6739219,,,
imu,100.474692,-0.3008708584000001,-9.4729458936,2.817897840800001,-2.370073,3.820191,-2.80102937,,,
imu,100.48317,-0.305057928,-9.453206851200001,2.8095237016,-2.25791935,3.75289881,-3.01785976,,,
imu,100.491647,-0.3056560808,-9.426289975200001,2.808327396000001,-2.03361205,3.84262173,-3.07019813,,,
imu,100.500125,-0.3080486920000001,-9.411934308000001,2.8149070768,-1.72705874,3.79028336,-3.15992105,,,
imu,100.508602,-0.3176191368,-9.423299211200002,2.815505229600001,-1.49527453,3.5958837,-3.496382,,,
imu,100.51708,-0.3325729568,-9.4412437952,2.8507962448,-1.27844414,3.30428421,-3.81788913,,,
imu,100.525557,-0.3397507904000001,-9.484908949600001,2.8585722312,-1.18872122,3.36409949,-3.69078166,,,
imu,100.534017,-0.3487230824000001,-9.5004609224,2.8609648424,-1.22610577,3.43139168,-3.48142818,,,
imu,100.542477,-0.3427415544,-9.4962738528,2.862161148000001,-1.03918302,3.48373005,-3.11505959,,,
imu,100.550936,-0.3421434016,-9.489694172,2.8627593008,-1.11395212,3.39400713,-2.86832156,,,
imu,100.559396,-0.3523119992,-9.489694172,2.883096496000001,-1.29339796,3.2968073,-2.56176825,,,
imu,100.567856,-0.3750418056000001,-9.5249851872,2.9142004416,-1.43545925,3.36409949,-2.24773803,,,
imu,100.576316,-0.3720510416,-9.582407856000001,2.9124059832,-1.49527453,3.40148404,-2.001,,,
imu,100.584775,-0.3642750552,-9.574631869600001,2.8926669408,-1.87659694,3.36409949,-2.01595382,,,
imu,100.593235,-0.3684621248000001,-9.5237888816,2.8729278984,-2.06351969,3.4463455,-1.94866163,,,
imu,100.601695,-0.3756399584,-9.4555994624,2.875918662400001,-1.87659694,3.77532954,-1.6271545,,,
imu,100.610155,-0.3690602776000001,-9.419710294400002,2.8490017864,-1.60742818,4.01459066,-1.3280781,,,
imu,100.618614,-0.3445360128,-9.404756474400001,2.8244775216,-1.0989983,4.3435747,-1.15610917,,,
imu,100.627074,-0.320011748,-9.399971252000002,2.8280664384,-0.5681376899999999,4.72489711,-1.08134007,,,
imu,100.635534,-0.2930948720000001,-9.382026668000002,2.817299688,-0.16438455,4.74732784,-1.22340136,,,
imu,100.643993,-0.2745521352,-9.382624820800002,2.8298608968,0.36647606,4.762281659999999,-1.67949287,,,
imu,100.652453,-0.272159524,-9.4215047528,2.82627198,0.83004448,4.75480475,-2.2253073,,,
imu,100.660913,-0.2667761488000001,-9.451412392800002,2.8358424248,1.03939796,4.523020539999999,-2.74121409,,,
imu,100.669373,-0.2817299688000001,-9.484908949600001,2.8609648424,0.97958268,4.23142105,-3.36927453,,,
imu,100.677832,-0.287113344,-9.519601812000001,2.87113344,0.9347212199999999,4.11179049,-3.77302767,,,
imu,100.686292,-0.2877114968,-9.519601812000001,2.8699371344,0.65807555,4.16412886,-3.84031986,,,
imu,99.666178,,,,,,,-93.5926132,161.6660228,117.6835264
imu,99.76774,,,,,,,-93.0066676,161.861338,117.476004
imu,99.869333,,,,,,,-93.0432892,162.3984548,117.9398776
imu,99.970865,,,,,,,-92.7747308,161.495122,116.7679864
imu,100.072428,,,,,,,-92.86018120000001,161.7880948,117.5492472
imu,100.174479,,,,,,,-90.82157880000001,160.8603476,116.2064552
imu,100.275583,,,,,,,-93.22639720000001,161.7148516,117.170824
imu,100.377115,,,,,,,-91.02910120000001,160.9335908,114.9002848
imu,100.486586,,,,,,,-93.2386044,162.2641756,116.8290224
imu,100.588606,,,,,,,-93.77572119999999,161.4829148,115.156636
