Type,Timestamp,Data Accelerometer X,Data Accelerometer Y,Data Accelerometer Z,Data Gyroscope X,Data Gyroscope Y,Data Gyroscope Z,Data Magnetometer X,Data Magnetometer Y,Data Magnetometer Z
imu,142.655753,-0.4749333232000001,-9.423299211200002,3.0768980032,2.13850373,1.82385603,-1.29069355,,,
imu,142.664212,-0.4928779072000001,-9.447823476,3.0852721424,2.25813429,1.77151766,-1.28321664,,,
imu,142.67267,-0.499457588,-9.522592576000001,3.104413032,2.28804193,1.74161002,-1.26826282,,,
imu,142.681129,-0.5084298800000001,-9.596763523200002,3.091851823200001,2.2656112,1.75656384,-1.20844754,,,
imu,142.689587,-0.5108224912,-9.567454036,3.0810850728,2.02635008,1.75656384,-1.20844754,,,
imu,142.698045,-0.5197947832,-9.527377798400002,3.0912536704,1.84690424,1.99582496,-1.05143243,,,
imu,142.706504,-0.5185984776000001,-9.540537160000001,3.0978333512,1.87681188,2.1005017,-0.93927878,,,
imu,142.714962,-0.5096261856000001,-9.5590798968,3.0906555176,1.40576655,2.1005017,-1.12620153,,,
imu,142.723421,-0.490485296,-9.5393408544,3.0739072392,1.27118217,2.27247063,-1.46266248,,,
imu,142.731879,-0.4946723656000001,-9.5148165896,3.0810850728,0.82256757,2.39210119,-1.65706214,,,
imu,142.740338,-0.4898871432,-9.495077547200001,3.0661312528,0.50853735,2.42200883,-1.84398489,,,
imu,142.748796,-0.4916816016,-9.441841948000002,3.0248587096,0.58330645,2.53416248,-1.9262309,,,
imu,142.757255,-0.499457588,-9.351520875200002,2.982389860800001,0.5459219,2.82576197,-1.99352309,,,
imu,142.765713,-0.5018501992000001,-9.292303748000002,2.963248971200001,0.8823828499999999,2.96782326,-1.99352309,,,
imu,142.774172,-0.4701481008,-9.3108464848,2.9740157216,1.39828964,3.06502309,-1.98604618,,,
imu,142.78263,-0.4318663216,-9.3586987088,2.9716231104,1.67493531,3.05006927,-2.02343073,,,
imu,142.791088,-0.430670016,-9.396980488,2.9692304992,2.09364227,3.15474601,-2.04586146,,,
imu,142.799547,-0.4587831976000001,-9.363483931200001,2.945304387200001,2.24318047,2.96782326,-2.12063056,,,
imu,142.808364,-0.4486146000000001,-9.3862137376,2.9746138744,2.29551884,2.78837742,-2.23278421,,,
imu,142.817181,-0.4539979752000001,-9.434065961600002,2.9913621528,2.46748777,2.78090051,-2.53186061,,,
imu,142.825998,-0.4886908376000001,-9.5040498392,2.982389860800001,2.46748777,2.67622377,-2.89075229,,,
imu,142.834815,-0.4737370176,-9.554294674400001,2.9542766792,2.116073,2.76594669,-3.0477674,,,
imu,142.843632,-0.49347606,-9.4873015608,2.969828652,1.6674584,2.69117759,-2.9729983,,,
imu,142.852449,-0.5215892416000001,-9.4938812416,2.993754764000001,1.4431511,2.75846978,-2.84589083,,,
imu,142.861265,-0.5299633808,-9.546518688,2.9722212632,1.30856672,2.87062343,-2.92065993,,,
imu,142.870082,-0.5407301312,-9.553098368800002,2.939921012000001,1.22632071,2.93791562,-2.95056757,,,
imu,142.878899,-0.535346756,-9.504647992000002,2.93094872,1.15902852,3.10988455,-2.75616791,,,
imu,142.887716,-0.5299633808,-9.4454308648,2.938126553600001,1.10669015,3.35662258,-2.50942988,,,
imu,142.896533,-0.5245800056000001,-9.4071490856,2.9183875112,1.40576655,3.38653022,-2.24773803,,,
imu,142.90535,-0.5293652280000001,-9.414326919200002,2.9327431784,1.38333582,3.31176112,-2.32998404,,,
imu,142.914167,-0.5473098120000001,-9.5082369088,2.9764083328,1.40576655,3.43139168,-2.39727623,,,
imu,142.922984,-0.5401319784,-9.5949690648,2.980595402400001,1.27865908,3.52859151,-2.45709151,,,
imu,142.931801,-0.5401319784,-9.559678049600002,2.931546872800001,1.09173633,3.64074516,-2.25521494,,,
imu,142.940618,-0.5323559920000001,-9.4753385048,2.9297524144,1.00949032,3.90991392,-2.09819983,,,
imu,142.949435,-0.5209910888,-9.4490197816,2.938126553600001,0.6954601,4.07440594,-2.06829219,,,
imu,142.958252,-0.5197947832,-9.457992073600002,2.9165930528,1.00201341,4.15665195,-2.11315365,,,
imu,142.967069,-0.5042428104000001,-9.459786532,2.8878817184,1.0693056,3.93982156,-2.48699915,,,
imu,142.975885,-0.4898871432,-9.437056725600002,2.880105732000001,1.16650543,3.8949601,-2.75616791,,,
imu,142.984702,-0.5000557408,-9.4203084472,2.8813020376,1.2936129,3.88000628,-2.62158353,,,
imu,142.993519,-0.49347606,-9.478927421600002,2.9213782752,1.51044329,3.93234465,-2.24026112,,,
imu,143.002283,-0.4833074624000001,-9.52558334,2.907022608,1.5179202,4.05197521,-2.17296893,,,
imu,143.010763,-0.4378478496000001,-9.5154147424,2.8854891072,1.30108981,4.16412886,-2.15801511,,,
imu,143.019243,-0.4294737104000001,-9.540537160000001,2.9207801224,1.01696723,4.15665195,-1.75426197,,,
imu,143.027723,-0.3995660704000001,-9.5602762024,2.9405191648,0.97958268,4.17908268,-0.96918642,,,
imu,143.036203,-0.3774344168000001,-9.554892827200002,2.9261634976,0.57582954,4.149175039999999,-0.4757103599999999,,,
imu,143.044683,-0.3570972216000001,-9.553696521600001,2.94590254,0.1720764,3.92486774,-0.4682334499999998,,,
imu,143.053163,-0.3481249296000001,-9.5447242296,2.9560711376,-0.11204618,3.73794499,-0.54300255,,,
imu,143.061643,-0.3301803456000001,-9.548313146400002,2.959061901600001,-0.48589168,3.65569898,-0.5355256399999999,,,
imu,143.070123,-0.3265914288,-9.512423978400001,2.9482951512,-0.78496808,3.43139168,-0.6476792899999999,,,
imu,143.078603,-0.3379563320000001,-9.479525574400002,2.9506877624,-0.8821679099999999,3.21456129,-0.6551562,,,
imu,143.087083,-0.3433397072,-9.474740352000001,2.9644452768,-1.09152139,3.09493073,-0.9318018699999999,,,
imu,143.095563,-0.3475267768,-9.48072188,2.9716231104,-1.34573633,3.05006927,-1.253309,,,
imu,143.104043,-0.3355637208,-9.464571754400001,2.9602582072,-1.12142903,3.02016163,-1.4776163,,,
imu,143.112523,-0.3206099008000001,-9.4346641144,2.952482220800001,-1.20367504,2.82576197,-1.91127708,,,
imu,143.121004,-0.3421434016,-9.402962016000002,2.954874832000001,-1.08404448,2.66874686,-2.43466078,,,
imu,143.129484,-0.3451341656,-9.390998960000001,2.94590254,-0.85973718,2.52668557,-2.66644499,,,
imu,143.137964,-0.3594898328000001,-9.402962016000002,2.9470988456,-0.60552224,2.48182411,-2.74121409,,,
imu,143.146444,-0.3702565832000001,-9.441841948000002,2.9656415824,-0.38869185,2.37714737,-2.73373718,,,
imu,143.154924,-0.367863972,-9.4729458936,2.9656415824,-0.06718472,2.36967046,-2.65896808,,,
imu,143.163404,-0.3750418056000001,-9.485507102400002,2.9530803736,0.09730729999999999,2.40705501,-2.35241477,,,
imu,143.171884,-0.3636769024000001,-9.482516338400002,2.949491456800001,0.3216146,2.51173175,-2.18044584,,,
imu,143.180364,-0.3594898328000001,-9.481320032800001,2.9506877624,0.41133752,2.6986545,-2.0757691,,,
imu,143.188844,-0.3481249296000001,-9.4753385048,2.9656415824,0.40386061,2.60893158,-2.16549202,,,
imu,143.197324,-0.3307784984000001,-9.493283088800002,2.9722212632,0.41133752,2.52668557,-2.20287657,,,
imu,143.205804,-0.3289840400000001,-9.51062952,2.966837888,0.58330645,2.48930102,-2.12810747,,,
imu,143.214263,-0.3367600264,-9.477132963200003,2.9321450256,0.3216146,2.60145467,-2.00847691,,,
imu,143.222721,-0.3301803456000001,-9.4382530312,2.9297524144,0.3889067899999999,2.66874686,-1.67201596,,,
imu,143.23118,-0.3259932760000001,-9.411934308000001,2.9118078304,0.36647606,2.67622377,-1.4776163,,,
imu,143.239638,-0.3427415544,-9.419112141600001,2.9112096776,0.4711528,2.57154703,-1.6271545,,,
imu,143.248097,-0.3487230824000001,-9.455001309600002,2.9195838168,0.6954601,2.42200883,-1.68696978,,,
imu,143.256555,-0.3331711096,-9.502255380800001,2.9273598032,0.67302937,2.24256299,-1.85893871,,,
imu,143.265013,-0.331974804,-9.585398620000001,2.9644452768,0.50853735,2.33976282,-2.11315365,,,
imu,143.273472,-0.3355637208,-9.610521037600002,2.9614545128,0.29918387,2.31733209,-2.03838455,,,
imu,143.28193,-0.3134320672,-9.6296619272,2.9746138744,-0.03727708,2.2500399,-1.74678506,,,
imu,143.290389,-0.3134320672,-9.633848996800001,2.9716231104,-0.32139966,2.29490136,-1.41780102,,,
imu,143.298847,-0.3062542336,-9.621287788000002,2.94590254,-0.60552224,2.21265535,-1.26078591,,,
imu,143.307306,-0.3086468448,-9.560874355200001,2.9321450256,-0.90459864,2.1005017,-1.29069355,,,
imu,143.315764,-0.3098431504,-9.478329268800001,2.910611524800001,-1.26349032,1.77899457,-1.45518557,,,
imu,143.324223,-0.3283858872000001,-9.3963823352,2.892068788,-1.20367504,1.39019525,-1.65706214,,,
imu,143.332681,-0.3361618736,-9.3652783896,2.8932650936,-1.16629049,1.17336486,-1.99352309,,,
imu,143.34114,-0.3612842912,-9.3479319584,2.8998447744,-1.0989983,0.9041961000000001,-2.38979932,,,
imu,143.349598,-0.3947808480000001,-9.361091320000002,2.921976428000001,-1.19619813,0.76213481,-2.75616791,,,
imu,143.358056,-0.4133235848,-9.4107380024,2.9602582072,-1.25601341,0.7097964399999999,-2.83093701,,,
imu,143.366515,-0.4205014184,-9.4454308648,2.947696998400001,-1.3980747,0.8219500899999996,-3.0477674,,,
imu,143.374973,-0.4163143488000001,-9.4908904776,2.9734175688,-1.3233056,1.01634975,-2.99542903,,,
imu,143.383432,-0.424688488,-9.516611048000001,2.963248971200001,-1.35321324,1.11354958,-2.96552139,,,
imu,143.39189,-0.406743904,-9.4980683112,2.963248971200001,-1.43545925,1.27056469,-3.0477674,,,
imu,143.400349,-0.4372496968000001,-9.468758824,2.9853806248,-1.59247436,1.36028761,-3.15992105,,,
imu,142.689793,,,,,,,-94.0564868,163.3139948,116.7801936
imu,143.408807,-0.4258847936,-9.459786532,2.984782472,-1.60742818,1.2780416,-3.2720747,,,
imu,143.417276,-0.4354552384000001,-9.447823476,3.0003344448,-1.52518217,1.36028761,-3.37675144,,,
imu,143.425744,-0.4522035168,-9.471151435200001,3.002727056,-1.20367504,1.47991817,-3.37675144,,,
imu,143.434213,-0.4773259344000001,-9.4555994624,3.001530750400001,-1.36816706,1.52477963,-3.1225365,,,
imu,143.442682,-0.4599795032,-9.439449336800001,3.007512278400001,-1.27096723,1.64441019,-2.86084465,,,
imu,143.45115,-0.4683536424000001,-9.453206851200001,3.0099048896,-1.09152139,1.97339423,-2.63653735,,,
imu,143.459619,-0.4587831976000001,-9.422701058400001,2.9943529168,-1.18872122,2.2500399,-2.40475314,,,
imu,143.468088,-0.4701481008,-9.427486280800002,3.0021289032,-0.93450628,2.36219355,-2.28512258,,,
imu,143.476556,-0.4522035168,-9.422701058400001,2.968632346400001,-0.83730645,2.40705501,-2.38979932,,,
imu,143.485025,-0.4587831976000001,-9.374250681600001,2.9542766792,-0.48589168,2.54163939,-2.34493786,,,
imu,143.493493,-0.451605364,-9.332978138400001,2.954874832000001,-0.20924601,2.72108523,-2.24026112,,,
imu,143.501962,-0.4563905864000001,-9.361689472800002,2.9811935552,0.3216146,2.75846978,-2.43466078,,,
imu,143.510431,-0.4533998224,-9.419710294400002,2.9859787776,0.67302937,2.73603905,-2.65896808,,,
imu,143.518899,-0.4378478496000001,-9.450216087200001,2.989567694400001,0.58330645,2.84071579,-2.6739219,,,
imu,143.527368,-0.4492127528000001,-9.470553282400001,3.0051196672,0.67302937,3.11736146,-2.29259949,,,
imu,143.535837,-0.442633072,-9.492086783200001,3.0140919592,0.7702292,3.43139168,-1.75426197,,,
imu,143.544305,-0.4222958768,-9.482516338400002,3.0081104312,0.57582954,3.65569898,-1.58976995,,,
imu,143.552774,-0.4139217376000001,-9.477132963200003,2.9871750832,0.41133752,3.6706528,-1.87389253,,,
imu,143.561242,-0.3965753064,-9.460982837600001,2.991960305600001,0.45619898,3.61831443,-2.30755331,,,
imu,143.569711,-0.3905937784,-9.452010545600002,2.981791708,0.6132140899999999,3.55849915,-2.4496146,,,
imu,143.57818,-0.3876030144000001,-9.454403156800002,2.9704268048,0.82256757,3.43886859,-2.70382954,,,
imu,143.586648,-0.3893974728000001,-9.412532460800001,2.945304387200001,0.9646288599999999,3.43886859,-2.93561375,,,
imu,143.595117,-0.3941826952,-9.363483931200001,2.94590254,1.06182869,3.41643786,-2.92813684,,,
imu,143.603586,-0.3786307224000001,-9.3628857784,2.9500896096,1.13659779,3.47625314,-2.70382954,,,
imu,143.612054,-0.3929863896,-9.4107380024,2.9596600544,1.46558183,3.40148404,-2.47204533,,,
imu,143.62103,-0.3756399584,-9.444234559200002,2.948893304,1.68241222,3.43886859,-2.28512258,,,
imu,143.630007,-0.3786307224000001,-9.452010545600002,2.957865596,1.7422275,3.43886859,-2.30755331,,,
imu,143.638983,-0.3696584304000001,-9.499264616800001,2.969828652,1.70484295,3.34166876,-2.47204533,,,
imu,143.647959,-0.3893974728000001,-9.523190728800001,2.942911776,2.01887317,3.32671494,-2.43466078,,,
imu,143.656935,-0.3822196392,-9.5423316184,2.943509928800001,2.01887317,3.10988455,-2.3748455,,,
imu,143.665911,-0.3876030144000001,-9.5249851872,2.9345376368,1.90671952,2.96782326,-2.58419898,,,
imu,143.674887,-0.3870048616000001,-9.481320032800001,2.9165930528,1.77213514,2.85566961,-2.64401426,,,
imu,143.683863,-0.3762381112000001,-9.481320032800001,2.918985664,1.87681188,2.90800798,-2.56176825,,,
imu,143.69284,-0.3804251808,-9.5219944232,2.928556108800001,1.99644244,2.96034635,-2.25521494,,,
imu,143.701816,-0.3786307224000001,-9.531564868,2.924369039200001,2.00391935,3.0725,-1.97856927,,,
imu,143.710792,-0.3690602776000001,-9.522592576000001,2.9136022888,1.95158098,3.10988455,-1.56733922,,,
imu,143.719768,-0.3684621248000001,-9.5447242296,2.9213782752,1.75718132,3.16969983,-1.44023175,,,
imu,143.728744,-0.3660695136000001,-9.5249851872,2.9231727336,1.54782784,3.16222292,-1.3280781,,,
imu,143.73772,-0.35889168,-9.533957479200001,2.9022373856,1.35342818,3.20708438,-1.35050883,,,
imu,143.746696,-0.3481249296000001,-9.513620284000002,2.8962558576,1.16650543,3.18465365,-1.39537029,,,
imu,143.755673,-0.3487230824000001,-9.4669643656,2.8836946488,1.03939796,3.17717674,-1.36546265,,,
imu,143.764649,-0.3523119992,-9.457992073600002,2.892068788,0.8749059399999999,3.19213056,-1.32060119,,,
imu,143.773625,-0.3361618736,-9.4801237272,2.8962558576,0.8823828499999999,3.15474601,-1.38789338,,,
imu,143.782601,-0.3606861384,-9.498666464000001,2.8783112736,0.88985976,3.20708438,-1.35050883,,,
imu,143.791577,-0.3517138464,-9.479525574400002,2.8693389816,0.81509066,3.21456129,-1.20844754,,,
imu,143.800553,-0.3433397072,-9.5040498392,2.8878817184,0.81509066,3.40896095,-1.253309,,,
imu,143.80953,-0.3517138464,-9.520798117600002,2.9016392328,0.6281679099999999,3.41643786,-1.38789338,,,
imu,143.818506,-0.3481249296000001,-9.526779645600001,2.905228149600001,0.60573718,3.58840679,-1.47013939,,,
imu,143.826832,-0.3445360128,-9.552500216,2.8986484688,0.3739529699999999,3.6706528,-1.52995467,,,
imu,143.835158,-0.3343674152,-9.5566872856,2.8962558576,0.23936859,3.73046808,-1.58976995,,,
imu,143.843484,-0.3337692624,-9.523190728800001,2.889078024,0.03001510999999998,3.67812971,-1.61220068,,,
imu,143.851811,-0.331974804,-9.493283088800002,2.870535287200001,-0.127,3.73794499,-1.81407725,,,
imu,143.860137,-0.3487230824000001,-9.481918185600001,2.8699371344,-0.29896893,3.56597606,-2.03090764,,,
imu,143.868463,-0.34393786,-9.474142199200001,2.8783112736,-0.30644584,3.63326825,-2.25521494,,,
imu,143.876789,-0.3469286240000001,-9.508835061600001,2.8986484688,-0.36626112,3.46877623,-2.25521494,,,
imu,143.885115,-0.3511156936,-9.507638756,2.8693389816,-0.36626112,3.55102224,-2.20287657,,,
imu,143.893442,-0.3427415544,-9.469356976800002,2.8795075792,-0.20924601,3.81271409,-1.82903107,,,
imu,143.901768,-0.3247969704000001,-9.489694172,2.8813020376,0.17955331,4.07440594,-1.11872462,,,
imu,143.910094,-0.2883096496000001,-9.4669643656,2.8490017864,0.35152224,4.38095925,-0.7897405799999999,,,
imu,143.91842,-0.2835244272,-9.427486280800002,2.847207328000001,0.29918387,4.433297619999999,-0.7822636699999999,,,
imu,143.926746,-0.2709632184,-9.416719530400002,2.852590703200001,0.50853735,4.38095925,-0.8794635,,,
imu,143.935073,-0.2781410520000001,-9.4173176832,2.859170384,0.8375213899999999,4.36600543,-1.00657097,,,
imu,143.943399,-0.2805336632,-9.458590226400002,2.859768536800001,1.02444414,4.36600543,-1.24583209,,,
imu,143.951725,-0.275150288,-9.505844297600001,2.864553759200001,1.18893616,4.2688056,-1.55986231,,,
imu,143.960051,-0.2793373576,-9.555490980000002,2.859768536800001,1.27865908,4.104313579999999,-2.05333837,,,
imu,143.968377,-0.2805336632,-9.537546396000002,2.8657500648,1.18893616,3.97720611,-2.41970696,,,
imu,143.976704,-0.2697669128,-9.502255380800001,2.866348217600001,1.09921324,3.77532954,-2.748691,,,
imu,143.98503,-0.2691687600000001,-9.52558334,2.864553759200001,0.8449983,3.68560662,-3.15992105,,,
imu,143.993356,-0.2829262744000001,-9.5082369088,2.8657500648,0.8524752099999999,3.57345297,-3.27955161,,,
imu,144.001682,-0.2643835376,-9.495077547200001,2.87113344,0.45619898,3.46129932,-3.32441307,,,
imu,144.010009,-0.2619909264,-9.519003659200001,2.877114968,0.29918387,3.38653022,-3.27955161,,,
imu,144.018335,-0.2691687600000001,-9.512423978400001,2.8765168152,-0.14195382,3.1472691,-3.06272122,,,
imu,144.026862,-0.2865151912,-9.505246144800001,2.8687408288,-0.5008455,3.05754618,-2.84589083,,,
imu,144.035389,-0.2530186344000001,-9.519003659200001,2.88608726,-0.7251528,3.03511545,-2.57672207,,,
imu,144.043916,-0.2781410520000001,-9.520199964800002,2.8627593008,-0.8672140899999999,2.91548489,-2.51690679,,,
imu,144.052443,-0.2865151912,-9.5010590752,2.873526051200001,-0.81487572,2.63883922,-2.56924516,,,
imu,144.06097,-0.2889078024000001,-9.477731116000001,2.8693389816,-0.55318387,2.42948574,-2.68887572,,,
imu,144.069497,-0.305057928,-9.486703408,2.8687408288,-0.34383039,2.34723973,-2.90570611,,,
imu,144.078025,-0.3158246784000001,-9.486703408,2.883096496000001,-0.14195382,2.22760917,-3.01785976,,,
imu,144.086552,-0.3289840400000001,-9.4962738528,2.8884798712,0.007584380000000002,2.22760917,-3.01785976,,,
imu,142.791421,,,,,,,-91.200002,162.4350764,114.18006
imu,142.893014,,,,,,,-93.55599160000001,163.2163372,117.2196528
imu,142.994607,,,,,,,-93.4461268,162.7280492,114.1068168
imu,143.096169,,,,,,,-93.82455,163.1064724,116.8412296
imu,143.197915,,,,,,,-93.38509079999999,163.631382,116.560464
imu,143.299264,,,,,,,-93.43391960000001,163.6069676,116.194248
imu,143.400887,,,,,,,-93.5315772,163.2407516,115.8768608
imu,143.502419,,,,,,,-93.5315772,163.326202,117.048752
imu,144.095186,-0.3457323184,-9.4908904776,2.880105732000001,0.02253820000000001,2.25751681,-3.11505959,,,
imu,144.103714,-0.3487230824000001,-9.513022131200001,2.9183875112,-0.15690764,2.35471664,-3.14496723,,,
imu,144.112241,-0.376836264,-9.559678049600002,2.927957956,-0.2017691,2.43696265,-3.32441307,,,
imu,144.120768,-0.3792288752000001,-9.593772759200002,2.943509928800001,-0.68776825,2.53416248,-3.43656672,,,
imu,144.129295,-0.3696584304000001,-9.5907819952,2.9417154704,-0.98684465,2.75846978,-3.23469015,,,
imu,144.137822,-0.3720510416,-9.5489112992,2.9363320952,-1.29339796,3.02763854,-3.26459779,,,
imu,144.146349,-0.3624805968,-9.517807353600002,2.9136022888,-1.5476129,3.23699202,-2.98047521,,,
imu,144.154876,-0.3499193880000001,-9.4980683112,2.9231727336,-1.55508981,3.28185348,-2.77859864,,,
imu,144.163403,-0.352910152,-9.4765348104,2.8819001904,-1.56256672,3.31176112,-2.93561375,,,
imu,144.17193,-0.3421434016,-9.393989724,2.865151912,-1.62985891,3.31923803,-3.01038285,,,
imu,144.180458,-0.3445360128,-9.316229860000002,2.8627593008,-1.5476129,3.37905331,-2.87579847,,,
imu,144.188985,-0.3337692624,-9.3006778872,2.88608726,-1.33078251,3.55102224,-2.61410662,,,
imu,144.197512,-0.3241988176,-9.352119028,2.9016392328,-1.04665993,3.70056044,-2.3000764,,,
imu,144.206039,-0.3283858872000001,-9.394587876800001,2.9076207608,-0.77749117,3.63326825,-2.35241477,,,
imu,144.214566,-0.3313766512,-9.453805004000001,2.9351357896,-0.48589168,3.62579134,-2.56176825,,,
imu,144.223093,-0.3325729568,-9.495077547200001,2.9345376368,-0.17933837,3.75289881,-2.69635263,,,
imu,144.231503,-0.3265914288,-9.477731116000001,2.9261634976,-0.007369440000000005,3.81271409,-2.90570611,,,
imu,144.239913,-0.3146283728000001,-9.477731116000001,2.913004136000001,0.33656842,3.94729847,-2.99542903,,,
imu,144.248324,-0.3212080536,-9.456795768000001,2.8753205096,0.74779847,3.97720611,-3.1225365,,,
imu,144.256734,-0.31403022,-9.431075197600002,2.8675445232,1.36090509,3.93234465,-3.03281358,,,
imu,144.265144,-0.3080486920000001,-9.4316733504,2.8436184112,1.84690424,4.0444983,-2.96552139,,,
imu,144.273554,-0.3032634696000001,-9.4382530312,2.8370387304,2.28056502,3.99215993,-2.86832156,,,
imu,144.281964,-0.2835244272,-9.448421628800002,2.838833188800001,2.863764,4.14169813,-2.70382954,,,
imu,144.290374,-0.2775428992,-9.481918185600001,2.8268701328,3.140409669999999,4.13422122,-2.57672207,,,
imu,144.298784,-0.2548130928,-9.495077547200001,2.8244775216,3.36471697,3.96225229,-2.41223005,,,
imu,144.307195,-0.233279592,-9.520199964800002,2.8244775216,3.46939371,3.92486774,-2.13558438,,,
imu,144.315605,-0.2296906752000001,-9.555490980000002,2.833449813600001,3.34976315,3.96225229,-2.08324601,,,
imu,144.324015,-0.2278962168,-9.576426328,2.833449813600001,3.22265568,3.61083752,-1.97856927,,,
imu,144.332425,-0.2177276192,-9.575230022400001,2.8244775216,3.02825602,3.39400713,-1.95613854,,,
imu,144.340835,-0.2201202304,-9.588987536800001,2.833449813600001,2.78151799,3.26689966,-1.97109236,,,
imu,144.349245,-0.218325772,-9.599156134400001,2.8304590496,2.77404108,3.18465365,-1.90380017,,,
imu,144.357655,-0.2314851336,-9.6015487456,2.820290452000001,2.54973378,3.04259236,-1.69444669,,,
imu,144.366066,-0.2314851336,-9.5740337168,2.796962492800001,2.34785721,3.06502309,-1.50004703,,,
imu,144.374476,-0.2296906752000001,-9.520199964800002,2.7909809648,1.95158098,3.05006927,-1.64958523,,,
imu,144.382886,-0.2344758976,-9.516611048000001,2.812514465600001,1.57025857,2.9229618,-1.89632326,,,
imu,144.391296,-0.2314851336,-9.530966715200002,2.817299688,1.5179202,2.9229618,-2.08324601,,,
imu,144.399706,-0.2237091472,-9.556089132800002,2.8358424248,1.26370526,2.81080815,-2.27764567,,,
imu,144.408116,-0.2290925224000001,-9.585996772800002,2.843020258400001,1.03192105,2.73603905,-2.5991528,,,
imu,144.416526,-0.2386629672,-9.596763523200002,2.8448147168,0.56087572,2.52668557,-2.9729983,,,
imu,144.424936,-0.2542149400000001,-9.614708107200002,2.8543851616,0.29170696,2.50425484,-3.32441307,,,
imu,144.433689,-0.2805336632,-9.610521037600002,2.8615629952,0.10478421,2.44443956,-3.62348947,,,
imu,144.442441,-0.2865151912,-9.617698871200002,2.8609648424,-0.05970781,2.43696265,-4.10948862,,,
imu,144.451193,-0.3128339144,-9.636241608,2.847207328000001,-0.11204618,2.61640849,-4.19921154,,,
imu,144.459945,-0.3259932760000001,-9.669738164800002,2.8513943976,-0.26158438,2.91548489,-4.057150249999999,,,
imu,144.468697,-0.3068523864000001,-9.661364025600001,2.8274682856,-0.10456927,3.0725,-3.89265823,,,
imu,144.47745,-0.2829262744000001,-9.5907819952,2.783204978400001,0.10478421,3.37905331,-3.85527368,,,
imu,144.486202,-0.2709632184,-9.4633754488,2.761671477600001,0.41881443,3.42391477,-3.87770441,,,
imu,144.494954,-0.2434481896,-9.4250936696,2.7772234504,0.8375213899999999,3.3715764,-3.84031986,,,
imu,144.503706,-0.2344758976,-9.408345391200001,2.759877019200001,1.39828964,3.33419185,-3.42908981,,,
imu,144.512458,-0.2009793408,-9.484908949600001,2.796962492800001,1.53287402,3.02763854,-3.48890509,,,
imu,144.521211,-0.1961941184,-9.554892827200002,2.8095237016,1.71231986,2.68370068,-3.54872037,,,
imu,144.529963,-0.2117460912,-9.557883591200001,2.8035421736,1.70484295,2.3995781,-3.40665908,,,
imu,144.538715,-0.2225128416,-9.536350090400001,2.804140326400001,1.53287402,2.15284007,-2.91318302,,,
imu,144.547467,-0.2290925224000001,-9.541135312800002,2.8107200072,1.33099745,1.98834805,-2.3748455,,,
imu,144.556219,-0.2476352592,-9.571641105600001,2.805934784800001,1.32352054,1.7266562,-1.98604618,,,
imu,144.564971,-0.2410555784,-9.5740337168,2.7802142144,0.9347212199999999,1.48739508,-1.74678506,,,
imu,144.573724,-0.242251884,-9.5172092008,2.746119504800001,0.8375213899999999,1.26308778,-1.74678506,,,
imu,144.582476,-0.2440463424,-9.491488630400001,2.7347546016,1.21136689,0.9116730099999999,-1.69444669,,,
imu,144.591228,-0.2554112456,-9.492086783200001,2.7287730736,1.72727368,0.5453044199999999,-1.80660034,,,
imu,144.59998,-0.266177996,-9.477132963200003,2.7048469616,2.28804193,0.1714589200000001,-1.99352309,,,
imu,144.608732,-0.2936930248,-9.464571754400001,2.706043267200001,2.99087147,-0.1276174800000001,-2.30755331,,,
imu,144.617485,-0.3086468448,-9.492684936000002,2.72159524,3.47687062,-0.4266938800000002,-2.51690679,,,
imu,144.626237,-0.3170209840000001,-9.5237888816,2.7263804624,3.79090084,-0.65847809,-2.64401426,,,
imu,144.634989,-0.3487230824000001,-9.5459205352,2.713221100800001,4.0600696,-0.7781086500000001,-2.71878336,,,
imu,144.643486,-0.367863972,-9.514218436800002,2.6803226968,4.04511578,-0.7108164600000002,-2.71878336,,,
imu,144.651983,-0.4109309736,-9.477132963200003,2.704248808800001,4.0600696,-0.5313706200000001,-2.47204533,,,
imu,144.66048,-0.424688488,-9.508835061600001,2.6982672808,4.18717707,-0.2023865800000002,-2.01595382,,,
imu,144.668978,-0.4270810992000001,-9.520199964800002,2.6833134608,4.17222325,0.27613566,-1.61967759,,,
imu,144.677475,-0.4318663216,-9.502255380800001,2.661779960000001,4.05259269,0.7322271699999998,-1.30564737,,,
imu,144.685972,-0.4294737104000001,-9.46576806,2.6641725712,4.089977240000001,1.1285034,-1.1037708,,,
imu,144.694469,-0.4240903352000001,-9.4526086984,2.664770724000001,4.08250033,1.47244126,-1.18601681,,,
imu,144.702966,-0.4163143488000001,-9.4555994624,2.6635744184,4.33671527,1.77151766,-1.1785399,,,
imu,144.711463,-0.4031549872,-9.474740352000001,2.646227987200001,4.56849948,2.16031698,-1.52247776,,,
imu,144.719961,-0.3947808480000001,-9.5118258256,2.641442764800001,4.84514515,2.46687029,-1.94118472,,,
imu,144.728458,-0.3834159448,-9.51062952,2.631872320000001,5.26385211,2.73603905,-2.24773803,,,
imu,144.736955,-0.370854736,-9.498666464000001,2.619909264,5.32366739,2.97530017,-2.41970696,,,
imu,144.745452,-0.3672658192000001,-9.519601812000001,2.6091425136,5.53302087,3.19213056,-2.50942988,,,
imu,144.753949,-0.352910152,-9.5907819952,2.6324704728,5.88443564,3.49868387,-2.4496146,,,
imu,144.762446,-0.3666676664,-9.655980650400002,2.637853848,5.81714345,3.80523718,-2.41970696,,,
imu,144.770943,-0.3373581792000001,-9.672728928800002,2.6354612368,5.28628284,4.07440594,-2.35989168,,,
imu,144.779441,-0.3313766512,-9.745703570400002,2.659387348800001,4.47129965,4.16412886,-2.56176825,,,
imu,144.787938,-0.3236006648,-9.797742864000002,2.6569947376,3.55911663,4.28375942,-2.59167589,,,
imu,144.796435,-0.3068523864000001,-9.791761336000002,2.631872320000001,2.40019558,4.44825144,-2.46456842,,,
imu,144.804932,-0.3128339144,-9.769629682400002,2.6121332776,1.30108981,4.53797436,-2.41970696,,,
imu,144.813429,-0.2996745528,-9.710412555200001,2.5888053184,0.20198404,4.530497449999999,-2.45709151,,,
imu,144.821926,-0.2865151912,-9.678710456800001,2.5935905408,-0.65786061,4.567882,-2.4496146,,,
imu,144.830424,-0.2996745528,-9.6458120528,2.5672718176,-1.39059779,4.54545127,-2.56176825,,,
imu,144.838899,-0.3020671640000001,-9.554892827200002,2.522410357600001,-1.89902767,4.50806672,-2.70382954,,,
imu,144.847374,-0.2924967192,-9.516012895200001,2.5050639264,-1.89155076,4.59031273,-2.62906044,,,
imu,144.855848,-0.2924967192,-9.486703408,2.509250996,-1.67472037,4.65012801,-2.61410662,,,
imu,144.864323,-0.2913004136,-9.4669643656,2.499082398400001,-1.52518217,4.60526655,-2.6739219,,,
imu,144.872798,-0.2936930248,-9.471749588000002,2.51224176,-1.18872122,4.66508183,-2.53186061,,,
imu,144.881273,-0.2913004136,-9.502255380800001,2.545738316800001,-0.77749117,4.74732784,-2.50195297,,,
imu,144.889748,-0.2865151912,-9.554892827200002,2.560093984,-0.36626112,4.807143119999999,-2.41970696,,,
imu,144.898223,-0.2936930248,-9.5704448,2.5636829008,-0.01484635000000001,4.94920441,-2.3000764,,,
imu,144.906698,-0.2823281216,-9.557883591200001,2.5792348736,-0.26158438,5.15108098,-2.03838455,,,
imu,143.603982,,,,,,,-91.1023444,162.4350764,115.0833928
imu,143.705514,,,,,,,-93.6292348,163.265166,116.5116352
imu,143.807107,,,,,,,-90.99247960000001,162.471698,114.0946096
imu,143.908669,,,,,,,-93.5315772,163.1919228,116.6215
imu,144.010201,,,,,,,-93.49495560000001,162.9477788,115.3641584
imu,144.111764,,,,,,,-93.51937000000001,163.2163372,117.1219952
imu,144.213326,,,,,,,-93.25081159999999,163.7412468,117.109788
imu,144.314919,,,,,,,-92.5794156,163.6435892,117.4027608
imu,144.915173,-0.2584020096,-9.561472508000001,2.599572068800001,-0.40364567,5.420249739999999,-1.76173888,,,
imu,144.923648,-0.2261017584,-9.555490980000002,2.5923942352,-0.52327623,5.50997266,-1.51500085,,,
imu,144.932123,-0.2105497856,-9.553696521600001,2.601366527200001,-0.47093786,5.57726485,-1.36546265,,,
imu,144.940598,-0.2087553272,-9.5184055064,2.5941886936,-0.47841477,5.49501884,-1.35798574,,,
imu,144.949073,-0.1860255208,-9.4621791432,2.58701086,-0.54570696,5.38286519,-1.15610917,,,
imu,144.957548,-0.1650901728,-9.441841948000002,2.5864127072,-0.4260764,5.3903421,-1.20097063,,,
imu,144.966023,-0.155519728,-9.452010545600002,2.5923942352,-0.16438455,5.136127159999999,-1.46266248,,,
imu,144.974498,-0.155519728,-9.467562518400001,2.6085443608,0.06739966,4.85948149,-1.64210832,,,
imu,144.982973,-0.1710717008,-9.484908949600001,2.599572068800001,0.3963837,4.552928179999999,-1.67949287,,,
imu,144.991448,-0.1728661592,-9.4843107968,2.5917960824,0.56835263,4.26132869,-1.83650798,,,
imu,144.999923,-0.1890162848,-9.478329268800001,2.604955444,0.71789083,4.126744309999999,-1.85893871,,,
imu,145.008398,-0.1932033544,-9.499862769600002,2.6163203472,0.80761375,3.90991392,-1.91875399,,,
imu,145.016873,-0.2189239248,-9.5172092008,2.60196468,0.82256757,3.84262173,-1.90380017,,,
imu,145.025348,-0.23926112,-9.524387034400002,2.6091425136,0.7702292,3.73794499,-1.96361545,,,
imu,145.033823,-0.2619909264,-9.52558334,2.622900028000001,0.97210577,3.53606842,-2.06081528,,,
imu,145.042289,-0.2853188856,-9.5291722568,2.628881556000001,0.8674290299999999,3.64822207,-1.98604618,,,
imu,145.050755,-0.2996745528,-9.555490980000002,2.6264889448,0.6954601,3.66317589,-1.95613854,,,
imu,145.059221,-0.3104413032000001,-9.5698466472,2.6420409176,0.7104139199999999,3.67812971,-1.88136944,,,
imu,145.067688,-0.3152265256,-9.6051376624,2.6743411688,0.60573718,3.91739083,-2.03838455,,,
imu,145.076154,-0.3032634696000001,-9.636839760800001,2.667163335200001,0.33656842,4.0444983,-2.18044584,,,
imu,145.08462,-0.3002727056,-9.635643455200002,2.655200279200001,-0.0522309,4.0444983,-2.32250713,,,
imu,145.093086,-0.2757484408,-9.591978300800001,2.646227987200001,-0.61299915,4.171605769999999,-2.6739219,,,
imu,145.101552,-0.2655798432,-9.5602762024,2.6486205984,-0.85973718,4.216467229999999,-2.80102937,,,
imu,145.110018,-0.2506260232,-9.551303910400001,2.6396483064,-1.18124431,4.29123633,-2.93561375,,,
imu,145.118484,-0.2458408008,-9.5632669664,2.649816904,-1.3233056,4.29871324,-3.00290594,,,
imu,145.12695,-0.2368685088,-9.5740337168,2.6420409176,-1.61490509,4.246374869999999,-3.06272122,,,
imu,145.135416,-0.2314851336,-9.595567217600001,2.655200279200001,-1.74201256,4.194036499999999,-3.10758268,,,
imu,145.143882,-0.2488315648,-9.602146898400001,2.6653688768,-2.11585806,4.23142105,-3.03281358,,,
imu,145.152348,-0.2560093984,-9.606932120800002,2.668957793600001,-2.19810407,4.35852852,-2.81598319,,,
imu,145.160814,-0.2524204816,-9.575230022400001,2.6695559464,-2.39250373,4.54545127,-2.65149117,,,
imu,145.169281,-0.242251884,-9.527377798400002,2.678528238400001,-2.6691494,4.53797436,-2.68139881,,,
imu,145.177747,-0.2380648144,-9.522592576000001,2.6970709752,-2.84859524,4.38095925,-2.79355246,,,
imu,145.186133,-0.2326814392,-9.5357519376,2.7108284896,-2.9682258,4.08935976,-3.02533667,,,
imu,145.194599,-0.218325772,-9.531564868,2.7144174064,-3.08785636,3.81271409,-3.37675144,,,
imu,145.203065,-0.2255036056,-9.508835061600001,2.718604476,-3.23739456,3.58092988,-3.50385891,,,
imu,145.211531,-0.2225128416,-9.4944793944,2.7359509072,-3.12524091,3.4463455,-3.30198234,,,
imu,145.219997,-0.233279592,-9.4980683112,2.7443250464,-3.1925331,3.4463455,-2.68887572,,,
imu,145.228463,-0.2374666616,-9.479525574400002,2.7371472128,-3.42431731,3.4463455,-1.98604618,,,
imu,145.236929,-0.230288828,-9.465169907200002,2.740736129600001,-3.36450203,3.53606842,-1.14863226,,,
imu,145.245377,-0.218325772,-9.443038253600001,2.7419324352,-3.37197894,3.55849915,-0.6701100199999999,,,
imu,145.253824,-0.2159331608,-9.4137287664,2.7299693792,-3.028041079999999,3.49868387,-0.3037414299999999,,,
imu,145.262271,-0.2255036056,-9.373054376,2.7198007816,-2.61681103,3.33419185,-0.28878761,,,
imu,145.270718,-0.2201202304,-9.3802322096,2.715613712000001,-2.19810407,3.05754618,-0.5056179999999999,,,
imu,145.279166,-0.2344758976,-9.385017432000001,2.713221100800001,-1.7719202,2.88557725,-0.8420789499999999,,,
imu,145.287613,-0.2135405496,-9.390998960000001,2.7198007816,-1.16629049,2.72108523,-1.22340136,,,
imu,145.29606,-0.2266999112,-9.385017432000001,2.699463586400001,-0.5756146,2.55659321,-1.61220068,,,
imu,145.304508,-0.2171294664,-9.388008196000001,2.700659892,-0.10456927,2.3995781,-1.82903107,,,
imu,145.312955,-0.2266999112,-9.4346641144,2.7102303368,0.49358353,2.43696265,-1.88884635,,,
imu,145.321402,-0.2308869808,-9.465169907200002,2.709632184,0.8674290299999999,2.4743472,-1.76173888,,,
imu,145.329849,-0.2410555784,-9.482516338400002,2.7078377256,1.02444414,2.65379304,-1.6271545,,,
imu,145.338297,-0.233279592,-9.505844297600001,2.7090340312,1.33099745,2.84071579,-1.34303192,,,
imu,145.346744,-0.2278962168,-9.5219944232,2.6988654336,1.48053565,2.87810034,-1.28321664,,,
imu,145.355191,-0.2278962168,-9.5291722568,2.685706072000001,1.49548947,2.88557725,-1.50752394,,,
imu,145.363638,-0.2326814392,-9.541733465600002,2.6845097664,1.5926893,3.04259236,-1.67201596,,,
imu,145.372086,-0.2171294664,-9.52558334,2.649816904,1.56278166,3.31923803,-1.81407725,,,
imu,145.380533,-0.2051664104,-9.526779645600001,2.6569947376,1.5926893,3.51363769,-1.78416961,,,
imu,145.38898,-0.2075590216,-9.547116840800001,2.658789196,1.61512003,3.5958837,-1.88884635,,,
imu,145.397427,-0.206362716,-9.551902063200002,2.645629834400001,1.67493531,3.76785263,-1.73930815,,,
imu,145.405875,-0.1746606176,-9.569248494400002,2.6665651824,1.5926893,3.95477538,-1.41780102,,,
imu,145.414322,-0.1656883256,-9.588987536800001,2.692285752800001,1.23379762,3.99963684,-1.36546265,,,
imu,145.422769,-0.1387714496,-9.626671163200001,2.699463586400001,0.82256757,3.95477538,-1.46266248,,,
imu,145.431216,-0.125612088,-9.644615747200001,2.7030525032,0.3216146,3.77532954,-1.60472377,,,
imu,145.439664,-0.1297991576,-9.6499991224,2.6988654336,-0.30644584,3.46129932,-1.98604618,,,
imu,145.448111,-0.1399677552,-9.632054538400002,2.7030525032,-0.77001426,3.22951511,-2.40475314,,,
imu,145.456568,-0.1507345056,-9.616502565600001,2.6970709752,-1.21862886,3.02016163,-2.60662971,,,
imu,145.465025,-0.167482784,-9.599754287200001,2.700659892,-1.40555161,2.79585433,-2.56924516,,,
imu,145.473483,-0.1938015072,-9.573435564,2.6892949888,-1.622382,2.75846978,-2.53186061,,,
imu,145.48194,-0.1991848824,-9.551303910400001,2.694678364,-1.51770526,2.75846978,-2.71130645,,,
imu,145.490397,-0.200381188,-9.5357519376,2.706043267200001,-1.3980747,2.99025399,-2.38979932,,,
imu,145.498854,-0.2009793408,-9.5172092008,2.6892949888,-0.9793677399999999,2.99025399,-1.84398489,,,
imu,145.507311,-0.1926052016,-9.499862769600002,2.7030525032,-0.62047606,3.22951511,-1.50004703,,,
imu,145.515769,-0.1818384512,-9.485507102400002,2.7120247952,-0.47093786,3.36409949,-1.35798574,,,
imu,145.524226,-0.1650901728,-9.482516338400002,2.7114266424,-0.3513073,3.46129932,-1.4028472,,,
imu,145.532683,-0.1656883256,-9.487899713600001,2.7048469616,-0.26906129,3.55102224,-1.41032411,,,
imu,145.54114,-0.1573141864,-9.501657228000001,2.715613712000001,0.11973803,3.56597606,-1.5523854,,,
imu,145.549597,-0.1477437416,-9.529770409600001,2.729371226400001,0.06739966,3.67812971,-1.55986231,,,
imu,145.558054,-0.140565908,-9.52558334,2.7281749208,0.11226112,3.60336061,-1.71687742,,,
imu,145.566512,-0.1357806856,-9.537546396000002,2.7257823096,-0.02980017,3.5958837,-2.05333837,,,
imu,145.574969,-0.1459492832,-9.535153784800002,2.7401379768,-0.14195382,3.68560662,-2.00847691,,,
imu,145.583426,-0.1495382,-9.561472508000001,2.7509047272,-0.29896893,3.797760269999999,-1.96361545,,,
imu,145.591883,-0.1429585192,-9.572837411200002,2.7532973384,-0.5008455,3.85009864,-1.91127708,,,
imu,145.60034,-0.1357806856,-9.554892827200002,2.7473158104,-0.68029134,3.99963684,-1.88884635,,,
imu,145.608798,-0.125612088,-9.526181492800001,2.7383435184,-0.77749117,4.08188285,-1.89632326,,,
imu,145.617255,-0.1220231712,-9.507040603200002,2.7150155592,-0.54570696,4.11179049,-1.85893871,,,
imu,145.625712,-0.1262102408,-9.479525574400002,2.7054451144,-0.25410747,4.1192674,-1.76173888,,,
imu,145.634169,-0.1064711984,-9.4765348104,2.713221100800001,-0.2765382,4.20899032,-1.76921579,,,
imu,145.642626,-0.10467674,-9.491488630400001,2.7168100176,-0.08213854000000001,4.23889796,-1.72435433,,,
imu,145.651083,-0.08374139200000001,-9.489096019200002,2.7150155592,0.0001074699999999984,4.16412886,-1.58229304,,,
imu,145.659896,-0.06699311360000001,-9.484908949600001,2.7209970872,0.09730729999999999,4.14169813,-1.57481613,,,
imu,145.668709,-0.0681894192,-9.495077547200001,2.72159524,0.1720764,4.126744309999999,-1.61967759,,,
imu,145.677522,-0.0430670016,-9.5172092008,2.7162118648,0.30666078,3.93982156,-1.7019236,,,
imu,145.686335,-0.03289840400000001,-9.533957479200001,2.7192026288,0.19450713,3.84262173,-2.03090764,,,
imu,145.695148,-0.05742266880000001,-9.520199964800002,2.704248808800001,0.42629134,3.61831443,-2.3748455,,,
imu,145.703961,-0.07895616960000001,-9.485507102400002,2.7048469616,0.56087572,3.34166876,-2.68887572,,,
imu,145.712774,-0.0861340032,-9.481320032800001,2.709632184,0.60573718,3.21456129,-2.86832156,,,
imu,145.721587,-0.1040785872,-9.507638756,2.706043267200001,0.77770611,3.33419185,-2.87579847,,,
imu,144.416482,,,,,,,-93.61702760000001,163.7412468,117.2806888
imu,144.518075,,,,,,,-92.44513640000001,162.6792204,115.6937528
imu,144.619455,,,,,,,-93.42171240000002,163.021022,116.7924008
imu,144.721048,,,,,,,-90.74833559999999,161.6049868,114.8880776
imu,144.82261,,,,,,,-93.1043252,162.5449412,118.1596072
imu,144.924203,,,,,,,-91.0657228,161.7758876,115.3153296
imu,145.025735,,,,,,,-93.45833400000001,162.7524636,118.1840216
imu,145.127633,,,,,,,-93.2996404,162.776878,118.1962288
imu,145.7304,-0.1064711984,-9.5172092008,2.7054451144,0.97958268,3.61831443,-2.69635263,,,
imu,145.739213,-0.09630260080000001,-9.519003659200001,2.7030525032,1.0693056,3.73794499,-2.53186061,,,
imu,145.748026,-0.08972292000000001,-9.516611048000001,2.6904912944,1.09921324,3.820191,-2.39727623,,,
imu,145.756839,-0.08015247520000002,-9.51062952,2.6851079192,1.13659779,3.86505246,-2.38979932,,,
imu,145.765652,-0.068787572,-9.513022131200001,2.6701540992,1.05435178,3.93982156,-2.57672207,,,
imu,145.774465,-0.07596540560000001,-9.526779645600001,2.673144863200001,1.1440747,3.81271409,-2.78607555,,,
imu,145.783278,-0.0741709472,-9.553696521600001,2.6773319328,1.15155161,3.70056044,-2.95804448,,,
imu,145.792091,-0.0753672528,-9.580613397600002,2.6743411688,1.02444414,3.49120696,-3.2720747,,,
imu,145.800904,-0.09869521200000002,-9.5812115504,2.673144863200001,0.9646288599999999,3.24446893,-3.60105874,,,
imu,145.809716,-0.1130508792,-9.600352440000002,2.668957793600001,0.82256757,3.12483837,-3.82536604,,,
imu,145.818529,-0.1303973104,-9.6009505928,2.6719485576,0.68798319,3.02763854,-4.0197657,,,
imu,145.827342,-0.1429585192,-9.590183842400002,2.6563965848,0.3739529699999999,2.78837742,-4.21416536,,,
imu,145.836155,-0.1573141864,-9.562668813600002,2.6510132096,0.29918387,2.67622377,-4.30388828,,,
imu,145.844968,-0.1710717008,-9.540537160000001,2.6330686256,0.33656842,2.51173175,-4.25902682,,,
imu,145.853781,-0.1740624648,-9.552500216,2.624694486400001,0.2468455,2.45939338,-4.057150249999999,,,
imu,145.862312,-0.1938015072,-9.556089132800002,2.6336667784,0.28423005,2.48930102,-3.73564312,,,
imu,145.870843,-0.1979885768,-9.526181492800001,2.6252926392,0.33656842,2.45191647,-3.33188998,,,
imu,145.879374,-0.2027737992,-9.5172092008,2.6360593896,0.47862971,2.43696265,-2.88327538,,,
imu,145.887905,-0.2266999112,-9.555490980000002,2.655200279200001,0.52349117,2.5491163,-2.5243837,,,
imu,145.896436,-0.2350740504,-9.5842023144,2.6665651824,0.3963837,2.75846978,-2.16549202,,,
imu,145.904967,-0.212344244,-9.583604161600002,2.6761356272,0.18703022,2.82576197,-1.89632326,,,
imu,145.913498,-0.206362716,-9.572239258400002,2.685706072000001,0.09730729999999999,2.9977309,-1.74678506,,,
imu,145.922029,-0.1949978128,-9.573435564,2.6910894472,-0.06718472,3.2220382,-1.39537029,,,
imu,145.93056,-0.1818384512,-9.568052188800001,2.671350404800001,-0.19429219,3.54354533,-0.9766633299999998,,,
imu,145.939091,-0.1680809368,-9.5423316184,2.6623781128,-0.2765382,3.62579134,-0.8196482199999999,,,
imu,145.947621,-0.1471455888,-9.4962738528,2.6492187512,-0.20924601,3.70803735,-0.8420789499999999,,,
imu,145.956152,-0.1333880744,-9.463973601600001,2.6372556952,0.14216876,3.820191,-0.82712513,,,
imu,145.964683,-0.107667504,-9.457992073600002,2.6396483064,0.26927623,3.93982156,-1.00657097,,,
imu,145.973214,-0.07656355840000001,-9.468160671200001,2.649816904,0.3889067899999999,3.8949601,-1.15610917,,,
imu,145.981745,-0.05981528000000001,-9.456197615200002,2.6581910432,0.65807555,3.86505246,-1.20097063,,,
imu,145.990276,-0.05802082160000001,-9.531564868,2.624694486400001,0.83004448,3.83514482,-1.37293956,,,
imu,145.998807,-0.026916876,-9.557285438400001,2.6270870976,1.17398234,3.72299117,-1.41032411,,,
imu,146.007338,-0.0167482784,-9.513620284000002,2.6336667784,1.01696723,3.5211146,-1.49257012,,,
imu,146.015869,-0.0197390424,-9.513620284000002,2.6372556952,1.03192105,3.2220382,-1.65706214,,,
imu,146.0244,-0.0137575144,-9.520199964800002,2.6306760144,1.09921324,3.07997691,-1.64210832,,,
imu,146.032931,-0.0137575144,-9.549509452,2.6234981808,1.09173633,2.96034635,-1.47013939,,,
imu,146.041462,-0.03289840400000001,-9.557883591200001,2.6217037224,1.21136689,2.97530017,-1.34303192,,,
imu,146.049993,-0.0352910152,-9.5501076048,2.6306760144,1.32352054,2.93791562,-1.37293956,,,
imu,146.058524,-0.0406743904,-9.578818939200001,2.631872320000001,0.97958268,2.8481927,-1.48509321,,,
imu,146.067122,-0.05443190480000001,-9.565061424800001,2.6145258888,0.94219813,2.73603905,-1.6271545,,,
imu,146.07572,-0.0783580168,-9.571042952800001,2.6223018752,0.80013684,2.65379304,-1.8514618,,,
imu,146.084319,-0.09390998960000001,-9.575230022400001,2.6187129584,0.9048135799999999,2.80333124,-1.96361545,,,
imu,146.092917,-0.09450814240000002,-9.576426328,2.615124041600001,0.9870595899999999,2.89305416,-2.09819983,,,
imu,146.101515,-0.09450814240000002,-9.553098368800002,2.6025628328,0.82256757,2.95286944,-2.0757691,,,
imu,146.110114,-0.08972292000000001,-9.5489112992,2.6157221944,0.8524752099999999,3.19213056,-2.13558438,,,
imu,146.118712,-0.09211553120000002,-9.583006008800002,2.6115351248,0.9272443100000001,3.37905331,-2.32998404,,,
imu,146.12731,-0.08254508640000002,-9.595567217600001,2.6085443608,0.81509066,3.45382241,-2.748691,,,
imu,146.135909,-0.07656355840000001,-9.576426328,2.6007683744,1.05435178,3.55849915,-2.94309066,,,
imu,146.144507,-0.06699311360000001,-9.5590798968,2.6091425136,0.67302937,3.51363769,-3.30198234,,,
imu,146.153105,-0.0735727944,-9.5602762024,2.6175166528,0.76275229,3.61831443,-3.28702852,,,
imu,146.161704,-0.06998387760000001,-9.587193078400002,2.60196468,0.9048135799999999,3.65569898,-3.11505959,,,
imu,146.170302,-0.07177833600000001,-9.593174606400002,2.5923942352,0.76275229,3.68560662,-2.88327538,,,
imu,146.1789,-0.06101158560000001,-9.591380148,2.60196468,0.53844499,3.67812971,-2.79355246,,,
imu,146.187499,-0.0466559184,-9.5985579816,2.597179457600001,0.3889067899999999,3.70803735,-2.65149117,,,
imu,146.196097,-0.0442633072,-9.594370912,2.599572068800001,0.1720764,3.67812971,-2.47204533,,,
imu,146.204695,-0.04785222400000001,-9.5800152448,2.592992388,0.07487657,3.39400713,-2.44213769,,,
imu,146.213294,-0.05742266880000001,-9.567454036,2.592992388,-0.40364567,3.32671494,-2.62158353,,,
imu,146.221892,-0.06101158560000001,-9.554892827200002,2.583421943200001,-0.61299915,3.24446893,-2.64401426,,,
imu,146.23049,-0.0634041968,-9.520798117600002,2.5798330264,-0.40364567,3.20708438,-2.43466078,,,
imu,146.239089,-0.0753672528,-9.4980683112,2.578038568,-0.2765382,3.15474601,-2.3748455,,,
imu,146.247687,-0.09091922560000001,-9.4873015608,2.5792348736,0.04496892999999999,3.02016163,-2.33746095,,,
imu,146.256285,-0.09450814240000002,-9.499264616800001,2.585814554400001,0.3889067899999999,3.0725,-2.18792275,,,
imu,146.264883,-0.1004896704,-9.530966715200002,2.6025628328,0.43376825,3.15474601,-2.15801511,,,
imu,146.273163,-0.107667504,-9.5489112992,2.6115351248,0.29918387,3.22951511,-2.1505382,,,
imu,146.281347,-0.107667504,-9.572239258400002,2.6025628328,0.20946095,3.42391477,-2.03090764,,,
imu,146.289626,-0.1040785872,-9.593772759200002,2.615124041600001,0.07487657,3.55849915,-1.95613854,,,
imu,146.297905,-0.09510629520000001,-9.595567217600001,2.6175166528,-0.13447691,3.64074516,-1.9262309,,,
imu,146.306184,-0.07596540560000001,-9.596763523200002,2.613927736,-0.35878421,3.820191,-1.94866163,,,
imu,146.314463,-0.0693857248,-9.6075302736,2.6097406664,-0.28401511,3.93234465,-1.84398489,,,
imu,146.322742,-0.05203929360000001,-9.6009505928,2.613329583200001,-0.39616876,3.92486774,-1.97856927,,,
imu,146.331022,-0.05084298800000001,-9.572837411200002,2.6025628328,-0.62047606,3.85757555,-2.21783039,,,
imu,146.339301,-0.03887993200000001,-9.554294674400001,2.597179457600001,-0.4260764,3.83514482,-2.32250713,,,
imu,146.34758,-0.03588916800000001,-9.5501076048,2.599572068800001,-0.35878421,3.85009864,-2.60662971,,,
imu,146.355859,-0.0203371952,-9.548313146400002,2.5894034712,-0.26906129,3.75289881,-2.64401426,,,
imu,146.364138,-0.020935348,-9.530966715200002,2.5965813048,-0.0522309,3.60336061,-2.8234601,,,
imu,146.372417,-0.0155519728,-9.539939007200001,2.5941886936,-0.06718472,3.45382241,-2.92813684,,,
imu,146.380697,-0.0107667504,-9.5501076048,2.5977776104,-0.02980017,3.31923803,-2.94309066,,,
imu,146.388976,-0.026916876,-9.547116840800001,2.6031609856,-0.14943073,3.34166876,-2.84589083,,,
imu,146.397255,-0.03110394560000001,-9.557285438400001,2.6157221944,-0.35878421,3.43139168,-2.68887572,,,
imu,146.405534,-0.04964668240000001,-9.557883591200001,2.6157221944,-0.35878421,3.46877623,-2.47204533,,,
imu,146.413813,-0.03887993200000001,-9.539939007200001,2.613329583200001,-0.49336859,3.46129932,-2.28512258,,,
imu,146.422092,-0.0376836264,-9.546518688,2.6097406664,-0.5307531400000001,3.64822207,-2.17296893,,,
imu,146.430372,-0.0281131816,-9.545322382400002,2.6163203472,-0.43355331,3.64074516,-2.03090764,,,
imu,146.438651,-0.0191408896,-9.554294674400001,2.628881556000001,-0.2765382,3.58840679,-2.16549202,,,
imu,146.44693,-0.0275150288,-9.5489112992,2.6252926392,-0.23167674,3.53606842,-2.44213769,,,
imu,146.455209,-0.0346928624,-9.5489112992,2.6211055696,-0.29896893,3.34166876,-2.63653735,,,
imu,146.463488,-0.03887993200000001,-9.535153784800002,2.6127314304,-0.07466163,3.28933039,-2.83093701,,,
imu,146.471948,-0.04845037680000001,-9.520199964800002,2.6187129584,0.0001074699999999984,3.2220382,-3.10758268,,,
imu,146.480408,-0.04845037680000001,-9.530966715200002,2.6264889448,0.09730729999999999,3.25942275,-3.21225942,,,
imu,146.488867,-0.07177833600000001,-9.554892827200002,2.6360593896,-0.10456927,3.28185348,-3.39170526,,,
imu,146.497327,-0.0813487808,-9.569248494400002,2.6330686256,-0.25410747,3.16969983,-3.51881273,,,
imu,146.505787,-0.08673215600000002,-9.562668813600002,2.6252926392,-0.32887657,3.19213056,-3.54124346,,,
imu,146.514247,-0.09690075360000001,-9.5638651192,2.6264889448,-0.18681528,3.31923803,-3.36179762,,,
imu,146.522706,-0.09151737840000002,-9.555490980000002,2.6163203472,-0.44850713,3.45382241,-3.21225942,,,
imu,146.531166,-0.08673215600000002,-9.535153784800002,2.613329583200001,-0.37373803,3.55102224,-3.03281358,,,
imu,146.539626,-0.080750628,-9.520199964800002,2.6115351248,-0.2765382,3.79028336,-2.80102937,,,
imu,145.22886,,,,,,,-93.43391960000001,162.59377,118.6601024
imu,145.338266,,,,,,,-93.2996404,163.50931,118.696724
imu,145.439798,,,,,,,-93.3606764,162.9844004,119.307084
imu,145.54136,,,,,,,-93.21419,163.6069676,118.5868592
imu,145.643045,,,,,,,-91.1755876,163.5459316,118.6723096
imu,145.744485,,,,,,,-93.2874332,163.8266972,118.8676248
imu,145.846078,,,,,,,-90.87040760000001,162.9844004,116.6337072
imu,145.94761,,,,,,,-93.26301880000001,163.4848956,119.2582552
imu,146.548085,-0.0747691,-9.519003659200001,2.6169185,-0.28401511,3.98468302,-2.59167589,,,
imu,146.556545,-0.04785222400000001,-9.533359326400001,2.6097406664,-0.15690764,3.96225229,-2.24026112,,,
imu,146.565005,-0.03887993200000001,-9.516611048000001,2.6031609856,-0.02232326000000001,3.92486774,-2.11315365,,,
imu,146.573465,-0.0233279592,-9.499862769600002,2.601366527200001,0.17955331,3.76785263,-2.13558438,,,
imu,146.581924,-0.0233279592,-9.499264616800001,2.6115351248,0.26927623,3.64822207,-2.3748455,,,
imu,146.590384,-0.02871133440000001,-9.530966715200002,2.607946208,0.38142988,3.37905331,-2.55429134,,,
imu,146.598844,-0.04127254320000001,-9.5704448,2.6001702216,0.55339881,3.20708438,-2.83841392,,,
imu,146.607304,-0.04366515440000001,-9.560874355200001,2.598973916,0.67302937,3.02763854,-3.10758268,,,
imu,146.615763,-0.05861897440000001,-9.572239258400002,2.6055535968,0.65807555,2.96782326,-3.17487487,,,
imu,146.624223,-0.05742266880000001,-9.5602762024,2.5965813048,0.64312173,3.00520781,-2.95056757,,,
imu,146.632683,-0.06460050240000001,-9.5907819952,2.6001702216,0.58330645,3.26689966,-2.53933752,,,
imu,146.641142,-0.0514411408,-9.602745051200001,2.5935905408,0.65059864,3.49868387,-2.11315365,,,
imu,146.649602,-0.03588916800000001,-9.599156134400001,2.581029332,0.57582954,3.6706528,-1.89632326,,,
imu,146.658062,-0.008972292000000002,-9.595567217600001,2.5828237904,0.49358353,3.8949601,-2.001,,,
imu,146.666522,-0.007177833600000002,-9.581809703200001,2.575047804,0.620691,3.81271409,-2.32998404,,,
imu,146.675349,-0.002990764,-9.5740337168,2.552916150400001,0.71789083,3.6706528,-2.59167589,,,
imu,146.684177,-0.0011963056,-9.577024480800002,2.551121692,0.91229049,3.64822207,-2.95056757,,,
imu,146.693004,-0.0065796808,-9.5800152448,2.548729080800001,0.80013684,3.55102224,-3.33936689,,,
imu,146.701832,-0.0173464312,-9.574631869600001,2.5421494,0.74779847,3.40896095,-3.82536604,,,
imu,146.710659,-0.0352910152,-9.579417092000002,2.5523179976,0.8823828499999999,3.23699202,-4.0197657,,,
imu,146.719487,-0.03947808480000001,-9.5776226336,2.548130928,0.68798319,3.13231528,-3.96742733,,,
imu,146.728314,-0.04964668240000001,-9.577024480800002,2.5547106088,0.19450713,3.19960747,-3.84779677,,,
imu,146.737142,-0.06460050240000001,-9.587193078400002,2.5535143032,0.02253820000000001,3.28185348,-3.61601256,,,
imu,146.745969,-0.06220789120000001,-9.599156134400001,2.566673664800001,-0.2017691,3.3715764,-3.2720747,,,
imu,146.754797,-0.062806044,-9.606333968000001,2.5738514984,-0.47093786,3.40896095,-2.95056757,,,
imu,146.763625,-0.0502448352,-9.589585689600002,2.5792348736,-0.65786061,3.52859151,-2.91318302,,,
imu,146.772452,-0.05562821040000001,-9.5698466472,2.587609012800001,-0.65786061,3.4463455,-2.95056757,,,
imu,146.78128,-0.05562821040000001,-9.553696521600001,2.5894034712,-1.05413684,3.36409949,-3.1225365,,,
imu,146.790107,-0.0681894192,-9.553696521600001,2.5917960824,-1.12890594,3.35662258,-3.15992105,,,
imu,146.798935,-0.08015247520000002,-9.5393408544,2.5846182488,-0.9943215599999999,3.37905331,-3.30945925,,,
imu,146.807762,-0.08254508640000002,-9.516611048000001,2.603759138400001,-0.89712173,3.49120696,-3.20478251,,,
imu,146.81659,-0.0980970592,-9.524387034400002,2.624694486400001,-0.874691,3.49120696,-3.03281358,,,
imu,146.825417,-0.116639796,-9.575230022400001,2.634264931200001,-0.69524516,3.54354533,-3.09262886,,,
imu,146.834245,-0.1070693512,-9.579417092000002,2.613927736,-0.62047606,3.57345297,-3.16739796,,,
imu,146.843072,-0.1058730456,-9.544126076800001,2.622900028000001,-0.7401066199999999,3.67812971,-3.1973056,,,
imu,146.8519,-0.1148453376,-9.526779645600001,2.6402464592,-0.6503837,3.797760269999999,-3.35432071,,,
imu,146.860728,-0.1028822816,-9.5381445488,2.637853848,-0.78496808,3.86505246,-3.21225942,,,
imu,146.869555,-0.1064711984,-9.554892827200002,2.631872320000001,-0.65786061,4.05197521,-2.75616791,,,
imu,146.878026,-0.080750628,-9.5489112992,2.6324704728,-0.68776825,4.29123633,-2.53186061,,,
imu,146.886497,-0.05562821040000001,-9.527377798400002,2.6264889448,-0.63542988,4.35852852,-2.27016876,,,
imu,146.894969,-0.0406743904,-9.519601812000001,2.6390501536,-0.32887657,4.28375942,-2.26269185,,,
imu,146.90344,-0.04007623760000001,-9.5429297712,2.6336667784,-0.23915365,4.23889796,-2.41223005,,,
imu,146.911911,-0.0275150288,-9.547714993600001,2.634264931200001,-0.11204618,3.93982156,-2.68139881,,,
imu,146.920382,-0.03349655680000001,-9.519003659200001,2.6282834032,-0.02232326000000001,3.95477538,-2.87579847,,,
imu,146.928853,-0.03947808480000001,-9.4980683112,2.627685250400001,0.08235347999999998,3.78280645,-3.0477674,,,
imu,146.937324,-0.04785222400000001,-9.4735440464,2.6187129584,0.08235347999999998,3.64822207,-3.07767504,,,
imu,146.945796,-0.0370854736,-9.5040498392,2.6043572912,0.29918387,3.50616078,-3.06272122,,,
imu,146.954267,-0.0293094872,-9.529770409600001,2.613329583200001,0.49358353,3.54354533,-2.79355246,,,
imu,146.962738,-0.0317020984,-9.545322382400002,2.624694486400001,0.56835263,3.61083752,-2.68139881,,,
imu,146.971209,-0.0251224176,-9.541135312800002,2.6121332776,0.70293701,3.54354533,-2.4496146,,,
imu,146.97968,-0.03289840400000001,-9.543527924000001,2.6061517496,0.65059864,3.38653022,-2.34493786,,,
imu,146.988151,-0.0263187232,-9.5381445488,2.6211055696,0.70293701,3.38653022,-2.30755331,,,
imu,146.996623,-0.0305057928,-9.5566872856,2.6193111112,0.7702292,3.4463455,-2.15801511,,,
imu,147.005094,-0.023926112,-9.553098368800002,2.6211055696,0.50853735,3.46129932,-2.35241477,,,
imu,147.013565,-0.0293094872,-9.562070660800002,2.610936972000001,0.28423005,3.55102224,-2.51690679,,,
imu,147.022036,-0.04187069600000001,-9.553696521600001,2.6055535968,0.33656842,3.49868387,-2.74121409,,,
imu,147.030507,-0.0382817792,-9.555490980000002,2.6294797088,0.1720764,3.51363769,-2.93561375,,,
imu,147.038978,-0.04845037680000001,-9.567454036,2.625890792,0.20946095,3.66317589,-3.03281358,,,
imu,147.04745,-0.04187069600000001,-9.554892827200002,2.625890792,0.08983038999999998,3.83514482,-3.20478251,,,
imu,147.055921,-0.04545961280000001,-9.5381445488,2.615124041600001,0.16459949,3.93234465,-3.30198234,,,
imu,147.064392,-0.04545961280000001,-9.534555632000002,2.6061517496,0.36647606,4.02954448,-3.33936689,,,
imu,147.072863,-0.0340947096,-9.537546396000002,2.6001702216,0.6954601,4.23142105,-3.39918217,,,
imu,147.081439,-0.026916876,-9.550705757600001,2.6031609856,0.78518302,4.14169813,-3.48142818,,,
imu,147.090014,-0.0197390424,-9.5704448,2.6097406664,0.88985976,4.09683667,-3.56367419,,,
imu,147.098589,-0.0191408896,-9.580613397600002,2.6001702216,0.9272443100000001,4.02206757,-3.55619728,,,
imu,147.107165,-0.0215335008,-9.5800152448,2.601366527200001,0.91229049,4.01459066,-3.51133582,,,
imu,147.11574,-0.0263187232,-9.585398620000001,2.5941886936,0.68050628,3.820191,-3.39170526,,,
imu,147.124316,-0.023926112,-9.5704448,2.5822256376,0.56835263,3.75289881,-3.24964397,,,
imu,147.132891,-0.0215335008,-9.564463272000001,2.5738514984,0.53096808,3.57345297,-3.11505959,,,
imu,147.141467,-0.0275150288,-9.5656595776,2.57205704,0.3739529699999999,3.62579134,-2.94309066,,,
imu,147.150042,-0.0053833752,-9.557883591200001,2.566673664800001,0.47862971,3.40148404,-2.70382954,,,
imu,147.158618,-0.008972292000000002,-9.5602762024,2.562486595200001,0.64312173,3.26689966,-2.50942988,,,
imu,147.167193,-0.002990764,-9.568650341600001,2.5594958312,0.56087572,3.05006927,-2.56176825,,,
imu,147.175768,-0.0143556672,-9.572239258400002,2.5588976784,0.6281679099999999,2.72108523,-2.45709151,,,
imu,147.184344,-0.0167482784,-9.5776226336,2.551121692,0.51601426,2.43696265,-2.63653735,,,
imu,147.192919,-0.03349655680000001,-9.590183842400002,2.548130928,0.68798319,2.27994754,-2.66644499,,,
imu,147.201495,-0.04725407120000001,-9.588987536800001,2.5403549416,0.78518302,2.15284007,-2.75616791,,,
imu,147.21007,-0.07118018320000001,-9.596763523200002,2.5577013728,0.63564482,1.91357895,-2.68139881,,,
imu,147.218646,-0.07955432240000002,-9.596763523200002,2.5594958312,0.51601426,2.01825569,-2.71130645,,,
imu,147.227221,-0.101685976,-9.596763523200002,2.562486595200001,0.35899915,2.07807097,-2.6739219,,,
imu,147.235797,-0.110658268,-9.596165370400001,2.566673664800001,0.17955331,2.24256299,-2.59167589,,,
imu,147.244372,-0.1160416432,-9.581809703200001,2.5493272336,0.0001074699999999984,2.43696265,-2.33746095,,,
imu,147.252947,-0.1124527264,-9.541733465600002,2.563084748,-0.2017691,2.70613141,-2.0757691,,,
imu,147.261523,-0.1100601152,-9.536350090400001,2.569066276,-0.24663056,3.1472691,-1.97856927,,,
imu,147.270098,-0.10467674,-9.554892827200002,2.5577013728,-0.18681528,3.34914567,-2.0757691,,,
imu,147.278674,-0.11963056,-9.6009505928,2.5726551928,-0.19429219,3.53606842,-2.21783039,,,
imu,147.287158,-0.09510629520000001,-9.639232372,2.5846182488,-0.26158438,3.70803735,-2.41223005,,,
imu,147.295641,-0.0813487808,-9.630260080000001,2.5828237904,-0.51579932,3.92486774,-2.49447606,,,
imu,147.304125,-0.0735727944,-9.6015487456,2.5696644288,-0.68029134,4.23142105,-2.64401426,,,
imu,147.312609,-0.03947808480000001,-9.577024480800002,2.5798330264,-0.65786061,4.51554363,-2.49447606,,,
imu,147.321093,-0.0167482784,-9.571042952800001,2.575047804,-0.39616876,4.739850929999999,-2.23278421,,,
imu,147.329577,0.002990764,-9.583006008800002,2.563084748,-0.58309151,4.70246638,-2.23278421,,,
imu,147.338061,0.0257205704,-9.5740337168,2.555308761600001,-0.56066078,4.68751256,-2.38979932,,,
imu,147.346545,0.04366515440000001,-9.580613397600002,2.5565050672,-0.48589168,4.57535891,-2.65149117,,,
imu,147.355029,0.06160973840000001,-9.575230022400001,2.5565050672,-0.49336859,4.32862088,-2.95804448,,,
imu,147.363513,0.06101158560000001,-9.5698466472,2.5535143032,-0.5980453299999999,4.05945212,-3.27955161,,,
imu,146.049161,,,,,,,-93.153154,163.997598,119.2216336
imu,146.156979,,,,,,,-93.4461268,164.0220124,118.9164536
imu,146.252225,,,,,,,-93.0066676,163.8511116,118.879832
imu,146.353818,,,,,,,-93.763514,163.6191748,118.6723096
imu,146.45538,,,,,,,-93.45833400000001,163.9853908,118.7333456
imu,146.556912,,,,,,,-93.61702760000001,164.1440844,119.1117688
imu,146.658505,,,,,,,-90.69950680000001,162.837914,117.0853736
imu,146.760068,,,,,,,-93.51937000000001,163.997598,118.6112736
imu,147.37194,0.0562263632,-9.5501076048,2.5588976784,-0.6503837,3.60336061,-3.6459202,,,
imu,147.380424,0.0442633072,-9.5393408544,2.5337752608,-0.6279529699999999,3.09493073,-3.99733497,,,
imu,147.388908,0.04366515440000001,-9.523190728800001,2.5337752608,-0.6279529699999999,2.94539253,-4.0945348,,,
imu,147.397392,0.026916876,-9.493283088800002,2.529588191200001,-0.5307531400000001,2.57902394,-3.98238115,,,
imu,147.405876,0.017944584,-9.481320032800001,2.5283918856,-0.41859949,2.22760917,-3.89265823,,,
imu,147.41436,0.003588916800000001,-9.482516338400002,2.5355697192,-0.14195382,1.96591732,-3.77302767,,,
imu,147.422843,-0.03110394560000001,-9.5040498392,2.5355697192,0.11226112,1.7266562,-3.75807385,,,
imu,147.431327,-0.0532355992,-9.5393408544,2.548729080800001,0.14964567,1.69674856,-3.54872037,,,
imu,147.439811,-0.08194693360000001,-9.5698466472,2.5726551928,0.27675314,1.62945637,-3.39918217,,,
imu,147.448295,-0.09390998960000001,-9.593772759200002,2.5828237904,0.13469185,1.5023489,-3.30945925,,,
imu,147.456779,-0.1154434904,-9.6248767048,2.5965813048,-0.15690764,1.50982581,-3.27955161,,,
imu,147.465263,-0.1214250184,-9.6326526912,2.5917960824,-0.22419983,1.577118,-3.27955161,,,
imu,147.473747,-0.1262102408,-9.611119190400002,2.5846182488,-0.35878421,1.73413311,-3.21225942,,,
imu,147.482231,-0.137575144,-9.562070660800002,2.5768422624,-0.65786061,2.1752708,-3.24216706,,,
imu,147.490608,-0.1381732968,-9.5501076048,2.595983152,-0.9494601,2.33976282,-3.18982869,,,
imu,147.498985,-0.1483418944,-9.585398620000001,2.619909264,-0.98684465,2.46687029,-3.30198234,,,
imu,147.507362,-0.1333880744,-9.604539509600002,2.6091425136,-0.9494601,2.76594669,-3.39170526,,,
imu,147.515739,-0.1190324072,-9.575230022400001,2.5941886936,-0.91955246,3.03511545,-3.37675144,,,
imu,147.524116,-0.11963056,-9.546518688,2.5935905408,-0.85973718,3.2220382,-3.55619728,,,
imu,147.532493,-0.1034804344,-9.553696521600001,2.60196468,-0.65786061,3.3715764,-3.47395127,,,
imu,147.54087,-0.09929336480000002,-9.571641105600001,2.607946208,-0.34383039,3.61831443,-3.31693616,,,
imu,147.549247,-0.07716171120000001,-9.5842023144,2.6193111112,-0.44850713,3.5958837,-3.13001341,,,
imu,147.557624,-0.0634041968,-9.592576453600001,2.6234981808,-0.52327623,3.6706528,-3.0477674,,,
imu,147.566001,-0.04486146000000001,-9.593772759200002,2.6270870976,-0.58309151,3.62579134,-2.90570611,,,
imu,147.574378,-0.0281131816,-9.574631869600001,2.624694486400001,-0.77749117,3.43886859,-2.89075229,,,
imu,147.582756,-0.007775986400000001,-9.553696521600001,2.6306760144,-1.03918302,3.19960747,-2.80850628,,,
imu,147.591133,-0.0131593616,-9.530966715200002,2.620507416800001,-1.12142903,2.96034635,-2.65149117,,,
imu,147.59951,-0.0263187232,-9.516012895200001,2.6061517496,-1.14385976,2.81828506,-2.62906044,,,
imu,147.607887,-0.0430670016,-9.4962738528,2.6157221944,-1.22610577,2.60893158,-2.64401426,,,
imu,147.616264,-0.04366515440000001,-9.4753385048,2.6091425136,-1.13638285,2.41453192,-2.5991528,,,
imu,147.624641,-0.06041343280000001,-9.464571754400001,2.6103388192,-0.8522602699999999,2.42200883,-2.47204533,,,
imu,147.633018,-0.0675912664,-9.4633754488,2.592992388,-0.74758353,2.38462428,-2.44213769,,,
imu,147.641395,-0.0861340032,-9.4490197816,2.585814554400001,-0.35878421,2.30985518,-2.41970696,,,
imu,146.861813,,,,,,,-90.51639879999999,163.3994452,116.4628064
imu,146.963162,,,,,,,-93.43391960000001,164.2295348,119.1728048
imu,147.064725,,,,,,,-93.49495560000001,163.6802108,115.8158248
imu,147.166318,,,,,,,-93.0799108,163.9731836,118.7699672
imu,147.26785,,,,,,,-92.70148760000001,164.0952556,118.6112736
imu,147.369443,,,,,,,-92.8357668,163.9487692,118.1718144
imu,147.471036,,,,,,,-92.89680280000002,164.180706,119.001904
imu,147.572537,,,,,,,-92.89680280000002,163.8389044,118.513616
