Type,Timestamp,Data Accelerometer X,Data Accelerometer Y,Data Accelerometer Z,Data Gyroscope X,Data Gyroscope Y,Data Gyroscope Z,Data Magnetometer X,Data Magnetometer Y,Data Magnetometer Z
imu,336.880805,0.4593813504000001,-10.0854543608,0.385808556,7.15551034,-1.30149235,-0.8719865899999999,,,
imu,336.889271,0.3822196392,-9.993936982400001,0.4528016696000001,6.14612749,-2.22115228,-0.6925407499999998,,,
imu,336.897737,0.3780325696000001,-9.873708269600002,0.3068523864000001,5.27132902,-2.95388946,-0.4831872699999999,,,
imu,336.906203,0.5347486032000001,-9.8563618384,0.3026653168,5.09188318,-4.29973326,-0.1018648599999998,,,
imu,336.914669,0.4839056152000001,-10.0023111216,0.3804251808,4.964775710000001,-5.03994735,0.02524261000000028,,,
imu,336.923135,0.3373581792000001,-9.901821451200002,0.5849934384000001,3.99277741,-6.02689947,-0.2214954199999999,,,
imu,336.931601,0.3068523864000001,-9.780396432800002,0.5467116592000001,3.3123786,-6.51289862,-0.46075654,,,
imu,336.940067,0.2727576768,-9.8479876992,0.3194135952000001,3.45443989,-6.86431339,-0.17663396,,,
imu,336.948533,0.236270356,-9.768433376800001,0.4043512928,3.46939371,-7.16338979,0.2345960900000001,,,
imu,336.956999,0.080750628,-9.561472508000001,0.4103328208,3.02077911,-7.42508164,-0.04204958000000003,,,
imu,336.965466,-0.10467674,-9.5154147424,0.3421434016,3.5366859,-7.783973319999999,-0.8196482199999999,,,
imu,336.973932,-0.09690075360000001,-9.433467808800001,0.3068523864000001,4.26942308,-7.656865849999999,-1.68696978,,,
imu,336.982398,-0.1040785872,-9.4621791432,0.3547046104000001,5.46572868,-6.39326806,-1.49257012,,,
imu,336.990864,-0.08314323920000001,-9.5865949256,0.4611758088,6.39286552,-5.167054820000001,-0.77478676,,,
imu,336.99933,0.008972292000000002,-9.7702278352,0.505439116,6.98354141,-4.0305645,-0.4981410899999998,,,
imu,337.007796,0.08194693360000001,-9.8043225448,0.4402404608,6.7517572,-2.97632019,-0.90937114,,,
imu,337.016262,0.1543234224,-9.794752100000002,0.4599795032,6.31809642,-2.12395245,-0.9243249599999999,,,
imu,337.024728,0.05981528000000001,-9.7714241408,0.3941826952,5.62274379,-1.87721442,-1.12620153,,,
imu,337.033194,-0.06519865520000001,-9.76484446,0.3547046104000001,5.56292851,-1.35383072,-1.71687742,,,
imu,337.04166,-0.1070693512,-9.780396432800002,0.2769447464000001,5.86948182,-0.4790322499999999,-2.59167589,,,
imu,337.050126,-0.1567160336,-9.806715156000001,0.3128339144,5.6302207,0.2836125699999998,-3.78050458,,,
imu,337.058582,-0.0275150288,-9.837819101600003,0.2195220776,5.39095958,1.36028761,-4.37865738,,,
imu,337.067038,0.1064711984,-9.8946436176,0.2667761488000001,5.04702172,2.59397776,-4.49081103,,,
imu,337.075494,0.1752587704,-9.976590551200001,0.3397507904000001,4.78532987,3.43886859,-4.430995749999999,,,
imu,337.08395,0.20935348,-10.06392086,0.3666676664,4.05259269,3.75289881,-4.47585721,,,
imu,337.092406,0.2165313136,-10.0387984424,0.331974804,2.84133327,4.17908268,-4.34874974,,,
imu,337.100862,0.2410555784,-9.8563618384,0.3259932760000001,1.70484295,4.61274346,-4.26650373,,,
imu,337.109318,0.191408896,-9.685290137600001,0.3642750552,0.8973366700000001,5.001542779999999,-4.40108811,,,
imu,337.117774,0.1142471848,-9.6051376624,0.323002512,0.94219813,5.0164966,-5.09644074,,,
imu,337.12623,0.04605776560000001,-9.709216249600003,0.361882444,1.40576655,4.762281659999999,-6.315177069999999,,,
imu,337.134686,-0.0340947096,-10.1422788768,0.6316493568000001,1.45062801,4.22394414,-7.8329898,,,
imu,337.143141,-0.06101158560000001,-10.6327641728,0.6149010784000001,0.7104139199999999,3.67812971,-8.57320389,,,
imu,337.151597,0.0263187232,-10.7452168992,0.2219146888,-1.20367504,3.96225229,-9.04424922,,,
imu,337.160053,-0.128602852,-10.5370597248,-0.0155519728,-3.81311663,4.38095925,-8.9545263,,,
imu,337.168509,-0.3822196392,-10.3725677048,-0.03349655680000001,-6.27302002,5.330526819999999,-8.939572479999999,,,
imu,337.176965,-0.3726491944000001,-10.1440733352,0.0903210728,-7.970278589999999,7.20723123,-8.93209557,,,
imu,337.185421,-0.128602852,-10.8971477104,0.2607946208,-9.21144565,8.80728997,-8.8797572,,,
imu,337.193877,0.2518223288000001,-11.5963883336,0.4181088072000001,-12.21716347,9.83910355,-8.67040372,,,
imu,337.202333,0.3188154424,-11.2255335976,0.5514968816000001,-18.2211222,10.42977944,-7.96009727,,,
imu,337.210789,0.07058203040000001,-10.4060642616,0.6125084672000001,-23.8288047,10.18304141,-7.75074379,,,
imu,337.219245,-0.06101158560000001,-9.675121540000001,0.6800997336000001,-26.78218415,9.76433445,-8.0572971,,,
imu,337.227701,0.0430670016,-9.200786369600001,0.6932590952000001,-27.20836802,9.38301204,-7.6834516,,,
imu,337.236156,0.0490485296,-9.4729458936,0.5299633808,-25.43634035,8.88953598,-6.905852959999999,,,
imu,337.244612,0.2225128416,-9.786377960800001,0.3684621248000001,-23.71665105,8.1567988,-7.212406269999999,,,
imu,337.253068,0.2691687600000001,-9.8719138112,0.3188154424,-22.99886769,7.625938189999999,-7.930189629999999,,,
imu,337.261532,0.2356722032,-9.7283571392,0.3146283728000001,-22.20631523,6.97544702,-7.975051089999999,,,
imu,337.269995,0.1776513816,-9.5566872856,0.3983697648000001,-21.1371171,6.15298692,-7.44419048,,,
imu,337.278459,0.1632957144,-9.426289975200001,0.5191966304000001,-19.55201218,5.614649399999999,-7.00305279,,,
imu,337.286922,0.08792846160000001,-9.410139849600002,0.666940372,-18.16878383,5.1660348,-6.59182274,,,
imu,337.295386,0.0191408896,-9.6637566368,0.7686263480000001,-17.08463188,4.79966621,-6.090869769999999,,,
imu,337.30385,0.09929336480000002,-9.808509614400002,0.8601437264,-16.8005093,5.09874261,-5.477763149999999,,,
imu,337.312313,0.05742266880000001,-9.709216249600003,0.8607418792,-17.48838502,5.07631188,-4.92447181,,,
imu,337.320777,0.113649032,-9.810902225600001,0.8027210576,-17.75007687,5.0164966,-5.23102512,,,
imu,337.32924,0.1926052016,-10.090837736,0.7680281952000001,-17.80989215,4.92677368,-5.60487062,,,
imu,337.337704,0.4300718632,-10.4838241256,0.7004369288000002,-18.3706604,5.315573,-4.931948719999999,,,
imu,337.346167,0.367863972,-10.7631614832,0.4079402096,-19.91838077,5.046404239999999,-3.39170526,,,
imu,337.354631,0.2733558296,-10.2894244656,0.6214807592000001,-22.1838845,4.194036499999999,-3.04029049,,,
imu,337.363094,0.3086468448,-9.263592413600001,1.1209383472,-24.2774193,3.94729847,-4.670256869999999,,,
imu,337.371558,0.09390998960000001,-9.3317818328,0.9666149248000001,-22.93905241,2.87810034,-5.68711663,,,
imu,337.380021,0.0406743904,-9.672728928800002,0.8290397808000001,-20.81560997,2.08554788,-5.193640569999999,,,
imu,337.388485,0.1130508792,-9.685888290400001,1.2345873792,-20.50905666,2.78837742,-4.46090339,,,
imu,337.396949,0.2978800944000001,-9.502255380800001,1.3207213824,-20.74831778,3.47625314,-4.13191935,,,
imu,337.405412,0.2069608688,-9.4526086984,1.2178391008,-19.9408115,2.72856214,-3.93004278,,,
imu,337.413876,0.263187232,-9.3246039992,1.588095684,-19.18564359,2.21265535,-4.47585721,,,
imu,337.422339,0.2428500368,-9.222918023200002,1.6365460608,-18.32579894,2.22760917,-5.37308641,,,
imu,337.430803,0.1591086448,-9.3479319584,1.3811348152,-16.01543375,1.60702564,-4.63287232,,,
imu,337.439266,0.1537252696,-9.575230022400001,1.2579153384,-14.22845226,1.30047233,-3.7954584,,,
imu,337.44773,0.1782495344,-9.657176956,1.2908137424,-12.97233138,1.59207182,-3.60105874,,,
imu,337.456193,0.1363788384,-9.5172092008,1.2985897288,-11.92556398,1.69674856,-3.28702852,,,
imu,337.465008,0.1142471848,-9.5219944232,1.3392641192,-10.39279743,1.4275798,-3.11505959,,,
imu,337.474005,0.1327899216,-9.745105417600001,1.4941856944,-9.39089149,1.33037997,-3.35432071,,,
imu,337.48282,0.1292010048,-9.9514681336,1.5420379184,-9.3983684,1.4275798,-3.62348947,,,
imu,337.491634,0.1303973104,-9.9885536072,1.5617769608,-9.65258334,1.577118,-3.37675144,,,
imu,337.500448,0.1411640608,-9.894045464800001,1.6257793104,-10.27316687,1.94348659,-2.78607555,,,
imu,337.509263,0.1620994088,-9.8294449624,1.6700426176,-10.84888894,2.25751681,-1.94866163,,,
imu,337.518077,0.221316536,-9.800733628000001,1.6317608384,-11.08815006,2.55659321,-1.41780102,,,
imu,337.526891,0.2434481896,-9.808509614400002,1.5360563904,-10.93113495,2.6238854,-0.96918642,,,
imu,337.535705,0.245242648,-9.768433376800001,1.5025598336,-10.51242799,2.55659321,-0.91684805,,,
imu,337.54452,0.2069608688,-9.579417092000002,1.54024346,-10.2955976,2.58650085,-1.28321664,,,
imu,337.553334,0.1543234224,-9.4490197816,1.6024513512,-9.72735244,2.4743472,-1.74678506,,,
imu,337.562148,0.1603049504,-9.444832712,1.6879872016,-8.8002156,2.28742445,-2.56176825,,,
imu,337.570962,0.1979885768,-9.5638651192,1.7029410216,-7.74597129,2.30985518,-3.54124346,,,
imu,337.579777,0.137575144,-9.735534972800002,1.6814075208,-6.781449899999999,2.27994754,-4.408565019999999,,,
imu,337.588591,0.09570444800000001,-9.746899876,1.7071280912,-6.310404569999999,2.36219355,-4.8422258,,,
imu,337.597405,0.08733030880000002,-9.7427128064,1.7262689808,-6.19825092,2.73603905,-5.11139456,,,
imu,337.60622,0.0855358504,-9.883876867200001,1.6903798128,-5.86926688,3.11736146,-4.931948719999999,,,
imu,337.615034,0.07596540560000001,-9.945486605600001,1.6544906448,-5.719728679999999,3.46877623,-4.77493361,,,
imu,337.623848,0.1010878232,-9.833632032,1.788476872,-6.01880508,3.70803735,-4.90204108,,,
imu,337.632662,0.0562263632,-9.572239258400002,1.8584607496,-6.287973839999999,3.5211146,-5.71702427,,,
imu,337.641477,-0.0233279592,-9.8144911424,1.6993521048,-5.787020869999999,3.12483837,-6.59182274,,,
imu,337.650291,-0.017944584,-10.1045952504,1.7597655376,-5.87674379,3.00520781,-7.43671357,,,
imu,337.659105,-0.0161501256,-9.7714241408,1.9643337952,-7.304833599999999,3.1472691,-8.22926603,,,
imu,337.667584,-0.0681894192,-9.8850731728,1.7848879552,-8.299262630000001,3.10988455,-8.70778827,,,
imu,337.676063,-0.09390998960000001,-10.2062812264,1.7208856056,-8.822646330000001,2.72856214,-9.21621815,,,
imu,337.684542,-0.020935348,-9.423299211200002,2.3106642664,-10.86384276,3.10240764,-9.29098725,,,
imu,337.69302,-0.007177833600000002,-9.239666301600002,2.0014192688,-11.21525753,3.43139168,-9.14892596,,,
imu,337.701499,-0.08194693360000001,-10.4539164856,1.4588946792,-9.16658419,2.87062343,-8.55077316,,,
imu,337.709978,-0.0502448352,-10.2397777832,1.7184929944,-10.75916602,3.40896095,-7.780651429999999,,,
imu,337.718457,0.01495382,-8.9980125704,2.2029967624,-13.31626924,4.523020539999999,-6.80117622,,,
imu,337.726936,0.0562263632,-8.8209593416,2.225128416,-11.64891831,4.4931129,-5.38804023,,,
imu,337.735414,0.0215335008,-9.489096019200002,1.9756986984,-8.51609302,3.90243701,-4.37865738,,,
imu,337.743893,-0.02990764000000001,-9.796546558400001,1.8429087768,-7.31978742,3.75289881,-4.28893446,,,
imu,336.940048,,,,,,,81.287734,-35.19949160000002,120.8818128
imu,337.041642,,,,,,,84.00993960000001,-35.85868040000002,118.5014088
imu,337.752372,-0.0532355992,-9.694860582400002,1.9487818224,-7.469325619999999,3.93234465,-4.44594957,,,
imu,337.760851,-0.1130508792,-9.6954587352,2.089347730400001,-7.64877146,4.1192674,-4.43847266,,,
imu,337.76933,-0.263187232,-9.8749045752,2.132414732,-7.544094719999999,4.37348234,-4.37865738,,,
imu,337.777808,-0.1220231712,-9.966421953600003,2.2125672072,-8.26935499,4.82957385,-4.86465653,,,
imu,337.786287,-0.04964668240000001,-9.881484256,2.106694161600001,-9.11424582,5.40529592,-5.567486069999999,,,
imu,337.794766,0.0634041968,-9.779200127200001,2.2544379032,-9.94418283,6.09317164,-5.82170101,,,
imu,337.803245,0.1567160336,-9.613511801600001,2.3513386568,-10.40775125,5.8389567,-5.24597894,,,
imu,337.811724,0.2225128416,-9.579417092000002,2.286738154400001,-10.23578232,4.979112049999999,-4.47585721,,,
imu,337.820202,0.1920070488,-9.782789044000001,2.1210498288,-9.899321370000001,4.33609779,-4.30388828,,,
imu,337.828681,0.1082656568,-10.0154704832,2.0091952552,-9.90679828,3.6706528,-4.35622665,,,
imu,337.83716,-0.0011963056,-9.956851508800002,1.9942414352,-10.58719709,3.35662258,-4.11696553,,,
imu,337.845639,-0.04366515440000001,-9.810902225600001,2.0582437848,-11.40218028,3.34914567,-4.07210407,,,
imu,337.854118,0.0005981528000000001,-9.682299373600001,2.1377981072,-11.7162105,3.6706528,-4.169303899999999,,,
imu,337.862596,-0.007775986400000001,-9.7283571392,2.0420936592,-11.58162612,3.80523718,-4.23659609,,,
imu,337.871071,-0.011963056,-9.879689797600001,1.964931948,-11.39470337,3.85757555,-4.15435008,,,
imu,337.879546,-0.06041343280000001,-9.6912716656,2.0283361448,-12.20220965,4.246374869999999,-3.78050458,,,
imu,337.888021,-0.0227298064,-9.51062952,2.1605279136,-12.30688639,4.68751256,-3.01785976,,,
imu,337.896496,-0.0023926112,-9.6535880392,2.1198535232,-11.8657487,5.25575772,-2.35241477,,,
imu,337.904971,-0.004187069600000001,-9.681103068,2.1001144808,-11.77602578,5.79409524,-1.94118472,,,
imu,337.913446,-0.0005981528000000001,-9.623680399200001,2.1910337064,-12.10500982,6.02587945,-1.6271545,,,
imu,337.921921,0.0376836264,-9.611119190400002,2.2006041512,-12.18725583,6.467017139999999,-0.99909406,,,
imu,337.930396,0.08433954480000001,-9.4753385048,2.314851336,-12.19473274,6.93806247,-0.6476792899999999,,,
imu,337.938871,0.1034804344,-9.350324569600001,2.3411700592,-11.82836415,6.601601519999999,-0.4233719899999999,,,
imu,337.947346,0.1489400472,-9.2958926648,2.3459552816,-11.06571933,6.48197096,-0.60281783,,,
imu,337.955821,0.137575144,-9.360493167200001,2.3740684632,-10.25821305,5.97354108,-1.46266248,,,
imu,337.964296,0.1680809368,-9.437654878400002,2.3997890336,-9.308645480000001,5.67446468,-2.3000764,,,
imu,337.972771,0.1920070488,-9.385615584800002,2.45242648,-8.45627774,5.21089626,-2.80102937,,,
imu,337.981246,0.1519308112,-9.3246039992,2.4954934816,-7.64877146,4.74732784,-3.47395127,,,
imu,337.989721,0.1896144376,-9.3317818328,2.5923942352,-6.44498895,4.523020539999999,-3.95995042,,,
imu,337.998196,0.1812402984,-9.2486385936,2.566673664800001,-5.06923751,3.81271409,-4.453426479999999,,,
imu,338.006671,0.1758569232,-9.294696359200001,2.601366527200001,-3.57385551,3.09493073,-4.82727198,,,
imu,338.015146,0.1094619624,-9.346137500000001,2.566075512,-2.2953039,2.64631613,-5.328224949999999,,,
imu,338.023621,0.10467674,-9.427486280800002,2.5798330264,-0.8821679099999999,2.36967046,-5.500193879999999,,,
imu,338.032096,0.0933118368,-9.4944793944,2.595983152,0.21693786,2.16031698,-5.500193879999999,,,
imu,338.040571,0.1214250184,-9.5704448,2.658789196,1.06182869,1.75656384,-5.477763149999999,,,
imu,338.049046,0.080750628,-9.651195428000001,2.6534058208,1.5179202,1.56964109,-5.35813259,,,
imu,338.057521,0.0526374464,-9.676317845600002,2.634863084,1.53287402,1.4275798,-4.61044159,,,
imu,338.065996,0.08374139200000001,-9.722375611200002,2.7329601432,1.42819728,1.76404075,-3.51881273,,,
imu,338.074457,0.11963056,-9.656578803200002,2.7299693792,0.94967504,1.68927165,-2.53933752,,,
imu,338.082918,0.09869521200000002,-9.678112304,2.742530588,0.5459219,1.38271834,-1.88884635,,,
imu,338.091379,0.1010878232,-9.678112304,2.655798432,0.44124516,1.24813396,-1.33555501,,,
imu,338.09984,0.1441548248,-9.696056888000001,2.696472822400001,-0.2017691,1.19579559,-1.23835518,,,
imu,338.108301,0.1160416432,-9.578220786400001,2.6157221944,-0.52327623,0.9640113799999996,-0.9467556899999998,,,
imu,338.116762,0.09929336480000002,-9.520199964800002,2.6701540992,-0.80739881,0.7322271699999998,-0.60281783,,,
imu,338.125223,0.068787572,-9.474740352000001,2.634264931200001,-0.70272207,0.4256738599999998,-0.43832581,,,
imu,338.133684,0.0131593616,-9.504647992000002,2.5588976784,-0.61299915,0.4331507699999997,-0.28878761,,,
imu,338.142145,0.0065796808,-9.487899713600001,2.5194195936,-0.29149202,0.6873657099999999,-0.2813106999999999,,,
imu,338.150606,-0.07118018320000001,-9.464571754400001,2.4751562864,0.15712258,0.6574580699999997,-0.3336490699999999,,,
imu,338.159067,-0.06699311360000001,-9.486105255200002,2.4590061608,0.9870595899999999,0.9565344699999998,-0.29626452,,,
imu,338.167528,-0.07596540560000001,-9.516012895200001,2.4243132984,1.75718132,1.26308778,-0.37851053,,,
imu,338.175989,-0.08972292000000001,-9.5327611736,2.3932093528,2.32542648,1.56964109,-0.9243249599999999,,,
imu,338.18445,-0.07118018320000001,-9.612913648800001,2.4488375632,2.98339456,1.8761944,-1.50752394,,,
imu,338.192911,-0.05084298800000001,-9.552500216,2.429696673600001,3.25256332,1.89862513,-1.87389253,,,
imu,338.201372,-0.06699311360000001,-9.722973764,2.5421494,3.45443989,2.0257326,-2.20287657,,,
imu,338.209833,-0.0011963056,-9.5985579816,2.3722740048,3.21517877,2.1005017,-2.63653735,,,
imu,338.218294,-0.03110394560000001,-9.592576453600001,2.4518283272,3.05068675,2.20517844,-2.79355246,,,
imu,338.226755,0.0017944584,-9.669140012000002,2.462595077600001,3.23013259,2.53416248,-2.748691,,,
imu,338.235216,0.0113649032,-9.7163940832,2.4482394104,3.09554821,2.61640849,-2.68139881,,,
imu,338.243677,0.026916876,-9.703234721600001,2.4386689656,2.65441052,2.90053107,-2.53186061,,,
imu,338.252138,0.0370854736,-9.654186192000001,2.4536227856,2.32542648,3.13979219,-2.57672207,,,
imu,338.260599,0.06699311360000001,-9.6535880392,2.428500368,2.09364227,3.22951511,-2.33746095,,,
imu,338.26906,0.1184342544,-9.6667474008,2.469772911200001,1.90671952,3.30428421,-2.21783039,,,
imu,338.27752,0.1064711984,-9.638634219200002,2.45242648,1.97401171,3.21456129,-2.21035348,,,
imu,338.285979,0.1292010048,-9.6470083584,2.4476412576,2.01139626,3.10988455,-2.35241477,,,
imu,338.294439,0.1387714496,-9.655382497600002,2.4350800488,2.23570356,2.87062343,-2.50942988,,,
imu,338.302899,0.1686790896,-9.693066124000001,2.429696673600001,2.51234923,2.72108523,-2.46456842,,,
imu,338.311359,0.17944584,-9.713403319200001,2.416537312,2.44505704,2.4743472,-2.62906044,,,
imu,338.319818,0.1752587704,-9.696655040800001,2.4093594784,2.31047266,2.14536316,-2.95056757,,,
imu,338.328278,0.1722680064,-9.672728928800002,2.416537312,2.31047266,1.89862513,-3.06272122,,,
imu,338.336738,0.182436604,-9.704431027200002,2.434481896,2.14598064,1.68179474,-3.07767504,,,
imu,338.345198,0.1800439928,-9.782789044000001,2.4655858416,1.9665348,1.59207182,-2.65896808,,,
imu,338.353657,0.203371952,-9.8581562968,2.5200177464,1.55530475,1.62197946,-2.35989168,,,
imu,338.362117,0.2231109944,-9.984366537600001,2.5696644288,1.20388998,1.77151766,-1.93370781,,,
imu,338.370577,0.2374666616,-10.1039970976,2.595983152,0.94219813,1.75656384,-1.49257012,,,
imu,338.379036,0.2685706072,-10.1404844184,2.5917960824,0.67302937,1.89114822,-1.24583209,,,
imu,338.387496,0.2895059552,-10.1691957528,2.6061517496,0.25432241,1.84628676,-1.14863226,,,
imu,338.395956,0.3098431504,-10.2020941568,2.634264931200001,-0.04475399000000001,1.77899457,-1.1785399,,,
imu,338.404416,0.31403022,-10.192523712,2.6396483064,-0.16438455,1.7266562,-1.22340136,,,
imu,338.412875,0.3062542336,-10.1171564592,2.6031609856,-0.44850713,1.55468727,-1.47013939,,,
imu,338.421335,0.311039456,-10.0435836648,2.5864127072,-0.35878421,1.36028761,-1.52995467,,,
imu,338.429795,0.3008708584000001,-9.987357301600001,2.5864127072,-0.0522309,1.58459491,-1.59724686,,,
imu,338.438255,0.323002512,-9.963431189600001,2.5846182488,0.28423005,1.45748744,-1.84398489,,,
imu,338.446714,0.3062542336,-9.9131863544,2.578038568,0.46367589,1.10607267,-2.60662971,,,
imu,338.455174,0.242251884,-9.833632032,2.521214052,0.55339881,0.6873657099999999,-3.7954584,,,
imu,338.463634,0.2278962168,-9.766040765600001,2.4769507448,0.8524752099999999,0.4032431299999999,-4.59548777,,,
imu,338.472093,0.2147368552,-9.675121540000001,2.481137814400001,0.9571519499999999,0.1415512799999998,-5.32074804,,,
imu,338.480906,0.1357806856,-9.583604161600002,2.4637913832,0.9870595899999999,-0.2397711300000003,-6.360038530000001,,,
imu,338.489719,0.08972292000000001,-9.5219944232,2.4518283272,0.82256757,-0.5313706200000001,-7.339513739999999,,,
imu,338.498532,0.0305057928,-9.4765348104,2.4159391592,0.8524752099999999,-0.68090882,-7.840466709999999,,,
imu,338.507345,0.0191408896,-9.4322715032,2.3854333664,0.65807555,-0.5837089900000003,-8.07225092,,,
imu,338.516158,-0.007177833600000002,-9.3694654592,2.3758629216,0.08983038999999998,-0.5313706200000001,-8.19935839,,,
imu,338.524971,-0.0197390424,-9.301276040000001,2.398592728,-0.48589168,-0.4266938800000002,-8.07972783,,,
imu,338.533784,-0.04964668240000001,-9.287518525600001,2.4111539368,-0.78496808,-0.1051867500000001,-7.39185211,,,
imu,338.542597,-0.02990764000000001,-9.289312984,2.374666616,-1.38312088,0.2686587499999997,-6.621730379999999,,,
imu,338.55141,-0.03349655680000001,-9.2588071912,2.3644980184,-1.97379677,0.58268897,-5.75440882,,,
imu,338.560223,-0.0293094872,-9.228899551200001,2.3800499912,-2.60933412,0.8742884599999998,-4.87961035,,,
imu,337.143173,,,,,,,81.60512120000001,-35.45584280000001,121.4067224
imu,337.244736,,,,,,,83.36295799999999,-35.27273480000002,119.0141112
imu,337.346298,,,,,,,80.1158428,-34.2717444,120.7475336
imu,337.447861,,,,,,,79.50548280000001,-33.16088920000002,119.4169488
imu,337.549423,,,,,,,79.4810684,-32.62377240000001,120.0639304
imu,337.650986,,,,,,,79.1880956,-32.15989880000001,119.4413632
imu,337.752579,,,,,,,78.85850119999999,-32.09886280000001,119.2948768
imu,337.854111,,,,,,,79.10264520000001,-31.70823240000002,119.4047416
imu,338.568951,-0.0203371952,-9.212151272800002,2.3848352136,-3.13271782,0.9415806499999997,-3.97490424,,,
imu,338.577764,-0.005981528000000001,-9.219329106400002,2.389620436,-3.55890169,0.9341037399999998,-3.15244414,,,
imu,338.586577,0.0233279592,-9.249834899200001,2.3920130472,-3.97013174,0.7397040799999997,-2.69635263,,,
imu,338.59539,0.007775986400000001,-9.28632222,2.441061576800001,-4.515946169999999,0.5079198699999998,-2.61410662,,,
imu,338.604203,0.0203371952,-9.313239096000002,2.4685766056,-4.942130039999999,0.08173599999999981,-2.44213769,,,
imu,338.613016,0.026916876,-9.352717180800001,2.5140362184,-5.30849863,-0.007986920000000008,-1.91127708,,,
imu,338.621829,0.03588916800000001,-9.411934308000001,2.5421494,-5.84683615,-0.1799558500000003,-1.5523854,,,
imu,338.630642,0.0526374464,-9.4382530312,2.5618884424,-6.287973839999999,-0.31454023,-1.02152479,,,
imu,338.639455,0.07955432240000002,-9.481320032800001,2.6103388192,-6.781449899999999,-0.4416477000000003,-0.40094126,,,
imu,338.648268,0.110658268,-9.5249851872,2.638452000800001,-7.03566484,-0.4117400600000001,0.13739626,,,
imu,338.657081,0.1459492832,-9.541135312800002,2.6701540992,-7.24501832,-0.37435551,0.72807215,,,
imu,338.665894,0.1746606176,-9.5148165896,2.701856197600001,-7.536617809999999,-0.2472480400000001,1.48324006,,,
imu,338.674707,0.215335008,-9.498666464000001,2.7383435184,-7.828217299999999,-0.3220171400000003,1.93185466,,,
imu,338.683184,0.2578038568000001,-9.489694172,2.763465936,-7.93289404,-0.2696787700000001,2.19354651,,,
imu,338.691662,0.2966837888,-9.4669643656,2.7939717288,-7.88803258,-0.1949096699999999,2.54496128,,,
imu,338.700139,0.3038616224,-9.4322715032,2.7981587984,-7.43941798,-0.1425713000000002,2.91880678,,,
imu,338.708617,0.3295821928000001,-9.402363863200002,2.817897840800001,-6.84126518,-0.0005100100000001717,3.38985211,,,
imu,338.717094,0.3822196392,-9.356904250400001,2.764064088800001,-6.36274294,0.1191205499999999,4.01791255,,,
imu,338.725572,0.4665591840000001,-9.311444637600001,2.8328516608,-5.674867219999999,0.3509047599999997,3.80108216,,,
imu,338.734049,0.4103328208,-9.194804841600002,2.8119163128,-4.47856162,-0.1350943900000003,3.21788318,,,
imu,338.742527,0.4300718632,-9.244451524,2.853188856,-3.31964057,-0.43417079,2.37299235,,,
imu,338.751004,0.3911919312,-9.2929019008,2.825075674400001,-1.91398149,-0.4865091600000002,1.96923921,,,
imu,338.759482,0.415716196,-9.350324569600001,2.82627198,-0.74758353,-0.4790322499999999,1.83465483,,,
imu,338.767959,0.4031549872,-9.3317818328,2.8394313416,0.44124516,-0.23229422,1.50567079,,,
imu,338.776437,0.4210995712,-9.382026668000002,2.8609648424,1.57025857,-0.07527911000000032,1.03462546,,,
imu,338.784914,0.4001642232,-9.443636406400001,2.8675445232,2.70674889,0.41819695,0.6906876,,,
imu,338.793392,0.4408386136,-9.468160671200001,2.8747223568,3.51425517,0.6948426199999997,0.3467497399999999,,,
imu,338.801869,0.4468201416000001,-9.526181492800001,2.8789094264,4.516161110000001,0.78456554,0.3317959200000002,,,
imu,338.810347,0.451605364,-9.5812115504,2.8783112736,5.09188318,1.0537343,-0.2289723299999999,,,
imu,338.818825,0.4474182944000001,-9.651793580800001,2.8854891072,5.72742053,1.24813396,-0.8346020399999998,,,
imu,338.827302,0.4318663216,-9.676915998400002,2.874124204,5.96668165,1.49487199,-1.44770866,,,
imu,338.83578,0.4390441552000001,-9.6817012208,2.8507962448,6.08631221,1.5023489,-2.18792275,,,
imu,338.844257,0.4276792520000001,-9.6703363176,2.8478054808,6.03397384,1.45001053,-3.03281358,,,
imu,338.852735,0.4264829464000001,-9.663158484000002,2.8424221056,5.80966654,1.22570323,-3.90013514,,,
imu,338.861212,0.4049494456000001,-9.612913648800001,2.814308924,5.44329795,0.8593346399999997,-4.81231816,,,
imu,338.86969,0.3774344168000001,-9.551902063200002,2.7646622416,5.45077486,0.5527813299999997,-5.56000916,,,
imu,338.878167,0.3463304712,-9.5154147424,2.7257823096,5.38348267,0.3658585799999998,-6.292746339999999,,,
imu,338.886626,0.3128339144,-9.478329268800001,2.6958746696,5.36852885,0.006966899999999665,-6.726407119999999,,,
imu,338.895084,0.2757484408,-9.453206851200001,2.6534058208,5.31619048,-0.45660152,-7.249790819999999,,,
imu,338.903543,0.248233412,-9.435860420000001,2.6163203472,5.35357503,-0.7781086500000001,-7.50400576,,,
imu,338.912001,0.2225128416,-9.422102905600001,2.5888053184,5.39843649,-0.9351237599999997,-7.586251770000001,,,
imu,338.920459,0.20935348,-9.4077472384,2.5894034712,5.29375975,-1.16690797,-7.601205589999999,,,
imu,338.928918,0.173464312,-9.417915836,2.5672718176,5.37600576,-1.34635381,-7.317083009999999,,,
imu,338.937376,0.1573141864,-9.432869656000001,2.5696644288,5.3311443,-1.59309184,-7.145114079999999,,,
imu,338.945835,0.122621324,-9.443636406400001,2.539158636000001,5.34609812,-1.60804566,-7.04791425,,,
imu,338.954293,0.1034804344,-9.461580990400002,2.520615899200001,5.3311443,-1.58561493,-6.80117622,,,
imu,338.962752,0.08972292000000001,-9.485507102400002,2.5325789552,5.06945245,-1.54075347,-6.61425347,,,
imu,338.97121,0.07955432240000002,-9.531564868,2.5325789552,4.8077606,-1.34635381,-6.046008309999999,,,
imu,338.979669,0.06220789120000001,-9.588987536800001,2.5493272336,4.44886892,-1.09213887,-5.37308641,,,
imu,338.988127,0.07775986400000001,-9.657176956,2.5565050672,4.12736179,-0.59866281,-4.80484125,,,
imu,338.996586,0.08433954480000001,-9.701440263200002,2.5684681232,3.77594702,-0.1650020300000001,-4.25154991,,,
imu,339.005044,0.1082656568,-9.727160833600001,2.5828237904,3.26751714,0.2686587499999997,-3.77302767,,,
imu,339.013502,0.1262102408,-9.744507264800001,2.58701086,2.5646876,0.58268897,-3.41413599,,,
imu,339.021961,0.1483418944,-9.760059237600002,2.6073480552,2.16841137,1.04625739,-3.32441307,,,
imu,339.030419,0.1716698536,-9.7959484056,2.6252926392,1.69736604,1.26308778,-3.33936689,,,
imu,339.038878,0.1848292152,-9.8013317808,2.6330686256,1.40576655,1.39019525,-3.5711511,,,
imu,339.047336,0.188418132,-9.800135475200001,2.6336667784,0.97210577,1.53225654,-4.012288789999999,,,
imu,339.055795,0.191408896,-9.7702278352,2.637853848,0.56835263,1.73413311,-4.41604193,,,
imu,339.064253,0.191408896,-9.748096181600001,2.6444335288,0.38142988,1.88367131,-4.96185636,,,
imu,339.072712,0.203371952,-9.715795930400002,2.659387348800001,0.35152224,1.98834805,-5.193640569999999,,,
imu,339.08117,0.1890162848,-9.696056888000001,2.613329583200001,0.14216876,2.04816333,-5.57496298,,,
imu,339.089639,0.242251884,-9.672728928800002,2.6952765168,0.02253820000000001,2.37714737,-5.612347529999999,,,
imu,339.098107,0.2266999112,-9.597361676,2.6665651824,0.30666078,2.35471664,-5.739455,,,
imu,339.106576,0.2446444952,-9.596165370400001,2.689893141600001,0.41881443,2.28742445,-6.30022325,,,
imu,339.115045,0.2147368552,-9.5704448,2.655200279200001,0.64312173,2.23508608,-6.47219218,,,
imu,339.123513,0.2356722032,-9.533359326400001,2.668957793600001,0.9646288599999999,2.16779389,-6.49462291,,,
imu,339.131982,0.2141387024,-9.4962738528,2.671350404800001,1.23379762,1.9509635,-6.442284539999999,,,
imu,339.140451,0.2195220776,-9.4831144912,2.6695559464,1.63007385,1.80890221,-6.36751544,,,
imu,339.148919,0.1997830352,-9.496872005600002,2.6402464592,2.05625772,1.56216418,-6.203023419999999,,,
imu,339.157388,0.1997830352,-9.4980683112,2.6223018752,2.33290339,1.36028761,-5.79179337,,,
imu,339.165856,0.17944584,-9.482516338400002,2.597179457600001,2.57964142,1.18831868,-5.38804023,,,
imu,339.174325,0.1740624648,-9.491488630400001,2.564879206400001,2.98339456,1.11354958,-4.93942563,,,
imu,339.182794,0.1818384512,-9.501657228000001,2.597179457600001,3.34228624,1.15093413,-4.4683803,,,
imu,339.191262,0.17944584,-9.471151435200001,2.5594958312,3.59650118,0.9714882899999999,-4.13191935,,,
imu,339.199731,0.176455076,-9.502255380800001,2.5636829008,3.88810067,0.9041961000000001,-3.84779677,,,
imu,339.2082,0.1417622136,-9.5184055064,2.539158636000001,4.17970016,0.9415806499999997,-3.48142818,,,
imu,339.216668,0.1483418944,-9.530368562400001,2.5176251352,4.40400746,1.11354958,-3.11505959,,,
imu,339.225137,0.146547436,-9.535153784800002,2.52719558,4.65074549,1.39019525,-2.80850628,,,
imu,339.233605,0.1692772424,-9.505246144800001,2.524204816,4.81523751,1.30047233,-2.83841392,,,
imu,339.242074,0.1453511304,-9.533359326400001,2.5176251352,4.8077606,1.22570323,-3.15244414,,,
imu,339.250543,0.1423603664,-9.571042952800001,2.4817359672,5.1816061,1.51730272,-3.37675144,,,
imu,339.259011,0.1303973104,-9.593772759200002,2.473361828,5.33862121,1.59207182,-3.30198234,,,
imu,339.26748,0.1429585192,-9.623082246400001,2.4721655224,5.21151374,1.79394839,-3.25712088,,,
imu,339.275949,0.1716698536,-9.638036066400002,2.4847267312,5.01711408,1.86124058,-3.48142818,,,
imu,339.284417,0.1746606176,-9.652989886400002,2.4578098552,4.86009897,1.84628676,-3.60853565,,,
imu,339.293237,0.191408896,-9.6745233872,2.4769507448,4.71803768,1.95844041,-3.89265823,,,
imu,339.302056,0.1842310624,-9.720581152800001,2.455417244,4.5834533,2.13788625,-4.13191935,,,
imu,339.310876,0.1920070488,-9.748096181600001,2.4512301744,4.14231561,2.09302479,-4.341272829999999,,,
imu,339.319696,0.2117460912,-9.759461084800002,2.4590061608,3.97782359,2.1752708,-4.29641137,,,
imu,339.328515,0.2177276192,-9.775611210400001,2.4679784528,3.40210152,2.24256299,-4.43847266,,,
imu,339.337335,0.2446444952,-9.775611210400001,2.491306412,2.91610237,2.2500399,-4.35622665,,,
imu,339.346154,0.260196468,-9.788172419200002,2.494895328800001,2.29551884,2.1005017,-4.37865738,,,
imu,339.354974,0.2703650656,-9.776209363200001,2.499082398400001,1.86185806,1.94348659,-4.50576485,,,
imu,339.363793,0.2685706072,-9.769031529600001,2.497287940000001,1.27865908,1.90610204,-4.66277996,,,
imu,339.372613,0.266177996,-9.730749750400001,2.4919045648,0.78518302,1.75656384,-4.79736434,,,
imu,339.381433,0.23926112,-9.688879054400001,2.4799415088,0.41881443,1.66684092,-4.85717962,,,
imu,337.955602,,,,,,,78.5899428,-31.1467012,117.2806888
imu,338.057317,,,,,,,78.4678708,-30.86593560000001,117.6957336
imu,338.158727,,,,,,,80.75061720000001,-31.80589000000001,116.255284
imu,338.26032,,,,,,,78.9927804,-31.07345800000001,117.903256
imu,338.361852,,,,,,,81.3365628,-31.9035476,115.8402392
imu,338.463415,,,,,,,78.724222,-31.12228680000002,117.7323552
imu,338.565008,,,,,,,78.4678708,-31.28098040000003,117.109788
imu,338.666601,,,,,,,79.02940199999999,-31.31760200000002,119.0995616
imu,339.390252,0.2428500368,-9.647606511200001,2.5158306768,0.03749201999999999,1.42010289,-4.82727198,,,
imu,339.399072,0.2141387024,-9.612913648800001,2.4996805512,-0.11204618,1.2032725,-4.92447181,,,
imu,339.407891,0.212344244,-9.583604161600002,2.4960916344,-0.20924601,0.9041961000000001,-5.26840967,,,
imu,339.416711,0.167482784,-9.541733465600002,2.4619969248,-0.04475399000000001,0.80699627,-5.57496298,,,
imu,339.42553,0.140565908,-9.530966715200002,2.4757544392,0.13469185,0.76213481,-5.77683955,,,
imu,339.43435,0.1292010048,-9.529770409600001,2.494297176,0.57582954,0.8518577299999999,-5.57496298,,,
imu,339.44317,0.1250139352,-9.527975951200002,2.4829322728,1.0693056,0.9714882899999999,-5.477763149999999,,,
imu,339.451989,0.1172379488,-9.4962738528,2.5104473016,1.43567419,0.9341037399999998,-5.41047096,,,
imu,339.460809,0.0903210728,-9.519601812000001,2.4889138008,1.91419643,0.9565344699999998,-5.29831731,,,
imu,339.469628,0.08433954480000001,-9.547714993600001,2.473959980800001,2.2656112,1.0537343,-4.999240909999999,,,
imu,339.478448,0.09570444800000001,-9.547116840800001,2.4721655224,2.60954906,1.06868812,-4.5431494,,,
imu,339.487268,0.107667504,-9.587193078400002,2.4799415088,2.91610237,1.10607267,-4.44594957,,,
imu,339.495798,0.113649032,-9.632054538400002,2.4727636752,3.10302512,1.18831868,-4.53567249,,,
imu,339.504329,0.1148453376,-9.6775141512,2.4745581336,3.32733242,1.17336486,-4.3936112,,,
imu,339.51286,0.11963056,-9.706225485600001,2.4769507448,3.29742478,1.03878048,-4.408565019999999,,,
imu,339.521391,0.1118545736,-9.708019944000002,2.460202466400001,3.03573293,0.98644211,-4.453426479999999,,,
imu,339.529922,0.1297991576,-9.725964528,2.4901101064,2.73665653,0.8294269999999999,-4.52071867,,,
imu,339.538453,0.107667504,-9.7008421104,2.4566135496,2.60207215,0.70231953,-4.602964679999999,,,
imu,339.546984,0.09690075360000001,-9.703832874400002,2.4679784528,2.34785721,0.6724118899999998,-4.408565019999999,,,
imu,339.555515,0.0933118368,-9.684093832000002,2.4631932304,2.22822665,0.7322271699999998,-4.169303899999999,,,
imu,339.564046,0.08254508640000002,-9.6817012208,2.4691747584,1.87681188,0.72475026,-3.98238115,,,
imu,339.572577,0.07775986400000001,-9.6745233872,2.4667821472,1.57773548,0.8219500899999996,-3.55619728,,,
imu,339.581108,0.0735727944,-9.6709344704,2.4500338688,1.37585891,0.9116730099999999,-3.2720747,,,
imu,339.589639,0.080750628,-9.637437913600001,2.469772911200001,1.12912088,1.03130357,-3.03281358,,,
imu,339.59817,0.0562263632,-9.631456385600002,2.4596043136,1.09173633,1.14345722,-3.0477674,,,
imu,339.606701,0.06998387760000001,-9.6458120528,2.462595077600001,1.18893616,1.21074941,-2.91318302,,,
imu,339.615232,0.080750628,-9.632054538400002,2.4578098552,1.18893616,1.42010289,-2.83841392,,,
imu,339.623763,0.0933118368,-9.623680399200001,2.4608006192,1.07678251,1.41262598,-2.98795212,,,
imu,339.632293,0.08972292000000001,-9.614109954400002,2.4619969248,1.08425942,1.49487199,-3.07767504,,,
imu,339.640824,0.107667504,-9.6224840936,2.471567369600001,1.15902852,1.60702564,-3.03281358,,,
imu,339.649355,0.107667504,-9.623082246400001,2.4590061608,1.33847436,1.79394839,-3.17487487,,,
imu,339.657886,0.1232194768,-9.640428677600001,2.4566135496,1.41324346,1.67431783,-3.46647436,,,
imu,339.666347,0.1058730456,-9.640428677600001,2.462595077600001,1.41324346,1.77151766,-3.66087402,,,
imu,339.674878,0.1058730456,-9.634447149600001,2.4619969248,1.368382,1.90610204,-3.75059694,,,
imu,339.683409,0.1214250184,-9.6290637744,2.4572117024,1.41324346,1.83133294,-3.66087402,,,
imu,339.69194,0.10467674,-9.621287788000002,2.440463424,1.51044329,2.1005017,-3.51133582,,,
imu,339.700434,0.128602852,-9.6015487456,2.476352592,1.52539711,2.19770153,-3.44404363,,,
imu,339.708928,0.1250139352,-9.593174606400002,2.4542209384,1.65250458,1.92105586,-3.69078166,,,
imu,339.717422,0.1202287128,-9.5602762024,2.437472660000001,1.87681188,1.77151766,-4.0197657,,,
imu,339.725916,0.1118545736,-9.587193078400002,2.4338837432,2.2656112,1.76404075,-4.08705789,,,
imu,339.73441,0.1124527264,-9.568052188800001,2.4350800488,2.25813429,1.62945637,-3.95247351,,,
imu,339.742904,0.113649032,-9.5907819952,2.4518283272,2.19831901,1.69674856,-3.87770441,,,
imu,339.751398,0.1220231712,-9.610521037600002,2.4542209384,2.31047266,1.76404075,-3.59358183,,,
imu,339.759892,0.122621324,-9.632054538400002,2.450632021600001,2.22822665,1.8761944,-3.39170526,,,
imu,339.768386,0.131593616,-9.6434194416,2.45242648,2.05625772,1.86124058,-3.39918217,,,
imu,339.77688,0.140565908,-9.6505972752,2.4608006192,2.02635008,1.80890221,-3.54872037,,,
imu,339.785374,0.1333880744,-9.660765872800003,2.4488375632,2.05625772,1.83133294,-3.73564312,,,
imu,339.793868,0.11963056,-9.669738164800002,2.449435716,1.80204278,1.68927165,-3.99733497,,,
imu,339.802363,0.1178361016,-9.655382497600002,2.4530246328,1.69736604,1.71170238,-4.27398064,,,
imu,339.810857,0.1160416432,-9.658373261600001,2.4440523408,1.63007385,1.76404075,-4.5431494,,,
imu,339.819351,0.1064711984,-9.665551095200001,2.4356782016,1.51044329,1.54721036,-4.759979789999999,,,
imu,339.827845,0.09869521200000002,-9.639232372,2.437472660000001,1.2936129,1.49487199,-4.83474889,,,
imu,339.836339,0.08912476720000001,-9.639830524800002,2.4129483952,1.23379762,1.64441019,-4.58053395,,,
imu,339.844833,0.1232194768,-9.635045302400002,2.4482394104,1.18893616,1.79394839,-4.40108811,,,
imu,339.853327,0.09749890640000002,-9.616502565600001,2.4398652712,1.24127453,1.76404075,-4.146873169999999,,,
imu,339.861821,0.1118545736,-9.626671163200001,2.425509604,1.37585891,1.70422547,-4.19921154,,,
imu,339.870315,0.08912476720000001,-9.6159044128,2.4021816448,1.49548947,1.55468727,-4.11696553,,,
imu,339.878809,0.0980970592,-9.620689635200002,2.4320892848,1.53287402,1.50982581,-3.87770441,,,
imu,339.887303,0.110658268,-9.594370912,2.427304062400001,1.50296638,1.59207182,-3.6459202,,,
imu,339.895797,0.09211553120000002,-9.6159044128,2.410555784,1.5926893,1.58459491,-3.4216129,,,
imu,339.904172,0.09510629520000001,-9.6296619272,2.4039761032,1.89924261,1.78647148,-3.07019813,,,
imu,339.912546,0.1058730456,-9.620689635200002,2.4057705616,1.9665348,1.76404075,-2.92813684,,,
imu,339.920921,0.0903210728,-9.6224840936,2.40756502,2.02635008,1.75656384,-2.87579847,,,
imu,339.929295,0.09869521200000002,-9.620689635200002,2.4129483952,2.22822665,2.00330187,-2.70382954,,,
imu,339.93767,0.1148453376,-9.6703363176,2.3997890336,2.22822665,2.16779389,-2.58419898,,,
imu,339.946044,0.1238176296,-9.675719692800001,2.396798269600001,2.21327283,2.19022462,-2.63653735,,,
imu,339.954419,0.1333880744,-9.6745233872,2.3973964224,1.79456587,2.23508608,-2.80850628,,,
imu,339.962793,0.1393696024,-9.671532623200001,2.4081631728,1.58521239,2.27247063,-3.10758268,,,
imu,339.971168,0.1453511304,-9.669738164800002,2.395601964,1.46558183,2.45191647,-3.1973056,,,
imu,339.979543,0.1656883256,-9.6733270816,2.4027797976,1.34595127,2.40705501,-3.32441307,,,
imu,339.987917,0.167482784,-9.683495679200002,2.410555784,1.07678251,2.39210119,-3.54872037,,,
imu,339.996292,0.1848292152,-9.6709344704,2.414144700800001,0.9272443100000001,2.45939338,-3.51133582,,,
imu,340.004666,0.1932033544,-9.671532623200001,2.4021816448,0.73284465,2.33228591,-3.70573548,,,
imu,340.013041,0.1902125904,-9.6523917336,2.4051724088,0.45619898,2.12293243,-3.77302767,,,
imu,340.021415,0.19439966,-9.638036066400002,2.4111539368,0.43376825,2.01825569,-3.76555076,,,
imu,340.02979,0.1788476872,-9.618895176800002,2.4243132984,0.56087572,1.81637912,-3.80293531,,,
imu,340.038164,0.176455076,-9.630858232800001,2.4147428536,0.5459219,1.61450255,-3.88518132,,,
imu,340.046539,0.16449202,-9.619493329600001,2.4033779504,0.5010604399999999,1.33037997,-3.8702275,,,
imu,340.054913,0.1441548248,-9.618297024,2.4033779504,0.46367589,1.2780416,-3.89265823,,,
imu,340.063288,0.1321917688,-9.603343204000002,2.4219206872,0.8674290299999999,1.28551851,-3.6459202,,,
imu,340.071662,0.1148453376,-9.593174606400002,2.40756502,1.02444414,1.14345722,-3.63844329,,,
imu,340.080037,0.09151737840000002,-9.6075302736,2.398592728,1.09921324,1.15841104,-3.58610492,,,
imu,340.088411,0.09630260080000001,-9.592576453600001,2.4009853392,1.26370526,1.11354958,-3.67582784,,,
imu,340.096786,0.0741709472,-9.609324732000001,2.3950038112,1.51044329,1.23318014,-3.69825857,,,
imu,340.105252,0.08194693360000001,-9.61530626,2.389620436,1.71231986,1.39019525,-3.60853565,,,
imu,340.113718,0.08972292000000001,-9.631456385600002,2.3818444496,1.71231986,1.63693328,-3.63844329,,,
imu,340.122184,0.08433954480000001,-9.6290637744,2.3842370608,1.91419643,1.66684092,-3.69825857,,,
imu,340.13065,0.09211553120000002,-9.642223136000002,2.3932093528,2.10859609,1.85376367,-3.62348947,,,
imu,340.139116,0.101685976,-9.646410205600002,2.4039761032,2.07121154,2.01825569,-3.85527368,,,
imu,340.147582,0.110658268,-9.699645804800001,2.3950038112,1.87681188,2.0257326,-4.169303899999999,,,
imu,340.156049,0.1118545736,-9.711608860800002,2.386629672,1.58521239,1.92853277,-4.27398064,,,
imu,340.164515,0.1357806856,-9.6918698184,2.3944056584,1.36090509,1.99582496,-4.3936112,,,
imu,340.172981,0.1208268656,-9.676317845600002,2.4027797976,1.15155161,1.89114822,-4.5431494,,,
imu,340.181447,0.1118545736,-9.6775141512,2.3950038112,0.8674290299999999,1.89862513,-4.32631901,,,
imu,340.189913,0.128602852,-9.685888290400001,2.4087613256,0.74779847,1.76404075,-4.0197657,,,
imu,340.198379,0.1423603664,-9.697253193600002,2.3884241304,0.50853735,1.68927165,-3.93751969,,,
imu,338.768102,,,,,,,78.9927804,-30.68282760000001,118.7211384
imu,338.869665,,,,,,,78.91953720000001,-30.52413400000002,118.574652
imu,338.971258,,,,,,,79.3589964,-30.75607080000002,118.5380304
imu,339.07279,,,,,,,79.2857532,-30.68282760000001,118.6478952
imu,339.177587,,,,,,,81.34877,-31.63498920000001,117.5248328
imu,339.276006,,,,,,,79.4078252,-31.17111560000001,118.330508
imu,339.377508,,,,,,,81.714986,-32.09886280000001,116.133212
imu,339.47907,,,,,,,79.44444680000001,-31.13449400000001,119.3437056
imu,340.206845,0.1327899216,-9.667943706400001,2.3758629216,0.21693786,1.3528107,-4.0945348,,,
imu,340.215311,0.101685976,-9.657775108800001,2.401583492,0.19450713,1.23318014,-4.0197657,,,
imu,340.223777,0.09510629520000001,-9.656578803200002,2.396798269600001,-0.02980017,1.10607267,-3.92256587,,,
imu,340.232243,0.08015247520000002,-9.658373261600001,2.3914148944,-0.06718472,1.02382666,-3.75059694,,,
imu,340.240709,0.0861340032,-9.651195428000001,2.404574256,-0.08213854000000001,1.15841104,-3.47395127,,,
imu,340.249175,0.0753672528,-9.627269316000001,2.4189299232,-0.14195382,1.22570323,-3.42908981,,,
imu,340.257642,0.07118018320000001,-9.667345553600002,2.4147428536,0.04496892999999999,1.39767216,-3.17487487,,,
imu,340.266108,0.06460050240000001,-9.654186192000001,2.4093594784,0.08235347999999998,1.54721036,-2.71878336,,,
imu,340.274574,0.08254508640000002,-9.636241608,2.423715145600001,0.12721494,1.78647148,-2.60662971,,,
imu,340.28304,0.09690075360000001,-9.617100718400001,2.410555784,0.32909151,1.8761944,-2.56176825,,,
imu,340.291506,0.09630260080000001,-9.5985579816,2.40756502,0.34404533,1.95844041,-2.68887572,,,
imu,340.299972,0.1022841288,-9.595567217600001,2.3997890336,0.68798319,2.13040934,-2.81598319,,,
imu,340.308794,0.1034804344,-9.597959828800002,2.4021816448,0.71789083,2.10797861,-2.95056757,,,
imu,340.317616,0.1094619624,-9.611119190400002,2.4009853392,0.7552753799999999,2.03320951,-3.38422835,,,
imu,340.326439,0.1118545736,-9.6159044128,2.4033779504,1.05435178,2.10797861,-3.53376655,,,
imu,340.335261,0.110658268,-9.6075302736,2.395601964,1.04687487,2.13788625,-3.82536604,,,
imu,340.344083,0.09929336480000002,-9.618297024,2.3860315192,1.11416706,2.36967046,-3.78050458,,,
imu,340.352905,0.0980970592,-9.632054538400002,2.386629672,1.16650543,2.44443956,-3.66835093,,,
imu,340.361728,0.1268083936,-9.635045302400002,2.3950038112,1.03939796,2.46687029,-3.5711511,,,
imu,340.37055,0.1297991576,-9.638036066400002,2.389620436,0.97210577,2.44443956,-3.48142818,,,
imu,340.379372,0.1274065464,-9.6535880392,2.4081631728,0.9272443100000001,2.56407012,-3.33936689,,,
imu,340.388194,0.1429585192,-9.676317845600002,2.4057705616,0.64312173,2.58650085,-3.27955161,,,
imu,340.397017,0.1519308112,-9.6817012208,2.4279022152,0.5010604399999999,2.45191647,-3.21973633,,,
imu,340.405839,0.1567160336,-9.711608860800002,2.4051724088,0.36647606,2.33228591,-3.28702852,,,
imu,340.414661,0.1537252696,-9.7474980288,2.3950038112,-0.08961545,2.23508608,-3.38422835,,,
imu,340.423483,0.1597067976,-9.7283571392,2.42251884,-0.38121494,2.18274771,-3.46647436,,,
imu,340.432306,0.1483418944,-9.7122070136,2.431491132,-0.71767589,2.05564024,-3.57862801,,,
imu,340.441128,0.1495382,-9.70502918,2.443454188,-1.12142903,2.09302479,-3.69825857,,,
imu,340.44995,0.1321917688,-9.690075360000002,2.4422578824,-1.2485365,2.15284007,-3.61601256,,,
imu,340.458772,0.1172379488,-9.688280901600002,2.437472660000001,-1.48779762,1.86871749,-3.69078166,,,
imu,340.467594,0.1160416432,-9.664952942400001,2.447043104800001,-1.86912003,1.92105586,-3.69825857,,,
imu,340.476417,0.1088638096,-9.642223136000002,2.454819091200001,-1.88407385,2.08554788,-3.6459202,,,
imu,340.485239,0.1052748928,-9.6326526912,2.4518283272,-1.71210492,2.25751681,-3.56367419,,,
imu,340.494061,0.09450814240000002,-9.604539509600002,2.450632021600001,-1.65228964,2.36967046,-3.66087402,,,
imu,340.502883,0.08852661440000001,-9.574631869600001,2.461398772,-1.45041307,2.42200883,-3.66835093,,,
imu,340.511356,0.09211553120000002,-9.562070660800002,2.4667821472,-1.28592105,2.48930102,-3.95247351,,,
imu,340.519828,0.0723764888,-9.5357519376,2.454819091200001,-0.8672140899999999,2.64631613,-4.07210407,,,
imu,340.528301,0.07895616960000001,-9.5172092008,2.454819091200001,-0.76253735,2.74351596,-4.29641137,,,
imu,340.536773,0.092713684,-9.496872005600002,2.4566135496,-0.43355331,3.05754618,-4.22164227,,,
imu,340.545246,0.1040785872,-9.4974701584,2.4781470504,0.14216876,3.47625314,-3.99733497,,,
imu,340.553718,0.1411640608,-9.513022131200001,2.4721655224,0.53844499,3.53606842,-3.8702275,,,
imu,340.56219,0.1662864784,-9.541733465600002,2.476352592,1.00949032,3.76785263,-3.75059694,,,
imu,340.570663,0.197390424,-9.5602762024,2.4757544392,1.34595127,3.88000628,-3.5711511,,,
imu,340.579135,0.2368685088,-9.582407856000001,2.4859230368,1.53287402,3.75289881,-3.61601256,,,
imu,340.587608,0.251224176,-9.593174606400002,2.4907082592,1.67493531,3.55849915,-3.66835093,,,
imu,340.59608,0.2613927736,-9.614109954400002,2.4889138008,1.68988913,3.20708438,-3.7954584,,,
imu,340.604553,0.2536167872,-9.617698871200002,2.4960916344,1.64502767,2.75099287,-4.07210407,,,
imu,340.613025,0.2398592728,-9.620091482400001,2.479343356,1.50296638,2.23508608,-4.28145755,,,
imu,340.621498,0.212344244,-9.6087265792,2.4751562864,1.368382,1.97339423,-4.47585721,,,
imu,340.62997,0.1979885768,-9.597361676,2.4721655224,1.2188438,1.62945637,-4.52819558,,,
imu,340.638442,0.1836329096,-9.6009505928,2.4679784528,1.368382,1.2032725,-4.27398064,,,
imu,340.646915,0.1686790896,-9.6117173432,2.4649876888,1.38333582,1.27056469,-4.012288789999999,,,
imu,340.655387,0.1441548248,-9.600352440000002,2.4649876888,1.31604363,1.17336486,-3.98238115,,,
imu,340.66386,0.13458438,-9.602745051200001,2.469772911200001,1.49548947,1.2780416,-3.6459202,,,
imu,340.672332,0.1339862272,-9.609324732000001,2.476352592,1.36090509,1.32290306,-3.50385891,,,
imu,340.680805,0.122621324,-9.599156134400001,2.473361828,1.43567419,1.26308778,-3.45899745,,,
imu,340.689277,0.1142471848,-9.603343204000002,2.461398772,1.4431511,1.32290306,-3.51133582,,,
imu,340.69775,0.1088638096,-9.6117173432,2.469772911200001,1.57773548,1.39767216,-3.4216129,,,
imu,340.706222,0.1070693512,-9.623082246400001,2.4745581336,1.65250458,1.54721036,-3.2720747,,,
imu,340.714682,0.1088638096,-9.616502565600001,2.473361828,1.55530475,1.68179474,-3.496382,,,
imu,340.723141,0.1172379488,-9.6290637744,2.473361828,1.60016621,1.82385603,-3.5711511,,,
imu,340.731601,0.1292010048,-9.636839760800001,2.4679784528,1.70484295,1.89114822,-3.65339711,,,
imu,340.740061,0.1387714496,-9.648802816800002,2.460202466400001,1.74970441,2.19770153,-3.496382,,,
imu,340.748521,0.1495382,-9.6434194416,2.460202466400001,1.71979677,2.19770153,-3.43656672,,,
imu,340.75712,0.1567160336,-9.6428212888,2.4542209384,1.71231986,2.0257326,-3.69078166,,,
imu,340.76558,0.1591086448,-9.638036066400002,2.4518283272,1.83195042,2.07059406,-3.84031986,,,
imu,340.77404,0.155519728,-9.638634219200002,2.441061576800001,1.70484295,2.07807097,-4.08705789,,,
imu,340.782499,0.1471455888,-9.631456385600002,2.4386689656,1.80204278,2.03320951,-4.13939626,,,
imu,340.790959,0.1507345056,-9.618297024,2.4302948264,1.88428879,1.80890221,-4.17678081,,,
imu,340.799419,0.1423603664,-9.611119190400002,2.4380708128,1.86185806,1.66684092,-4.28893446,,,
imu,340.807879,0.1297991576,-9.5985579816,2.4338837432,1.85438115,1.51730272,-4.453426479999999,,,
imu,340.816338,0.128602852,-9.6015487456,2.4386689656,1.87681188,1.51730272,-4.31136519,,,
imu,340.824798,0.1100601152,-9.595567217600001,2.4267059096,1.83195042,1.40514907,-4.19921154,,,
imu,340.833258,0.09630260080000001,-9.5907819952,2.4279022152,1.83195042,1.31542615,-4.22911918,,,
imu,340.841717,0.09570444800000001,-9.593174606400002,2.4261077568,1.92167334,1.37524143,-4.0197657,,,
imu,340.850177,0.08374139200000001,-9.6015487456,2.4171354648,2.05625772,1.2032725,-4.06462716,,,
imu,340.858637,0.07716171120000001,-9.617100718400001,2.4093594784,2.38524176,1.33037997,-4.00481188,,,
imu,340.867097,0.0753672528,-9.613511801600001,2.401583492,2.46001086,1.3528107,-3.95247351,,,
imu,340.875556,0.07297464160000001,-9.6218859408,2.4009853392,2.52730305,1.39019525,-3.90761205,,,
imu,340.884016,0.07716171120000001,-9.638036066400002,2.396798269600001,2.60207215,1.41262598,-3.86275059,,,
imu,340.892476,0.07656355840000001,-9.641026830400001,2.3926112,2.73665653,1.44253362,-3.84779677,,,
imu,340.900936,0.08374139200000001,-9.654186192000001,2.389022283200001,2.69179507,1.56964109,-3.76555076,,,
imu,340.909395,0.0903210728,-9.648204664000001,2.4147428536,2.70674889,1.74908693,-3.77302767,,,
imu,340.917859,0.08792846160000001,-9.635045302400002,2.4051724088,2.75161035,1.7266562,-3.89265823,,,
imu,340.926322,0.0933118368,-9.641026830400001,2.3944056584,2.83385636,1.71917929,-3.81788913,,,
imu,340.934786,0.09211553120000002,-9.687084596000002,2.3818444496,2.91610237,1.85376367,-3.83284295,,,
imu,340.943249,0.09690075360000001,-9.6918698184,2.3800499912,2.87124091,1.8014253,-3.84779677,,,
imu,340.951713,0.1022841288,-9.662560331200002,2.3800499912,2.54973378,1.85376367,-3.85527368,,,
imu,340.960177,0.09211553120000002,-9.660765872800003,2.4021816448,2.48244159,1.89114822,-3.90013514,,,
imu,340.96864,0.1004896704,-9.657176956,2.3944056584,2.42262631,1.92105586,-3.77302767,,,
imu,340.977104,0.08733030880000002,-9.694860582400002,2.3633017128,2.42262631,2.07059406,-3.76555076,,,
imu,340.985567,0.09690075360000001,-9.6703363176,2.371675852,2.2656112,2.16779389,-3.61601256,,,
imu,340.994031,0.1082656568,-9.634447149600001,2.3973964224,1.91419643,2.14536316,-3.63096638,,,
imu,341.002494,0.1154434904,-9.635643455200002,2.3680869352,1.80951969,2.25751681,-3.5711511,,,
imu,341.010958,0.1208268656,-9.658373261600001,2.3650961712,1.80204278,2.45939338,-3.4216129,,,
imu,341.019421,0.1369769912,-9.680504915200002,2.3698813936,1.71979677,2.61640849,-3.32441307,,,
imu,339.58075,,,,,,,79.49327559999999,-31.78147560000002,116.8412296
imu,339.682313,,,,,,,79.68859079999999,-31.21994440000002,118.9164536
imu,339.783875,,,,,,,79.6763836,-31.43967400000001,118.9286608
imu,339.885438,,,,,,,79.56651880000001,-31.80589000000001,118.9530752
imu,339.987031,,,,,,,79.4078252,-31.9035476,118.9652824
imu,340.088563,,,,,,,79.92052759999999,-32.20872760000002,118.9286608
imu,340.190125,,,,,,,79.72521239999999,-31.6716108,118.7943816
imu,340.291688,,,,,,,82.1666524,-31.72043960000002,118.2450576
imu,341.027885,0.1501363528,-9.685888290400001,2.3764610744,1.53287402,2.63883922,-3.30198234,,,
imu,341.036348,0.1537252696,-9.693664276800002,2.3848352136,1.30108981,2.4743472,-3.54872037,,,
imu,341.044812,0.1632957144,-9.683495679200002,2.368685088,1.19641307,2.40705501,-3.59358183,,,
imu,341.053275,0.1698753952,-9.687084596000002,2.379451838400001,1.00949032,2.48930102,-3.36179762,,,
imu,341.061739,0.1740624648,-9.6817012208,2.380648144,0.8375213899999999,2.45939338,-3.29450543,,,
imu,341.070203,0.1740624648,-9.6799067624,2.3728721576,0.85995212,2.33228591,-3.29450543,,,
imu,341.078666,0.191408896,-9.669738164800002,2.379451838400001,0.80761375,2.19770153,-3.37675144,,,
imu,341.08713,0.1698753952,-9.623082246400001,2.3818444496,0.51601426,1.91357895,-3.65339711,,,
imu,341.095593,0.1429585192,-9.657176956,2.362105407200001,0.49358353,1.81637912,-3.88518132,,,
imu,341.104057,0.1333880744,-9.6494009696,2.3728721576,0.41133752,1.70422547,-3.83284295,,,
imu,341.11252,0.1363788384,-9.636839760800001,2.3860315192,0.38142988,1.71917929,-3.51133582,,,
imu,341.120991,0.1292010048,-9.61530626,2.3920130472,0.29170696,1.80890221,-3.43656672,,,
imu,341.129463,0.1118545736,-9.6248767048,2.3872278248,0.40386061,1.92853277,-3.32441307,,,
imu,341.137934,0.131593616,-9.651195428000001,2.3800499912,0.6132140899999999,2.12293243,-2.92813684,,,
imu,341.146405,0.1626975616,-9.651793580800001,2.3902185888,0.70293701,2.22760917,-2.62906044,,,
imu,341.154876,0.167482784,-9.6535880392,2.3914148944,0.85995212,2.39210119,-2.69635263,,,
imu,341.163347,0.1818384512,-9.669738164800002,2.383638908,0.85995212,2.40705501,-3.02533667,,,
imu,341.171818,0.1812402984,-9.652989886400002,2.3734703104,0.8749059399999999,2.39210119,-3.30198234,,,
imu,341.18029,0.1812402984,-9.639830524800002,2.3788536856,0.74779847,2.38462428,-3.496382,,,
imu,341.188761,0.1800439928,-9.632054538400002,2.3752647688,0.7104139199999999,2.33228591,-3.78798149,,,
imu,341.197232,0.1710717008,-9.631456385600002,2.3872278248,0.76275229,2.19770153,-4.169303899999999,,,
imu,341.205703,0.1668846312,-9.6326526912,2.3770592272,0.59078336,2.07807097,-4.55062631,,,
imu,341.214174,0.16449202,-9.631456385600002,2.3633017128,0.6281679099999999,1.99582496,-4.6179185,,,
imu,341.222646,0.1531271168,-9.602745051200001,2.3561238792,0.83004448,1.95844041,-4.602964679999999,,,
imu,341.231117,0.16449202,-9.595567217600001,2.365694324000001,0.8973366700000001,1.97339423,-4.5431494,,,
imu,341.239588,0.1417622136,-9.584800467200001,2.3633017128,0.9646288599999999,1.93600968,-4.408565019999999,,,
imu,341.248059,0.1423603664,-9.580613397600002,2.3591146432,0.94967504,1.86124058,-4.28145755,,,
imu,341.25653,0.1417622136,-9.6075302736,2.3644980184,1.03192105,1.90610204,-4.10948862,,,
imu,341.265001,0.1441548248,-9.6224840936,2.380648144,1.17398234,1.9509635,-3.9449966,,,
imu,341.273473,0.1483418944,-9.651793580800001,2.398592728,1.12912088,1.92105586,-3.93004278,,,
imu,341.281944,0.1507345056,-9.685290137600001,2.4033779504,1.17398234,1.8014253,-3.89265823,,,
imu,341.290415,0.1453511304,-9.689477207200001,2.4111539368,1.05435178,1.68179474,-4.012288789999999,,,
imu,341.298886,0.1393696024,-9.693066124000001,2.4057705616,0.79265993,1.41262598,-4.16182699,,,
imu,341.307357,0.1202287128,-9.700243957600001,2.409957631200001,0.5459219,1.25561087,-4.124442439999999,,,
imu,341.315828,0.09869521200000002,-9.700243957600001,2.414144700800001,0.23936859,1.33785688,-4.06462716,,,
imu,341.324643,0.09989151760000002,-9.682299373600001,2.404574256,0.05244583999999999,1.4275798,-3.95995042,,,
imu,341.333457,0.09749890640000002,-9.667943706400001,2.4009853392,0.11226112,1.52477963,-3.73564312,,,
imu,341.342271,0.09630260080000001,-9.639830524800002,2.4003871864,0.03749201999999999,1.54721036,-3.68330475,,,
imu,341.351085,0.101685976,-9.6218859408,2.395601964,0.06739966,1.63693328,-3.496382,,,
imu,341.3599,0.09989151760000002,-9.614708107200002,2.404574256,0.21693786,1.71170238,-3.50385891,,,
imu,341.368714,0.1022841288,-9.5949690648,2.4159391592,0.31413769,1.81637912,-3.58610492,,,
imu,341.377528,0.1088638096,-9.6051376624,2.42251884,0.40386061,1.83133294,-3.69078166,,,
imu,341.386343,0.1112564208,-9.624278552000002,2.42251884,0.60573718,2.00330187,-3.84031986,,,
imu,341.395157,0.1112564208,-9.630260080000001,2.4129483952,0.76275229,2.04816333,-4.08705789,,,
imu,341.403971,0.1142471848,-9.630858232800001,2.437472660000001,0.78518302,2.04816333,-4.26650373,,,
imu,341.412785,0.1052748928,-9.602745051200001,2.4290985208,0.80013684,2.10797861,-4.0945348,,,
imu,341.4216,0.1058730456,-9.618895176800002,2.4302948264,0.82256757,2.19022462,-3.98238115,,,
imu,341.430414,0.1154434904,-9.621287788000002,2.4213225344,0.8524752099999999,2.15284007,-3.81788913,,,
imu,341.439228,0.1327899216,-9.6051376624,2.416537312,0.8749059399999999,2.2500399,-3.60105874,,,
imu,341.448042,0.1411640608,-9.602745051200001,2.416537312,0.80761375,2.1752708,-3.51133582,,,
imu,341.456857,0.1429585192,-9.602745051200001,2.40756502,1.10669015,2.05564024,-3.53376655,,,
imu,341.465671,0.1531271168,-9.572837411200002,2.4117520896,1.19641307,1.97339423,-3.68330475,,,
imu,341.474485,0.1363788384,-9.627269316000001,2.3973964224,1.45062801,2.00330187,-3.8702275,,,
imu,341.4833,0.1297991576,-9.6326526912,2.3650961712,1.49548947,1.92105586,-4.0945348,,,
imu,341.492114,0.1369769912,-9.6009505928,2.3991908808,1.57773548,1.91357895,-4.08705789,,,
imu,341.500928,0.1154434904,-9.6015487456,2.3950038112,1.63007385,1.83880985,-4.146873169999999,,,
imu,341.509742,0.1112564208,-9.630858232800001,2.3824426024,1.77961205,1.91357895,-4.15435008,,,
imu,341.518557,0.1052748928,-9.6470083584,2.371675852,1.82447351,1.98087114,-3.97490424,,,
imu,341.527038,0.09929336480000002,-9.664952942400001,2.3973964224,1.80204278,1.89862513,-3.93004278,,,
imu,341.535519,0.09690075360000001,-9.673925234400002,2.3979945752,1.73475059,1.95844041,-3.83284295,,,
imu,341.544001,0.09749890640000002,-9.683495679200002,2.396798269600001,1.57025857,2.00330187,-3.69078166,,,
imu,341.552482,0.09151737840000002,-9.675719692800001,2.3770592272,1.45062801,2.16779389,-3.50385891,,,
imu,341.560963,0.1010878232,-9.655382497600002,2.374666616,1.25622835,2.09302479,-3.45899745,,,
imu,341.569445,0.09630260080000001,-9.6775141512,2.3633017128,1.22632071,2.18274771,-3.45152054,,,
imu,341.577926,0.1004896704,-9.682299373600001,2.3531331152,1.12164397,2.44443956,-3.30945925,,,
imu,341.586407,0.107667504,-9.6745233872,2.3674887824,1.23379762,2.42948574,-3.18982869,,,
imu,341.594889,0.1112564208,-9.667943706400001,2.3573201848,1.03939796,2.54163939,-3.37675144,,,
imu,341.60337,0.1363788384,-9.667345553600002,2.3668906296,0.85995212,2.51173175,-3.42908981,,,
imu,341.611851,0.1369769912,-9.658373261600001,2.3674887824,0.9571519499999999,2.51173175,-3.46647436,,,
imu,341.620333,0.1459492832,-9.6667474008,2.3662924768,0.8674290299999999,2.58650085,-3.63844329,,,
imu,341.628814,0.152528964,-9.6505972752,2.380648144,0.7702292,2.54163939,-3.63844329,,,
imu,341.637295,0.1620994088,-9.657775108800001,2.380648144,0.8524752099999999,2.6238854,-3.60105874,,,
imu,341.645777,0.158510492,-9.6458120528,2.3788536856,0.70293701,2.52668557,-3.85527368,,,
imu,341.654258,0.1537252696,-9.637437913600001,2.3932093528,0.4861066199999999,2.34723973,-3.9449966,,,
imu,341.66274,0.1543234224,-9.633250844,2.3812462968,0.49358353,2.28742445,-3.86275059,,,
imu,341.671221,0.1573141864,-9.606932120800002,2.395601964,0.31413769,2.19770153,-4.04219643,,,
imu,341.679702,0.1423603664,-9.636839760800001,2.3824426024,0.26927623,2.14536316,-4.15435008,,,
imu,341.688184,0.1357806856,-9.6290637744,2.3680869352,0.40386061,1.97339423,-4.23659609,,,
imu,341.696665,0.1292010048,-9.620689635200002,2.3668906296,0.51601426,2.0257326,-4.04967334,,,
imu,341.705146,0.1369769912,-9.595567217600001,2.3950038112,0.57582954,1.9509635,-4.00481188,,,
imu,341.713628,0.1297991576,-9.6117173432,2.3920130472,0.8674290299999999,1.77151766,-3.95995042,,,
imu,341.722109,0.1297991576,-9.623082246400001,2.3920130472,1.09921324,1.8014253,-3.92256587,,,
imu,341.730564,0.1280046992,-9.620091482400001,2.3884241304,1.08425942,1.76404075,-3.75807385,,,
imu,341.739018,0.1363788384,-9.644615747200001,2.395601964,1.08425942,1.7266562,-3.77302767,,,
imu,341.747473,0.137575144,-9.636839760800001,2.4207243816,1.22632071,1.74161002,-3.59358183,,,
imu,341.755927,0.1082656568,-9.669140012000002,2.4021816448,1.33847436,1.65936401,-3.5711511,,,
imu,341.764382,0.11963056,-9.686486443200002,2.4123502424,1.27118217,1.55468727,-3.59358183,,,
imu,341.772837,0.110658268,-9.678710456800001,2.3997890336,1.04687487,1.45001053,-3.65339711,,,
imu,341.781291,0.1010878232,-9.679308609600001,2.4069668672,0.85995212,1.41262598,-3.7954584,,,
imu,341.789746,0.1004896704,-9.673925234400002,2.4021816448,0.7104139199999999,1.45748744,-3.75807385,,,
imu,341.798201,0.1040785872,-9.660765872800003,2.4021816448,0.71789083,1.67431783,-3.6459202,,,
imu,341.806655,0.0980970592,-9.633250844,2.3926112,0.5459219,1.64441019,-3.78050458,,,
imu,341.81511,0.09510629520000001,-9.651195428000001,2.3902185888,0.29918387,1.74908693,-3.69078166,,,
imu,341.823565,0.1070693512,-9.630858232800001,2.386629672,0.4711528,1.86124058,-3.5711511,,,
imu,341.832019,0.1088638096,-9.6290637744,2.395601964,0.42629134,1.8761944,-3.69825857,,,
imu,341.840474,0.09510629520000001,-9.627867468800002,2.3944056584,0.7104139199999999,1.99582496,-3.70573548,,,
imu,340.39325,,,,,,,79.55431159999999,-31.4762956,119.3925344
imu,340.494965,,,,,,,82.1666524,-32.22093480000001,116.31632
imu,340.596375,,,,,,,79.79845560000001,-31.34201640000001,119.246048
imu,340.697938,,,,,,,79.9327348,-32.33079960000001,116.682536
imu,340.7995,,,,,,,79.62755480000001,-31.41525960000002,119.3192912
imu,340.901063,,,,,,,79.8716988,-31.17111560000001,118.4892016
imu,341.0029,,,,,,,79.92052759999999,-31.59836760000001,118.9774896
imu,341.104218,,,,,,,79.76183400000001,-31.21994440000002,119.4047416
imu,341.848841,0.1040785872,-9.6326526912,2.3944056584,0.7702292,2.07807097,-3.65339711,,,
imu,341.857296,0.1040785872,-9.6290637744,2.4009853392,0.65059864,2.14536316,-3.60105874,,,
imu,341.86575,0.1238176296,-9.609324732000001,2.4033779504,0.53844499,2.24256299,-3.60853565,,,
imu,341.874205,0.1232194768,-9.616502565600001,2.410555784,0.68050628,2.30237827,-3.53376655,,,
imu,341.205671,,,,,,,80.0425996,-31.21994440000002,119.4047416
imu,341.307264,,,,,,,79.8350772,-31.15890840000002,119.8442008
imu,341.408765,,,,,,,81.8248508,-31.40305240000001,118.2816792
imu,341.510358,,,,,,,79.84728439999999,-31.86692600000001,118.6234808
imu,341.611951,,,,,,,82.05678759999999,-32.4284572,116.7191576
imu,341.713605,,,,,,,79.51769,-31.45188120000002,119.0263184
imu,341.815137,,,,,,,81.78822919999999,-32.233142,115.6815456
