Type,Timestamp,Data Accelerometer X,Data Accelerometer Y,Data Accelerometer Z,Data Gyroscope X,Data Gyroscope Y,Data Gyroscope Z,Data Magnetometer X,Data Magnetometer Y,Data Magnetometer Z
imu,205.52398,0.6137047728000001,-9.553098368800002,2.455417244,3.03573293,1.15093413,-3.86275059,,,
imu,205.532444,0.6214807592000001,-9.566257730400002,2.4500338688,2.99087147,0.9041961000000001,-3.98238115,,,
imu,205.540907,0.6149010784000001,-9.5800152448,2.4512301744,3.00582529,0.7546578999999998,-3.90761205,,,
imu,205.549371,0.6208826064000001,-9.6087265792,2.4542209384,3.14788658,0.6798887999999996,-3.90013514,,,
imu,205.557834,0.6137047728000001,-9.6434194416,2.4608006192,3.02825602,0.4032431299999999,-3.84031986,,,
imu,205.566298,0.6178918424000002,-9.669738164800002,2.4649876888,2.95348692,0.3284740299999998,-3.8702275,,,
imu,205.574761,0.6077232448000001,-9.697253193600002,2.4751562864,2.79647181,0.1565051,-4.034719519999999,,,
imu,205.583225,0.6077232448000001,-9.7331423616,2.4936990232,2.67684125,0.05182836000000002,-4.102011709999999,,,
imu,205.591689,0.5975546472000001,-9.746899876,2.500278704,2.46001086,0.13407437,-4.10948862,,,
imu,205.600152,0.5909749664,-9.755274015200001,2.5110454544,2.17588828,0.006966899999999665,-4.13191935,,,
imu,205.608616,0.5849934384000001,-9.745105417600001,2.504465773600001,1.74970441,-0.1051867500000001,-4.10948862,,,
imu,205.617079,0.5670488544000001,-9.7151977776,2.504465773600001,1.43567419,-0.09770984000000027,-4.102011709999999,,,
imu,205.625571,0.5586747152,-9.6745233872,2.4925027176,1.01696723,-0.1575251200000003,-4.30388828,,,
imu,205.634034,0.5455153536,-9.6470083584,2.4775488976,0.97210577,-0.02294074000000013,-4.15435008,,,
imu,205.6425,0.5359449088000001,-9.617100718400001,2.473361828,0.80761375,0.08173599999999981,-4.169303899999999,,,
imu,205.650967,0.5329541448,-9.589585689600002,2.454819091200001,0.8449983,0.1490281899999997,-4.28145755,,,
imu,205.659433,0.5257763112000001,-9.5632669664,2.4422578824,0.9197674,0.21632038,-4.27398064,,,
imu,205.667899,0.5126169496,-9.553696521600001,2.434481896,1.27118217,0.3209971199999999,-4.341272829999999,,,
imu,205.676365,0.5102243384,-9.557883591200001,2.4392671184,1.48801256,0.4630584099999999,-4.26650373,,,
imu,205.684831,0.499457588,-9.5602762024,2.4267059096,1.72727368,0.5677351499999999,-4.244073,,,
imu,205.693297,0.5060372688000001,-9.571641105600001,2.4362763544,1.89924261,0.80699627,-4.102011709999999,,,
imu,205.701763,0.5120187968000001,-9.583604161600002,2.4362763544,2.01139626,0.98644211,-3.98238115,,,
imu,205.710229,0.517402172,-9.608128426400002,2.4488375632,2.06373463,1.21822632,-3.90761205,,,
imu,205.718695,0.5287670752,-9.627867468800002,2.449435716,2.116073,1.33785688,-3.72816621,,,
imu,205.727161,0.5371412144000001,-9.6523917336,2.4530246328,2.01139626,1.42010289,-3.69825857,,,
imu,205.735627,0.535346756,-9.6637566368,2.4608006192,1.88428879,1.42010289,-3.72816621,,,
imu,205.744094,0.5419264368000001,-9.6775141512,2.4560153968,1.68988913,1.53973345,-3.65339711,,,
imu,205.75256,0.5401319784,-9.672130776000001,2.4530246328,1.71979677,1.62197946,-3.52628964,,,
imu,205.761026,0.5419264368000001,-9.6733270816,2.4560153968,1.5179202,1.53973345,-3.63844329,,,
imu,205.769492,0.5449172008000001,-9.671532623200001,2.4560153968,1.27118217,1.577118,-3.58610492,,,
imu,205.777958,0.5622636320000001,-9.678112304,2.4578098552,1.07678251,1.67431783,-3.496382,,,
imu,205.786424,0.5766192992000001,-9.6775141512,2.4637913832,0.83004448,1.69674856,-3.54872037,,,
imu,205.79489,0.5628617848,-9.6733270816,2.458408008,0.7253677399999999,1.59954873,-3.59358183,,,
imu,205.803356,0.5598710208000001,-9.6428212888,2.4619969248,0.63564482,1.62197946,-3.51881273,,,
imu,205.811822,0.5766192992000001,-9.6248767048,2.473959980800001,0.3889067899999999,1.53973345,-3.48142818,,,
imu,205.820288,0.5814045216000001,-9.637437913600001,2.4691747584,0.27675314,1.39767216,-3.83284295,,,
imu,205.828754,0.5670488544000001,-9.647606511200001,2.4751562864,0.3889067899999999,1.31542615,-4.16182699,,,
imu,205.83722,0.5520950344000001,-9.669738164800002,2.4817359672,0.38142988,1.11354958,-4.37865738,,,
imu,205.84604,0.5419264368000001,-9.669738164800002,2.4787452032,0.35152224,0.9565344699999998,-4.28145755,,,
imu,205.85486,0.5305615336,-9.641026830400001,2.4865211896,0.07487657,0.8144731799999998,-4.13191935,,,
imu,205.863679,0.517402172,-9.637437913600001,2.48233412,0.20198404,0.8593346399999997,-3.9449966,,,
imu,205.872499,0.5066354216000001,-9.6290637744,2.4889138008,0.33656842,1.09859576,-3.59358183,,,
imu,205.881318,0.5102243384,-9.612913648800001,2.4787452032,0.36647606,1.31542615,-3.07767504,,,
imu,205.890138,0.5221873944000001,-9.606333968000001,2.4655858416,0.5010604399999999,1.58459491,-2.5991528,,,
imu,205.898958,0.5359449088000001,-9.578818939200001,2.473361828,0.56835263,1.68927165,-2.41223005,,,
imu,205.907777,0.5335522976000001,-9.573435564,2.4631932304,0.59078336,1.77151766,-2.53186061,,,
imu,205.916597,0.5538894928000001,-9.561472508000001,2.454819091200001,0.78518302,1.79394839,-2.75616791,,,
imu,205.925416,0.5485061176,-9.559678049600002,2.454819091200001,0.7403215599999999,1.83880985,-3.03281358,,,
imu,205.934236,0.5604691736,-9.561472508000001,2.4608006192,0.83004448,1.82385603,-3.17487487,,,
imu,205.943055,0.5670488544000001,-9.569248494400002,2.458408008,1.0693056,1.82385603,-3.37675144,,,
imu,205.951875,0.5706377712,-9.5776226336,2.470371064,1.06182869,1.85376367,-3.59358183,,,
imu,205.960695,0.5873860496000001,-9.6117173432,2.4787452032,1.20388998,1.97339423,-3.61601256,,,
imu,205.969514,0.5945638832000001,-9.632054538400002,2.497287940000001,1.25622835,1.91357895,-3.60853565,,,
imu,205.978334,0.6047324808000001,-9.658373261600001,2.4996805512,1.11416706,1.81637912,-3.75807385,,,
imu,205.987153,0.6125084672000001,-9.6535880392,2.5098491488,1.01696723,1.92853277,-3.76555076,,,
imu,205.995973,0.6196863008000001,-9.6703363176,2.52719558,1.02444414,1.80890221,-3.66087402,,,
imu,206.004792,0.6196863008000001,-9.667943706400001,2.5110454544,0.8449983,1.59207182,-3.6459202,,,
imu,206.013612,0.6077232448000001,-9.652989886400002,2.5218122048,0.620691,1.46496435,-3.69825857,,,
imu,206.022432,0.61310662,-9.6470083584,2.5325789552,0.46367589,1.27056469,-3.77302767,,,
imu,206.031251,0.5927694248,-9.638634219200002,2.5307844968,0.3963837,1.03130357,-3.80293531,,,
imu,206.040071,0.5933675776,-9.633250844,2.529588191200001,0.43376825,0.98644211,-3.78050458,,,
imu,206.048677,0.5808063688,-9.599156134400001,2.524204816,0.26927623,0.94905756,-3.87770441,,,
imu,206.057283,0.5700396184000001,-9.5877912312,2.5289900384,0.23936859,0.8593346399999997,-3.77302767,,,
imu,206.065889,0.5634599376000001,-9.573435564,2.5170269824,0.38142988,0.8518577299999999,-3.72816621,,,
imu,206.074495,0.5616654792000001,-9.553696521600001,2.508652843200001,0.4711528,0.9341037399999998,-3.57862801,,,
imu,206.083101,0.5604691736,-9.538742701600002,2.51224176,0.60573718,0.9789651999999998,-3.54872037,,,
imu,206.091707,0.5514968816000001,-9.5429297712,2.504465773600001,0.9347212199999999,1.09111885,-3.42908981,,,
imu,206.100312,0.5544876456000001,-9.5393408544,2.521214052,1.03939796,1.15841104,-3.48890509,,,
imu,206.108918,0.5514968816000001,-9.5423316184,2.5080546904,1.16650543,1.03878048,-3.78050458,,,
imu,206.117524,0.5443190480000001,-9.52558334,2.5026713152,1.27865908,0.92662683,-4.08705789,,,
imu,206.12613,0.5389356728,-9.52558334,2.518223288000001,1.42819728,0.94905756,-4.318842099999999,,,
imu,206.134736,0.5347486032000001,-9.5776226336,2.5403549416,1.46558183,0.8817653699999997,-4.28145755,,,
imu,206.143342,0.5341504504000001,-9.636839760800001,2.5577013728,1.67493531,1.09111885,-3.9449966,,,
imu,206.151948,0.5413282840000001,-9.686486443200002,2.575047804,1.45062801,1.11354958,-3.60853565,,,
imu,206.160554,0.5508987288,-9.714599624800002,2.58701086,1.25622835,1.16588795,-3.36179762,,,
imu,206.16916,0.5634599376000001,-9.725964528,2.5953849992,1.43567419,1.22570323,-3.16739796,,,
imu,206.177766,0.5796100632000001,-9.7008421104,2.6061517496,1.17398234,1.09859576,-3.17487487,,,
imu,206.186372,0.5670488544000001,-9.647606511200001,2.5828237904,1.08425942,1.06868812,-3.18235178,,,
imu,206.194978,0.5706377712,-9.5812115504,2.566075512,0.9197674,0.7546578999999998,-3.39170526,,,
imu,206.203584,0.5616654792000001,-9.519601812000001,2.536167872,0.68798319,0.5378275100000001,-3.60105874,,,
imu,206.21219,0.5467116592000001,-9.477132963200003,2.5080546904,0.7104139199999999,0.3434278499999999,-3.65339711,,,
imu,206.220796,0.5395338256000001,-9.451412392800002,2.494895328800001,0.83004448,0.02939763000000006,-3.69825857,,,
imu,206.229402,0.5449172008000001,-9.459786532,2.483530425600001,1.02444414,-0.007986920000000008,-3.66835093,,,
imu,206.238008,0.5347486032000001,-9.509433214400001,2.5008768568,1.23379762,-0.1201405700000002,-3.56367419,,,
imu,206.246614,0.5449172008000001,-9.5638651192,2.4978860928,1.54035093,-0.23229422,-3.39918217,,,
imu,206.254945,0.5431227424,-9.582407856000001,2.5146343712,1.82447351,-0.31454023,-3.30945925,,,
imu,206.263276,0.5329541448,-9.566257730400002,2.520615899200001,2.01887317,-0.35192478,-3.24964397,,,
imu,206.271608,0.5233837000000001,-9.566257730400002,2.5265974272,2.10859609,-0.5164168,-3.18235178,,,
imu,206.279939,0.5251781584,-9.575230022400001,2.529588191200001,2.10859609,-0.5538013500000001,-3.1225365,,,
imu,206.28827,0.5299633808,-9.558481744000002,2.5265974272,1.8169966,-0.59866281,-3.14496723,,,
imu,206.296602,0.535346756,-9.499264616800001,2.518223288000001,1.83195042,-0.4865091600000002,-3.01785976,,,
imu,206.304933,0.5437208952000001,-9.4490197816,2.5020731624,1.74970441,-0.6285704500000002,-2.98795212,,,
imu,206.313264,0.5311596864,-9.389204501600002,2.4655858416,1.77213514,-0.8304470200000003,-2.93561375,,,
imu,206.321595,0.520392936,-9.374250681600001,2.446444952,1.92167334,-0.88278539,-3.13001341,,,
imu,206.329927,0.5413282840000001,-9.352119028,2.4147428536,2.51982614,-0.9799852200000005,-3.0477674,,,
imu,206.338258,0.5371412144000001,-9.353315333600001,2.409957631200001,3.282470959999999,-1.0398005,-3.06272122,,,
imu,206.346589,0.5419264368000001,-9.359895014400001,2.36270356,4.2843769,-1.19681561,-3.21973633,,,
imu,206.354921,0.5365430616000001,-9.372456223200002,2.3489460456,5.27132902,-1.19681561,-3.07019813,,,
imu,206.363252,0.5084298800000001,-9.372456223200002,2.3274125448,6.27323496,-1.29401544,-2.86832156,,,
imu,206.371583,0.502448352,-9.381428515200001,2.3226273224,7.36486382,-1.34635381,-2.748691,,,
imu,206.379915,0.4916816016,-9.446627170400001,2.308869808,8.187323919999999,-1.19681561,-2.32250713,,,
imu,206.388246,0.4845037680000001,-9.5213962704,2.3064771968,9.047168569999998,-1.21176943,-2.15801511,,,
imu,206.396577,0.4922797544,-9.551902063200002,2.2783640152,9.660275189999998,-0.9126930300000002,-1.84398489,,,
imu,206.404908,0.5012520464000001,-9.578818939200001,2.2586249728,10.09393597,-0.68090882,-1.53743158,,,
imu,206.41324,0.5359449088000001,-9.5949690648,2.2215394992,10.60984276,-0.2846325900000002,-1.31312428,,,
imu,206.421571,0.5491042704000001,-9.654784344800001,2.2215394992,11.26781084,-0.2248173100000002,-0.9542325999999999,,,
imu,206.429902,0.5688433128,-9.734338667200001,2.2149598184,11.74633308,-0.06780220000000003,-0.8121713099999999,,,
imu,206.438234,0.5891805080000001,-9.7636481544,2.2000059984,12.02297875,-0.03789456000000024,-0.5878640099999999,,,
imu,205.524472,,,,,,,74.17093640000002,-1.886042800000021,-7.830904000000006
imu,205.626034,,,,,,,71.8759828,-1.324511600000022,-5.133112800000006
imu,206.446565,0.6101158560000001,-9.786976113600002,2.2113709016,12.18747077,0.1714589200000001,-0.4233719899999999,,,
imu,206.455028,0.6244715232,-9.824659740000001,2.2257265688,12.11270167,0.2836125699999998,-0.2289723299999999,,,
imu,206.463492,0.6525847048000001,-9.8629415192,2.2544379032,11.89587128,0.3957662200000001,0.05515025000000007,,,
imu,206.471956,0.6800997336000001,-9.908999284800002,2.27298064,11.26781084,0.4705353199999998,0.1972115400000001,,,
imu,206.480419,0.7040258456,-9.938906924800001,2.2861400016,10.25095108,0.3733354899999997,0.242073,,,
imu,206.488883,0.7112036792,-9.9401032304,2.2921215296,9.308860419999998,0.33595094,0.3691804699999999,,,
imu,206.497346,0.7369242496000001,-9.932327244000001,2.2855418488,8.194800829999998,-0.0005100100000001717,0.38413429,,,
imu,206.50581,0.7381205552000002,-9.9048122152,2.27298064,7.02092596,-0.1874327600000001,0.3542266500000002,,,
imu,206.514273,0.7524762224000001,-9.874306422400002,2.253839750400001,5.92182019,-0.35192478,0.30188828,,,
imu,206.522737,0.7662337368000001,-9.837220948800002,2.2215394992,4.99468335,-0.6210935399999999,0.3691804699999999,,,
imu,206.5312,0.7650374312,-9.7953502528,2.1868466368,4.16474634,-0.9650314,0.1673038999999998,,,
imu,206.539664,0.7548688336000001,-9.7510869456,2.1695002056,3.67874719,-1.03232359,0.10001171,,,
imu,206.548127,0.7554669864000001,-9.709216249600003,2.129423968,3.12545585,-1.22672325,-0.08691103999999994,,,
imu,206.556591,0.7506817640000001,-9.6428212888,2.106694161600001,2.83385636,-1.25663089,-0.25887997,,,
imu,206.565055,0.7297464160000001,-9.6087265792,2.0731976048,2.9385331,-1.36878454,-0.3411259799999999,,,
imu,206.573518,0.726755652,-9.584800467200001,2.0522622568,3.21517877,-1.428599820000001,-0.5953409199999999,,,
imu,206.581982,0.7279519576000001,-9.614708107200002,2.048673340000001,3.62640882,-1.413646,-0.8645096799999998,,,
imu,206.590445,0.708811068,-9.688879054400001,2.0708049936,4.09745415,-1.286538530000001,-1.02152479,,,
imu,206.598909,0.6974461648000001,-9.694860582400002,2.0432899648,4.57597639,-1.13700033,-1.1037708,,,
imu,206.607372,0.70282954,-9.6009505928,1.9930451296,4.71803768,-0.90521612,-1.34303192,,,
imu,206.615836,0.6914646368,-9.422102905600001,1.9762968512,4.658222400000001,-0.5014629800000003,-1.48509321,,,
imu,206.624299,0.6663422192,-9.2964908176,1.9577541144,4.71803768,-0.0603252900000002,-1.41032411,,,
imu,206.632763,0.666940372,-9.2851259144,1.92904278,4.77785296,0.1191205499999999,-1.43275484,,,
imu,206.641226,0.6729219000000001,-9.304266804000001,1.8764053336,4.68065313,0.3434278499999999,-1.73930815,,,
imu,206.64969,0.6824923448,-9.339557819200001,1.8734145696,4.83766824,0.58268897,-2.001,,,
imu,206.658156,0.6878757200000001,-9.4382530312,1.8805924032,5.05449863,0.84438082,-2.24773803,,,
imu,206.666622,0.6986424704000002,-9.569248494400002,1.896144376,5.44329795,1.2032725,-2.56924516,,,
imu,206.675088,0.7034276928000001,-9.696056888000001,1.9212667936,5.76480508,1.27056469,-2.79355246,,,
imu,206.683554,0.7177833600000001,-9.8168837536,1.970913476,6.11621985,1.66684092,-2.55429134,,,
imu,206.69202,0.7183815128000002,-9.952664439200001,2.0253453808,6.18351204,2.03320951,-2.33746095,,,
imu,206.700486,0.7339334856000002,-10.0836599024,2.069608688,6.10126603,2.30985518,-2.20287657,,,
imu,206.708953,0.7650374312,-10.1883366424,2.1150683008,5.71994362,2.87062343,-1.79164652,,,
imu,206.717636,0.7752060288000001,-10.2248239632,2.1497611632,5.06945245,3.03511545,-1.41780102,,,
imu,206.726103,0.7973376824000001,-10.2607131312,2.1940244704,4.11988488,3.30428421,-1.35798574,,,
imu,206.734569,0.8087025856000001,-10.2397777832,2.19821154,2.88619473,3.35662258,-1.38041647,,,
imu,206.743035,0.8128896552000001,-10.1817569616,2.21316536,1.48053565,3.23699202,-1.7019236,,,
imu,206.751501,0.8152822664000001,-10.132708432,2.210174596,0.11973803,2.97530017,-2.18044584,,,
imu,206.759967,0.8140859608000002,-10.0501633456,2.2006041512,-1.21115195,2.68370068,-2.66644499,,,
imu,206.768433,0.7961413768000002,-9.954458897600002,2.1689020528,-2.24296553,2.49677793,-3.10758268,,,
imu,206.776899,0.7722152648000001,-9.8497821576,2.1395925656,-3.11028709,2.25751681,-3.41413599,,,
imu,206.785365,0.76264482,-9.780396432800002,2.1252368984,-3.53647096,2.11545552,-3.62348947,,,
imu,206.793831,0.7494854584000001,-9.7128051664,2.1150683008,-3.81311663,2.01825569,-3.88518132,,,
imu,206.802297,0.744700236,-9.657775108800001,2.0809735912,-3.68600916,2.03320951,-4.06462716,,,
imu,206.810763,0.7315408744,-9.627867468800002,2.0821698968,-3.29720984,2.05564024,-4.20668845,,,
imu,206.819229,0.7405131664000002,-9.602146898400001,2.0971237168,-3.18505619,2.08554788,-4.32631901,,,
imu,206.827696,0.7345316384000001,-9.5865949256,2.1007126336,-2.99813344,1.98087114,-4.57305704,,,
imu,206.836162,0.7351297912000001,-9.580613397600002,2.112675689600001,-2.72148777,1.96591732,-4.73007215,,,
imu,206.844628,0.7285501104000001,-9.562070660800002,2.117460912,-2.5943803,1.77151766,-4.8422258,,,
imu,206.853094,0.7255593464000001,-9.5638651192,2.1216479816,-2.51213429,1.76404075,-4.68521069,,,
imu,206.861911,0.7303445688000001,-9.553696521600001,2.1449759408,-2.39998064,1.59954873,-4.68521069,,,
imu,206.870728,0.7076147624000001,-9.5447242296,2.1437796352,-2.28782699,1.44253362,-4.70016451,,,
imu,206.879545,0.7106055264000001,-9.538742701600002,2.15335008,-2.43736519,1.37524143,-4.66277996,,,
imu,206.888362,0.7082129152000001,-9.547714993600001,2.1599297608,-2.45231901,1.28551851,-4.40108811,,,
imu,206.897178,0.6998387760000001,-9.551902063200002,2.180266956,-2.27287317,1.2780416,-4.341272829999999,,,
imu,206.905995,0.7046239984,-9.556089132800002,2.186248484,-2.13081188,1.15841104,-4.19921154,,,
imu,206.914812,0.6938572480000001,-9.571641105600001,2.1934263176,-2.01118132,1.18084177,-4.146873169999999,,,
imu,206.923629,0.6908664840000001,-9.578818939200001,2.191631859200001,-1.71210492,1.15841104,-4.15435008,,,
imu,206.932446,0.6968480120000001,-9.5865949256,2.219146888,-1.76444329,1.06121121,-4.13939626,,,
imu,206.941263,0.6836886504,-9.6218859408,2.232306249600001,-1.56256672,0.9341037399999998,-4.29641137,,,
imu,206.95008,0.6783052752000002,-9.633250844,2.2436711528,-1.34573633,0.9191499199999997,-4.408565019999999,,,
imu,206.958897,0.6795015808000001,-9.632054538400002,2.2652046536,-1.46536689,1.00139593,-4.47585721,,,
imu,206.967714,0.6699311360000001,-9.6505972752,2.278962168,-1.48032071,1.01634975,-4.53567249,,,
imu,206.976531,0.6537810104000001,-9.6703363176,2.2861400016,-1.31582869,1.15093413,-4.31136519,,,
imu,206.985348,0.6699311360000001,-9.675121540000001,2.278962168,-1.30087487,1.30794924,-3.90013514,,,
imu,206.994165,0.6615569968000001,-9.675121540000001,2.2843455432,-1.13638285,1.59207182,-3.65339711,,,
imu,207.002982,0.6729219000000001,-9.681103068,2.2861400016,-0.9793677399999999,1.76404075,-3.53376655,,,
imu,207.011798,0.6705292888000001,-9.6846919848,2.2891307656,-0.65786061,1.92105586,-3.33188998,,,
imu,207.020615,0.681894192,-9.6745233872,2.299897516,-0.5307531400000001,2.08554788,-3.33936689,,,
imu,207.029432,0.7016332344,-9.6535880392,2.290327071200001,-0.38869185,2.25751681,-3.15992105,,,
imu,207.038249,0.6998387760000001,-9.648802816800002,2.30288828,-0.31392275,2.26499372,-3.30198234,,,
imu,207.047066,0.7118018320000001,-9.6428212888,2.2933178352,-0.29896893,2.27994754,-3.41413599,,,
imu,207.055883,0.7279519576000001,-9.634447149600001,2.286738154400001,-0.15690764,2.29490136,-3.40665908,,,
imu,207.064362,0.7291482632,-9.6296619272,2.2915233768,-0.03727708,2.35471664,-3.33936689,,,
imu,207.072841,0.7476910000000001,-9.614708107200002,2.286738154400001,-0.11952309,2.3995781,-3.3468438,,,
imu,207.08132,0.7548688336000001,-9.602146898400001,2.2693917232,-0.05970781,2.42948574,-3.36179762,,,
imu,207.089798,0.7602522088000001,-9.595567217600001,2.2825510848,-0.06718472,2.37714737,-3.21225942,,,
imu,207.098277,0.7590559032000002,-9.592576453600001,2.278962168,0.07487657,2.36219355,-3.18235178,,,
imu,207.106756,0.7817857096,-9.585996772800002,2.2855418488,0.11973803,2.19022462,-3.18982869,,,
imu,207.115235,0.7746078760000001,-9.572239258400002,2.2765695568,0.01506129,2.01077878,-3.35432071,,,
imu,207.123714,0.7728134176000001,-9.558481744000002,2.264008348,0.21693786,1.9509635,-3.35432071,,,
imu,205.727597,,,,,,,72.4130996,-1.50761960000001,-7.476895200000011
imu,205.829129,,,,,,,71.949226,-1.470998000000012,-5.072076800000003
imu,205.930752,,,,,,,72.05909079999999,-1.397754800000017,-5.450500000000003
imu,206.032254,,,,,,,72.07129800000001,-1.336718800000014,-5.572572000000009
imu,206.133816,,,,,,,71.9858476,-1.727349200000017,-4.730275200000012
imu,206.235379,,,,,,,71.9370188,-1.495412400000018,-5.377256800000008
imu,206.336972,,,,,,,71.521974,-1.654106000000022,-5.023248000000002
imu,206.438565,,,,,,,74.12210759999999,-2.97248360000002,-5.523743200000009
imu,207.132192,0.7650374312,-9.540537160000001,2.2586249728,0.46367589,1.91357895,-3.55619728,,,
imu,207.140671,0.7554669864000001,-9.526779645600001,2.2562323616,0.6954601,1.78647148,-3.67582784,,,
imu,207.14915,0.7548688336000001,-9.5459205352,2.2628120424,0.83004448,1.7266562,-3.8702275,,,
imu,207.157629,0.7363260968000002,-9.592576453600001,2.2855418488,0.9870595899999999,1.71170238,-3.98985806,,,
imu,207.166108,0.7303445688000001,-9.6326526912,2.2891307656,1.09921324,1.8014253,-3.98985806,,,
imu,207.174586,0.7064184568,-9.658373261600001,2.2963085992,1.22632071,1.8761944,-4.06462716,,,
imu,207.183065,0.70282954,-9.660765872800003,2.3022901272,1.2188438,1.96591732,-4.20668845,,,
imu,207.191544,0.7004369288000002,-9.668541859200001,2.2981030576,1.24875144,2.11545552,-4.23659609,,,
imu,207.200023,0.6962498592000002,-9.6643547896,2.286738154400001,1.4431511,2.26499372,-4.30388828,,,
imu,207.208502,0.6920627896000001,-9.6703363176,2.2741769456,1.30856672,2.57902394,-4.35622665,,,
imu,207.21698,0.6980443176000002,-9.671532623200001,2.2681954176,1.23379762,2.82576197,-4.44594957,,,
imu,207.225459,0.7070166096,-9.668541859200001,2.2544379032,1.1440747,3.02763854,-4.35622665,,,
imu,207.233938,0.723764888,-9.665551095200001,2.2526434448,1.04687487,3.06502309,-4.52071867,,,
imu,207.242417,0.7303445688000001,-9.661364025600001,2.2478582224,1.00949032,3.20708438,-4.453426479999999,,,
imu,207.250896,0.7548688336000001,-9.669140012000002,2.249652680800001,0.97958268,3.31176112,-4.49081103,,,
imu,207.259374,0.7638411256000001,-9.656578803200002,2.2448674584,0.88985976,3.37905331,-4.47585721,,,
imu,207.267837,0.7817857096,-9.644615747200001,2.2466619168,0.8449983,3.28185348,-4.59548777,,,
imu,207.276299,0.7847764736,-9.662560331200002,2.2436711528,0.76275229,3.10988455,-4.43847266,,,
imu,207.284761,0.8039173632000001,-9.657775108800001,2.234100708,0.77770611,2.98277708,-4.22164227,,,
imu,207.293223,0.8093007384,-9.632054538400002,2.2454656112,0.6132140899999999,2.66126995,-4.25154991,,,
imu,207.301686,0.8110951968000001,-9.6218859408,2.2335025552,0.51601426,2.3995781,-4.31136519,,,
imu,207.310148,0.8098988912000001,-9.611119190400002,2.2317080968,0.46367589,2.1005017,-4.341272829999999,,,
imu,207.31861,0.8075062800000001,-9.6075302736,2.22811918,0.41133752,1.71917929,-4.32631901,,,
imu,207.327072,0.8033192104000001,-9.595567217600001,2.2203431936,0.52349117,1.30794924,-4.47585721,,,
imu,207.335535,0.7787949456000002,-9.580613397600002,2.2077819848,0.60573718,0.9341037399999998,-4.47585721,,,
imu,207.343997,0.7650374312,-9.578220786400001,2.210174596,0.71789083,0.66493498,-4.3936112,,,
imu,207.352459,0.7506817640000001,-9.578220786400001,2.1958189288,0.88985976,0.5153967799999997,-4.26650373,,,
imu,207.360922,0.7261574992000001,-9.593772759200002,2.2083801376,1.10669015,0.35838167,-4.31136519,,,
imu,207.369384,0.7004369288000002,-9.6087265792,2.225128416,1.19641307,0.29856639,-4.25902682,,,
imu,207.377846,0.684884956,-9.661962178400001,2.2299136384,1.23379762,0.2910894799999997,-4.21416536,,,
imu,207.386308,0.6789034280000001,-9.706225485600001,2.2442693056,1.36090509,0.3209971199999999,-4.11696553,,,
imu,207.394771,0.6597625384000001,-9.731946056000002,2.25802682,1.16650543,0.4854891399999999,-4.15435008,,,
imu,207.403233,0.646005024,-9.7217774584,2.2652046536,1.03192105,0.6724118899999998,-4.169303899999999,,,
imu,207.411695,0.6495939408000001,-9.702038416,2.2771677096,0.8674290299999999,0.92662683,-4.18425772,,,
imu,207.420157,0.6454068712000001,-9.673925234400002,2.2801584736,0.51601426,0.9565344699999998,-4.26650373,,,
imu,207.42862,0.6400234960000001,-9.675719692800001,2.2825510848,0.44872207,1.2032725,-4.430995749999999,,,
imu,207.437082,0.6382290376000002,-9.690673512800002,2.2855418488,0.29170696,1.29299542,-4.58053395,,,
imu,207.445544,0.6477994824000001,-9.693664276800002,2.2831492376,-0.02980017,1.3528107,-4.70016451,,,
imu,207.454007,0.6376308848000001,-9.6709344704,2.2915233768,-0.29896893,1.4275798,-4.909517989999999,,,
imu,207.462469,0.631051204,-9.6499991224,2.3052808912,-0.37373803,1.33785688,-4.94690254,,,
imu,207.470931,0.6244715232,-9.644615747200001,2.3130568776,-0.5008455,1.60702564,-4.66277996,,,
imu,207.479393,0.631051204,-9.654784344800001,2.323823628,-0.5681376899999999,1.75656384,-4.244073,,,
imu,207.487856,0.6286585928,-9.644017594400001,2.3046827384,-0.54570696,2.00330187,-3.83284295,,,
imu,207.496318,0.6376308848000001,-9.6326526912,2.3082716552,-0.2765382,2.28742445,-3.37675144,,,
imu,207.50478,0.6442105656,-9.6039413568,2.3052808912,-0.13447691,2.31733209,-3.36927453,,,
imu,207.513242,0.6627533024,-9.595567217600001,2.311860572000001,0.16459949,2.31733209,-3.26459779,,,
imu,207.521705,0.6483976352,-9.5877912312,2.30288828,0.45619898,2.36967046,-3.36179762,,,
imu,207.530167,0.6609588440000002,-9.560874355200001,2.3046827384,0.67302937,2.41453192,-3.60105874,,,
imu,207.538629,0.6513883992,-9.552500216,2.2951122936,1.00201341,2.35471664,-3.61601256,,,
imu,207.547092,0.6519865520000001,-9.5381445488,2.305879044,1.10669015,2.45191647,-3.76555076,,,
imu,207.555554,0.6525847048000001,-9.553696521600001,2.2885326128,1.35342818,2.42948574,-3.88518132,,,
imu,207.564016,0.6501920936000001,-9.5668558832,2.2897289184,1.77961205,2.52668557,-3.81041222,,,
imu,207.572478,0.6615569968000001,-9.568650341600001,2.299897516,2.03382699,2.56407012,-3.69078166,,,
imu,207.580941,0.6681366776000001,-9.593174606400002,2.2981030576,2.13850373,2.74351596,-3.59358183,,,
imu,207.589403,0.6699311360000001,-9.596763523200002,2.3010938216,2.10111918,2.88557725,-3.58610492,,,
imu,207.597865,0.681894192,-9.620689635200002,2.314851336,2.15345755,2.96782326,-3.53376655,,,
imu,207.606327,0.6830904976000001,-9.627269316000001,2.3166457944,2.1908421,3.11736146,-3.54872037,,,
imu,207.61479,0.6986424704000002,-9.635643455200002,2.3202347112,2.09364227,2.96782326,-3.7954584,,,
imu,207.623252,0.6956517064000001,-9.6494009696,2.3154494888,2.05625772,2.98277708,-3.95995042,,,
imu,207.631714,0.6944554008000001,-9.655382497600002,2.3286088504,1.95158098,2.85566961,-4.0945348,,,
imu,207.640176,0.7046239984,-9.669140012000002,2.3226273224,1.86185806,2.9229618,-4.10948862,,,
imu,207.648639,0.7040258456,-9.669140012000002,2.321431016800001,1.7422275,2.79585433,-4.10948862,,,
imu,207.657101,0.7052221512000001,-9.669140012000002,2.3304033088,1.64502767,2.83323888,-3.88518132,,,
imu,207.665563,0.7094092208000001,-9.662560331200002,2.3166457944,1.60764312,2.86314652,-3.89265823,,,
imu,207.674028,0.7106055264000001,-9.6494009696,2.3232254752,1.56278166,2.78837742,-3.7954584,,,
imu,207.682493,0.7147925960000001,-9.635045302400002,2.3136550304,1.46558183,2.93043871,-3.59358183,,,
imu,207.690958,0.7100073736000001,-9.631456385600002,2.2957104464,1.53287402,2.90800798,-3.42908981,,,
imu,207.699423,0.7123999848000001,-9.6296619272,2.2963085992,1.74970441,2.79585433,-3.43656672,,,
imu,207.707887,0.7243630408,-9.635643455200002,2.311860572000001,1.84690424,2.72856214,-3.52628964,,,
imu,207.716352,0.7189796656000002,-9.652989886400002,2.2945141408,1.99644244,2.57902394,-3.58610492,,,
imu,207.724817,0.7070166096,-9.630858232800001,2.307673502400001,2.14598064,2.72108523,-3.73564312,,,
imu,207.733282,0.7082129152000001,-9.6159044128,2.3070753496,2.16841137,2.57902394,-3.8702275,,,
imu,207.741747,0.7189796656000002,-9.616502565600001,2.2897289184,2.07868845,2.36219355,-3.8702275,,,
imu,207.750211,0.7058203040000001,-9.6248767048,2.2753732512,2.21327283,2.42948574,-3.88518132,,,
imu,207.758676,0.7129981376000001,-9.614109954400002,2.2562323616,2.48244159,2.59397776,-3.77302767,,,
imu,207.767141,0.7123999848000001,-9.609324732000001,2.2532415976,2.57216451,2.74351596,-3.60853565,,,
imu,207.775606,0.726755652,-9.618895176800002,2.2388859304,2.69927198,2.82576197,-3.75807385,,,
imu,207.784071,0.7261574992000001,-9.620689635200002,2.2293154856,3.0880713,2.93791562,-3.75807385,,,
imu,207.792535,0.7387187080000002,-9.617698871200002,2.2245302632,3.26751714,2.94539253,-3.8702275,,,
imu,207.801,0.7333353328000001,-9.617698871200002,2.21316536,3.11050203,2.68370068,-4.08705789,,,
imu,207.80954,0.7315408744,-9.617100718400001,2.205389373600001,3.15536349,2.63136231,-4.22911918,,,
imu,207.818005,0.7303445688000001,-9.6159044128,2.192230012,3.12545585,2.53416248,-4.44594957,,,
imu,207.82647,0.7303445688000001,-9.633250844,2.189239248,2.92357928,2.38462428,-4.55810322,,,
imu,207.834934,0.7363260968000002,-9.648204664000001,2.1898374008,2.998348379999999,2.40705501,-4.408565019999999,,,
imu,207.843399,0.7291482632,-9.6703363176,2.186248484,2.88619473,2.27247063,-4.29641137,,,
imu,207.851864,0.7279519576000001,-9.6817012208,2.2006041512,2.54225687,2.26499372,-4.41604193,,,
imu,207.860329,0.7303445688000001,-9.6942624296,2.208978290400001,2.39271867,2.30985518,-4.22164227,,,
imu,207.868794,0.7261574992000001,-9.714001472000001,2.204193068,2.116073,2.1752708,-4.28893446,,,
imu,207.877607,0.726755652,-9.711608860800002,2.2143616656,2.02635008,2.03320951,-4.29641137,,,
imu,207.886419,0.7159889016000002,-9.720581152800001,2.2125672072,1.80204278,2.00330187,-4.169303899999999,,,
imu,207.895232,0.6962498592000002,-9.7128051664,2.2095764432,1.63007385,1.94348659,-4.32631901,,,
imu,207.904045,0.6986424704000002,-9.718188541600002,2.1988096928,1.64502767,1.9509635,-4.29641137,,,
imu,207.912858,0.6890720256,-9.697253193600002,2.2035949152,1.43567419,1.83880985,-4.3936112,,,
imu,207.921671,0.6753145112000001,-9.703832874400002,2.2023986096,1.42072037,1.80890221,-4.40108811,,,
imu,207.930484,0.6633514552,-9.696655040800001,2.1976133872,1.35342818,2.06311715,-4.28893446,,,
imu,207.939297,0.6567717744000001,-9.690673512800002,2.2035949152,1.30108981,2.16031698,-4.146873169999999,,,
imu,206.540269,,,,,,,72.1201268,-2.227844400000012,-4.05887920000001
imu,206.64174,,,,,,,74.8057108,-2.887033200000011,-6.95198560000001
imu,206.743303,,,,,,,72.620622,-2.069150800000008,-4.241987200000008
imu,206.844835,,,,,,,73.02345960000001,-2.484195600000016,-6.95198560000001
imu,206.946458,,,,,,,72.925802,-2.252258800000018,-4.644824800000002
imu,207.04799,,,,,,,72.8281444,-1.886042800000021,-5.450500000000003
imu,207.149583,,,,,,,72.1567484,-1.251268400000005,-5.096491200000008
imu,207.251146,,,,,,,72.681658,-1.666313200000014,-4.91338320000001
imu,207.94811,0.6615569968000001,-9.688879054400001,2.1994078456,1.41324346,2.34723973,-4.25154991,,,
imu,207.956923,0.6531828576,-9.675121540000001,2.189239248,1.34595127,2.29490136,-4.29641137,,,
imu,207.965736,0.6597625384000001,-9.669738164800002,2.1958189288,1.33847436,2.40705501,-4.35622665,,,
imu,207.974549,0.6531828576,-9.665551095200001,2.180266956,1.23379762,2.66874686,-4.430995749999999,,,
imu,207.983362,0.6495939408000001,-9.651195428000001,2.1760798864,1.13659779,2.83323888,-4.363703559999999,,,
imu,207.992175,0.6657440664000001,-9.635643455200002,2.1766780392,1.03192105,2.99025399,-4.48333412,,,
imu,208.000988,0.6765108168000001,-9.639830524800002,2.1748835808,0.91229049,3.06502309,-4.49828794,,,
imu,208.009801,0.6789034280000001,-9.66016772,2.1874447896,0.9571519499999999,3.02763854,-4.47585721,,,
imu,208.018614,0.6938572480000001,-9.687084596000002,2.1904355536,0.7702292,3.00520781,-4.44594957,,,
imu,208.027427,0.6938572480000001,-9.689477207200001,2.204193068,0.68798319,3.16969983,-4.453426479999999,,,
imu,208.03624,0.6968480120000001,-9.702038416,2.204193068,0.5010604399999999,3.28185348,-4.453426479999999,,,
imu,208.045052,0.6908664840000001,-9.688879054400001,2.201202304,0.42629134,3.10240764,-4.44594957,,,
imu,208.053865,0.6926609424000001,-9.683495679200002,2.216156124,0.38142988,2.81080815,-4.52071867,,,
imu,208.062678,0.6842868032,-9.685888290400001,2.228717332800001,0.30666078,2.7734236,-4.56558013,,,
imu,208.071491,0.6926609424000001,-9.676915998400002,2.225128416,0.20198404,2.80333124,-4.55810322,,,
imu,208.079976,0.6854831088000001,-9.6745233872,2.2233339576,0.03001510999999998,2.66874686,-4.59548777,,,
imu,208.088462,0.6836886504,-9.669738164800002,2.243073,-0.08961545,2.61640849,-4.58053395,,,
imu,208.096947,0.6777071224000001,-9.651195428000001,2.2299136384,-0.09709236,2.52668557,-4.4683803,,,
imu,208.105432,0.6723237472000001,-9.659569567200002,2.237091472,-0.0522309,2.50425484,-4.430995749999999,,,
imu,208.113917,0.6597625384000001,-9.6523917336,2.2394840832,0.11226112,2.42948574,-4.43847266,,,
imu,208.122402,0.6609588440000002,-9.6494009696,2.2466619168,0.17955331,2.35471664,-4.3936112,,,
imu,208.130887,0.6561736216000001,-9.6434194416,2.249054528,0.34404533,2.44443956,-4.408565019999999,,,
imu,208.139373,0.6585662328000002,-9.637437913600001,2.2598212784,0.55339881,2.59397776,-4.30388828,,,
imu,208.147858,0.6567717744000001,-9.630858232800001,2.2598212784,0.67302937,2.66874686,-4.15435008,,,
imu,208.156343,0.6651459136000001,-9.6015487456,2.2622138896,0.58330645,2.68370068,-4.0197657,,,
imu,208.164828,0.6567717744000001,-9.5949690648,2.269989876,0.65807555,2.75099287,-3.92256587,,,
imu,208.173313,0.6561736216000001,-9.5656595776,2.261017584,0.63564482,2.72856214,-4.16182699,,,
imu,208.181798,0.663949608,-9.587193078400002,2.253839750400001,0.9048135799999999,2.71360832,-4.318842099999999,,,
imu,208.190284,0.6555754688000001,-9.655980650400002,2.2598212784,1.20388998,2.66126995,-4.44594957,,,
imu,208.198769,0.6394253432000001,-9.662560331200002,2.2616157368,1.23379762,2.74351596,-4.68521069,,,
imu,208.207254,0.6549773160000001,-9.6523917336,2.2622138896,1.31604363,2.72108523,-4.70764142,,,
imu,208.215739,0.648995788,-9.631456385600002,2.2604194312,1.51044329,2.81828506,-4.61044159,,,
imu,208.224224,0.6406216488000002,-9.634447149600001,2.2622138896,1.67493531,3.03511545,-4.4683803,,,
imu,208.232709,0.6448087184,-9.639232372,2.264008348,1.80204278,3.30428421,-3.86275059,,,
imu,208.241194,0.6585662328000002,-9.657176956,2.2658028064,2.06373463,3.7454219,-3.32441307,,,
imu,208.24968,0.6771089696000001,-9.685290137600001,2.25802682,1.99644244,3.99963684,-3.06272122,,,
imu,208.258165,0.7004369288000002,-9.672130776000001,2.264008348,1.92167334,3.99215993,-3.10758268,,,
imu,208.26665,0.7159889016000002,-9.672130776000001,2.25802682,2.06373463,4.05197521,-3.07767504,,,
imu,208.275135,0.7297464160000001,-9.672728928800002,2.2412785416,2.06373463,3.87252937,-3.23469015,,,
imu,208.283596,0.7357279440000001,-9.669140012000002,2.2346988608,2.18336519,3.76785263,-3.45152054,,,
imu,208.292057,0.7435039304000001,-9.6494009696,2.2317080968,2.12354991,3.57345297,-3.75807385,,,
imu,208.300518,0.7315408744,-9.636839760800001,2.2137635128,1.99644244,3.39400713,-4.13191935,,,
imu,208.308979,0.7387187080000002,-9.630260080000001,2.205389373600001,1.98148862,3.24446893,-4.35622665,,,
imu,208.31744,0.7375224024000001,-9.6326526912,2.1958189288,1.92915025,2.99025399,-4.42351884,,,
imu,208.325901,0.7357279440000001,-9.641026830400001,2.1988096928,2.03382699,2.87062343,-4.4683803,,,
imu,208.334362,0.7381205552000002,-9.657775108800001,2.1946226232,2.09364227,2.7734236,-4.50576485,,,
imu,208.342823,0.7381205552000002,-9.6799067624,2.2107727488,2.02635008,2.43696265,-4.63287232,,,
imu,208.351284,0.7321390272000001,-9.6799067624,2.2018004568,1.94410407,2.324809,-4.670256869999999,,,
imu,208.359745,0.7231667352000001,-9.6846919848,2.2077819848,1.92167334,2.14536316,-4.759979789999999,,,
imu,208.368206,0.7219704296,-9.6817012208,2.1976133872,1.94410407,1.92105586,-4.931948719999999,,,
imu,208.376667,0.6980443176000002,-9.6709344704,2.1940244704,1.88428879,1.53973345,-5.17868675,,,
imu,208.385128,0.6878757200000001,-9.671532623200001,2.1844540256,1.80951969,1.40514907,-5.238502029999999,,,
imu,208.393589,0.6699311360000001,-9.673925234400002,2.1898374008,1.76465823,1.2032725,-5.16373293,,,
imu,208.40205,0.6597625384000001,-9.688280901600002,2.189239248,1.76465823,1.06121121,-5.044102369999999,,,
imu,208.410511,0.646005024,-9.702038416,2.1850521784,1.71979677,0.9415806499999997,-4.999240909999999,,,
imu,208.418972,0.6400234960000001,-9.696655040800001,2.1724909696,1.65250458,0.8369039099999998,-4.93942563,,,
imu,208.427433,0.6274622872000001,-9.692467971200001,2.18325772,1.69736604,0.9415806499999997,-4.74502597,,,
imu,208.435894,0.6137047728000001,-9.690673512800002,2.1730891224,1.6674584,0.8144731799999998,-4.52819558,,,
imu,208.444355,0.6119103144000001,-9.673925234400002,2.1718928168,1.52539711,0.8817653699999997,-4.30388828,,,
imu,208.452816,0.6160973840000001,-9.700243957600001,2.2000059984,1.53287402,0.9415806499999997,-4.27398064,,,
imu,208.461277,0.6137047728000001,-9.7122070136,2.191631859200001,1.40576655,0.9341037399999998,-4.40108811,,,
imu,208.469738,0.6101158560000001,-9.689477207200001,2.1898374008,1.19641307,0.9415806499999997,-4.55810322,,,
imu,208.478199,0.6089195504,-9.661962178400001,2.2119690544,1.03192105,0.8294269999999999,-4.68521069,,,
imu,208.486675,0.5867878968000001,-9.669140012000002,2.216156124,0.8674290299999999,0.8294269999999999,-4.70764142,,,
imu,208.495152,0.5760211464000001,-9.680504915200002,2.2029967624,0.7552753799999999,0.9640113799999996,-4.41604193,,,
imu,208.503628,0.5766192992000001,-9.669140012000002,2.2035949152,0.5982602699999999,1.16588795,-4.13191935,,,
imu,208.512104,0.5837971328000001,-9.655980650400002,2.1964170816,0.63564482,1.30794924,-3.84031986,,,
imu,208.52058,0.5843952856000001,-9.6535880392,2.1934263176,0.5982602699999999,1.31542615,-3.92256587,,,
imu,208.529057,0.5843952856000001,-9.655980650400002,2.2059875264,0.64312173,1.45001053,-4.057150249999999,,,
imu,208.537533,0.6053306336000001,-9.6494009696,2.204193068,0.8674290299999999,1.53973345,-4.22164227,,,
imu,208.546009,0.5939657304000001,-9.645213900000002,2.1958189288,0.79265993,1.56216418,-4.341272829999999,,,
imu,208.554485,0.5969564944000001,-9.642223136000002,2.2059875264,0.9945364999999999,1.41262598,-4.43847266,,,
imu,208.562962,0.5885823552,-9.635045302400002,2.2113709016,1.00201341,1.49487199,-4.55062631,,,
imu,208.571438,0.5861897440000001,-9.647606511200001,2.2065856792,1.12912088,1.46496435,-4.59548777,,,
imu,208.579914,0.5879842024,-9.648802816800002,2.2107727488,1.27865908,1.65936401,-4.453426479999999,,,
imu,208.58839,0.5837971328000001,-9.648802816800002,2.2143616656,1.34595127,1.71917929,-4.19921154,,,
imu,208.596867,0.5730303824,-9.669738164800002,2.2113709016,1.33847436,1.73413311,-4.13191935,,,
imu,208.605343,0.5873860496000001,-9.663158484000002,2.2083801376,1.36090509,1.76404075,-4.04967334,,,
imu,208.613819,0.5927694248,-9.6523917336,2.19821154,1.2936129,1.84628676,-3.95247351,,,
imu,208.622295,0.5927694248,-9.6494009696,2.1928281648,1.2936129,1.89114822,-3.88518132,,,
imu,208.630772,0.5909749664,-9.655980650400002,2.1898374008,1.34595127,1.90610204,-3.74312003,,,
imu,208.639248,0.5855915912,-9.662560331200002,2.201202304,1.45810492,1.94348659,-3.75059694,,,
imu,208.647724,0.5861897440000001,-9.661962178400001,2.1994078456,1.48053565,1.90610204,-3.71321239,,,
imu,208.6562,0.5891805080000001,-9.675121540000001,2.205389373600001,1.6674584,2.09302479,-3.38422835,,,
imu,208.664677,0.5790119104,-9.689477207200001,2.2035949152,1.60764312,1.99582496,-3.48890509,,,
imu,208.673153,0.5909749664,-9.690075360000002,2.207183832,1.63755076,2.07807097,-3.51881273,,,
imu,208.681629,0.5945638832000001,-9.701440263200002,2.210174596,1.61512003,2.22760917,-3.4216129,,,
imu,208.690078,0.5969564944000001,-9.6942624296,2.2029967624,1.41324346,2.28742445,-3.44404363,,,
imu,208.698526,0.5963583416000001,-9.688879054400001,2.208978290400001,1.45810492,2.43696265,-3.2720747,,,
imu,208.706974,0.6047324808000001,-9.684093832000002,2.1976133872,1.13659779,2.45939338,-3.30198234,,,
imu,208.715422,0.6184899952000001,-9.675121540000001,2.1934263176,1.07678251,2.63136231,-3.27955161,,,
imu,208.723871,0.6166955368000001,-9.669738164800002,2.1988096928,1.12912088,2.81080815,-3.33936689,,,
imu,208.732319,0.6154992312,-9.659569567200002,2.191631859200001,1.0693056,2.87062343,-3.39170526,,,
imu,208.740767,0.6190881480000001,-9.660765872800003,2.1886410952,1.18893616,2.86314652,-3.36179762,,,
imu,208.749216,0.6238733704,-9.651195428000001,2.192230012,1.20388998,2.91548489,-3.39170526,,,
imu,208.757664,0.6268641344,-9.666149248000002,2.1946226232,1.03192105,2.97530017,-3.51881273,,,
imu,207.352617,,,,,,,72.42530680000002,-1.544241200000007,-4.327437600000006
imu,207.454271,,,,,,,74.8667468,-1.959286000000016,-4.937797600000005
imu,207.555772,,,,,,,72.54737879999999,-0.9094668000000139,-4.571581600000007
imu,207.657365,,,,,,,74.573774,-2.264466000000009,-6.939778400000007
imu,207.75905,,,,,,,72.1811628,-1.129196400000021,-5.084284000000006
imu,207.860521,,,,,,,72.7671084,-1.690727600000019,-7.696624800000007
imu,207.962053,,,,,,,72.73048680000001,-1.422169200000023,-5.023248000000002
imu,208.063554,,,,,,,71.8759828,-1.470998000000012,-4.791311200000004
imu,208.766112,0.6286585928,-9.659569567200002,2.192230012,1.10669015,3.12483837,-3.45152054,,,
imu,208.77456,0.6358364264000002,-9.666149248000002,2.1874447896,1.10669015,3.13231528,-3.43656672,,,
imu,208.783009,0.6495939408000001,-9.676317845600002,2.2083801376,0.91229049,2.98277708,-3.63844329,,,
imu,208.791457,0.6609588440000002,-9.6942624296,2.2119690544,0.9571519499999999,2.89305416,-3.78798149,,,
imu,208.799905,0.6543791632000001,-9.703832874400002,2.2065856792,0.91229049,2.89305416,-3.81788913,,,
imu,208.808354,0.6573699272000001,-9.688879054400001,2.2018004568,0.9945364999999999,2.8481927,-3.68330475,,,
imu,208.816802,0.6675385248000001,-9.669738164800002,2.2179505824,0.7552753799999999,2.76594669,-3.62348947,,,
imu,208.82525,0.6663422192,-9.654784344800001,2.2167542768,0.78518302,2.53416248,-3.86275059,,,
imu,208.833698,0.6633514552,-9.644017594400001,2.204193068,0.64312173,2.36967046,-3.98238115,,,
imu,208.842147,0.6537810104000001,-9.655382497600002,2.21316536,0.71789083,2.31733209,-4.06462716,,,
imu,208.850595,0.6406216488000002,-9.652989886400002,2.2119690544,0.88985976,2.24256299,-4.08705789,,,
imu,208.859043,0.6256678288,-9.6535880392,2.219146888,0.80761375,2.03320951,-4.08705789,,,
imu,208.867491,0.6262659816,-9.644615747200001,2.2215394992,0.70293701,2.0257326,-4.13939626,,,
imu,208.87594,0.61310662,-9.644017594400001,2.216156124,0.7702292,2.03320951,-4.034719519999999,,,
imu,208.884388,0.5933675776,-9.66016772,2.205389373600001,0.9197674,2.04068642,-3.82536604,,,
imu,208.893202,0.5921712720000001,-9.658971414400002,2.188042942400001,1.0693056,1.99582496,-3.52628964,,,
imu,208.902093,0.5933675776,-9.654784344800001,2.1826595672,1.30108981,2.20517844,-3.15244414,,,
imu,208.910907,0.5939657304000001,-9.644615747200001,2.1766780392,1.43567419,2.41453192,-3.03281358,,,
imu,208.919721,0.5921712720000001,-9.6458120528,2.1796688032,1.58521239,2.70613141,-2.96552139,,,
imu,208.928535,0.5981528,-9.656578803200002,2.1605279136,1.60764312,2.61640849,-3.17487487,,,
imu,208.93735,0.5999472584000001,-9.66016772,2.1605279136,1.71231986,2.58650085,-3.33188998,,,
imu,208.946164,0.6029380224,-9.666149248000002,2.1671075944,1.62259694,2.64631613,-3.5711511,,,
imu,208.954978,0.6071250920000001,-9.6709344704,2.174285428,1.57025857,2.6986545,-3.72816621,,,
imu,208.963792,0.6095177032000001,-9.6799067624,2.171294664,1.49548947,2.78090051,-3.77302767,,,
imu,208.972607,0.6107140088,-9.692467971200001,2.1695002056,1.45810492,2.75099287,-3.90013514,,,
imu,208.981421,0.6220789120000001,-9.6918698184,2.1826595672,1.22632071,2.81080815,-4.057150249999999,,,
imu,208.990235,0.6238733704,-9.699645804800001,2.1700983584,1.01696723,2.78837742,-4.169303899999999,,,
imu,208.99905,0.6358364264000002,-9.697253193600002,2.1796688032,1.00949032,2.75099287,-4.0197657,,,
imu,209.007864,0.6382290376000002,-9.6918698184,2.1748835808,0.9870595899999999,2.78837742,-3.93751969,,,
imu,209.016678,0.6346401208000001,-9.685888290400001,2.174285428,0.8674290299999999,2.64631613,-4.0197657,,,
imu,209.025492,0.6448087184,-9.688280901600002,2.1748835808,0.78518302,2.4743472,-4.00481188,,,
imu,209.034307,0.62806044,-9.6637566368,2.1718928168,0.6954601,2.48182411,-3.9449966,,,
imu,209.043121,0.6214807592000001,-9.668541859200001,2.1724909696,0.70293701,2.36219355,-4.012288789999999,,,
imu,209.051935,0.6214807592000001,-9.6703363176,2.192230012,0.65807555,2.14536316,-4.08705789,,,
imu,209.060749,0.6119103144000001,-9.6703363176,2.191631859200001,0.6132140899999999,2.10797861,-3.90013514,,,
imu,209.069564,0.5999472584000001,-9.672728928800002,2.1946226232,0.5459219,2.19022462,-3.75059694,,,
imu,209.078378,0.6059287864000001,-9.6709344704,2.1958189288,0.620691,2.04816333,-3.57862801,,,
imu,209.087192,0.6089195504,-9.6733270816,2.2023986096,0.53096808,2.19770153,-3.45899745,,,
imu,209.095672,0.6160973840000001,-9.673925234400002,2.1928281648,0.53096808,2.22013226,-3.36927453,,,
imu,209.104152,0.6184899952000001,-9.676317845600002,2.1976133872,0.58330645,2.33976282,-3.18982869,,,
imu,209.112632,0.6340419680000001,-9.6745233872,2.210174596,0.5459219,2.41453192,-3.16739796,,,
imu,209.121113,0.6388271904000001,-9.690075360000002,2.2352970136,0.6132140899999999,2.41453192,-3.27955161,,,
imu,209.129593,0.6214807592000001,-9.70502918,2.2346988608,0.7403215599999999,2.27994754,-3.55619728,,,
imu,209.138073,0.6376308848000001,-9.672130776000001,2.2418766944,0.620691,2.25751681,-3.66835093,,,
imu,209.146553,0.6448087184,-9.661962178400001,2.2544379032,0.35899915,2.27994754,-3.86275059,,,
imu,209.155033,0.6346401208000001,-9.6523917336,2.2442693056,0.19450713,2.25751681,-3.90013514,,,
imu,209.163513,0.6298548984000001,-9.639830524800002,2.2293154856,0.09730729999999999,2.30237827,-3.72816621,,,
imu,209.171993,0.6388271904000001,-9.618895176800002,2.2239321104,0.2468455,2.49677793,-3.45152054,,,
imu,209.180473,0.6466031768,-9.614109954400002,2.225128416,0.35152224,2.5491163,-3.38422835,,,
imu,209.188953,0.6567717744000001,-9.617100718400001,2.2197450408,0.50853735,2.60145467,-3.42908981,,,
imu,209.197433,0.6675385248000001,-9.6218859408,2.2215394992,0.64312173,2.66874686,-3.43656672,,,
imu,209.205913,0.6675385248000001,-9.6296619272,2.22811918,0.9272443100000001,2.48930102,-3.42908981,,,
imu,209.214393,0.6771089696000001,-9.626671163200001,2.21316536,1.00201341,2.37714737,-3.57862801,,,
imu,209.222873,0.681894192,-9.6260730104,2.2143616656,1.24127453,2.41453192,-3.66835093,,,
imu,209.231353,0.6812960392000001,-9.632054538400002,2.2179505824,1.39828964,2.30237827,-3.75059694,,,
imu,209.239834,0.681894192,-9.637437913600001,2.2155579712,1.50296638,2.15284007,-3.74312003,,,
imu,209.248314,0.6896701784000001,-9.6523917336,2.207183832,1.56278166,2.04816333,-3.84031986,,,
imu,209.256794,0.6866794144,-9.652989886400002,2.1964170816,1.74970441,2.04068642,-3.84779677,,,
imu,209.265274,0.6771089696000001,-9.669738164800002,2.21316536,1.60016621,2.00330187,-3.75059694,,,
imu,209.273754,0.6759126640000002,-9.6709344704,2.205389373600001,1.42072037,1.94348659,-3.69078166,,,
imu,209.282234,0.6771089696000001,-9.6703363176,2.2059875264,1.5179202,1.92853277,-3.63844329,,,
imu,209.290714,0.6765108168000001,-9.668541859200001,2.2029967624,1.52539711,1.77151766,-3.67582784,,,
imu,209.299181,0.6753145112000001,-9.672130776000001,2.201202304,1.368382,1.75656384,-3.6459202,,,
imu,209.307649,0.6711274416,-9.672130776000001,2.1976133872,1.27865908,1.74908693,-3.70573548,,,
imu,209.316116,0.6693329832000001,-9.6709344704,2.204193068,1.30856672,1.69674856,-3.44404363,,,
imu,209.324583,0.6657440664000001,-9.6703363176,2.204193068,1.16650543,1.59954873,-3.46647436,,,
imu,209.333051,0.663949608,-9.706225485600001,2.205389373600001,1.16650543,1.79394839,-3.47395127,,,
imu,209.341518,0.6525847048000001,-9.7008421104,2.207183832,1.03192105,1.71917929,-3.56367419,,,
imu,209.349985,0.6615569968000001,-9.678112304,2.201202304,1.03192105,1.66684092,-3.61601256,,,
imu,209.358453,0.6573699272000001,-9.667345553600002,2.2083801376,0.8823828499999999,1.56216418,-3.82536604,,,
imu,209.36692,0.6645477608,-9.657775108800001,2.2155579712,0.8449983,1.68179474,-3.9449966,,,
imu,209.375388,0.6633514552,-9.671532623200001,2.1994078456,0.83004448,1.65936401,-3.95995042,,,
imu,209.383855,0.6615569968000001,-9.6709344704,2.2119690544,0.8449983,1.49487199,-4.102011709999999,,,
imu,209.392322,0.6549773160000001,-9.672130776000001,2.2197450408,0.79265993,1.47244126,-4.169303899999999,,,
imu,209.40079,0.6513883992,-9.673925234400002,2.2245302632,0.68798319,1.34533379,-4.34874974,,,
imu,209.409257,0.6448087184,-9.6733270816,2.216156124,0.53844499,1.4275798,-4.30388828,,,
imu,209.417724,0.6340419680000001,-9.662560331200002,2.2418766944,0.53096808,1.36776452,-4.41604193,,,
imu,209.426192,0.6376308848000001,-9.662560331200002,2.2329044024,0.64312173,1.42010289,-4.28893446,,,
imu,209.434659,0.6364345792000001,-9.640428677600001,2.2382877776,0.52349117,1.36028761,-4.28145755,,,
imu,209.443126,0.6274622872000001,-9.6326526912,2.237091472,0.63564482,1.33785688,-4.35622665,,,
imu,209.451594,0.6202844536000002,-9.6284656216,2.2239321104,0.6281679099999999,1.36028761,-4.363703559999999,,,
imu,209.460061,0.6119103144000001,-9.61530626,2.2293154856,0.6132140899999999,1.36776452,-4.50576485,,,
imu,209.468528,0.6077232448000001,-9.608128426400002,2.2173524296,0.63564482,1.32290306,-4.52819558,,,
imu,209.476996,0.6113121616,-9.620689635200002,2.2119690544,0.9048135799999999,1.24065705,-4.72259524,,,
imu,209.485463,0.5891805080000001,-9.641624983200002,2.225128416,1.00201341,1.3528107,-4.81231816,,,
imu,209.493931,0.58319898,-9.668541859200001,2.2382877776,1.09173633,1.47991817,-4.73007215,,,
imu,209.502388,0.5873860496000001,-9.6942624296,2.253839750400001,1.06182869,1.577118,-4.66277996,,,
imu,209.510845,0.5718340768000001,-9.7074217912,2.264008348,1.17398234,1.61450255,-4.67773378,,,
imu,209.519302,0.5808063688,-9.714599624800002,2.2628120424,1.00201341,1.6518871,-4.75250288,,,
imu,209.527759,0.5879842024,-9.6733270816,2.2717843344,0.8823828499999999,1.8014253,-4.68521069,,,
imu,209.536216,0.5808063688,-9.667345553600002,2.263410195200001,0.8449983,1.63693328,-4.75250288,,,
imu,209.544674,0.5837971328000001,-9.684093832000002,2.2777658624,0.7403215599999999,1.60702564,-4.87213344,,,
imu,209.553131,0.5796100632000001,-9.727160833600001,2.269989876,0.8524752099999999,1.60702564,-4.9169949,,,
imu,209.561588,0.5814045216000001,-9.725366375200002,2.269989876,0.97210577,1.577118,-4.81979507,,,
imu,209.570045,0.5778156048000002,-9.7074217912,2.2448674584,1.05435178,1.60702564,-4.81979507,,,
imu,209.578502,0.5718340768000001,-9.648204664000001,2.2454656112,1.32352054,1.64441019,-4.55062631,,,
imu,208.16529,,,,,,,72.42530680000002,-1.654106000000022,-4.681446400000011
imu,208.266822,,,,,,,72.59620760000001,-1.348926000000006,-5.19414880000001
imu,208.368354,,,,,,,72.20557720000001,-1.739556400000009,-5.072076800000003
imu,208.469947,,,,,,,72.1689556,-1.629691600000016,-4.522752800000007
imu,208.571509,,,,,,,74.42728759999999,-1.580862800000005,-5.291806400000009
imu,208.673041,,,,,,,72.36427080000001,-2.21563720000002,-5.523743200000009
imu,208.774634,,,,,,,74.76908920000001,-2.984690800000012,-7.37923760000001
imu,208.876197,,,,,,,71.74170360000001,-2.008114800000005,-5.035455200000005
imu,209.58696,0.5784137576,-9.619493329600001,2.2394840832,1.60016621,1.58459491,-4.16182699,,,
imu,209.595417,0.5556839512000001,-9.6428212888,2.2352970136,1.80951969,1.70422547,-3.62348947,,,
imu,209.603874,0.5742266880000001,-9.634447149600001,2.2029967624,2.06373463,1.99582496,-2.96552139,,,
imu,209.612331,0.5873860496000001,-9.624278552000002,2.18325772,2.36281103,2.04068642,-2.4496146,,,
imu,209.620788,0.6154992312,-9.5949690648,2.180266956,2.50487232,2.14536316,-2.44213769,,,
imu,209.629245,0.6340419680000001,-9.588987536800001,2.1635186776,2.66936434,2.31733209,-2.3748455,,,
imu,209.637703,0.6376308848000001,-9.604539509600002,2.1569389968,2.77404108,2.13788625,-2.4496146,,,
imu,209.64616,0.6543791632000001,-9.599156134400001,2.1407888712,2.998348379999999,2.12293243,-2.50195297,,,
imu,209.654617,0.6394253432000001,-9.614109954400002,2.1449759408,2.998348379999999,2.04068642,-2.78607555,,,
imu,209.663074,0.6501920936000001,-9.633848996800001,2.1449759408,3.11050203,2.01077878,-2.86084465,,,
imu,209.671531,0.6436124128,-9.6494009696,2.1515556216,2.95348692,2.06311715,-2.89075229,,,
imu,209.679989,0.6430142600000001,-9.6667474008,2.159331608,2.87124091,2.08554788,-2.93561375,,,
imu,209.688446,0.6412198016000001,-9.696655040800001,2.171294664,2.66936434,1.90610204,-2.89075229,,,
imu,209.696903,0.6442105656,-9.7151977776,2.1730891224,2.38524176,1.91357895,-2.90570611,,,
imu,209.705368,0.6406216488000002,-9.718188541600002,2.186248484,1.93662716,2.07059406,-2.76364482,,,
imu,209.713833,0.6394253432000001,-9.7295534448,2.189239248,1.60764312,2.04068642,-2.83093701,,,
imu,209.722297,0.6472013296000001,-9.7128051664,2.195220776,1.37585891,2.0257326,-3.01038285,,,
imu,209.730762,0.6466031768,-9.682299373600001,2.1868466368,1.03192105,2.04816333,-3.10758268,,,
imu,209.739227,0.6400234960000001,-9.680504915200002,2.189239248,0.78518302,1.94348659,-3.23469015,,,
imu,209.747692,0.6400234960000001,-9.671532623200001,2.2035949152,0.51601426,1.73413311,-3.60853565,,,
imu,209.756157,0.6370327320000001,-9.675719692800001,2.2077819848,0.4861066199999999,1.81637912,-3.54872037,,,
imu,209.764621,0.6352382736000001,-9.681103068,2.2143616656,0.4711528,1.8761944,-3.59358183,,,
imu,209.773086,0.6286585928,-9.681103068,2.2065856792,0.38142988,1.92105586,-3.6459202,,,
imu,209.781551,0.6388271904000001,-9.683495679200002,2.2095764432,0.45619898,1.98834805,-3.72816621,,,
imu,209.790016,0.6412198016000001,-9.6775141512,2.2083801376,0.46367589,1.9509635,-3.89265823,,,
imu,209.798481,0.6495939408000001,-9.6703363176,2.2167542768,0.5459219,1.88367131,-3.95247351,,,
imu,209.806946,0.6472013296000001,-9.687084596000002,2.208978290400001,0.6281679099999999,2.04816333,-4.00481188,,,
imu,209.81541,0.6483976352,-9.70502918,2.2257265688,0.68050628,2.01077878,-4.19173463,,,
imu,209.823875,0.6472013296000001,-9.724170069600001,2.2484563752,0.7253677399999999,1.98087114,-4.23659609,,,
imu,209.83234,0.6466031768,-9.7283571392,2.2681954176,0.65807555,1.86124058,-4.50576485,,,
imu,209.840805,0.663949608,-9.694860582400002,2.2652046536,0.60573718,1.75656384,-4.647826139999999,,,
imu,209.84927,0.6537810104000001,-9.6703363176,2.2502508336,0.44124516,1.69674856,-4.647826139999999,,,
imu,209.857734,0.646005024,-9.673925234400002,2.237091472,0.3963837,1.65936401,-4.737549059999999,,,
imu,209.866199,0.6286585928,-9.667943706400001,2.2179505824,0.36647606,1.58459491,-4.84970271,,,
imu,209.874664,0.6143029256000001,-9.618297024,2.1994078456,0.20946095,1.46496435,-4.85717962,,,
imu,209.883129,0.6089195504,-9.599156134400001,2.2023986096,0.26179932,1.577118,-4.75250288,,,
imu,209.891594,0.6035361752000001,-9.6039413568,2.2059875264,0.51601426,1.53973345,-4.73007215,,,
imu,209.900058,0.6089195504,-9.617100718400001,2.2023986096,0.7403215599999999,1.59207182,-4.6179185,,,
imu,209.908878,0.6143029256000001,-9.612315496,2.2137635128,0.70293701,1.5023489,-4.59548777,,,
imu,209.917698,0.6017417168000001,-9.6224840936,2.195220776,0.9347212199999999,1.53973345,-4.55062631,,,
imu,209.926517,0.5909749664,-9.630858232800001,2.2059875264,0.94219813,1.55468727,-4.56558013,,,
imu,209.935337,0.5808063688,-9.631456385600002,2.2000059984,1.00201341,1.60702564,-4.52071867,,,
imu,209.944156,0.5748248408000001,-9.6470083584,2.1904355536,0.94967504,1.50982581,-4.5431494,,,
imu,209.952976,0.5814045216000001,-9.661962178400001,2.1964170816,0.9945364999999999,1.49487199,-4.49081103,,,
imu,209.961796,0.5700396184000001,-9.655980650400002,2.195220776,1.06182869,1.69674856,-4.37118047,,,
imu,209.970615,0.5736285352000001,-9.667345553600002,2.1946226232,1.10669015,1.70422547,-4.22911918,,,
imu,209.979435,0.5748248408000001,-9.6817012208,2.192230012,1.01696723,1.75656384,-4.25154991,,,
imu,209.988254,0.5736285352000001,-9.727160833600001,2.2305117912,0.9945364999999999,1.75656384,-4.21416536,,,
imu,209.99699,0.5796100632000001,-9.766638918400002,2.208978290400001,0.8524752099999999,1.71917929,-4.08705789,,,
imu,210.00581,0.5873860496000001,-9.641624983200002,2.1695002056,0.5982602699999999,1.89862513,-3.96742733,,,
imu,210.014629,0.5772174520000001,-9.696655040800001,2.1946226232,0.66555246,1.83880985,-4.079580979999999,,,
imu,210.023449,0.5861897440000001,-9.7128051664,2.1970152344,0.7104139199999999,2.04816333,-3.88518132,,,
imu,210.032269,0.5760211464000001,-9.7295534448,2.2119690544,0.6954601,2.07059406,-3.61601256,,,
imu,210.041088,0.5849934384000001,-9.7128051664,2.2245302632,0.26927623,1.94348659,-3.67582784,,,
imu,210.049908,0.5796100632000001,-9.717590388800001,2.232306249600001,0.09730729999999999,2.1005017,-3.74312003,,,
imu,210.058727,0.5808063688,-9.7086180968,2.2245302632,0.03001510999999998,2.22760917,-3.63844329,,,
imu,210.067547,0.5814045216000001,-9.6918698184,2.2352970136,-0.07466163,2.30985518,-3.63096638,,,
imu,210.076367,0.5909749664,-9.6733270816,2.2293154856,-0.11952309,2.46687029,-3.59358183,,,
imu,210.085186,0.5951620360000001,-9.669140012000002,2.2358951664,-0.2017691,2.52668557,-3.53376655,,,
imu,210.094006,0.5939657304000001,-9.652989886400002,2.22811918,-0.31392275,2.45191647,-3.6459202,,,
imu,210.102825,0.5957601888000001,-9.6326526912,2.2263247216,-0.32139966,2.42948574,-3.66087402,,,
imu,210.1113,0.6107140088,-9.6290637744,2.2209413464,-0.11204618,2.49677793,-3.61601256,,,
imu,210.119775,0.6077232448000001,-9.636241608,2.2269228744,-0.007369440000000005,2.59397776,-3.57862801,,,
imu,210.12825,0.6196863008000001,-9.633848996800001,2.240082236,0.007584380000000002,2.71360832,-3.66087402,,,
imu,210.136725,0.6220789120000001,-9.639232372,2.249054528,0.11973803,2.6986545,-3.78798149,,,
imu,210.1452,0.6262659816,-9.6326526912,2.2526434448,0.23936859,2.42948574,-3.97490424,,,
imu,210.153675,0.6418179544000001,-9.634447149600001,2.2562323616,0.4711528,2.41453192,-3.98238115,,,
imu,210.16215,0.6537810104000001,-9.6470083584,2.2448674584,0.49358353,2.34723973,-4.15435008,,,
imu,210.170625,0.6364345792000001,-9.6499991224,2.253839750400001,0.53096808,2.10797861,-4.22911918,,,
imu,210.1791,0.6394253432000001,-9.644615747200001,2.2693917232,0.6132140899999999,2.01077878,-4.15435008,,,
imu,210.187575,0.6430142600000001,-9.6523917336,2.2652046536,0.73284465,1.94348659,-4.13939626,,,
imu,210.19605,0.6358364264000002,-9.655980650400002,2.2652046536,0.82256757,1.82385603,-4.18425772,,,
imu,210.204525,0.6304530512000001,-9.655382497600002,2.261017584,0.7253677399999999,1.90610204,-4.25154991,,,
imu,210.213,0.6388271904000001,-9.6458120528,2.2568305144,0.74779847,1.77151766,-4.146873169999999,,,
imu,210.221475,0.6262659816,-9.621287788000002,2.2478582224,0.82256757,1.58459491,-4.20668845,,,
imu,210.22995,0.6202844536000002,-9.623082246400001,2.2436711528,0.83004448,1.51730272,-4.146873169999999,,,
imu,210.238425,0.6178918424000002,-9.630260080000001,2.2574286672,0.8524752099999999,1.38271834,-4.341272829999999,,,
imu,210.2469,0.6083213976,-9.656578803200002,2.2658028064,0.8749059399999999,1.46496435,-4.27398064,,,
imu,210.255375,0.5975546472000001,-9.6799067624,2.2735787928,0.8749059399999999,1.45748744,-4.22164227,,,
imu,210.26385,0.5945638832000001,-9.693066124000001,2.2717843344,0.80013684,1.56216418,-4.10948862,,,
imu,210.272325,0.6053306336000001,-9.701440263200002,2.2861400016,0.7403215599999999,1.577118,-4.02724261,,,
imu,210.2808,0.6047324808000001,-9.678710456800001,2.296906752,0.55339881,1.63693328,-3.95247351,,,
imu,210.289275,0.5945638832000001,-9.666149248000002,2.290327071200001,0.3963837,1.53225654,-3.97490424,,,
imu,210.29775,0.5909749664,-9.648204664000001,2.2951122936,0.29918387,1.53225654,-4.20668845,,,
imu,210.306225,0.5915731192000001,-9.658971414400002,2.2975049048,0.12721494,1.71917929,-4.29641137,,,
imu,210.314715,0.580208216,-9.6709344704,2.290327071200001,0.2468455,1.68179474,-4.318842099999999,,,
imu,210.323205,0.5730303824,-9.667943706400001,2.28793446,0.23189168,1.62197946,-4.61044159,,,
imu,210.331696,0.5610673264,-9.663158484000002,2.305879044,0.08235347999999998,1.61450255,-4.82727198,,,
imu,210.340186,0.5485061176,-9.660765872800003,2.3220291696,-0.02232326000000001,1.8014253,-4.67773378,,,
imu,210.348676,0.535346756,-9.6535880392,2.3190384056,-0.02980017,2.13040934,-4.37865738,,,
imu,210.357166,0.5419264368000001,-9.665551095200001,2.3100661136,-0.007369440000000005,2.38462428,-4.08705789,,,
imu,210.365657,0.5389356728,-9.654186192000001,2.314851336,0.17955331,2.6986545,-3.7206893,,,
imu,210.374147,0.5634599376000001,-9.640428677600001,2.314851336,0.14964567,2.87810034,-3.69825857,,,
imu,210.382637,0.5628617848,-9.620689635200002,2.2843455432,0.28423005,2.99025399,-3.7954584,,,
imu,210.391127,0.5855915912,-9.6296619272,2.269989876,0.51601426,3.01268472,-3.93004278,,,
imu,210.399618,0.5772174520000001,-9.5949690648,2.2562323616,0.78518302,3.06502309,-4.04219643,,,
imu,208.977881,,,,,,,74.02445,-2.484195600000016,-7.305994400000005
imu,209.079291,,,,,,,72.1201268,-1.580862800000005,-5.645815200000004
imu,209.180884,,,,,,,71.9126044,-1.495412400000018,-5.218563200000004
imu,209.282477,,,,,,,72.0957124,-1.409962000000009,-5.511536000000006
imu,209.383948,,,,,,,72.010262,-1.50761960000001,-5.181941600000006
imu,209.485572,,,,,,,72.08350519999999,-1.849421200000023,-4.571581600000007
imu,209.587104,,,,,,,72.19336999999999,-1.141403600000013,-5.206356000000012
imu,209.688666,,,,,,,73.76809879999999,-1.397754800000017,-5.096491200000008
imu,210.408108,0.5873860496000001,-9.5740337168,2.252045292,0.74779847,2.86314652,-4.408565019999999,,,
imu,210.416598,0.5694414656000001,-9.5800152448,2.2616157368,0.8973366700000001,2.71360832,-4.52819558,,,
imu,210.425088,0.580208216,-9.573435564,2.2783640152,1.05435178,2.78837742,-4.50576485,,,
imu,210.433579,0.5867878968000001,-9.6117173432,2.2628120424,1.39828964,2.83323888,-4.27398064,,,
imu,210.442069,0.5873860496000001,-9.6326526912,2.2741769456,1.42819728,2.73603905,-4.29641137,,,
imu,210.450559,0.5981528,-9.6117173432,2.2783640152,1.45810492,2.63883922,-4.19173463,,,
imu,210.459049,0.601143564,-9.626671163200001,2.280756626400001,1.65998149,2.65379304,-4.00481188,,,
imu,210.46754,0.6125084672000001,-9.637437913600001,2.2658028064,1.78708896,2.45939338,-3.95247351,,,
imu,210.47603,0.6119103144000001,-9.645213900000002,2.25802682,1.85438115,2.2500399,-4.012288789999999,,,
imu,210.48452,0.6059287864000001,-9.6284656216,2.2658028064,1.90671952,2.04068642,-4.20668845,,,
imu,210.49301,0.6077232448000001,-9.6434194416,2.2652046536,1.9665348,1.94348659,-4.23659609,,,
imu,210.501501,0.5879842024,-9.661364025600001,2.2675972648,1.92167334,1.66684092,-4.44594957,,,
imu,210.509991,0.5754229936,-9.6667474008,2.2747750984,1.99644244,1.37524143,-4.59548777,,,
imu,210.518425,0.5634599376000001,-9.665551095200001,2.2747750984,2.13850373,1.37524143,-4.48333412,,,
imu,209.790182,,,,,,,71.399902,-1.544241200000007,-5.413878400000005
imu,209.891775,,,,,,,74.30521560000001,-2.69171800000001,-7.867525600000002
imu,209.993277,,,,,,,71.76611799999999,-1.690727600000019,-4.718068000000009
imu,210.09487,,,,,,,74.390666,-2.630682000000006,-8.722029600000003
imu,210.196493,,,,,,,71.6806676,-1.263475600000019,-5.377256800000008
imu,210.297995,,,,,,,71.4487308,-1.336718800000014,-5.328428000000008
imu,210.399527,,,,,,,71.9126044,-1.654106000000022,-5.511536000000006
imu,210.50173,,,,,,,71.97364040000001,-1.568655600000013,-4.91338320000001
