Type,Timestamp,Data Accelerometer X,Data Accelerometer Y,Data Accelerometer Z,Data Gyroscope X,Data Gyroscope Y,Data Gyroscope Z,Data Magnetometer X,Data Magnetometer Y,Data Magnetometer Z
imu,523.996142,0.8140859608000002,-9.5949690648,2.497287940000001,1.05435178,1.56964109,-3.7954584,,,
imu,524.004613,0.8027210576,-9.5800152448,2.4907082592,1.12912088,1.39019525,-3.91508896,,,
imu,524.013084,0.8116933496000001,-9.589585689600002,2.483530425600001,1.18145925,1.33037997,-3.87770441,,,
imu,524.021555,0.8104970440000001,-9.602146898400001,2.4925027176,1.05435178,1.28551851,-3.78798149,,,
imu,524.030034,0.8033192104000001,-9.61530626,2.4960916344,0.9272443100000001,1.12102649,-3.99733497,,,
imu,524.038513,0.7793930984000002,-9.639232372,2.5014750096,1.02444414,1.04625739,-4.04219643,,,
imu,524.046992,0.7734115704000001,-9.6326526912,2.5110454544,0.9197674,1.00887284,-3.97490424,,,
imu,524.055471,0.7662337368000001,-9.6087265792,2.503269468,0.7253677399999999,1.08364194,-3.77302767,,,
imu,524.063949,0.7530743752000001,-9.611119190400002,2.488315648,0.76275229,1.21822632,-3.62348947,,,
imu,524.072428,0.7488873056,-9.6117173432,2.4841285784,0.80761375,1.45748744,-3.17487487,,,
imu,524.080907,0.7530743752000001,-9.608128426400002,2.487717495200001,0.80761375,1.6518871,-2.6739219,,,
imu,524.089386,0.7752060288000001,-9.597959828800002,2.4859230368,0.9048135799999999,1.90610204,-2.58419898,,,
imu,524.097865,0.7877672376000001,-9.585398620000001,2.4781470504,0.97210577,2.01825569,-2.75616791,,,
imu,524.106343,0.7961413768000002,-9.581809703200001,2.469772911200001,0.9197674,1.98087114,-3.0477674,,,
imu,524.114822,0.8033192104000001,-9.5632669664,2.4751562864,1.11416706,2.11545552,-3.13749032,,,
imu,524.123301,0.8248527112,-9.5668558832,2.476352592,1.24875144,2.12293243,-3.45899745,,,
imu,524.13178,0.8278434752000001,-9.5566872856,2.476352592,1.40576655,2.04816333,-3.77302767,,,
imu,524.140259,0.8278434752000001,-9.557883591200001,2.476352592,1.26370526,2.12293243,-3.98985806,,,
imu,524.148737,0.8445917536,-9.5632669664,2.473959980800001,1.38333582,2.13788625,-4.124442439999999,,,
imu,524.157216,0.8589474208000002,-9.582407856000001,2.4751562864,1.22632071,1.96591732,-4.18425772,,,
imu,524.165695,0.8661252544000001,-9.591978300800001,2.4829322728,1.11416706,1.75656384,-4.37865738,,,
imu,524.174174,0.8679197128000001,-9.603343204000002,2.494895328800001,1.12164397,1.75656384,-4.33379592,,,
imu,524.182653,0.8750975464000001,-9.608128426400002,2.494895328800001,1.09921324,1.67431783,-4.169303899999999,,,
imu,524.191131,0.8756956992000001,-9.6087265792,2.504465773600001,0.97958268,1.34533379,-4.17678081,,,
imu,524.19961,0.8703123240000001,-9.614109954400002,2.5038676208,0.91229049,1.14345722,-4.26650373,,,
imu,524.208089,0.8637326432000001,-9.610521037600002,2.5074565376,0.79265993,0.9116730099999999,-4.32631901,,,
imu,524.216568,0.8613400320000001,-9.606932120800002,2.5170269824,0.65807555,0.8144731799999998,-4.40108811,,,
imu,524.225047,0.8433954480000001,-9.611119190400002,2.5188214408,0.65059864,0.4929660499999997,-4.41604193,,,
imu,524.233495,0.8374139200000001,-9.599754287200001,2.5236066632,0.57582954,0.3957662200000001,-4.37865738,,,
imu,524.241943,0.8350213088000001,-9.593174606400002,2.5265974272,0.31413769,0.2237972899999998,-4.56558013,,,
imu,524.250391,0.8212637944000001,-9.584800467200001,2.5164288296,0.44124516,0.1041667299999998,-4.55810322,,,
imu,524.25884,0.8063099744000001,-9.593174606400002,2.5265974272,0.3739529699999999,0.1714589200000001,-4.5431494,,,
imu,524.267288,0.8087025856000001,-9.590183842400002,2.5170269824,0.53096808,0.3509047599999997,-4.341272829999999,,,
imu,524.275736,0.7913561544000001,-9.573435564,2.5170269824,0.53844499,0.3209971199999999,-4.26650373,,,
imu,524.284185,0.7781967928000002,-9.566257730400002,2.5349715664,0.68798319,0.2836125699999998,-4.41604193,,,
imu,524.292633,0.7835801680000001,-9.5949690648,2.545738316800001,0.68050628,0.2462280199999998,-4.58801086,,,
imu,524.301081,0.7662337368000001,-9.599156134400001,2.531980802400001,0.64312173,0.21632038,-4.87213344,,,
imu,524.309529,0.7644392784,-9.576426328,2.551121692,0.65059864,0.33595094,-4.9169949,,,
imu,524.317978,0.7542706808000001,-9.557883591200001,2.554112456,0.45619898,0.4555814999999996,-4.85717962,,,
imu,524.326426,0.7441020832,-9.568650341600001,2.5463364696,0.52349117,0.64250425,-4.75250288,,,
imu,524.334874,0.7441020832,-9.583604161600002,2.533177108,0.56087572,0.8967191899999998,-4.49828794,,,
imu,524.343323,0.7596540560000001,-9.557285438400001,2.5475327752,0.5010604399999999,1.01634975,-4.49081103,,,
imu,524.351771,0.7536725280000001,-9.5602762024,2.536167872,0.7104139199999999,1.18831868,-4.32631901,,,
imu,524.360219,0.7740097232000002,-9.580613397600002,2.5343734136,0.7403215599999999,1.16588795,-4.35622665,,,
imu,524.368667,0.7752060288000001,-9.576426328,2.5349715664,0.8973366700000001,1.15841104,-4.386134289999999,,,
imu,524.377116,0.771617112,-9.5566872856,2.5289900384,1.0693056,1.11354958,-4.49828794,,,
imu,524.385564,0.7734115704000001,-9.557285438400001,2.5409530944,1.24127453,1.06868812,-4.67773378,,,
imu,524.394012,0.7734115704000001,-9.5656595776,2.5373641776,1.18893616,1.00139593,-4.692687599999999,,,
imu,524.40246,0.780589404,-9.572239258400002,2.5403549416,1.12164397,1.00887284,-4.70016451,,,
imu,524.410909,0.7722152648000001,-9.560874355200001,2.5355697192,1.18893616,0.9565344699999998,-4.78241052,,,
imu,524.419357,0.7620466672,-9.551902063200002,2.5164288296,1.25622835,0.9415806499999997,-4.9169949,,,
imu,524.427805,0.7770004872000001,-9.551303910400001,2.524204816,1.50296638,0.9116730099999999,-4.78241052,,,
imu,524.436261,0.7775986400000001,-9.555490980000002,2.5170269824,1.65250458,0.8967191899999998,-4.647826139999999,,,
imu,524.444717,0.7746078760000001,-9.557883591200001,2.5146343712,1.63007385,0.8593346399999997,-4.715118329999999,,,
imu,524.453173,0.7823838624,-9.5638651192,2.509250996,1.60764312,0.6275504299999999,-4.73007215,,,
imu,524.461629,0.7799912512000001,-9.5740337168,2.5026713152,1.71979677,0.5079198699999998,-4.647826139999999,,,
imu,524.470084,0.7638411256000001,-9.574631869600001,2.497287940000001,1.73475059,0.3882893099999998,-4.670256869999999,,,
imu,524.47854,0.7758041816000001,-9.590183842400002,2.512839912800001,1.57025857,0.2312741999999997,-4.72259524,,,
imu,524.486996,0.7901598488000001,-9.620689635200002,2.5200177464,1.54782784,0.05930526999999985,-4.692687599999999,,,
imu,524.495452,0.8140859608000002,-9.652989886400002,2.522410357600001,1.54782784,-0.1949096699999999,-4.7674567,,,
imu,524.503908,0.8445917536,-9.661962178400001,2.5307844968,1.54782784,-0.53884753,-4.90204108,,,
imu,524.512363,0.8607418792,-9.66016772,2.539158636000001,1.368382,-0.9351237599999997,-4.94690254,,,
imu,524.520819,0.8756956992000001,-9.669140012000002,2.5463364696,1.04687487,-1.51832274,-4.976810179999999,,,
imu,524.529275,0.9079959504000001,-9.6733270816,2.545738316800001,0.8749059399999999,-2.27349065,-4.84970271,,,
imu,524.537731,0.9331183680000001,-9.668541859200001,2.545738316800001,0.7403215599999999,-2.90155109,-4.61044159,,,
imu,524.546187,0.9402962016,-9.648204664000001,2.5379623304,0.6954601,-3.87354939,-4.430995749999999,,,
imu,524.554643,0.9456795768000001,-9.631456385600002,2.5379623304,0.56835263,-4.76330168,-4.11696553,,,
imu,524.563098,0.9396980488000001,-9.6015487456,2.5176251352,0.49358353,-5.772684529999999,-3.7206893,,,
imu,524.571554,0.9211553120000001,-9.578818939200001,2.5325789552,0.35152224,-6.66243682,-3.37675144,,,
imu,524.58001,0.8834716856000001,-9.571641105600001,2.520615899200001,0.45619898,-7.499850739999999,-3.26459779,,,
imu,524.588466,0.8410028368000001,-9.550705757600001,2.530186344,0.68798319,-8.18024955,-3.11505959,,,
imu,524.596922,0.8021229048,-9.5501076048,2.527793732800001,0.8524752099999999,-8.76344853,-2.88327538,,,
imu,524.605377,0.7560651392000002,-9.571042952800001,2.5337752608,0.9646288599999999,-9.05504802,-2.76364482,,,
imu,524.613833,0.7034276928000001,-9.5907819952,2.5313826496,1.10669015,-9.3391706,-2.72626027,,,
imu,524.622289,0.6645477608,-9.578220786400001,2.545140164,1.09921324,-9.28683223,-2.73373718,,,
imu,524.630745,0.6208826064000001,-9.557883591200001,2.5409530944,1.12912088,-9.099909479999999,-2.80102937,,,
imu,524.639201,0.5748248408000001,-9.553696521600001,2.5559069144,1.2188438,-8.80083308,-3.02533667,,,
imu,524.647998,0.5455153536,-9.556089132800002,2.5421494,1.09921324,-8.554095049999999,-3.40665908,,,
imu,524.656795,0.5132151024,-9.572239258400002,2.543345705600001,1.15902852,-8.00080371,-3.76555076,,,
imu,524.665563,0.4653628784000001,-9.584800467200001,2.5421494,1.2936129,-7.305451079999999,-4.06462716,,,
imu,524.67436,0.4294737104000001,-9.593772759200002,2.5642810536,1.19641307,-6.565236990000001,-4.22911918,,,
imu,524.683157,0.4127254320000001,-9.614708107200002,2.560093984,0.88985976,-5.772684529999999,-4.4683803,,,
imu,524.691954,0.3780325696000001,-9.631456385600002,2.5588976784,0.8449983,-4.7782555,-4.79736434,,,
imu,524.700752,0.3600879856,-9.630260080000001,2.5726551928,0.76275229,-3.66419591,-5.01419473,,,
imu,524.709549,0.3469286240000001,-9.627269316000001,2.5726551928,0.83004448,-2.34078284,-4.759979789999999,,,
imu,524.718346,0.3511156936,-9.619493329600001,2.581029332,0.77770611,-1.00241595,-4.65530305,,,
imu,524.727143,0.3672658192000001,-9.613511801600001,2.576244109600001,0.63564482,0.1639820099999998,-4.87213344,,,
imu,524.73594,0.376836264,-9.608128426400002,2.566075512,0.65059864,1.21074941,-5.05157928,,,
imu,524.744737,0.4061457512000001,-9.595567217600001,2.552916150400001,0.6132140899999999,2.21265535,-5.193640569999999,,,
imu,524.753534,0.4444275304,-9.575230022400001,2.5517198448,0.59078336,3.19960747,-5.38804023,,,
imu,524.762331,0.4671573368000001,-9.5812115504,2.562486595200001,0.52349117,3.90991392,-5.634778259999999,,,
imu,524.771128,0.4964668240000001,-9.574631869600001,2.5547106088,0.5982602699999999,4.37348234,-5.829177919999999,,,
imu,524.779925,0.5299633808,-9.5776226336,2.569066276,0.7403215599999999,4.762281659999999,-5.79179337,,,
imu,524.788722,0.5568802568000001,-9.576426328,2.5612902896,0.68798319,5.08378879,-5.79927028,,,
imu,524.797519,0.5694414656000001,-9.578220786400001,2.560093984,0.58330645,5.19594244,-5.84413174,,,
imu,524.806316,0.5915731192000001,-9.5842023144,2.5684681232,0.5982602699999999,5.22585008,-5.57496298,,,
imu,524.815113,0.6220789120000001,-9.593772759200002,2.57205704,0.6281679099999999,5.136127159999999,-5.23102512,,,
imu,524.82391,0.6316493568000001,-9.593174606400002,2.5732533456,0.7104139199999999,4.95668132,-4.976810179999999,,,
imu,524.832707,0.6382290376000002,-9.597361676,2.587609012800001,0.59078336,4.62769728,-4.75250288,,,
imu,524.841504,0.6466031768,-9.6087265792,2.599572068800001,0.5010604399999999,4.46320526,-4.34874974,,,
imu,524.849981,0.6561736216000001,-9.606932120800002,2.5923942352,0.34404533,4.33609779,-4.11696553,,,
imu,524.858459,0.6525847048000001,-9.595567217600001,2.595983152,0.26927623,3.8949601,-3.95995042,,,
imu,524.866936,0.6424161072,-9.597361676,2.5911979296,0.21693786,3.55849915,-3.68330475,,,
imu,524.875414,0.6495939408000001,-9.591380148,2.6103388192,0.13469185,3.18465365,-3.60853565,,,
imu,524.883892,0.6507902464,-9.592576453600001,2.604955444,-0.04475399000000001,2.83323888,-3.32441307,,,
imu,524.892369,0.6340419680000001,-9.591380148,2.6025628328,0.08235347999999998,2.48182411,-3.25712088,,,
imu,524.900847,0.6298548984000001,-9.591978300800001,2.603759138400001,0.28423005,2.39210119,-3.13001341,,,
imu,524.909324,0.6077232448000001,-9.591380148,2.5953849992,0.3216146,2.3995781,-3.09262886,,,
imu,524.917802,0.6077232448000001,-9.560874355200001,2.6091425136,0.5010604399999999,2.3995781,-2.89075229,,,
imu,524.926279,0.6125084672000001,-9.572837411200002,2.6193111112,0.620691,2.38462428,-2.95804448,,,
imu,524.934757,0.5999472584000001,-9.599754287200001,2.607946208,0.60573718,2.30985518,-3.14496723,,,
imu,524.943234,0.6017417168000001,-9.571042952800001,2.6091425136,0.59078336,2.21265535,-3.33936689,,,
imu,524.951712,0.6017417168000001,-9.546518688,2.6181148056,0.6281679099999999,2.3995781,-3.39918217,,,
imu,524.960189,0.5933675776,-9.546518688,2.6234981808,0.7702292,2.25751681,-3.42908981,,,
imu,524.968667,0.5903768136,-9.552500216,2.624694486400001,0.82256757,2.5491163,-3.24216706,,,
imu,524.977144,0.6065269392000001,-9.5501076048,2.613329583200001,0.80013684,2.79585433,-2.91318302,,,
imu,524.985622,0.6089195504,-9.544126076800001,2.6121332776,0.79265993,3.02763854,-2.77112173,,,
imu,524.994099,0.6232752176,-9.554294674400001,2.6157221944,1.13659779,3.16969983,-2.79355246,,,
imu,525.002577,0.6334438152,-9.557883591200001,2.6031609856,1.2188438,3.2220382,-3.01785976,,,
imu,525.011054,0.6483976352,-9.555490980000002,2.60196468,1.48801256,3.25194584,-3.14496723,,,
imu,525.019532,0.6412198016000001,-9.5566872856,2.5935905408,1.48801256,3.2968073,-3.25712088,,,
imu,525.02801,0.6424161072,-9.562668813600002,2.599572068800001,1.50296638,3.25942275,-3.39170526,,,
imu,525.036487,0.6627533024,-9.557285438400001,2.603759138400001,1.6674584,3.24446893,-3.39918217,,,
imu,525.044965,0.6525847048000001,-9.567454036,2.598973916,1.65250458,3.25194584,-3.5711511,,,
imu,525.053429,0.6615569968000001,-9.5704448,2.603759138400001,1.63755076,3.32671494,-3.51881273,,,
imu,525.061894,0.6693329832000001,-9.580613397600002,2.6031609856,1.65250458,3.51363769,-3.30198234,,,
imu,525.070359,0.6765108168000001,-9.575230022400001,2.5894034712,1.60016621,3.55849915,-3.21225942,,,
imu,525.078824,0.6723237472000001,-9.574631869600001,2.5983757632,1.68241222,3.45382241,-3.22721324,,,
imu,525.087289,0.6866794144,-9.572239258400002,2.58701086,1.63755076,3.52859151,-3.17487487,,,
imu,525.095753,0.6836886504,-9.574631869600001,2.587609012800001,1.72727368,3.47625314,-3.16739796,,,
imu,525.104218,0.6956517064000001,-9.571042952800001,2.583421943200001,1.67493531,3.47625314,-3.02533667,,,
imu,525.112683,0.6998387760000001,-9.557285438400001,2.5894034712,1.77961205,3.41643786,-2.99542903,,,
imu,525.121148,0.7052221512000001,-9.568052188800001,2.5905997768,1.8169966,3.37905331,-3.13749032,,,
imu,525.129613,0.7064184568,-9.583006008800002,2.5822256376,1.84690424,3.13231528,-3.21973633,,,
imu,525.138078,0.7046239984,-9.592576453600001,2.5756459568,1.7422275,3.19960747,-3.13749032,,,
imu,525.146542,0.7118018320000001,-9.594370912,2.5816274848,1.68988913,3.34166876,-3.14496723,,,
imu,525.155007,0.7195778184000001,-9.592576453600001,2.578636720800001,1.67493531,3.23699202,-3.20478251,,,
imu,525.163472,0.7171852072000001,-9.590183842400002,2.587609012800001,1.62259694,3.04259236,-3.22721324,,,
imu,525.171937,0.7165870544000001,-9.594370912,2.5702625816,1.6674584,3.00520781,-3.32441307,,,
imu,525.180402,0.7315408744,-9.581809703200001,2.5684681232,1.68988913,2.9977309,-3.30198234,,,
imu,525.188866,0.7213722768,-9.5704448,2.569066276,1.76465823,2.93791562,-3.36927453,,,
imu,525.197331,0.7273538048000001,-9.5656595776,2.57205704,1.71979677,2.87810034,-3.42908981,,,
imu,525.205796,0.7309427216000001,-9.574631869600001,2.5577013728,1.78708896,2.67622377,-3.45899745,,,
imu,525.214261,0.726755652,-9.575230022400001,2.5535143032,1.83195042,2.51920866,-3.70573548,,,
imu,525.222726,0.7297464160000001,-9.5800152448,2.5672718176,1.87681188,2.42948574,-3.90013514,,,
imu,525.23119,0.7291482632,-9.582407856000001,2.5594958312,1.94410407,2.30237827,-3.99733497,,,
imu,525.239655,0.7303445688000001,-9.6117173432,2.5612902896,1.86933497,2.07059406,-4.102011709999999,,,
imu,525.24812,0.723764888,-9.6290637744,2.57205704,1.80951969,1.96591732,-4.13191935,,,
imu,525.256601,0.7225685824,-9.618297024,2.5612902896,1.75718132,1.83880985,-4.13939626,,,
imu,525.265083,0.7171852072000001,-9.597959828800002,2.564879206400001,1.67493531,1.65936401,-4.10948862,,,
imu,525.273564,0.6956517064000001,-9.5776226336,2.552916150400001,1.58521239,1.52477963,-4.31136519,,,
imu,525.282045,0.6908664840000001,-9.566257730400002,2.5577013728,1.5926893,1.30794924,-4.47585721,,,
imu,525.290527,0.6884738728,-9.588389384000001,2.555308761600001,1.46558183,1.24065705,-4.35622665,,,
imu,525.299008,0.6645477608,-9.6039413568,2.5565050672,1.54035093,1.00139593,-4.37118047,,,
imu,525.30749,0.6430142600000001,-9.619493329600001,2.5606921368,1.36090509,0.7920424499999998,-4.453426479999999,,,
imu,525.315971,0.6376308848000001,-9.612315496,2.57205704,1.41324346,0.9191499199999997,-4.32631901,,,
imu,525.324452,0.6172936896000001,-9.5985579816,2.560093984,1.31604363,0.9789651999999998,-4.04967334,,,
imu,525.332934,0.6113121616,-9.602146898400001,2.551121692,1.24127453,1.10607267,-3.80293531,,,
imu,525.341415,0.6047324808000001,-9.5985579816,2.551121692,1.39828964,1.5023489,-3.3468438,,,
imu,524.013491,,,,,,,73.60940520000001,0.1281451999999961,-7.952976000000012
imu,524.115054,,,,,,,71.155758,1.031477999999986,-5.084284000000006
imu,524.216616,,,,,,,72.3520636,0.2624243999999942,-8.123876800000007
imu,524.318179,,,,,,,70.85057800000001,0.9460275999999768,-4.937797600000005
imu,524.419741,,,,,,,71.3632804,1.422108399999988,-5.438292800000011
imu,524.530764,,,,,,,71.4731452,0.9582347999999907,-4.96221200000001
imu,524.630831,,,,,,,71.74170360000001,1.165757199999984,-4.852347200000007
imu,525.349896,0.6137047728000001,-9.602146898400001,2.5463364696,1.32352054,1.74161002,-2.95804448,,,
imu,525.358378,0.6232752176,-9.595567217600001,2.5367660248,1.17398234,1.97339423,-2.85336774,,,
imu,525.366859,0.6316493568000001,-9.593174606400002,2.5337752608,1.36090509,2.22013226,-2.79355246,,,
imu,525.37534,0.6358364264000002,-9.593772759200002,2.539158636000001,1.61512003,2.40705501,-2.81598319,,,
imu,525.383822,0.6477994824000001,-9.590183842400002,2.5307844968,1.58521239,2.46687029,-3.0477674,,,
imu,525.392303,0.6567717744000001,-9.578818939200001,2.518223288000001,1.58521239,2.45939338,-3.4216129,,,
imu,525.400784,0.6513883992,-9.5877912312,2.5259992744,1.68241222,2.42200883,-3.69825857,,,
imu,525.409266,0.6573699272000001,-9.577024480800002,2.5188214408,1.65250458,2.46687029,-3.88518132,,,
imu,525.417747,0.6759126640000002,-9.5668558832,2.508652843200001,1.74970441,2.54163939,-3.85527368,,,
imu,525.426228,0.6699311360000001,-9.573435564,2.5146343712,1.77213514,2.57902394,-3.87770441,,,
imu,525.43471,0.6920627896000001,-9.5949690648,2.5259992744,1.7422275,2.63883922,-3.77302767,,,
imu,525.443191,0.6986424704000002,-9.610521037600002,2.5176251352,1.71979677,2.59397776,-3.66087402,,,
imu,525.451672,0.7076147624000001,-9.604539509600002,2.524204816,1.42072037,2.37714737,-3.63844329,,,
imu,525.460475,0.7010350816000002,-9.602745051200001,2.5140362184,1.33847436,2.42948574,-3.51881273,,,
imu,525.469277,0.7106055264000001,-9.6015487456,2.5218122048,1.23379762,2.30985518,-3.56367419,,,
imu,525.478079,0.7159889016000002,-9.6117173432,2.5265974272,1.30108981,2.12293243,-3.56367419,,,
imu,525.486882,0.7040258456,-9.614109954400002,2.509250996,1.22632071,2.01825569,-3.63844329,,,
imu,525.495684,0.7100073736000001,-9.627867468800002,2.5110454544,1.07678251,1.80890221,-3.68330475,,,
imu,525.504486,0.7022313872,-9.6494009696,2.51224176,1.00201341,1.65936401,-3.80293531,,,
imu,525.513289,0.7034276928000001,-9.6846919848,2.531980802400001,1.07678251,1.577118,-3.74312003,,,
imu,525.522091,0.7153907488000001,-9.7056273328,2.5355697192,1.17398234,1.44253362,-3.61601256,,,
imu,525.530893,0.708811068,-9.736731278400002,2.5409530944,0.94219813,1.31542615,-3.63096638,,,
imu,525.539696,0.7064184568,-9.7576666264,2.5588976784,0.78518302,1.25561087,-3.51133582,,,
imu,525.548498,0.7100073736000001,-9.7576666264,2.5768422624,0.58330645,1.21074941,-3.44404363,,,
imu,525.5573,0.7064184568,-9.779798280000001,2.6103388192,0.1720764,1.16588795,-3.4216129,,,
imu,525.566103,0.6944554008000001,-9.785779808000001,2.6336667784,-0.55318387,1.03130357,-3.51133582,,,
imu,525.574905,0.684884956,-9.7474980288,2.6252926392,-0.94198319,1.01634975,-3.55619728,,,
imu,525.583707,0.6783052752000002,-9.667943706400001,2.6372556952,-1.46536689,0.9714882899999999,-3.81788913,,,
imu,525.59251,0.6585662328000002,-9.593772759200002,2.6390501536,-1.75696638,1.24813396,-3.60105874,,,
imu,525.601312,0.6328456624000001,-9.5393408544,2.6085443608,-1.95884295,1.45001053,-3.42908981,,,
imu,525.610114,0.6364345792000001,-9.4663662128,2.5888053184,-2.05604278,1.68179474,-3.27955161,,,
imu,525.618917,0.6328456624000001,-9.408345391200001,2.5654773592,-1.91398149,1.9509635,-3.25712088,,,
imu,525.627719,0.6262659816,-9.363483931200001,2.5588976784,-1.49527453,2.03320951,-3.50385891,,,
imu,525.636521,0.6340419680000001,-9.3317818328,2.5463364696,-0.91207555,2.24256299,-3.77302767,,,
imu,525.645324,0.6519865520000001,-9.329389221600001,2.531980802400001,-0.22419983,2.48930102,-3.8702275,,,
imu,525.654126,0.6579680800000002,-9.3443430416,2.5421494,0.42629134,2.57902394,-4.13939626,,,
imu,525.662626,0.6543791632000001,-9.364082084000001,2.5379623304,0.97210577,2.48930102,-4.52819558,,,
imu,525.671127,0.666940372,-9.401167557600001,2.5517198448,1.65998149,2.65379304,-4.6179185,,,
imu,525.679627,0.6735200528,-9.443038253600001,2.5684681232,2.03382699,2.53416248,-4.78988743,,,
imu,525.688128,0.6795015808000001,-9.5010590752,2.57205704,2.39271867,2.70613141,-4.73007215,,,
imu,525.696628,0.6992406232000001,-9.553098368800002,2.592992388,2.70674889,2.57902394,-4.52819558,,,
imu,525.705128,0.7171852072000001,-9.592576453600001,2.6097406664,2.75161035,2.33228591,-4.430995749999999,,,
imu,525.713629,0.7076147624000001,-9.637437913600001,2.624694486400001,2.79647181,2.19022462,-4.11696553,,,
imu,525.722129,0.7129981376000001,-9.666149248000002,2.6163203472,2.57964142,2.06311715,-3.96742733,,,
imu,525.73063,0.7100073736000001,-9.667345553600002,2.624694486400001,2.23570356,1.83133294,-3.81788913,,,
imu,525.73913,0.7094092208000001,-9.6745233872,2.6211055696,1.88428879,1.61450255,-3.81041222,,,
imu,525.747631,0.6920627896000001,-9.672130776000001,2.625890792,1.62259694,1.46496435,-3.81788913,,,
imu,525.756131,0.681894192,-9.666149248000002,2.624694486400001,1.22632071,1.2780416,-3.88518132,,,
imu,525.764567,0.6711274416,-9.655980650400002,2.6300778616,0.91229049,1.07616503,-3.81041222,,,
imu,525.773067,0.6663422192,-9.647606511200001,2.6252926392,0.7253677399999999,1.09111885,-3.78050458,,,
imu,525.781567,0.6507902464,-9.620689635200002,2.6217037224,0.73284465,1.06121121,-3.69078166,,,
imu,525.790068,0.6430142600000001,-9.6009505928,2.619909264,0.45619898,1.0537343,-3.80293531,,,
imu,525.798568,0.6382290376000002,-9.588987536800001,2.6193111112,0.46367589,1.10607267,-3.78798149,,,
imu,525.807069,0.6358364264000002,-9.572239258400002,2.622900028000001,0.42629134,1.30794924,-3.78798149,,,
imu,525.815569,0.6340419680000001,-9.565061424800001,2.622900028000001,0.30666078,1.36776452,-3.81788913,,,
imu,525.824069,0.6316493568000001,-9.5668558832,2.628881556000001,0.43376825,1.45001053,-3.85527368,,,
imu,525.83257,0.6442105656,-9.5698466472,2.634264931200001,0.65059864,1.5023489,-3.87770441,,,
imu,525.84107,0.6448087184,-9.571042952800001,2.628881556000001,0.74779847,1.73413311,-3.84779677,,,
imu,525.849571,0.6609588440000002,-9.5668558832,2.6240963336,0.7702292,1.76404075,-3.93751969,,,
imu,525.858071,0.6543791632000001,-9.5566872856,2.6324704728,1.06182869,1.8014253,-3.84031986,,,
imu,525.86651,0.6615569968000001,-9.555490980000002,2.6360593896,0.97958268,1.68179474,-3.93004278,,,
imu,525.87495,0.6812960392000001,-9.553696521600001,2.6420409176,1.24875144,1.8761944,-3.93004278,,,
imu,525.883389,0.6872775672000001,-9.5566872856,2.6516113624,1.4431511,1.95844041,-3.90761205,,,
imu,525.891829,0.6890720256,-9.588987536800001,2.667163335200001,1.52539711,2.04068642,-3.88518132,,,
imu,525.900268,0.7070166096,-9.618297024,2.661779960000001,1.57773548,1.8014253,-3.90013514,,,
imu,525.908707,0.7052221512000001,-9.645213900000002,2.664770724000001,1.69736604,1.73413311,-3.92256587,,,
imu,525.917147,0.7147925960000001,-9.654784344800001,2.679724544,1.70484295,1.64441019,-3.98985806,,,
imu,525.925586,0.7219704296,-9.644615747200001,2.6904912944,1.62259694,1.44253362,-4.0197657,,,
imu,525.934026,0.7070166096,-9.635045302400002,2.6910894472,1.69736604,1.34533379,-4.11696553,,,
imu,525.942465,0.7016332344,-9.639232372,2.694678364,1.73475059,1.24813396,-4.18425772,,,
imu,525.950904,0.6926609424000001,-9.658373261600001,2.7150155592,1.62259694,1.09111885,-4.35622665,,,
imu,525.959344,0.6753145112000001,-9.647606511200001,2.715613712000001,1.69736604,0.8219500899999996,-4.49828794,,,
imu,525.967783,0.6579680800000002,-9.627269316000001,2.724586004,1.2936129,0.7397040799999997,-4.78241052,,,
imu,525.976222,0.6495939408000001,-9.582407856000001,2.7497084216,0.8823828499999999,0.7471809899999999,-4.77493361,,,
imu,525.984662,0.6412198016000001,-9.5381445488,2.7413342824,0.66555246,0.7546578999999998,-4.61044159,,,
imu,525.993101,0.6178918424000002,-9.481918185600001,2.718604476,0.26927623,0.9789651999999998,-4.318842099999999,,,
imu,526.001541,0.61310662,-9.423299211200002,2.688696836,0.07487657,1.30047233,-4.13191935,,,
imu,526.00998,0.6149010784000001,-9.361689472800002,2.670752252,0.08235347999999998,1.50982581,-3.86275059,,,
imu,526.018419,0.6232752176,-9.328192916,2.655200279200001,0.3216146,1.53973345,-3.98238115,,,
imu,526.026859,0.631051204,-9.328791068800001,2.6360593896,0.65807555,1.47244126,-4.29641137,,,
imu,526.035298,0.6364345792000001,-9.352119028,2.6217037224,1.23379762,1.39767216,-4.55810322,,,
imu,526.043737,0.6262659816,-9.358100556000002,2.6181148056,2.16841137,1.39019525,-4.70764142,,,
imu,526.052177,0.6376308848000001,-9.3658765424,2.6223018752,2.84133327,1.30794924,-4.909517989999999,,,
imu,526.060616,0.6334438152,-9.4077472384,2.6282834032,3.61893191,1.3528107,-4.94690254,,,
imu,526.069076,0.6322475096000001,-9.418513988800001,2.613927736,4.374099820000001,1.29299542,-4.89456417,,,
imu,526.077536,0.6418179544000001,-9.370063612000001,2.5917960824,5.01711408,1.21074941,-4.72259524,,,
imu,526.085995,0.6418179544000001,-9.310248332,2.583421943200001,5.36105194,1.33037997,-4.59548777,,,
imu,526.094455,0.6501920936000001,-9.309650179200002,2.570860734400001,5.71246671,1.24065705,-4.40108811,,,
imu,526.102915,0.6543791632000001,-9.384419279200001,2.5618884424,6.28818878,1.15093413,-4.16182699,,,
imu,526.111375,0.6651459136000001,-9.437654878400002,2.525401121600001,6.84895703,1.09111885,-3.87770441,,,
imu,526.119834,0.6645477608,-9.4801237272,2.512839912800001,7.24523326,0.9116730099999999,-3.88518132,,,
imu,526.128294,0.6651459136000001,-9.516012895200001,2.500278704,7.73123241,0.5677351499999999,-3.95247351,,,
imu,526.136754,0.6783052752000002,-9.5327611736,2.4895119536,8.082647179999999,0.2537049300000001,-4.124442439999999,,,
imu,526.145214,0.6765108168000001,-9.585398620000001,2.476352592,8.50883105,-0.02294074000000013,-4.26650373,,,
imu,526.153673,0.6675385248000001,-9.613511801600001,2.4685766056,8.89763037,-0.3220171400000003,-4.37118047,,,
imu,526.162133,0.6609588440000002,-9.618895176800002,2.4661839944,9.05464548,-0.7332471900000002,-4.43847266,,,
imu,524.732211,,,,,,,71.8637756,1.055892399999991,-4.168744000000002
imu,524.833804,,,,,,,71.4121092,0.7995411999999869,-4.461716800000004
imu,524.935427,,,,,,,73.01125239999999,0.7140907999999779,-5.67022960000001
imu,525.036929,,,,,,,71.37548760000001,1.153549999999992,-4.742482400000004
imu,525.138552,,,,,,,73.8535492,0.05490199999997891,-6.475904800000009
imu,525.240054,,,,,,,71.4243164,1.043685199999977,-4.827932800000012
imu,525.341647,,,,,,,74.02445,-0.091584400000011,-6.890949600000007
imu,525.443179,,,,,,,71.53418119999999,0.6652619999999887,-4.315230400000003
imu,526.170593,0.6412198016000001,-9.626671163200001,2.449435716,9.069599299999998,-0.9874621299999999,-4.46090339,,,
imu,526.179052,0.6286585928,-9.627867468800002,2.443454188,9.106983849999999,-1.24915398,-4.58053395,,,
imu,526.187512,0.6101158560000001,-9.6290637744,2.4332855904,9.22661441,-1.49589201,-4.42351884,,,
imu,526.195972,0.5897786608000001,-9.630858232800001,2.3973964224,9.18922986,-1.66786094,-4.44594957,,,
imu,526.204432,0.5616654792000001,-9.6284656216,2.3609091016,9.421014069999998,-1.75758386,-4.30388828,,,
imu,526.212891,0.5413282840000001,-9.614109954400002,2.3292070032,9.36119879,-1.64543021,-4.22911918,,,
imu,526.221351,0.5257763112000001,-9.574631869600001,2.311860572000001,9.27895278,-1.75758386,-4.19173463,,,
imu,526.229811,0.505439116,-9.5602762024,2.2921215296,9.421014069999998,-1.73515313,-4.44594957,,,
imu,526.238271,0.4755314760000001,-9.5776226336,2.2843455432,9.637844459999998,-1.42112291,-4.55810322,,,
imu,526.24673,0.4480164472000001,-9.609324732000001,2.278962168,9.80233648,-1.09961578,-4.37118047,,,
imu,526.25519,0.4187069600000001,-9.623082246400001,2.2562323616,10.01916687,-0.6061397200000003,-4.07210407,,,
imu,526.26365,0.4121272792,-9.648802816800002,2.2478582224,10.16122816,0.1565051,-3.71321239,,,
imu,526.272116,0.3995660704000001,-9.672130776000001,2.249054528,10.31076636,0.9041961000000001,-3.60853565,,,
imu,526.280582,0.4025568344,-9.699047652,2.2376896248,10.31824327,1.65936401,-3.65339711,,,
imu,526.289048,0.4061457512000001,-9.709216249600003,2.2125672072,10.38553546,2.48930102,-3.6459202,,,
imu,526.297514,0.4205014184,-9.721179305600002,2.2203431936,10.32572018,3.17717674,-3.7206893,,,
imu,526.30598,0.4324644744,-9.7122070136,2.191631859200001,10.24347417,3.91739083,-3.83284295,,,
imu,526.314446,0.4522035168,-9.696655040800001,2.1808651088,10.18365889,4.53797436,-4.13939626,,,
imu,526.322912,0.4785222400000001,-9.699047652,2.1796688032,10.03412069,4.99406587,-4.386134289999999,,,
imu,526.331378,0.5072335744,-9.7325442088,2.1820614144,9.77242884,5.29314227,-4.6179185,,,
imu,526.339844,0.5347486032000001,-9.7576666264,2.174285428,9.585506089999999,5.726803049999999,-4.57305704,,,
imu,526.348311,0.5520950344000001,-9.783985349600002,2.1748835808,9.286429689999999,5.99597181,-4.64034923,,,
imu,526.356777,0.5945638832000001,-9.800733628000001,2.1718928168,8.90510728,6.04083327,-4.63287232,,,
imu,526.365243,0.6190881480000001,-9.755274015200001,2.159331608,8.61350779,6.26514057,-4.3936112,,,
imu,526.373709,0.6477994824000001,-9.736731278400002,2.1437796352,8.366769759999999,6.317478939999999,-4.18425772,,,
imu,526.382175,0.6753145112000001,-9.743909112,2.1389944128,7.99292426,6.13055619,-4.00481188,,,
imu,526.390641,0.7118018320000001,-9.7570684736,2.1282276624,7.80600151,6.00344872,-3.81041222,,,
imu,526.399107,0.7279519576000001,-9.741516500800001,2.0953292584,7.69384786,5.853910519999999,-3.4216129,,,
imu,526.407573,0.7411113192000001,-9.706823638400001,2.0660197712,7.58169421,5.56231103,-3.29450543,,,
imu,526.416039,0.7698226536000001,-9.713403319200001,2.0660197712,7.61907876,5.12117334,-3.02533667,,,
imu,526.424505,0.7901598488000001,-9.734338667200001,2.0414955064,7.7237555,4.56040509,-2.95056757,,,
imu,526.432971,0.7967395296000002,-9.7576666264,2.0145786304,8.03030881,4.194036499999999,-2.78607555,,,
imu,526.441437,0.7931506128000001,-9.715795930400002,1.9685208648,8.434061949999998,3.79028336,-2.73373718,,,
imu,526.449904,0.7931506128000001,-9.5949690648,1.9457910584,8.546215599999998,3.22951511,-2.748691,,,
imu,526.45837,0.7811875568000001,-9.4663662128,1.9116963488,8.695753799999999,2.75846978,-2.80102937,,,
imu,526.466836,0.7650374312,-9.385017432000001,1.8817887088,8.87519964,2.27247063,-2.91318302,,,
imu,526.475651,0.7500836112000001,-9.361689472800002,1.8464976936,9.00978402,1.79394839,-2.92813684,,,
imu,526.484467,0.7524762224000001,-9.405952780000002,1.8237678872,8.98735329,1.39019525,-2.91318302,,,
imu,526.493283,0.7333353328000001,-9.463973601600001,1.8135992896,9.084553119999999,1.1285034,-2.72626027,,,
imu,526.502098,0.7243630408,-9.5357519376,1.7962528584,9.263998959999999,0.9714882899999999,-2.27764567,,,
imu,526.510914,0.7141944432000001,-9.612315496,1.782495344,9.607936819999999,0.9116730099999999,-1.82155416,,,
imu,526.519729,0.7100073736000001,-9.6535880392,1.767541524,9.899536309999998,0.9041961000000001,-1.31312428,,,
imu,526.528545,0.7094092208000001,-9.706823638400001,1.746606176,10.31824327,1.02382666,-0.9018942299999999,,,
imu,526.537361,0.7022313872,-9.758862932000001,1.7418209536,10.79676551,1.30794924,-0.40094126,,,
imu,526.546176,0.7040258456,-9.803724392000001,1.7340449672,11.24538011,1.47991817,0.0177657,,,
imu,526.554992,0.6974461648000001,-9.842006171200001,1.7310542032,11.52950269,1.69674856,0.15982699,,,
imu,526.563807,0.6974461648000001,-9.892849159200003,1.7340449672,11.6865178,1.9509635,0.3990881100000001,,,
imu,526.572623,0.6884738728,-9.9305327856,1.73464312,11.67156398,2.16031698,0.3317959200000002,,,
imu,526.581439,0.6854831088000001,-9.980777620800001,1.7543821624,11.40239522,2.49677793,0.4140419300000002,,,
imu,526.590254,0.6765108168000001,-10.0190594,1.7687378296,11.08088809,2.74351596,0.3093651899999998,,,
imu,526.59907,0.6753145112000001,-10.0812672912,1.7878787192,10.47525838,3.11736146,0.0626271599999999,,,
imu,526.607885,0.6884738728,-10.0962211112,1.7830934968,9.914490129999999,3.50616078,-0.2140185099999998,,,
imu,526.616701,0.684884956,-10.0854543608,1.7842898024,9.017260929999999,3.87252937,-0.57291019,,,
imu,526.625517,0.6830904976000001,-10.0513596512,1.7920657888,7.79104769,4.05945212,-1.15610917,,,
imu,526.634332,0.6854831088000001,-10.0005166632,1.7753175104,6.8265263,4.54545127,-1.59724686,,,
imu,526.643148,0.6956517064000001,-9.946084758400001,1.755578468,5.86200491,4.762281659999999,-2.34493786,,,
imu,526.651963,0.684884956,-9.908401132000002,1.7310542032,4.89748352,4.837050759999999,-3.11505959,,,
imu,526.660779,0.6866794144,-9.889260242400002,1.7131096192,4.12736179,4.99406587,-3.74312003,,,
imu,526.669595,0.6890720256,-9.883876867200001,1.7059317856,3.43948607,4.87443531,-4.63287232,,,
imu,526.678072,0.7112036792,-9.866530436000001,1.7011465632,2.81142563,4.82957385,-5.32074804,,,
imu,526.68655,0.7129981376000001,-9.8581562968,1.6951650352,2.20579592,4.70246638,-6.0385314,,,
imu,526.695027,0.7147925960000001,-9.8581562968,1.6993521048,1.73475059,4.762281659999999,-6.19554651,,,
imu,526.703505,0.7327371800000001,-9.859950755200002,1.7113151608,1.35342818,4.739850929999999,-6.06096213,,,
imu,526.711982,0.7411113192000001,-9.8461932408,1.7083243968,1.00949032,4.7921893,-6.01610067,,,
imu,526.72046,0.7674300424000001,-9.840809865600002,1.7262689808,0.52349117,4.68003565,-5.86656247,,,
imu,526.728937,0.7865709320000001,-9.836622796,1.7561766208,0.05992275,4.48563599,-5.761885729999999,,,
imu,526.737415,0.7811875568000001,-9.842006171200001,1.7747193576,-0.3513073,4.05945212,-5.71702427,,,
imu,526.745892,0.7746078760000001,-9.8467913936,1.7896731776,-0.90459864,3.56597606,-5.70954736,,,
imu,526.75437,0.7692245008,-9.8228652816,1.7783082744,-1.22610577,2.90800798,-5.79927028,,,
imu,526.762847,0.7393168608000001,-9.785181655200002,1.7681396768,-1.58499745,2.27994754,-6.08339286,,,
imu,526.771325,0.7076147624000001,-9.7331423616,1.7531858568,-1.93641222,1.76404075,-6.666591840000001,,,
imu,526.779802,0.6699311360000001,-9.7056273328,1.7394283424,-1.75696638,1.45001053,-6.965668239999999,,,
imu,526.78828,0.631051204,-9.697253193600002,1.737633884,-1.77939711,1.17336486,-7.20492936,,,
imu,526.796757,0.6154992312,-9.7128051664,1.7807008856,-1.67472037,1.06121121,-7.21988318,,,
imu,526.805235,0.5790119104,-9.7612555432,1.8291512624,-1.64481273,1.14345722,-6.85351459,,,
imu,526.813713,0.5640580904000001,-9.805518850400002,1.8746108752,-1.89155076,1.47991817,-6.77874549,,,
imu,526.82219,0.5479079648000001,-9.803126239200001,1.8955462232,-2.34016536,1.67431783,-6.73388403,,,
imu,526.830668,0.5084298800000001,-9.782789044000001,1.9003314456,-2.93831816,1.75656384,-7.10772953,,,
imu,526.839145,0.5006538936,-9.7337405144,1.8985369872,-3.08785636,2.13040934,-7.474098119999999,,,
imu,526.847623,0.4785222400000001,-9.661364025600001,1.8985369872,-3.05794872,2.38462428,-8.19188148,,,
imu,526.856116,0.4480164472000001,-9.626671163200001,1.866236736,-3.35702512,2.73603905,-8.88723411,,,
imu,526.864593,0.4199032656,-9.591380148,1.851282916,-3.25982529,3.34166876,-9.08163377,,,
imu,526.873071,0.4354552384000001,-9.557883591200001,1.83931986,-2.8186876,4.07440594,-9.19378742,,,
imu,526.881538,0.4360533912000001,-9.5249851872,1.8387217072,-2.25044244,4.82209694,-9.11154141,,,
imu,526.890006,0.4312681688,-9.522592576000001,1.8165900536,-1.51022835,5.5398803,-9.19378742,,,
imu,526.898473,0.4617739616000001,-9.530966715200002,1.8130011368,-0.82982954,6.32495585,-8.76012664,,,
imu,526.90694,0.4701481008,-9.52558334,1.800439928,-0.17933837,6.69132444,-8.49843479,,,
imu,526.915408,0.4970649768000001,-9.523190728800001,1.7657470656,0.8524752099999999,7.16984668,-8.29655822,,,
imu,526.923875,0.5275707696,-9.51062952,1.7400264952,2.15345755,7.558646,-7.885328169999999,,,
imu,526.932342,0.5341504504000001,-9.4843107968,1.6975576464,3.46939371,7.73061493,-7.623636319999999,,,
imu,526.94081,0.5694414656000001,-9.4496179344,1.65987402,4.86757588,7.528738359999999,-7.50400576,,,
imu,526.949277,0.5891805080000001,-9.411934308000001,1.6347516024,6.38538861,7.3343387,-7.42175975,,,
imu,526.957744,0.5897786608000001,-9.4346641144,1.6084328792,7.82843224,6.90067792,-7.4591443,,,
imu,526.966212,0.5975546472000001,-9.4621791432,1.5767307808,9.106983849999999,6.41467877,-7.227360089999999,,,
imu,526.974679,0.6196863008000001,-9.5184055064,1.5504120576,10.46030456,6.033356359999999,-6.73388403,,,
imu,526.983146,0.6232752176,-9.553098368800002,1.5348600848,11.3874414,5.41277283,-6.487145999999999,,,
imu,525.544746,,,,,,,71.094722,0.9704419999999825,-5.255184800000001
imu,525.646308,,,,,,,71.0581004,0.6774691999999805,-4.620410400000008
imu,525.747871,,,,,,,71.2534156,1.055892399999991,-4.608203200000005
imu,525.849586,,,,,,,71.14355080000001,0.8361627999999843,-3.973428800000012
imu,525.951026,,,,,,,71.2412084,0.9216131999999932,-4.815725600000009
imu,526.052619,,,,,,,72.08350519999999,1.092513999999989,-5.120905600000003
imu,526.154121,,,,,,,71.21679400000001,0.8361627999999843,-4.63261760000001
imu,526.255714,,,,,,,73.6826484,-0.3479356000000156,-6.109688800000002
imu,526.991614,0.6071250920000001,-9.6117173432,1.5390471544,12.00802493,4.82209694,-6.28526943,,,
imu,527.000081,0.5999472584000001,-9.7301515976,1.5623751136,12.50150099,4.26132869,-5.77683955,,,
imu,527.008549,0.6149010784000001,-9.8617452136,1.5898901424,12.41925498,3.76785263,-5.216071299999999,,,
imu,527.017016,0.6172936896000001,-9.946084758400001,1.6144144072,12.09027094,3.25194584,-5.00671782,,,
imu,527.025483,0.6113121616,-10.0190594,1.6347516024,11.42482595,2.78837742,-4.909517989999999,,,
imu,527.033951,0.6047324808000001,-10.0722949992,1.6526961864,10.55750439,2.324809,-4.77493361,,,
imu,527.042418,0.6023398696000001,-10.0974174168,1.6532943392,9.301383509999999,1.80890221,-4.887087259999999,,,
imu,527.050885,0.6077232448000001,-10.1285213624,1.6323589912,8.17984701,1.21822632,-4.991764,,,
imu,527.059353,0.6029380224,-10.1351010432,1.6168070184,7.0508336,0.8817653699999997,-4.72259524,,,
imu,527.06782,0.5897786608000001,-10.1243342928,1.6144144072,5.76480508,0.62007352,-4.51324176,,,
imu,527.076287,0.5736285352000001,-10.0866506664,1.6281719216,4.4339151,0.2237972899999998,-4.124442439999999,,,
imu,527.084745,0.5867878968000001,-10.0902395832,1.6592758672,3.41705534,-0.2846325900000002,-3.8702275,,,
imu,527.093202,0.5855915912,-10.0722949992,1.6407331304,2.29551884,-0.5911859000000002,-3.78798149,,,
imu,527.101659,0.58319898,-10.0896414304,1.6251811576,1.12164397,-1.17438488,-3.95247351,,,
imu,527.110116,0.5640580904000001,-10.0962211112,1.591086448,0.33656842,-1.65290712,-4.0197657,,,
imu,527.118573,0.5473098120000001,-10.0393965952,1.5276822512,-0.14943073,-2.00432189,-3.92256587,,,
imu,527.12703,0.5281689224000001,-9.942495841600001,1.4989709168,-0.5980453299999999,-2.16881391,-3.77302767,,,
imu,527.135488,0.4868963792000001,-9.8300431152,1.4678669712,-0.55318387,-2.49032104,-3.9449966,,,
imu,527.143945,0.4563905864000001,-9.840809865600002,1.4600909848,-0.51579932,-2.80435126,-4.42351884,,,
imu,527.152402,0.4121272792,-9.847389546400002,1.4822226384,-0.41112258,-3.25296586,-5.05905619,,,
imu,527.160859,0.3630787496,-9.8778953392,1.5151210424,-0.32887657,-3.55204226,-5.74693191,,,
imu,527.169316,0.3265914288,-9.9197660352,1.5569917384,-0.53823005,-3.8810263,-6.711453300000001,,,
imu,527.177774,0.2697669128,-9.9753942456,1.5952735176,-0.80739881,-3.94831849,-7.690928509999999,,,
imu,527.186231,0.2231109944,-10.0136760248,1.5928809064,-1.37564397,-3.96327231,-8.34141968,,,
imu,527.194688,0.1710717008,-9.994535135200001,1.626975616,-1.91398149,-3.7314881,-8.984433939999999,,,
imu,527.203145,0.1327899216,-9.984366537600001,1.6730333816,-2.54204193,-3.08847384,-9.02181849,,,
imu,527.211602,0.1124527264,-9.9747960928,1.7149040776,-3.43927113,-2.42302885,-8.99938776,,,
imu,527.220059,0.1058730456,-9.955655203200001,1.70473548,-4.321546509999999,-1.5631842,-8.77508046,,,
imu,527.228517,0.08852661440000001,-9.844398782400003,1.7202874528,-5.435606099999999,-0.6510011800000002,-8.34141968,,,
imu,527.236974,0.1208268656,-9.803724392000001,1.7358394256,-6.5571426,0.3135202100000001,-7.67597469,,,
imu,527.245431,0.1477437416,-9.776209363200001,1.6921742712,-7.43194107,1.52477963,-7.04791425,,,
imu,527.253888,0.1573141864,-9.739722042400002,1.65987402,-7.88055567,2.49677793,-6.30022325,,,
imu,527.262345,0.1997830352,-9.702636568800001,1.6640610896,-8.09738606,3.46877623,-5.64973208,,,
imu,527.270803,0.2637853848,-9.641026830400001,1.686790896,-8.19458589,4.20899032,-5.11139456,,,
imu,527.27926,0.2847207328,-9.602146898400001,1.6832019792,-7.940370949999999,4.56040509,-5.00671782,,,
imu,527.2878,0.3068523864000001,-9.6218859408,1.6772204512,-7.491756349999999,4.68003565,-5.13382529,,,
imu,527.296339,0.331974804,-9.6290637744,1.7059317856,-7.0805263,4.762281659999999,-5.01419473,,,
imu,527.304879,0.3517138464,-9.591978300800001,1.7388301896,-6.84126518,4.70246638,-5.17868675,,,
imu,527.313419,0.3672658192000001,-9.566257730400002,1.7250726752,-6.37021985,4.82957385,-5.27588658,,,
imu,527.321959,0.382817792,-9.5249851872,1.6832019792,-5.68234413,4.92677368,-5.08148692,,,
imu,527.330499,0.3899956256000001,-9.469356976800002,1.6520980336,-4.867360939999999,4.9417275,-4.70764142,,,
imu,527.339039,0.385808556,-9.4113361552,1.6233866992,-3.82807045,4.979112049999999,-4.25902682,,,
imu,527.347578,0.3965753064,-9.367671000800001,1.597067976,-2.4448421,4.8669584,-4.08705789,,,
imu,527.356118,0.4079402096,-9.360493167200001,1.5773289336,-0.95693701,4.784712389999999,-4.02724261,,,
imu,527.364658,0.4073420568000001,-9.377241445600001,1.5306730152,0.82256757,4.50806672,-4.11696553,,,
imu,527.373198,0.4234921824,-9.4041583216,1.4858115552,2.69179507,4.35105161,-3.90761205,,,
imu,527.381738,0.4312681688,-9.419710294400002,1.4559039152,4.47877656,4.1192674,-3.52628964,,,
imu,527.390278,0.4420349192,-9.437056725600002,1.4541094568,6.02649693,3.88748319,-2.99542903,,,
imu,527.398817,0.4581850448000001,-9.481320032800001,1.459492832,7.59664803,3.76785263,-2.40475314,,,
imu,527.407357,0.4587831976000001,-9.555490980000002,1.4433427064,8.852768909999998,3.65569898,-1.67201596,,,
imu,527.415897,0.4767277816000001,-9.634447149600001,1.4457353176,9.79485957,3.46877623,-0.9542325999999999,,,
imu,527.424437,0.481513004,-9.7056273328,1.456502068,10.29581254,3.51363769,-0.1616801399999999,,,
imu,527.432977,0.4970649768000001,-9.7606573904,1.4690632768,10.57245821,3.43139168,0.4140419300000002,,,
imu,527.441517,0.5012520464000001,-9.8270523512,1.483418944,10.39301237,3.1472691,0.8626565300000002,,,
imu,527.450056,0.5126169496,-9.9000269928,1.498372764,9.88458249,3.20708438,1.31127113,,,
imu,527.458596,0.5036446576000001,-9.969412717600003,1.507345056,9.323814239999999,2.91548489,1.31127113,,,
imu,527.467136,0.4988594352000001,-10.0244427752,1.528280404,8.26956993,2.78837742,1.12434838,,,
imu,527.475676,0.49347606,-10.0824635968,1.5486175992,7.13307961,2.59397776,0.72807215,,,
imu,527.484216,0.4857000736000001,-10.1261287512,1.5635714192,6.10126603,2.63883922,0.3766573800000002,,,
imu,527.492956,0.4713444064,-10.1518493216,1.5713474056,4.90496043,2.75846978,-0.08691103999999994,,,
imu,527.501696,0.4862982264000001,-10.1458677936,1.5743381696,3.43948607,2.80333124,-0.6476792899999999,,,
imu,527.510436,0.4892889904,-10.099810028,1.573141864,2.10111918,2.9977309,-0.99161715,,,
imu,527.519176,0.4839056152000001,-10.0358076784,1.5743381696,0.88985976,3.16969983,-1.4028472,,,
imu,527.527916,0.520392936,-10.0328169144,1.5599825024,-0.2017691,3.38653022,-1.70940051,,,
imu,527.536656,0.5437208952000001,-10.0274335392,1.5695529472,-1.25601341,3.4463455,-2.11315365,,,
imu,527.545396,0.5413282840000001,-9.995133288000002,1.5773289336,-2.10090424,3.5211146,-2.35989168,,,
imu,527.554136,0.5628617848,-9.9718053288,1.6078347264,-2.97570271,3.46129932,-2.46456842,,,
imu,527.562876,0.5808063688,-9.953860744800002,1.6491072696,-3.7159168,3.43886859,-2.47204533,,,
imu,527.571616,0.5933675776,-9.9466829112,1.6784167568,-4.50846926,3.33419185,-2.4496146,,,
imu,527.580356,0.6041343280000001,-9.938906924800001,1.7274652864,-5.39822155,3.27437657,-2.40475314,,,
imu,527.589095,0.6149010784000001,-9.9401032304,1.7723267464,-6.332835299999999,3.20708438,-2.18792275,,,
imu,527.597835,0.6232752176,-9.931130938400003,1.80941222,-7.020711019999999,3.10240764,-1.94118472,,,
imu,527.606575,0.6113121616,-9.916177118400002,1.8267586512,-7.72354056,3.05754618,-1.64210832,,,
imu,527.615315,0.6083213976,-9.923354952,1.8638441248,-8.54600066,3.03511545,-1.56733922,,,
imu,527.624055,0.6083213976,-9.875502728,1.902125904,-9.36846076,2.9977309,-1.46266248,,,
imu,527.632795,0.5921712720000001,-9.8234634344,1.9428002944,-10.04138266,3.16969983,-1.33555501,,,
imu,527.641535,0.5658525488000001,-9.8049206976,1.97390424,-10.82645821,3.35662258,-1.26826282,,,
imu,527.650275,0.5742266880000001,-9.765442612800001,1.9804839208,-11.29750354,3.50616078,-1.23835518,,,
imu,527.659015,0.5760211464000001,-9.715795930400002,2.000821116,-11.83584106,3.58092988,-1.61220068,,,
imu,527.667755,0.5778156048000002,-9.664952942400001,2.0103915608,-12.08257909,3.41643786,-2.27764567,,,
imu,527.676495,0.5514968816000001,-9.627269316000001,2.0241490752,-12.21716347,3.38653022,-3.08515195,,,
imu,527.685235,0.5526931872,-9.627269316000001,2.0444862704,-12.14239437,3.26689966,-3.59358183,,,
imu,527.693728,0.5604691736,-9.618297024,2.051664104,-11.84331797,3.08745382,-3.90013514,,,
imu,527.702221,0.5580765624000001,-9.576426328,2.07858098,-11.58162612,3.07997691,-4.21416536,,,
imu,527.710713,0.5526931872,-9.517807353600002,2.0947311056,-11.14796534,3.16222292,-4.13939626,,,
imu,527.719206,0.5580765624000001,-9.462777296000002,2.0935348,-10.61710473,3.28933039,-3.71321239,,,
imu,527.727699,0.5688433128,-9.408345391200001,2.0731976048,-10.10867485,3.57345297,-3.41413599,,,
imu,527.736192,0.5897786608000001,-9.349726416800001,2.062430854400001,-9.36846076,3.77532954,-3.11505959,,,
imu,527.744685,0.6023398696000001,-9.327594763200002,2.0414955064,-8.26935499,3.96225229,-2.79355246,,,
imu,527.753177,0.6208826064000001,-9.2899111368,2.0325232144,-7.12538776,4.36600543,-2.36736859,,,
imu,527.76167,0.6501920936000001,-9.279144386400002,2.0408973536,-5.89917452,4.59031273,-2.15801511,,,
imu,527.770163,0.6693329832000001,-9.268377636,2.0468788816,-4.583238359999999,4.50806672,-2.16549202,,,
imu,527.778656,0.6675385248000001,-9.2899111368,2.039701048,-3.15514855,4.32862088,-2.45709151,,,
imu,527.787149,0.6777071224000001,-9.3269966104,2.0570474792,-1.89902767,3.96225229,-3.01785976,,,
imu,527.795641,0.6800997336000001,-9.377241445600001,2.0588419376,-0.47841477,3.2220382,-3.98985806,,,
imu,527.804134,0.6633514552,-9.440645642400002,2.0941329528,0.8375213899999999,2.48182411,-5.18616366,,,
imu,526.357246,,,,,,,71.1191364,-0.470007600000022,-4.376266400000006
imu,526.458869,,,,,,,73.8169276,-1.495412400000018,-6.585769600000003
imu,526.560401,,,,,,,71.2900372,-0.9094668000000139,-3.875771200000011
imu,526.661964,,,,,,,71.8149468,-1.202439600000016,-4.315230400000003
imu,526.763465,,,,,,,71.2900372,-0.8362236000000189,-3.704870400000004
imu,526.865089,,,,,,,71.4487308,-1.202439600000016,-3.643834400000001
imu,526.96659,,,,,,,70.9360284,-1.226854000000022,-3.289825600000007
imu,527.068305,,,,,,,70.8871996,-1.141403600000013,-4.022257600000012
imu,527.812627,0.6555754688000001,-9.5489112992,2.1371999544,1.91419643,1.3528107,-6.576868919999999,,,
imu,527.82112,0.6184899952000001,-9.627867468800002,2.162322372,2.75908726,0.4630584099999999,-7.6834516,,,
imu,527.829613,0.5891805080000001,-9.694860582400002,2.2000059984,3.282470959999999,-0.23229422,-8.60311153,,,
imu,527.838105,0.5419264368000001,-9.755872168000002,2.240082236,3.61893191,-0.90521612,-9.14144905,,,
imu,527.846598,0.5048409632,-9.803724392000001,2.2717843344,3.43948607,-1.30149235,-9.0292954,,,
imu,527.855091,0.4581850448000001,-9.815687448000002,2.280756626400001,3.0133022,-1.37626145,-8.44609642,,,
imu,527.863584,0.4312681688,-9.80970592,2.2843455432,2.28804193,-1.23420016,-7.556344129999999,,,
imu,527.872076,0.4103328208,-9.802528086400002,2.2741769456,1.77213514,-0.8977392100000001,-6.76379167,,,
imu,527.880569,0.3977716120000001,-9.772620446400001,2.2628120424,1.2936129,-0.4865091600000002,-5.95628539,,,
imu,527.889062,0.3911919312,-9.7331423616,2.2263247216,0.9571519499999999,-0.15004821,-5.46280933,,,
imu,527.897517,0.3941826952,-9.688280901600002,2.1970152344,1.04687487,0.02192071999999978,-4.976810179999999,,,
imu,527.905971,0.3899956256000001,-9.6224840936,2.1659112888,1.33099745,0.1265974599999997,-4.87213344,,,
imu,527.914426,0.3864067088000001,-9.591380148,2.12344244,1.99644244,0.06678217999999969,-5.00671782,,,
imu,527.922881,0.3696584304000001,-9.552500216,2.0911421888,2.77404108,0.1041667299999998,-5.260932759999999,,,
imu,527.931335,0.3702565832000001,-9.526181492800001,2.075590216,3.61893191,-0.0005100100000001717,-5.38056332,,,
imu,527.93979,0.3654713608,-9.517807353600002,2.0552530208,4.40400746,-0.2696787700000001,-5.77683955,,,
imu,527.948343,0.352910152,-9.526779645600001,2.0534585624,5.27880593,-0.5014629800000003,-6.17311578,,,
imu,527.956797,0.3247969704000001,-9.589585689600002,2.06362716,5.93677401,-0.9650314,-6.36751544,,,
imu,527.965252,0.3038616224,-9.658373261600001,2.0917403416,6.42277316,-1.27906162,-6.30770016,,,
imu,527.973707,0.2865151912,-9.70502918,2.0935348,6.50501917,-1.25663089,-6.1880696,,,
imu,527.982161,0.2494297176,-9.706225485600001,2.0630290072,6.69194192,-1.09961578,-5.77683955,,,
imu,527.990616,0.2464389536,-9.680504915200002,2.0014192688,6.84148012,-0.8678315700000003,-5.0665331,,,
imu,527.999071,0.2278962168,-9.6326526912,1.946987364,7.11812579,-0.6510011800000002,-4.61044159,,,
imu,528.007525,0.2237091472,-9.566257730400002,1.8770034864,7.56674039,-0.5238937100000003,-4.33379592,,,
imu,528.01598,0.2147368552,-9.527975951200002,1.8375254016,8.26956993,-0.4491246100000001,-4.453426479999999,,,
imu,528.024434,0.200381188,-9.516012895200001,1.7920657888,9.12193767,-0.4715553400000001,-4.75250288,,,
imu,528.032889,0.188418132,-9.5213962704,1.7777101216,9.892059399999999,-0.3594016900000003,-4.7674567,,,
imu,528.041344,0.2015774936,-9.600352440000002,1.785486108,10.81919624,0.05182836000000002,-4.50576485,,,
imu,528.049798,0.1812402984,-9.6733270816,1.7920657888,11.33510303,0.35838167,-4.244073,,,
imu,528.058253,0.170473548,-9.780396432800002,1.8279549568,11.67156398,0.80699627,-3.95247351,,,
imu,528.066708,0.182436604,-9.8294449624,1.8405161656,11.62670252,1.56216418,-3.4216129,,,
imu,528.075162,0.1955959656,-9.897036228800001,1.8584607496,11.12574955,2.27994754,-2.65896808,,,
imu,528.083617,0.2201202304,-9.971207176000002,1.8614515136,10.40796619,3.07997691,-1.97856927,,,
imu,528.092072,0.2314851336,-10.0136760248,1.8578625968,9.54064463,4.05197521,-0.9841402399999999,,,
imu,528.10053,0.2913004136,-10.0322187616,1.8447032352,8.28452375,4.98658896,-0.01961884999999985,,,
imu,528.108989,0.3218062064,-10.0202557056,1.8309457208,7.23775635,5.80157215,0.7654567000000001,,,
imu,528.117447,0.3672658192000001,-10.0094889552,1.8261604984,6.12369676,6.47449405,1.34117877,,,
imu,528.125905,0.4294737104000001,-10.0256390808,1.8231697344,4.87505279,6.94553938,1.59539371,,,
imu,528.134364,0.4857000736000001,-10.0304243032,1.8207771232,3.6862241,7.222185049999999,1.64025517,,,
imu,528.142822,0.5281689224000001,-10.010087108,1.8321420264,2.68431816,7.37172325,1.5131477,,,
imu,528.151281,0.5688433128,-9.973001634400003,1.8345346376,1.41324346,7.35676943,1.25145585,,,
imu,528.159739,0.5987509528,-9.922158646400002,1.8405161656,0.33656842,7.3343387,0.9449025400000002,,,
imu,528.168198,0.6304530512000001,-9.899428840000002,1.8351327904,-0.50832241,7.057693029999999,0.6159185000000003,,,
imu,528.176656,0.6651459136000001,-9.88447502,1.8195808176,-1.2485365,6.840862639999999,0.3542266500000002,,,
imu,528.185115,0.6896701784000001,-9.831239420800001,1.818384512,-1.81678166,6.57169388,0.04767334000000023,,,
imu,528.193573,0.7255593464000001,-9.801929933600002,1.8165900536,-2.370073,6.227756019999999,-0.2514030599999999,,,
imu,528.202032,0.7411113192000001,-9.768433376800001,1.8177863592,-2.57942648,5.75671069,-0.5355256399999999,,,
imu,528.21049,0.7560651392000002,-9.744507264800001,1.833338332,-2.57942648,5.21837317,-0.99909406,,,
imu,528.218948,0.7470928472,-9.724170069600001,1.830347568,-2.62428794,4.62022037,-1.33555501,,,
imu,528.227407,0.7632429728000001,-9.740918348000001,1.851282916,-2.49718047,3.99963684,-1.66453905,,,
imu,528.235865,0.7488873056,-9.745105417600001,1.8686293472,-2.5196112,3.21456129,-2.2253073,,,
imu,528.244324,0.7423076248,-9.7163940832,1.8817887088,-2.370073,2.63136231,-2.77859864,,,
imu,528.252782,0.7052221512000001,-9.7008421104,1.8889665424,-2.33268845,2.01825569,-2.98795212,,,
imu,528.261241,0.7022313872,-9.6876827488,1.89913514,-2.2205348,1.59954873,-2.96552139,,,
imu,528.269699,0.6795015808000001,-9.675121540000001,1.9045185152,-2.04108896,1.23318014,-2.92813684,,,
imu,528.278158,0.6555754688000001,-9.6703363176,1.908107432,-1.80930475,0.9939190199999999,-2.8982292,,,
imu,528.286616,0.6358364264000002,-9.6499991224,1.8925554592,-1.45788998,0.7920424499999998,-2.94309066,,,
imu,528.295075,0.6226770648,-9.6218859408,1.8776016392,-1.19619813,0.6948426199999997,-2.98047521,,,
imu,528.303541,0.6095177032000001,-9.617100718400001,1.8937517648,-0.8821679099999999,0.5901658799999998,-3.07767504,,,
imu,528.312007,0.5993491056000001,-9.623082246400001,1.890162848,-0.36626112,0.6350273399999997,-3.24216706,,,
imu,528.320473,0.5879842024,-9.605735815200001,1.8793960976,0.07487657,0.4705353199999998,-3.48890509,,,
imu,528.328939,0.5814045216000001,-9.593174606400002,1.881190556,0.5459219,0.5453044199999999,-3.62348947,,,
imu,528.337405,0.5616654792000001,-9.596763523200002,1.8793960976,0.9571519499999999,0.5378275100000001,-3.78050458,,,
imu,528.345871,0.5586747152,-9.626671163200001,1.8668348888,1.39081273,0.6574580699999997,-3.60853565,,,
imu,528.354337,0.5473098120000001,-9.636241608,1.8566662912,1.79456587,0.6275504299999999,-3.46647436,,,
imu,528.362803,0.5443190480000001,-9.651195428000001,1.857264444,2.01139626,0.8369039099999998,-3.55619728,,,
imu,528.371269,0.5455153536,-9.688879054400001,1.8680311944,2.45253395,1.02382666,-3.45152054,,,
imu,528.379735,0.5497024232000001,-9.725366375200002,1.8710219584,2.88619473,1.21074941,-3.44404363,,,
imu,528.388201,0.55329134,-9.756470320800002,1.8728164168,2.92357928,1.30047233,-3.48142818,,,
imu,528.396668,0.5514968816000001,-9.787574266400002,1.8817887088,2.81142563,1.47244126,-3.45152054,,,
imu,528.405134,0.5736285352000001,-9.810304072800001,1.89913514,2.57216451,1.54721036,-3.44404363,,,
imu,528.4136,0.58319898,-9.810304072800001,1.8967425288,2.36281103,1.82385603,-3.27955161,,,
imu,528.422066,0.5843952856000001,-9.815089295200002,1.9033222096,2.18336519,2.12293243,-3.11505959,,,
imu,528.430532,0.5987509528,-9.803126239200001,1.893153612,1.72727368,2.23508608,-3.15244414,,,
imu,528.438998,0.6041343280000001,-9.7815927384,1.8907610008,1.2188438,2.28742445,-3.15244414,,,
imu,528.447464,0.6095177032000001,-9.783985349600002,1.8883683896,0.8449983,2.44443956,-2.94309066,,,
imu,528.45593,0.6143029256000001,-9.758264779200001,1.8698256528,0.58330645,2.54163939,-2.86084465,,,
imu,528.464396,0.6304530512000001,-9.7403201952,1.8518810688,0.5459219,2.79585433,-2.62906044,,,
imu,528.472862,0.6316493568000001,-9.730749750400001,1.8560681384,0.49358353,2.71360832,-2.81598319,,,
imu,528.481328,0.6477994824000001,-9.727758986400001,1.851282916,0.65807555,2.66874686,-2.86084465,,,
imu,528.489794,0.6573699272000001,-9.727758986400001,1.842310624,0.60573718,2.6238854,-2.96552139,,,
imu,528.498261,0.6657440664000001,-9.7163940832,1.8417124712,0.80013684,2.57902394,-3.03281358,,,
imu,528.507145,0.6711274416,-9.7361331256,1.8518810688,0.9197674,2.324809,-3.10758268,,,
imu,528.51603,0.6693329832000001,-9.736731278400002,1.8566662912,0.8449983,2.13788625,-3.14496723,,,
imu,528.524914,0.666940372,-9.743909112,1.863245972,0.8674290299999999,2.13788625,-3.21973633,,,
imu,528.533799,0.6729219000000001,-9.7534795568,1.8835831672,0.6132140899999999,1.88367131,-3.35432071,,,
imu,528.542684,0.6603606912000002,-9.7636481544,1.8973406816,0.45619898,1.6518871,-3.53376655,,,
imu,528.551568,0.6573699272000001,-9.7504887928,1.9122945016,0.28423005,1.47991817,-3.61601256,,,
imu,528.560453,0.6394253432000001,-9.7510869456,1.88418132,0.20198404,1.22570323,-3.84031986,,,
imu,528.569337,0.6304530512000001,-9.756470320800002,1.8716201112,0.12721494,1.04625739,-4.02724261,,,
imu,528.578222,0.6208826064000001,-9.739123889600002,1.8710219584,-0.02980017,1.13598031,-4.079580979999999,,,
imu,528.587107,0.6047324808000001,-9.7008421104,1.878199792,0.11973803,1.12102649,-4.034719519999999,,,
imu,528.595991,0.5981528,-9.678112304,1.9075092792,0.28423005,0.9640113799999996,-4.18425772,,,
imu,528.604876,0.5879842024,-9.6799067624,1.905116668,0.27675314,1.00139593,-4.33379592,,,
imu,528.61376,0.5933675776,-9.706823638400001,1.890162848,0.32909151,1.22570323,-4.43847266,,,
imu,528.622645,0.5933675776,-9.7151977776,1.9158834184,0.44872207,1.23318014,-4.47585721,,,
imu,527.169803,,,,,,,71.0581004,-1.385547600000003,-2.459736000000001
imu,527.271366,,,,,,,73.169946,-2.569646000000003,-4.803518400000007
imu,527.372959,,,,,,,70.09373160000001,-1.434376400000015,-2.862573600000007
imu,527.47623,,,,,,,73.24318919999999,-1.898250000000012,-5.450500000000003
imu,527.576084,,,,,,,71.0581004,-0.7263588000000043,-2.789330400000012
imu,527.677677,,,,,,,70.75292040000001,-0.1770348000000199,-5.34063520000001
imu,527.779209,,,,,,,71.0581004,-0.06717000000000528,-3.668248800000007
imu,527.880771,,,,,,,70.8627852,0.0304875999999954,-3.497348000000011
imu,528.63153,0.5772174520000001,-9.709814402400001,1.911098196,0.67302937,1.25561087,-4.61044159,,,
imu,528.640414,0.5796100632000001,-9.6799067624,1.9093037376,0.68050628,1.24065705,-4.59548777,,,
imu,528.649299,0.5820026744000001,-9.662560331200002,1.9194723352,0.73284465,1.21074941,-4.80484125,,,
imu,528.658183,0.5730303824,-9.648802816800002,1.9075092792,0.8823828499999999,1.18831868,-4.954379449999999,,,
imu,528.667068,0.5718340768000001,-9.6643547896,1.902125904,1.03192105,0.98644211,-5.22354821,,,
imu,528.675952,0.5616654792000001,-9.6912716656,1.9033222096,1.27865908,0.7696117199999999,-5.38804023,,,
imu,528.684837,0.5479079648000001,-9.720581152800001,1.917079724,1.49548947,0.6350273399999997,-5.48524006,,,
imu,528.693722,0.5383375200000001,-9.725366375200002,1.911098196,1.43567419,0.5527813299999997,-5.35813259,,,
imu,528.702606,0.5365430616000001,-9.709216249600003,1.91408896,1.43567419,0.4032431299999999,-5.1413022,,,
imu,528.711014,0.5168040192000001,-9.7056273328,1.8997332928,1.33847436,0.29856639,-4.79736434,,,
imu,528.719421,0.4976631296000001,-9.6942624296,1.8979388344,1.37585891,0.3733354899999997,-4.51324176,,,
imu,528.727829,0.4982612824000001,-9.706823638400001,1.8955462232,1.57025857,0.4107200399999997,-3.90761205,,,
imu,528.736237,0.4940742128000001,-9.692467971200001,1.887172084,1.56278166,0.3808123999999999,-3.44404363,,,
imu,528.744644,0.4940742128000001,-9.7086180968,1.89913514,1.61512003,0.62007352,-3.20478251,,,
imu,528.753052,0.49347606,-9.7163940832,1.8949480704,1.57773548,0.6873657099999999,-3.22721324,,,
imu,528.761459,0.4976631296000001,-9.735534972800002,1.9033222096,1.7422275,0.80699627,-3.02533667,,,
imu,528.769867,0.4880926848000001,-9.755274015200001,1.9278464744,1.5179202,0.80699627,-3.07767504,,,
imu,528.778275,0.4922797544,-9.746899876,1.932033544,1.42072037,1.00887284,-2.98047521,,,
imu,528.786682,0.5006538936,-9.731946056000002,1.9386132248,1.22632071,1.07616503,-3.07767504,,,
imu,528.79509,0.5012520464000001,-9.759461084800002,1.952968892,1.09173633,1.17336486,-3.32441307,,,
imu,528.803497,0.5156077136000001,-9.782789044000001,1.9762968512,0.81509066,1.23318014,-3.56367419,,,
imu,528.811905,0.5144114080000001,-9.752283251200002,1.961941184,0.60573718,1.17336486,-3.58610492,,,
imu,528.820313,0.5233837000000001,-9.724768222400002,1.9416039888,0.53844499,1.15841104,-3.5711511,,,
imu,528.82872,0.5156077136000001,-9.696655040800001,1.9338280024,0.58330645,1.08364194,-3.76555076,,,
imu,528.837128,0.5030465048,-9.6775141512,1.9158834184,0.58330645,0.94905756,-4.08705789,,,
imu,528.845535,0.5018501992000001,-9.658373261600001,1.8967425288,0.88985976,0.7696117199999999,-4.13939626,,,
imu,528.853943,0.4976631296000001,-9.633250844,1.8859757784,1.33099745,0.5303505999999998,-4.124442439999999,,,
imu,528.862351,0.4857000736000001,-9.620091482400001,1.8674330416,1.53287402,0.1864127399999997,-4.25154991,,,
imu,528.870758,0.4767277816000001,-9.617698871200002,1.875209028,2.01887317,0.1639820099999998,-4.23659609,,,
imu,528.879166,0.4689517952000001,-9.6159044128,1.866236736,2.42262631,0.2312741999999997,-3.81788913,,,
imu,528.887573,0.4677554896000001,-9.6434194416,1.8596570552,2.84133327,0.3060432999999998,-3.32441307,,,
imu,528.895981,0.4659610312,-9.672728928800002,1.8506847632,3.22265568,0.56025824,-2.92065993,,,
imu,528.904388,0.4641665728000001,-9.693066124000001,1.8608533608,3.36471697,0.66493498,-2.61410662,,,
imu,528.912853,0.4504090584,-9.7217774584,1.866236736,3.55163972,0.84438082,-2.14306129,,,
imu,528.921318,0.4611758088,-9.7576666264,1.878199792,3.71613174,1.27056469,-1.6271545,,,
imu,528.929783,0.472540712,-9.80970592,1.9027240568,3.50677826,1.51730272,-1.43275484,,,
imu,528.938248,0.4737370176,-9.863539672000002,1.9451929056,3.34228624,1.83880985,-1.45518557,,,
imu,528.946713,0.4857000736000001,-9.897036228800001,1.9583522672,2.90114855,2.09302479,-1.61967759,,,
imu,528.955177,0.505439116,-9.876699033600001,1.9751005456,2.27308811,2.52668557,-1.85893871,,,
imu,528.963642,0.5138132552000001,-9.8270523512,1.9673245592,1.80951969,3.09493073,-1.80660034,,,
imu,528.972107,0.5239818528000001,-9.7750130576,1.9314353912,1.04687487,3.85757555,-1.58976995,,,
imu,528.980572,0.5688433128,-9.706225485600001,1.8674330416,0.68050628,4.56040509,-1.06638625,,,
imu,528.989037,0.6083213976,-9.642223136000002,1.8321420264,0.8375213899999999,5.18846553,-0.8346020399999998,,,
imu,527.982334,,,,,,,70.81395640000001,0.3234603999999974,-4.083293600000005
imu,528.083927,,,,,,,70.91161399999999,-0.3723500000000213,-2.838159200000001
imu,528.185459,,,,,,,71.26562279999999,-0.04275560000002177,-3.765906400000008
imu,528.287021,,,,,,,71.76611799999999,0.4455323999999816,-3.558384000000003
imu,528.388736,,,,,,,74.13431479999998,-0.5432508000000169,-4.241987200000008
imu,528.490146,,,,,,,71.521974,0.2502171999999803,-3.326447200000004
imu,528.591953,,,,,,,73.89017079999999,-0.2258636000000092,-6.390454400000012
imu,528.693332,,,,,,,70.728506,0.4089107999999841,-3.424104800000005
imu,528.795146,,,,,,,71.4243164,-0.07937720000001924,-5.487121600000011
imu,528.896709,,,,,,,71.21679400000001,0.3844963999999784,-3.741492000000002
