Type,Timestamp,Data Accelerometer X,Data Accelerometer Y,Data Accelerometer Z,Data Gyroscope X,Data Gyroscope Y,Data Gyroscope Z,Data Magnetometer X,Data Magnetometer Y,Data Magnetometer Z
imu,127.81377,-1.1951092944,-9.3862137376,3.078094308800001,2.07868845,-11.6570127,-9.29846416,,,
imu,127.822232,-1.1681924184,-9.422102905600001,3.0768980032,2.57964142,-10.73735277,-9.2536027,,,
imu,127.830694,-1.175370252,-9.443636406400001,3.0900573648,2.81142563,-9.84760048,-9.1040645,,,
imu,127.839156,-1.1580238208,-9.447225323200001,3.109796407200001,2.83385636,-8.86812527,-8.44609642,,,
imu,127.847619,-1.1831462384,-9.4729458936,3.0930481288,2.93105619,-7.94846534,-7.563821040000001,,,
imu,127.856081,-1.18135178,-9.450814240000001,3.1271428384,3.00582529,-7.01385159,-6.532007459999999,,,
imu,127.864543,-1.1969037528,-9.467562518400001,3.1349188248,2.87871782,-6.07176093,-5.65720899,,,
imu,127.873006,-1.133499556,-9.4735440464,3.1181705464,2.7142258,-5.451177400000001,-5.01419473,,,
imu,127.881468,-1.1628090432,-9.4633754488,3.1205631576,2.39271867,-4.75582477,-4.670256869999999,,,
imu,127.88993,-1.175370252,-9.550705757600001,3.1534615616,2.34785721,-4.35954854,-4.37865738,,,
imu,127.898392,-1.1616127376,-9.594370912,3.138507741600001,1.95905789,-4.12028742,-4.19173463,,,
imu,127.907212,-1.1705850296,-9.575230022400001,3.140900352800001,1.27865908,-4.02308759,-4.715118329999999,,,
imu,127.916031,-1.1771647104,-9.5459205352,3.1259465328,1.07678251,-4.01561068,-5.23102512,,,
imu,127.924851,-1.1640053488,-9.499862769600002,3.083477684,0.80013684,-3.91093394,-5.477763149999999,,,
imu,127.933671,-1.1370884728,-9.411934308000001,3.0481866688,0.41133752,-3.62681136,-5.60487062,,,
imu,127.94249,-1.1340977088,-9.318024318400001,3.0350273072,0.38142988,-3.31278114,-5.53010152,,,
imu,127.95131,-1.100601152,-9.238469996000001,2.9973436808,0.6281679099999999,-3.11090457,-5.05905619,,,
imu,127.960129,-1.0790676512,-9.209758661600002,2.9889695416,0.9571519499999999,-2.84921272,-4.35622665,,,
imu,127.968949,-1.0551415392,-9.198393758400002,2.943509928800001,1.28613599,-2.62490542,-3.97490424,,,
imu,127.977769,-1.0575341504,-9.201384522400001,2.914798594400001,1.62259694,-2.49779795,-3.66087402,,,
imu,127.986588,-1.037795108,-9.204375286400001,2.9094152192,1.94410407,-2.43798267,-3.21225942,,,
imu,127.995408,-1.0114763848,-9.254021968800002,2.914798594400001,2.16093446,-2.55761323,-2.95056757,,,
imu,128.004227,-1.0013077872,-9.300079734400002,2.9465006928,2.4899185,-2.55761323,-2.80102937,,,
imu,128.013047,-1.007887468,-9.355109792000002,2.9626508184,2.76656417,-2.73705907,-2.50195297,,,
imu,128.021866,-0.9917373424000001,-9.426289975200001,2.951884068,3.0133022,-2.74453598,-2.04586146,,,
imu,128.030686,-1.0007096344,-9.484908949600001,2.9542766792,3.11797894,-2.43798267,-1.4028472,,,
imu,128.039506,-1.0054948568,-9.5423316184,2.954874832000001,3.20022495,-2.3108752,-0.8719865899999999,,,
imu,128.048325,-1.0180560656,-9.5393408544,2.9566692904,3.21517877,-2.3108752,-0.43832581,,,
imu,128.057145,-1.0126726904,-9.517807353600002,2.9626508184,3.24508641,-2.13890627,0.04767334000000023,,,
imu,128.065964,-1.0300191216,-9.489096019200002,2.969828652,3.42453225,-1.9370297,0.4065650199999999,,,
imu,128.074784,-1.0330098856,-9.491488630400001,2.963248971200001,3.69370101,-1.76506077,0.5561032200000002,,,
imu,128.083604,-1.0545433864,-9.489694172,2.9447062344,3.97034668,-1.60804566,0.5561032200000002,,,
imu,128.092423,-1.0551415392,-9.4633754488,2.9273598032,4.14979252,-1.50336892,0.3168421000000001,,,
imu,128.101243,-1.0330098856,-9.429878892000001,2.924967192,4.46382274,-1.21924634,0.2495499100000003,,,
imu,128.109729,-1.0545433864,-9.4173176832,2.9297524144,4.77785296,-0.94260067,0.18225772,,,
imu,128.118216,-1.0473655528,-9.423299211200002,2.9231727336,4.89000661,-0.80053938,-0.1093417699999999,,,
imu,128.126702,-1.037795108,-9.418513988800001,2.9058263024,5.07692936,-0.6734319100000001,-0.5355256399999999,,,
imu,128.135188,-1.0180560656,-9.416719530400002,2.9058263024,5.11431391,-0.6285704500000002,-0.8719865899999999,,,
imu,128.143675,-1.0072893152,-9.437056725600002,2.8842928016,5.05449863,-0.5687551700000002,-1.27573973,,,
imu,128.152161,-0.9845595088000001,-9.434065961600002,2.8717315928,5.09188318,-0.4117400600000001,-1.46266248,,,
imu,128.160648,-0.9684093832000001,-9.4244955168,2.852590703200001,5.26385211,-0.2921095,-1.78416961,,,
imu,128.169134,-0.9516611048000001,-9.3993730992,2.823281216,5.42086722,-0.4416477000000003,-1.95613854,,,
imu,128.177621,-0.9426888128,-9.367072848000001,2.808327396000001,5.3311443,-0.5612782599999999,-2.03838455,,,
imu,128.186107,-0.9450814240000001,-9.3347725968,2.8005514096,5.49563632,-0.7257702800000003,-2.10567674,,,
imu,128.194593,-0.9050051864,-9.3377633608,2.7652603944,5.839574180000001,-0.7930624700000002,-1.82155416,,,
imu,128.20308,-0.9020144224000001,-9.332379985600001,2.7586807136,6.12369676,-0.8080162900000003,-1.78416961,,,
imu,128.211566,-0.885266144,-9.360493167200001,2.739539824,6.56483445,-0.82297011,-1.55986231,,,
imu,128.220053,-0.8457880592000001,-9.392195265600002,2.7299693792,7.1256027,-0.8902623000000003,-1.21592445,,,
imu,128.228539,-0.8158804192000001,-9.418513988800001,2.718604476,7.62655567,-1.05475432,-0.99909406,,,
imu,128.237026,-0.7961413768000002,-9.436458572800001,2.696472822400001,8.03030881,-1.24915398,-1.04395552,,,
imu,128.245512,-0.7889635432000001,-9.4412437952,2.678528238400001,8.53126178,-1.64543021,-1.01404788,,,
imu,128.253998,-0.7817857096,-9.4699551296,2.6880986832,8.890153459999999,-2.00432189,-0.93927878,,,
imu,128.262485,-0.804515516,-9.510031367200002,2.6821171552,9.376152609999998,-2.19124464,-0.7897405799999999,,,
imu,128.270971,-0.8081044328000001,-9.564463272000001,2.680920849600001,9.48830626,-2.4604134,-0.54300255,,,
imu,128.279458,-0.8362176144000002,-9.636241608,2.6892949888,9.398583339999998,-2.43798267,-0.29626452,,,
imu,128.287944,-0.8559566568000001,-9.696056888000001,2.694678364,9.15932222,-2.31835211,-0.1616801399999999,,,
imu,128.296431,-0.8643307960000001,-9.7337405144,2.6839116136,8.61350779,-2.42302885,-0.01961884999999985,,,
imu,128.304917,-0.8846679912000001,-9.7492924872,2.6875005304,7.88077061,-2.32582902,-0.08691103999999994,,,
imu,128.313382,-0.8918458248000001,-9.7821908912,2.686902377600001,7.11064888,-2.22115228,0.002811879999999878,,,
imu,128.321847,-0.9145756312000002,-9.798341016800002,2.659387348800001,6.28071187,-2.17629082,-0.3411259799999999,,,
imu,128.330311,-0.9277349928000002,-9.803126239200001,2.643835376000001,5.106837000000001,-2.22862919,-1.05143243,,,
imu,128.338776,-0.9660167720000001,-9.803724392000001,2.6629762656,3.93296213,-2.28096756,-1.79912343,,,
imu,128.347241,-0.9953262592000002,-9.803126239200001,2.6522095152,2.81890254,-2.24358301,-2.26269185,,,
imu,128.355706,-0.9815687448000001,-9.803724392000001,2.625890792,1.88428879,-2.09404481,-2.92065993,,,
imu,128.364171,-1.0060930096,-9.785181655200002,2.583421943200001,1.07678251,-1.87721442,-3.53376655,,,
imu,128.372635,-1.0324117328,-9.7295534448,2.5738514984,0.33656842,-1.72019931,-3.90761205,,,
imu,128.3811,-1.0551415392,-9.671532623200001,2.5702625816,-0.47841477,-1.22672325,-3.96742733,,,
imu,128.389565,-1.0551415392,-9.6015487456,2.545738316800001,-0.9943215599999999,-0.76315483,-3.89265823,,,
imu,128.39803,-1.052748928,-9.572239258400002,2.5505235392,-1.23358268,-0.4416477000000003,-3.92256587,,,
imu,128.406495,-1.0730861232,-9.5632669664,2.5409530944,-1.3980747,0.13407437,-4.012288789999999,,,
imu,128.414873,-1.0533470808,-9.562668813600002,2.5517198448,-1.36816706,0.5976427899999996,-3.93004278,,,
imu,128.423338,-1.0533470808,-9.5740337168,2.592992388,-1.35321324,0.9415806499999997,-4.10948862,,,
imu,128.431803,-1.0635156784,-9.5668558832,2.6121332776,-1.64481273,1.27056469,-4.28893446,,,
imu,128.440268,-1.0395895664,-9.5740337168,2.601366527200001,-1.68967419,1.74908693,-4.15435008,,,
imu,128.448732,-1.0025040928,-9.555490980000002,2.6211055696,-1.72705874,2.04816333,-4.169303899999999,,,
imu,128.457197,-0.9947281064000002,-9.538742701600002,2.6294797088,-1.94388913,2.36219355,-4.34874974,,,
imu,128.465662,-0.9510629520000001,-9.509433214400001,2.649816904,-2.03361205,2.68370068,-4.0197657,,,
imu,128.474127,-0.9133793256000001,-9.493283088800002,2.668957793600001,-2.25791935,2.93791562,-3.51133582,,,
imu,128.482592,-0.8733030880000001,-9.492086783200001,2.682715308000001,-2.42988828,2.9977309,-3.29450543,,,
imu,128.491056,-0.8451899064,-9.527975951200002,2.6875005304,-2.23548862,3.09493073,-3.31693616,,,
imu,128.499521,-0.8176748776000001,-9.5429297712,2.7233896984,-2.42241137,3.05754618,-3.10758268,,,
imu,128.507986,-0.7847764736,-9.5172092008,2.748512116,-2.48970356,3.01268472,-2.74121409,,,
imu,128.51646,-0.7961413768000002,-9.5357519376,2.7233896984,-2.370073,2.74351596,-2.80102937,,,
imu,128.524934,-0.8104970440000001,-9.557883591200001,2.740736129600001,-2.20558098,2.7734236,-2.64401426,,,
imu,128.533407,-0.7512799168000001,-9.543527924000001,2.747913963200001,-1.9962275,2.64631613,-1.98604618,,,
imu,128.541881,-0.7189796656000002,-9.520798117600002,2.759877019200001,-1.93641222,2.3995781,-2.06829219,,,
imu,128.550355,-0.6753145112000001,-9.452010545600002,2.7281749208,-1.68967419,2.23508608,-2.10567674,,,
imu,128.558828,-0.6681366776000001,-9.4071490856,2.7867938952,-1.67472037,1.98834805,-2.20287657,,,
imu,128.567302,-0.6328456624000001,-9.423299211200002,2.7820086728,-1.36816706,1.53225654,-2.26269185,,,
imu,128.575776,-0.6137047728000001,-9.516012895200001,2.7748308392,-1.01675229,1.22570323,-2.53933752,,,
imu,128.58425,-0.6113121616,-9.554892827200002,2.7951680344,-0.79244499,0.8742884599999998,-2.61410662,,,
imu,128.592723,-0.5975546472000001,-9.551303910400001,2.814308924,-0.73262971,0.5976427899999996,-2.59167589,,,
imu,128.601197,-0.6065269392000001,-9.5489112992,2.8167015352,-0.7999219,0.2836125699999998,-2.4496146,,,
imu,128.609671,-0.6238733704,-9.535153784800002,2.7975606456,-0.6503837,0.1191205499999999,-2.15801511,,,
imu,128.618144,-0.631051204,-9.543527924000001,2.798756951200001,-0.5756146,0.1789358299999999,-1.55986231,,,
imu,128.626618,-0.6358364264000002,-9.519003659200001,2.793373576,-0.71019898,0.2088434699999997,-1.08134007,,,
imu,128.635092,-0.6370327320000001,-9.501657228000001,2.775428992000001,-0.84478336,0.1864127399999997,-0.7523560299999998,,,
imu,128.643566,-0.6400234960000001,-9.5154147424,2.762269630400001,-0.7401066199999999,0.2237972899999998,-0.57291019,,,
imu,128.652039,-0.6244715232,-9.4908904776,2.7586807136,-0.93450628,0.2686587499999997,-0.5355256399999999,,,
imu,128.660513,-0.6442105656,-9.446627170400001,2.760475172,-0.83730645,0.4331507699999997,-0.3859874399999998,,,
imu,128.668987,-0.6585662328000002,-9.467562518400001,2.763465936,-0.85973718,0.5378275100000001,-0.7074945699999999,,,
imu,128.67746,-0.6597625384000001,-9.496872005600002,2.7443250464,-0.8821679099999999,0.6574580699999997,-0.8346020399999998,,,
imu,128.685934,-0.6597625384000001,-9.548313146400002,2.7449231992,-0.874691,0.8967191899999998,-1.00657097,,,
imu,128.694408,-0.663949608,-9.558481744000002,2.7449231992,-0.8672140899999999,1.06868812,-1.35798574,,,
imu,128.702882,-0.6675385248000001,-9.5590798968,2.7383435184,-1.06161375,1.2032725,-1.67949287,,,
imu,128.711355,-0.6609588440000002,-9.578818939200001,2.730567532,-1.13638285,1.30047233,-2.11315365,,,
imu,128.719835,-0.6771089696000001,-9.573435564,2.742530588,-1.11395212,1.33785688,-2.40475314,,,
imu,128.728315,-0.6711274416,-9.591380148,2.7443250464,-1.21862886,1.58459491,-2.50195297,,,
imu,128.736795,-0.6830904976000001,-9.624278552000002,2.763465936,-1.18872122,1.83880985,-2.66644499,,,
imu,128.745276,-0.7070166096,-9.621287788000002,2.757484408000001,-1.40555161,2.05564024,-2.96552139,,,
imu,128.753756,-0.7100073736000001,-9.6434194416,2.783204978400001,-1.62985891,2.30237827,-2.86832156,,,
imu,128.762236,-0.6986424704000002,-9.6846919848,2.7861957424,-1.78687402,2.64631613,-2.76364482,,,
imu,128.770716,-0.7285501104000001,-9.682897526400001,2.7855975896,-2.28782699,2.90800798,-3.03281358,,,
imu,128.779196,-0.7285501104000001,-9.686486443200002,2.784999436800001,-2.71401086,3.22951511,-3.05524431,,,
imu,128.787676,-0.7195778184000001,-9.6745233872,2.7826068256,-3.14767164,3.49120696,-2.76364482,,,
imu,128.796156,-0.7255593464000001,-9.641624983200002,2.790382812,-3.63367079,3.69308353,-2.71878336,,,
imu,128.804636,-0.7369242496000001,-9.606932120800002,2.784401284,-3.97013174,3.90243701,-2.92065993,,,
imu,128.813116,-0.7285501104000001,-9.572837411200002,2.7778216032,-4.34397724,3.98468302,-2.92065993,,,
imu,128.821596,-0.7189796656000002,-9.5381445488,2.7664567,-4.50099235,4.104313579999999,-2.73373718,,,
imu,128.830076,-0.7195778184000001,-9.510031367200002,2.7586807136,-4.9122224,4.149175039999999,-2.83841392,,,
imu,128.838556,-0.6866794144,-9.479525574400002,2.7509047272,-5.14400661,4.08935976,-2.90570611,,,
imu,128.847036,-0.6711274416,-9.464571754400001,2.7628677832,-5.129052789999999,4.104313579999999,-3.1225365,,,
imu,128.855516,-0.6567717744000001,-9.455001309600002,2.7550917968,-5.129052789999999,3.80523718,-3.37675144,,,
imu,128.863997,-0.6525847048000001,-9.426289975200001,2.769447464,-5.1365297,3.58840679,-3.53376655,,,
imu,128.872477,-0.6346401208000001,-9.417915836,2.7927754232,-4.97203768,3.34914567,-3.71321239,,,
imu,128.880957,-0.6424161072,-9.437056725600002,2.771241922400001,-4.725299649999999,3.00520781,-3.8702275,,,
imu,128.889437,-0.6448087184,-9.4765348104,2.775428992000001,-4.53089999,2.66126995,-4.02724261,,,
imu,128.897917,-0.6501920936000001,-9.522592576000001,2.787392048000001,-4.1645314,2.324809,-4.169303899999999,,,
imu,128.906397,-0.6675385248000001,-9.581809703200001,2.7652603944,-3.99256247,2.04816333,-4.17678081,,,
imu,128.914877,-0.6681366776000001,-9.583604161600002,2.780812367200001,-4.044900839999999,1.69674856,-4.37118047,,,
imu,128.923657,-0.6932590952000001,-9.4753385048,2.8466091752,-4.02994702,1.38271834,-4.50576485,,,
imu,128.932437,-0.7112036792,-9.411934308000001,2.8848909544,-4.19443904,1.09859576,-4.83474889,,,
imu,128.941216,-0.7387187080000002,-9.483712644000002,2.8675445232,-3.79816281,0.7995193599999997,-4.737549059999999,,,
imu,128.949996,-0.7476910000000001,-9.5082369088,2.8424221056,-3.70843989,0.5153967799999997,-4.79736434,,,
imu,128.958776,-0.7638411256000001,-9.408943544000001,2.8765168152,-3.82807045,0.3209971199999999,-4.80484125,,,
imu,128.967556,-0.7799912512000001,-9.373054376,2.8848909544,-3.52151714,0.05182836000000002,-4.976810179999999,,,
imu,128.976335,-0.8063099744000001,-9.401765710400001,2.880105732000001,-3.117764,-0.1276174800000001,-4.89456417,,,
imu,128.985115,-0.8218619472,-9.374848834400002,2.877713120800001,-2.87102597,-0.2995864100000003,-4.73007215,,,
imu,128.993895,-0.8398065312,-9.348530111200002,2.8908724824,-2.67662631,-0.3818324200000003,-4.57305704,,,
imu,129.002675,-0.8463862120000001,-9.316229860000002,2.9153967472,-2.28035008,-0.4491246100000001,-4.41604193,,,
imu,129.011454,-0.8517695872000001,-9.339557819200001,2.9255653448,-2.0709966,-0.5164168,-4.31136519,,,
imu,129.020234,-0.8517695872000001,-9.371259917600002,2.9351357896,-1.60742818,-0.7407241,-4.34874974,,,
imu,129.029014,-0.8810790744000001,-9.384419279200001,2.959061901600001,-1.36069015,-0.88278539,-4.341272829999999,,,
imu,129.037794,-0.8948365888000002,-9.3868118904,2.963248971200001,-1.21862886,-0.8379239300000001,-4.169303899999999,,,
imu,129.046574,-0.8936402832000001,-9.408943544000001,2.963847124,-1.06909066,-0.7108164600000002,-3.86275059,,,
imu,129.055353,-0.9091922560000001,-9.416719530400002,2.9776046384,-1.03918302,-0.4939860700000001,-3.56367419,,,
imu,129.064133,-0.8948365888000002,-9.4322715032,2.9883713888,-1.00927538,-0.3070633200000001,-3.2720747,,,
imu,129.072913,-0.900219964,-9.450216087200001,2.997941833600001,-0.9943215599999999,-0.04537147000000008,-2.87579847,,,
imu,129.081693,-0.8762938520000002,-9.457992073600002,2.9925584584,-0.82982954,0.3209971199999999,-2.39727623,,,
imu,129.090472,-0.8613400320000001,-9.4591883792,3.0045215144,-0.9943215599999999,0.4705353199999998,-2.47204533,,,
imu,129.099252,-0.8499751288000001,-9.481320032800001,3.012895653600001,-0.9644139199999999,0.6574580699999997,-2.41223005,,,
imu,129.108032,-0.8212637944000001,-9.512423978400001,3.029045779200001,-0.88964482,0.9191499199999997,-2.2253073,,,
imu,129.116812,-0.8140859608000002,-9.505246144800001,3.0457940576,-0.77749117,1.04625739,-2.28512258,,,
imu,129.125287,-0.7859727792000001,-9.4669643656,3.021269792800001,-0.9943215599999999,1.21074941,-2.54681443,,,
imu,129.133762,-0.7704208064000001,-9.444832712,3.0194753344,-1.0242292,1.21074941,-2.72626027,,,
imu,129.142237,-0.7644392784,-9.429878892000001,3.0099048896,-0.91955246,1.33785688,-2.68139881,,,
imu,129.150712,-0.7435039304000001,-9.434065961600002,3.0111011952,-0.90459864,1.4275798,-2.63653735,,,
imu,129.159187,-0.7303445688000001,-9.422102905600001,3.022466098400001,-0.8672140899999999,1.31542615,-2.65896808,,,
imu,129.167662,-0.7123999848000001,-9.4107380024,3.014690112,-0.74758353,1.26308778,-2.77112173,,,
imu,129.176137,-0.7034276928000001,-9.413130613600002,3.0122975008,-0.5980453299999999,1.18831868,-2.95804448,,,
imu,129.184612,-0.7070166096,-9.4113361552,3.017082723200001,-0.4260764,0.98644211,-3.0477674,,,
imu,129.193087,-0.7016332344,-9.414925072,3.017082723200001,-0.33635348,0.6499811599999998,-3.23469015,,,
imu,129.201562,-0.6962498592000002,-9.414326919200002,3.0188771816,-0.28401511,0.4929660499999997,-3.39918217,,,
imu,129.210037,-0.6974461648000001,-9.419112141600001,3.033831001600001,-0.29149202,0.3284740299999998,-3.32441307,,,
imu,129.218512,-0.7100073736000001,-9.4005694048,3.022466098400001,-0.05970781,0.02939763000000006,-3.08515195,,,
imu,129.226987,-0.7261574992000001,-9.401167557600001,3.0272513208,0.05244583999999999,-0.1425713000000002,-3.03281358,,,
imu,127.906208,,,,,,,-83.3751868,172.5548452,112.4222232
imu,128.00777,,,,,,,-83.02117799999999,172.5548452,113.9237088
imu,128.109333,,,,,,,-82.4352324,172.6280884,113.8626728
imu,128.210895,,,,,,,-82.044602,172.786782,113.691772
imu,128.312458,,,,,,,-82.4352324,172.7013316,113.935916
imu,128.414051,,,,,,,-81.25113400000001,171.8956564,113.8016368
imu,128.515583,,,,,,,-81.9103228,172.8356108,114.0946096
imu,129.235462,-0.7351297912000001,-9.363483931200001,3.0188771816,0.23936859,-0.45660152,-3.10758268,,,
imu,129.243937,-0.744700236,-9.352119028,3.0350273072,0.40386061,-0.57623208,-3.23469015,,,
imu,129.252412,-0.7710189592000001,-9.381428515200001,3.049981127200001,0.3963837,-0.5612782599999999,-3.30945925,,,
imu,129.260887,-0.7829820152,-9.414326919200002,3.044597752,0.57582954,-0.59866281,-3.31693616,,,
imu,129.269362,-0.7973376824000001,-9.439449336800001,3.057158960800001,0.7253677399999999,-0.59866281,-3.25712088,,,
imu,129.277837,-0.8140859608000002,-9.477132963200003,3.0697201696,0.68798319,-0.5911859000000002,-3.46647436,,,
imu,129.286311,-0.8254508640000001,-9.490292324800002,3.0691220168,0.63564482,-0.37435551,-3.52628964,,,
imu,129.294786,-0.8439936008000001,-9.474740352000001,3.0481866688,0.7253677399999999,-0.04537147000000008,-3.29450543,,,
imu,129.303261,-0.8469843648000001,-9.477731116000001,3.012895653600001,0.80013684,0.2013665599999999,-3.16739796,,,
imu,129.311736,-0.8344231560000002,-9.495675700000001,3.0140919592,0.91229049,0.5378275100000001,-3.1973056,,,
imu,129.320211,-0.8427972952,-9.457992073600002,2.9985399864,1.13659779,0.9191499199999997,-3.17487487,,,
imu,129.328676,-0.8110951968000001,-9.411934308000001,3.002727056,1.03939796,1.2032725,-3.09262886,,,
imu,129.337141,-0.7961413768000002,-9.359895014400001,3.0003344448,1.24127453,1.3528107,-3.22721324,,,
imu,129.345606,-0.7710189592000001,-9.336567055200002,2.975810180000001,1.57773548,1.55468727,-3.496382,,,
imu,129.354071,-0.7656355840000001,-9.326398457600002,2.9644452768,1.98896553,1.56964109,-3.89265823,,,
imu,129.362536,-0.7674300424000001,-9.361689472800002,2.948893304,2.31794957,1.55468727,-4.19921154,,,
imu,129.371,-0.7524762224000001,-9.396980488,2.9345376368,2.66936434,1.58459491,-4.43847266,,,
imu,129.379465,-0.7363260968000002,-9.411934308000001,2.9153967472,2.863764,1.30794924,-4.67773378,,,
imu,129.38793,-0.7261574992000001,-9.4250936696,2.928556108800001,2.99087147,1.1285034,-4.6179185,,,
imu,129.396395,-0.7159889016000002,-9.472347740800002,2.9363320952,3.18527113,0.92662683,-4.32631901,,,
imu,129.40486,-0.7189796656000002,-9.516012895200001,2.9345376368,3.282470959999999,0.9341037399999998,-4.06462716,,,
imu,129.413324,-0.7135962904,-9.517807353600002,2.94590254,3.23013259,0.9341037399999998,-3.45152054,,,
imu,129.421789,-0.7201759712000001,-9.5602762024,2.9566692904,2.93105619,0.8369039099999998,-3.04029049,,,
imu,129.430254,-0.7147925960000001,-9.587193078400002,2.949491456800001,2.61702597,0.7471809899999999,-2.85336774,,,
imu,129.438719,-0.7183815128000002,-9.588987536800001,2.9470988456,2.10111918,0.58268897,-2.68887572,,,
imu,129.447184,-0.7177833600000001,-9.5776226336,2.9261634976,1.64502767,0.66493498,-2.40475314,,,
imu,129.455648,-0.7123999848000001,-9.5423316184,2.9375284008,1.21136689,0.6125966099999998,-2.28512258,,,
imu,129.464113,-0.7010350816000002,-9.507638756,2.914798594400001,1.19641307,0.6873657099999999,-2.36736859,,,
imu,129.472578,-0.6926609424000001,-9.474740352000001,2.9171912056,1.17398234,0.6350273399999997,-2.46456842,,,
imu,129.481043,-0.7118018320000001,-9.4250936696,2.8998447744,1.12164397,0.4705353199999998,-2.70382954,,,
imu,129.489508,-0.7106055264000001,-9.416121377600001,2.8807038848,1.11416706,0.5079198699999998,-2.98047521,,,
imu,129.497973,-0.7052221512000001,-9.3628857784,2.8573759256,1.34595127,0.58268897,-3.28702852,,,
imu,129.506485,-0.7165870544000001,-9.328791068800001,2.8753205096,1.73475059,0.5303505999999998,-3.51881273,,,
imu,129.51495,-0.7351297912000001,-9.352119028,2.8813020376,2.30299575,0.41819695,-3.75059694,,,
imu,129.523414,-0.7381205552000002,-9.3868118904,2.8795075792,2.77404108,0.3060432999999998,-4.146873169999999,,,
imu,129.531878,-0.7638411256000001,-9.398176793600001,2.873526051200001,3.04320984,0.1639820099999998,-4.61044159,,,
imu,129.540341,-0.780589404,-9.3975786408,2.8813020376,3.12545585,-0.03789456000000024,-5.02914855,,,
imu,129.548805,-0.8081044328000001,-9.412532460800001,2.8813020376,3.52173208,0.05182836000000002,-5.05905619,,,
imu,129.557269,-0.8463862120000001,-9.459786532,2.877713120800001,3.72360865,0.1714589200000001,-4.999240909999999,,,
imu,129.565732,-0.8643307960000001,-9.4555994624,2.87113344,3.72360865,0.35838167,-5.021671639999999,,,
imu,129.574196,-0.8876587552000001,-9.456197615200002,2.85617962,3.8357623,0.6051196999999999,-4.9169949,,,
imu,129.582659,-0.8942384360000002,-9.477132963200003,2.8466091752,3.9853005,1.0537343,-4.78988743,,,
imu,129.591123,-0.9038088808000001,-9.489694172,2.8424221056,3.94043904,1.39767216,-4.72259524,,,
imu,129.599586,-0.8978273528000001,-9.488497866400001,2.8274682856,4.02268505,1.73413311,-4.68521069,,,
imu,129.60805,-0.9020144224000001,-9.48072188,2.8226830632,4.15726943,2.12293243,-4.5431494,,,
imu,129.616513,-0.9109867144000001,-9.498666464000001,2.8161033824,4.03763887,2.21265535,-4.625395409999999,,,
imu,129.624977,-0.9115848672000001,-9.5010590752,2.796962492800001,3.88062376,2.20517844,-4.931948719999999,,,
imu,129.63344,-0.9050051864,-9.510031367200002,2.7802142144,3.75351629,2.18274771,-5.13382529,,,
imu,129.641904,-0.9056033392000001,-9.529770409600001,2.779616061600001,3.86566994,2.16779389,-4.999240909999999,,,
imu,129.650368,-0.8948365888000002,-9.5656595776,2.779616061600001,3.59650118,2.09302479,-4.98428709,,,
imu,129.658831,-0.9169682424000002,-9.597959828800002,2.7975606456,3.3123786,2.07807097,-5.0665331,,,
imu,129.667295,-0.9265386872000001,-9.616502565600001,2.7826068256,2.96844074,1.83880985,-5.08896383,,,
imu,129.675758,-0.9163700896000002,-9.6296619272,2.780812367200001,2.65441052,1.77899457,-4.87213344,,,
imu,129.684222,-0.9223516176000001,-9.599156134400001,2.7706437696,2.22822665,1.68927165,-4.57305704,,,
imu,129.692685,-0.9289312984000001,-9.578220786400001,2.772438228,1.80204278,1.45748744,-4.30388828,,,
imu,129.701149,-0.9169682424000002,-9.543527924000001,2.773634533600001,1.37585891,1.42010289,-4.057150249999999,,,
imu,129.709612,-0.9277349928000002,-9.524387034400002,2.761671477600001,1.13659779,1.36028761,-3.69078166,,,
imu,129.718076,-0.9163700896000002,-9.527377798400002,2.7592788664,1.24875144,1.48739508,-3.41413599,,,
imu,129.726539,-0.9163700896000002,-9.516012895200001,2.7586807136,1.00201341,1.29299542,-3.22721324,,,
imu,129.735009,-0.9067996448000001,-9.505246144800001,2.7521010328,0.9571519499999999,1.38271834,-2.98795212,,,
imu,129.743479,-0.9050051864,-9.481918185600001,2.736549060000001,1.0693056,1.19579559,-3.06272122,,,
imu,129.751949,-0.9038088808000001,-9.478927421600002,2.7233896984,1.27118217,1.18831868,-3.0477674,,,
imu,129.760419,-0.9097904088000002,-9.456197615200002,2.7353527544,1.35342818,1.42010289,-3.06272122,,,
imu,129.768889,-0.9026125752,-9.452010545600002,2.7401379768,1.63007385,1.61450255,-2.92813684,,,
imu,129.777359,-0.8960328944000001,-9.454403156800002,2.7257823096,2.06373463,1.81637912,-2.60662971,,,
imu,129.785829,-0.8918458248000001,-9.489694172,2.746119504800001,2.18336519,2.06311715,-2.34493786,,,
imu,129.794299,-0.8697141712000002,-9.526779645600001,2.7419324352,2.23570356,2.324809,-2.18044584,,,
imu,129.802768,-0.8553585040000001,-9.514218436800002,2.742530588,2.43010322,2.60893158,-2.06829219,,,
imu,129.811238,-0.8380120728000001,-9.516611048000001,2.736549060000001,2.32542648,2.86314652,-2.17296893,,,
imu,129.819708,-0.8146841136000001,-9.517807353600002,2.72159524,2.21327283,2.87062343,-2.3000764,,,
imu,129.828178,-0.7704208064000001,-9.530368562400001,2.7299693792,2.28804193,3.01268472,-2.48699915,,,
imu,129.836648,-0.7441020832,-9.540537160000001,2.7144174064,2.22074974,2.98277708,-2.80102937,,,
imu,129.845118,-0.7255593464000001,-9.516611048000001,2.726978615200001,2.16841137,2.91548489,-3.15992105,,,
imu,129.853588,-0.7177833600000001,-9.51062952,2.724586004,2.16841137,2.78837742,-3.54124346,,,
imu,129.862058,-0.7112036792,-9.527377798400002,2.6970709752,2.34785721,2.51920866,-3.76555076,,,
imu,129.870528,-0.7189796656000002,-9.522592576000001,2.6791263912,2.19831901,2.29490136,-4.02724261,,,
imu,129.878998,-0.723764888,-9.533957479200001,2.6749393216,2.20579592,1.96591732,-4.31136519,,,
imu,129.887467,-0.7357279440000001,-9.547116840800001,2.6982672808,2.10859609,1.66684092,-4.647826139999999,,,
imu,129.895937,-0.7339334856000002,-9.5812115504,2.692285752800001,2.17588828,1.42010289,-4.909517989999999,,,
imu,129.904407,-0.7542706808000001,-9.5985579816,2.696472822400001,2.16841137,1.18831868,-5.13382529,,,
imu,129.912877,-0.7829820152,-9.6075302736,2.696472822400001,1.87681188,0.8294269999999999,-5.34317877,,,
imu,129.921347,-0.7955432240000001,-9.594370912,2.6916876,1.71231986,0.7172733499999997,-5.39551714,,,
imu,129.929817,-0.8146841136000001,-9.553696521600001,2.7012580448,1.48801256,0.6948426199999997,-5.42542478,,,
imu,129.938629,-0.840404684,-9.553098368800002,2.7221933928,1.1440747,0.5677351499999999,-5.64225517,,,
imu,129.94744,-0.8589474208000002,-9.597959828800002,2.726978615200001,0.83004448,0.6125966099999998,-5.64225517,,,
imu,129.956252,-0.8768920048000002,-9.652989886400002,2.715613712000001,0.66555246,0.7471809899999999,-5.589916799999999,,,
imu,129.965063,-0.88227538,-9.699047652,2.7162118648,0.29170696,0.8817653699999997,-5.60487062,,,
imu,129.973875,-0.8990236584000001,-9.676915998400002,2.713221100800001,-0.05970781,1.23318014,-5.58243989,,,
imu,129.982687,-0.8990236584000001,-9.631456385600002,2.717408170400001,-0.6279529699999999,1.36028761,-5.3656095,,,
imu,129.991498,-0.9079959504000001,-9.596165370400001,2.7048469616,-0.73262971,1.65936401,-4.80484125,,,
imu,130.00031,-0.8798827688,-9.545322382400002,2.6839116136,-0.94198319,1.94348659,-4.44594957,,,
imu,130.009122,-0.8643307960000001,-9.490292324800002,2.6665651824,-0.82982954,2.13788625,-4.25154991,,,
imu,130.017933,-0.8433954480000001,-9.4831144912,2.667761488,-0.63542988,2.13040934,-4.34874974,,,
imu,130.026745,-0.8290397808000001,-9.468160671200001,2.6791263912,-0.24663056,2.14536316,-4.26650373,,,
imu,130.035556,-0.8027210576,-9.425691822400001,2.6839116136,0.0001074699999999984,2.0257326,-4.33379592,,,
imu,130.044368,-0.8087025856000001,-9.4843107968,2.6761356272,0.22441477,1.78647148,-4.43847266,,,
imu,128.624998,,,,,,,-79.74964840000001,171.4195756,111.2625392
imu,128.72656,,,,,,,-82.55730439999999,172.5670524,114.1556456
imu,128.828123,,,,,,,-79.51771160000001,172.2862868,111.2991608
imu,128.929716,,,,,,,-82.5817188,172.603674,113.203484
imu,129.031248,,,,,,,-82.03239479999999,172.7745748,113.1668624
imu,129.13278,,,,,,,-82.0201876,172.8234036,113.6551504
imu,129.234342,,,,,,,-81.9347372,173.3727276,113.1180336
imu,129.335905,,,,,,,-81.4220348,173.1041692,114.0091592
imu,130.05318,-0.8128896552000001,-9.450216087200001,2.6779300856,0.4711528,1.55468727,-4.47585721,,,
imu,130.061991,-0.8051136688,-9.457992073600002,2.688696836,0.7702292,1.47991817,-4.30388828,,,
imu,130.070803,-0.7997302936000001,-9.4801237272,2.6779300856,0.78518302,1.33037997,-4.25902682,,,
imu,130.079614,-0.7817857096,-9.478927421600002,2.661779960000001,0.7104139199999999,1.09111885,-4.28145755,,,
imu,130.088426,-0.7937487656000001,-9.450216087200001,2.6851079192,0.65807555,0.72475026,-4.4683803,,,
imu,130.097238,-0.7859727792000001,-9.479525574400002,2.680920849600001,0.77770611,0.1864127399999997,-4.57305704,,,
imu,130.106049,-0.7997302936000001,-9.458590226400002,2.685706072000001,0.8823828499999999,-0.1201405700000002,-4.5431494,,,
imu,130.114861,-0.8075062800000001,-9.491488630400001,2.6880986832,0.94219813,-0.2846325900000002,-4.341272829999999,,,
imu,130.123673,-0.8499751288000001,-9.513620284000002,2.6605836544,1.04687487,-0.57623208,-4.06462716,,,
imu,130.132484,-0.8547603512000002,-9.505246144800001,2.7102303368,0.88985976,-0.80053938,-4.02724261,,,
imu,130.140962,-0.8816772272000001,-9.512423978400001,2.7090340312,0.9272443100000001,-0.6659550000000003,-3.56367419,,,
imu,130.149439,-0.9139774784000001,-9.488497866400001,2.736549060000001,0.8973366700000001,-0.71829337,-3.10010577,,,
imu,130.157917,-0.9163700896000002,-9.481320032800001,2.771241922400001,1.04687487,-0.5911859000000002,-2.54681443,,,
imu,130.166394,-0.9050051864,-9.541733465600002,2.7742326864,0.9870595899999999,-0.5463244400000002,-2.21783039,,,
imu,130.174872,-0.9432869656,-9.636839760800001,2.7538954912,0.8375213899999999,-0.5313706200000001,-2.1505382,,,
imu,130.183349,-0.9785779808,-9.669738164800002,2.7526991856,0.51601426,-0.5238937100000003,-2.18792275,,,
imu,130.191827,-1.0090837736,-9.648802816800002,2.7586807136,0.08983038999999998,-0.5089398900000002,-2.50942988,,,
imu,130.200304,-0.9935318008000001,-9.633250844,2.7556899496,-0.26906129,-0.09023292999999999,-2.53933752,,,
imu,130.208782,-0.9588389384,-9.639232372,2.784999436800001,-0.73262971,0.27613566,-2.27764567,,,
imu,130.21726,-0.9690075360000001,-9.626671163200001,2.801747715200001,-1.07656757,0.4331507699999997,-1.98604618,,,
imu,130.225737,-0.9719983000000001,-9.557285438400001,2.6952765168,-1.34573633,1.08364194,-1.91127708,,,
imu,130.234215,-0.8691160184000001,-9.723571916800001,2.7341564488,-1.48032071,1.46496435,-1.8514618,,,
imu,130.242692,-0.9791761336000001,-9.6733270816,2.7592788664,-1.83173548,1.19579559,-1.96361545,,,
imu,130.25117,-0.9169682424000002,-9.5865949256,2.7826068256,-2.20558098,1.65936401,-1.88884635,,,
imu,130.259647,-0.9109867144000001,-9.4699551296,2.7999532568,-2.60933412,2.11545552,-1.48509321,,,
imu,130.268125,-0.8966310472000002,-9.457393920800001,2.7760271448,-2.82616451,2.28742445,-1.35050883,,,
imu,130.276602,-0.8804809216,-9.471151435200001,2.747913963200001,-2.85607215,2.45191647,-1.36546265,,,
imu,130.28508,-0.8727049352000001,-9.4460290176,2.748512116,-2.63924176,2.68370068,-1.50752394,,,
imu,130.293557,-0.8721067824000002,-9.3975786408,2.7491102688,-2.67662631,2.85566961,-1.80660034,,,
imu,130.302035,-0.8649289488,-9.377839598400001,2.745521352,-2.2953039,2.96034635,-2.001,,,
imu,130.310512,-0.8709104768000001,-9.394587876800001,2.7532973384,-1.93641222,3.06502309,-2.30755331,,,
imu,130.31899,-0.8589474208000002,-9.4107380024,2.7521010328,-1.52518217,3.25194584,-2.70382954,,,
imu,130.327467,-0.8780883104000001,-9.406550932800002,2.7431287408,-1.24105959,3.25194584,-3.01785976,,,
imu,130.335945,-0.8792846160000001,-9.395186029600001,2.7443250464,-0.81487572,3.43886859,-3.33936689,,,
imu,130.344406,-0.8816772272000001,-9.419710294400002,2.7497084216,-0.41112258,3.39400713,-3.5711511,,,
imu,130.352867,-0.8888550608000001,-9.4424401008,2.773634533600001,-0.19429219,3.61083752,-3.75059694,,,
imu,130.361328,-0.8816772272000001,-9.448421628800002,2.7855975896,0.23189168,3.797760269999999,-3.61601256,,,
imu,130.369789,-0.8858642968000001,-9.4412437952,2.778419756,0.59078336,3.82766791,-3.72816621,,,
imu,130.37825,-0.885266144,-9.499862769600002,2.859768536800001,0.7552753799999999,3.90243701,-3.72816621,,,
imu,130.386711,-0.8810790744000001,-9.502255380800001,2.771241922400001,0.97210577,4.104313579999999,-3.50385891,,,
imu,130.395172,-0.8804809216,-9.5004609224,2.771241922400001,1.06182869,4.23142105,-3.36179762,,,
imu,130.403633,-0.8984255056000002,-9.534555632000002,2.739539824,1.47305874,4.36600543,-3.31693616,,,
imu,130.412094,-0.8703123240000001,-9.578818939200001,2.718604476,1.32352054,4.523020539999999,-3.30198234,,,
imu,130.420555,-0.8625363376,-9.606333968000001,2.7233896984,1.13659779,4.500589809999999,-3.1973056,,,
imu,130.429016,-0.8439936008000001,-9.6015487456,2.7221933928,1.12164397,4.65012801,-3.01038285,,,
imu,130.437477,-0.8218619472,-9.579417092000002,2.736549060000001,0.80761375,4.89686604,-2.89075229,,,
imu,130.445938,-0.8116933496000001,-9.5501076048,2.7526991856,0.47862971,4.82209694,-2.71130645,,,
imu,130.454399,-0.7853746264000001,-9.539939007200001,2.7562881024,0.42629134,4.7921893,-2.59167589,,,
imu,130.46286,-0.76264482,-9.566257730400002,2.757484408000001,0.25432241,4.70246638,-2.68139881,,,
imu,130.471321,-0.7698226536000001,-9.5459205352,2.7550917968,-0.10456927,4.4183438,-2.79355246,,,
imu,130.479782,-0.741709472,-9.5040498392,2.75150288,0.02253820000000001,4.171605769999999,-2.65896808,,,
imu,130.488243,-0.7357279440000001,-9.516611048000001,2.745521352,0.11226112,3.88000628,-2.73373718,,,
imu,130.496704,-0.7333353328000001,-9.517807353600002,2.731165684800001,0.05992275,3.55849915,-2.71130645,,,
imu,130.505165,-0.7339334856000002,-9.475936657600002,2.7383435184,0.05244583999999999,3.27437657,-2.91318302,,,
imu,130.513626,-0.741709472,-9.436458572800001,2.743726893600001,-0.08961545,2.82576197,-3.26459779,,,
imu,130.522087,-0.741709472,-9.440645642400002,2.7192026288,0.09730729999999999,2.52668557,-3.496382,,,
imu,130.530548,-0.7464946944,-9.4962738528,2.7078377256,0.42629134,2.33976282,-3.47395127,,,
imu,130.539009,-0.7261574992000001,-9.517807353600002,2.715613712000001,0.6281679099999999,2.10797861,-3.27955161,,,
imu,130.547551,-0.7333353328000001,-9.507638756,2.7138192536,0.57582954,1.83133294,-3.13001341,,,
imu,130.556094,-0.7393168608000001,-9.482516338400002,2.72159524,0.5459219,1.71917929,-3.09262886,,,
imu,130.564636,-0.7339334856000002,-9.499264616800001,2.729371226400001,0.4861066199999999,1.62945637,-3.09262886,,,
imu,130.573178,-0.7321390272000001,-9.478927421600002,2.7317638376,0.51601426,1.5023489,-3.24216706,,,
imu,130.581721,-0.7345316384000001,-9.462777296000002,2.7473158104,0.40386061,1.22570323,-3.51133582,,,
imu,130.590263,-0.741709472,-9.496872005600002,2.7658585472,0.59078336,0.8892422799999999,-3.58610492,,,
imu,130.598832,-0.7429057776,-9.575828175200002,2.7664567,0.5459219,0.66493498,-3.83284295,,,
imu,130.607375,-0.7542706808000001,-9.639830524800002,2.778419756,0.4711528,0.3733354899999997,-4.0197657,,,
imu,130.615917,-0.7949450712000001,-9.645213900000002,2.7861957424,0.06739966,0.1191205499999999,-4.22164227,,,
imu,130.62446,-0.8003284464,-9.659569567200002,2.792177270400001,-0.21672292,0.3434278499999999,-4.13191935,,,
imu,130.633002,-0.8075062800000001,-9.614109954400002,2.815505229600001,-0.5307531400000001,0.44062768,-3.71321239,,,
imu,130.641544,-0.8110951968000001,-9.5668558832,2.8035421736,-0.83730645,0.3882893099999998,-3.55619728,,,
imu,130.650087,-0.8152822664000001,-9.553696521600001,2.794569881600001,-0.874691,0.5079198699999998,-3.41413599,,,
imu,130.658629,-0.8284416280000001,-9.5566872856,2.7855975896,-0.98684465,0.6499811599999998,-3.24964397,,,
imu,130.667172,-0.8134878080000001,-9.526181492800001,2.7652603944,-1.15881358,0.7696117199999999,-3.15992105,,,
imu,130.675714,-0.8176748776000001,-9.4980683112,2.7664567,-1.06909066,0.8967191899999998,-3.10758268,,,
imu,130.684256,-0.8170767248000002,-9.467562518400001,2.757484408000001,-0.91955246,1.01634975,-3.18235178,,,
imu,130.692799,-0.8158804192000001,-9.458590226400002,2.7497084216,-0.91955246,1.13598031,-3.24216706,,,
imu,130.701341,-0.8248527112,-9.452010545600002,2.7682511584,-0.63542988,1.29299542,-3.17487487,,,
imu,130.709883,-0.8206656416,-9.447225323200001,2.760475172,-0.53823005,1.49487199,-3.29450543,,,
imu,130.718426,-0.8218619472,-9.4621791432,2.761671477600001,-0.32887657,1.6518871,-3.28702852,,,
imu,130.726968,-0.8134878080000001,-9.48072188,2.764064088800001,-0.17933837,1.77899457,-3.36179762,,,
imu,130.735511,-0.7991321408000002,-9.4944793944,2.7670548528,-0.08961545,1.86871749,-3.40665908,,,
imu,130.744053,-0.7895616960000001,-9.513620284000002,2.773634533600001,0.16459949,1.91357895,-3.41413599,,,
imu,130.752444,-0.7859727792000001,-9.520798117600002,2.7748308392,0.20198404,1.8761944,-3.37675144,,,
imu,130.760835,-0.7704208064000001,-9.533359326400001,2.790382812,0.10478421,1.92853277,-3.39918217,,,
imu,130.769226,-0.7728134176000001,-9.5172092008,2.7861957424,0.05244583999999999,1.88367131,-3.51881273,,,
imu,130.777617,-0.7686263480000001,-9.520199964800002,2.784401284,-0.21672292,1.74908693,-3.53376655,,,
imu,130.786008,-0.7656355840000001,-9.531564868,2.7838031312,-0.29896893,1.84628676,-3.39170526,,,
imu,130.794399,-0.7811875568000001,-9.5429297712,2.783204978400001,-0.48589168,1.86124058,-3.20478251,,,
imu,130.80279,-0.7889635432000001,-9.533359326400001,2.7867938952,-0.63542988,2.04816333,-2.8982292,,,
imu,130.811181,-0.7614485144,-9.508835061600001,2.792177270400001,-0.68776825,2.20517844,-2.65896808,,,
imu,130.819573,-0.7602522088000001,-9.511227672800002,2.798756951200001,-0.80739881,2.26499372,-2.44213769,,,
imu,130.827964,-0.7548688336000001,-9.4962738528,2.787392048000001,-0.9494601,2.14536316,-2.46456842,,,
imu,130.836355,-0.7644392784,-9.450814240000001,2.802345868,-1.12142903,2.14536316,-2.47204533,,,
imu,130.844746,-0.7644392784,-9.458590226400002,2.8089255488,-0.95693701,2.10797861,-2.43466078,,,
imu,130.853137,-0.7512799168000001,-9.504647992000002,2.7867938952,-0.78496808,1.86871749,-2.84589083,,,
imu,130.861528,-0.7991321408000002,-9.5010590752,2.927957956,-0.7550604399999999,1.77899457,-3.27955161,,,
imu,129.437498,,,,,,,-79.51771160000001,173.0187188,114.4364112
imu,129.539121,,,,,,,-81.8981156,172.5548452,113.9847448
imu,129.640623,,,,,,,-78.687622,171.2486748,111.8973136
imu,129.742185,,,,,,,-81.434242,172.5792596,113.8016368
imu,129.843748,,,,,,,-80.3722156,170.9312876,111.8484848
imu,129.945341,,,,,,,-81.62955720000001,172.1398004,113.9847448
imu,130.047025,,,,,,,-80.93374680000001,172.3717372,114.119024
imu,130.148435,,,,,,,-80.9093324,172.3717372,114.8270416
imu,130.869919,-0.6986424704000002,-9.505844297600001,2.7521010328,-0.52327623,2.06311715,-3.8702275,,,
imu,130.87831,-0.7512799168000001,-9.548313146400002,2.8047384792,-0.71019898,1.53225654,-4.079580979999999,,,
imu,130.886701,-0.7746078760000001,-9.530966715200002,2.8238793688,-0.82235263,1.13598031,-4.23659609,,,
imu,130.895092,-0.7871690848,-9.527975951200002,2.8484036336,-0.77749117,1.15093413,-4.20668845,,,
imu,130.903483,-0.7955432240000001,-9.537546396000002,2.8418239528,-0.874691,1.03878048,-3.92256587,,,
imu,130.911874,-0.7883653904000001,-9.548313146400002,2.820290452000001,-0.90459864,1.06868812,-3.54872037,,,
imu,130.920265,-0.7979358352000001,-9.541135312800002,2.8346461192,-0.9494601,0.92662683,-3.62348947,,,
imu,130.928656,-0.7901598488000001,-9.52558334,2.8370387304,-1.0989983,0.70231953,-3.63096638,,,
imu,130.937047,-0.7853746264000001,-9.492086783200001,2.8226830632,-1.18872122,0.58268897,-3.57862801,,,
imu,130.945438,-0.8087025856000001,-9.4765348104,2.814308924,-1.16629049,0.70231953,-3.4216129,,,
imu,130.954255,-0.8170767248000002,-9.48072188,2.804140326400001,-1.16629049,0.7471809899999999,-3.30198234,,,
imu,130.963072,-0.8098988912000001,-9.4765348104,2.817897840800001,-1.11395212,0.6574580699999997,-3.14496723,,,
imu,130.971889,-0.8296379336000002,-9.441841948000002,2.8256738272,-1.18872122,0.4630584099999999,-3.27955161,,,
imu,130.980706,-0.8398065312,-9.446627170400001,2.82627198,-1.30835178,0.47801223,-3.46647436,,,
imu,130.989523,-0.8380120728000001,-9.481918185600001,2.831655355200001,-1.03170611,0.7172733499999997,-3.30198234,,,
imu,130.99834,-0.8350213088000001,-9.482516338400002,2.852590703200001,-1.03918302,0.56025824,-3.1973056,,,
imu,131.007157,-0.8326286976000001,-9.499862769600002,2.8460110224,-1.0242292,0.5453044199999999,-3.24964397,,,
imu,131.015974,-0.8918458248000001,-9.481320032800001,2.8813020376,-1.04665993,0.6574580699999997,-3.20478251,,,
imu,131.024791,-0.8164785720000002,-9.523190728800001,2.814308924,-0.8672140899999999,1.00887284,-3.11505959,,,
imu,131.033608,-0.8487788232000001,-9.499264616800001,2.817299688,-0.95693701,0.8369039099999998,-2.92065993,,,
imu,131.042425,-0.8469843648000001,-9.462777296000002,2.8208886048,-0.95693701,0.92662683,-2.83093701,,,
imu,131.051242,-0.8613400320000001,-9.435262267200002,2.8280664384,-0.81487572,1.03878048,-2.78607555,,,
imu,131.060058,-0.8625363376,-9.4424401008,2.8238793688,-0.46346095,1.07616503,-2.57672207,,,
imu,131.068875,-0.8463862120000001,-9.4735440464,2.81131816,0.05992275,1.53225654,-2.32998404,,,
imu,131.077692,-0.8278434752000001,-9.4633754488,2.8107200072,0.14964567,1.81637912,-2.33746095,,,
imu,131.086509,-0.8164785720000002,-9.465169907200002,2.808327396000001,0.19450713,1.95844041,-2.50195297,,,
imu,131.095326,-0.8224601,-9.467562518400001,2.8167015352,0.25432241,1.99582496,-2.47204533,,,
imu,131.104143,-0.8081044328000001,-9.508835061600001,2.817897840800001,0.42629134,2.12293243,-2.3000764,,,
imu,131.11296,-0.7907580016000001,-9.5249851872,2.8214867576,0.4861066199999999,2.27994754,-2.05333837,,,
imu,131.121777,-0.7728134176000001,-9.530966715200002,2.8268701328,0.25432241,2.45939338,-2.12063056,,,
imu,131.130594,-0.7608503616000001,-9.5501076048,2.8238793688,0.14216876,2.5491163,-2.13558438,,,
imu,131.139411,-0.7333353328000001,-9.554294674400001,2.820290452000001,-0.03727708,2.64631613,-2.06081528,,,
imu,131.148228,-0.7183815128000002,-9.548313146400002,2.819692299200001,-0.22419983,2.6986545,-2.09072292,,,
imu,131.156718,-0.7070166096,-9.5423316184,2.8286645912,-0.43355331,2.48182411,-2.16549202,,,
imu,131.165208,-0.6914646368,-9.541733465600002,2.832253508,-0.47093786,2.33976282,-2.03838455,,,
imu,131.173698,-0.6854831088000001,-9.5357519376,2.822084910400001,-0.85973718,2.27994754,-2.21035348,,,
imu,131.182189,-0.6842868032,-9.522592576000001,2.831655355200001,-1.12142903,2.1005017,-2.33746095,,,
imu,131.190679,-0.6896701784000001,-9.501657228000001,2.847207328000001,-1.06909066,1.92853277,-2.41970696,,,
imu,131.199169,-0.7100073736000001,-9.4938812416,2.8346461192,-1.06909066,1.92105586,-2.50195297,,,
imu,131.207659,-0.7171852072000001,-9.522592576000001,2.8328516608,-1.10647521,1.92853277,-2.61410662,,,
imu,131.21615,-0.7279519576000001,-9.512423978400001,2.847207328000001,-0.9943215599999999,1.97339423,-2.6739219,,,
imu,131.22464,-0.7315408744,-9.510031367200002,2.8585722312,-0.94198319,2.04816333,-2.84589083,,,
imu,131.23313,-0.7524762224000001,-9.530368562400001,2.8723297456,-1.00179847,2.08554788,-3.08515195,,,
imu,131.24162,-0.7405131664000002,-9.546518688,2.8819001904,-1.19619813,2.19022462,-3.29450543,,,
imu,131.250111,-0.7369242496000001,-9.545322382400002,2.8938632464,-1.3233056,2.35471664,-3.37675144,,,
imu,131.258601,-0.7375224024000001,-9.553098368800002,2.899246621600001,-1.41302852,2.49677793,-3.48142818,,,
imu,131.267091,-0.7333353328000001,-9.546518688,2.9153967472,-1.50275144,2.45191647,-3.6459202,,,
imu,131.275581,-0.7411113192000001,-9.517807353600002,2.9118078304,-1.76444329,2.41453192,-3.8702275,,,
imu,131.284072,-0.7285501104000001,-9.486105255200002,2.905228149600001,-1.92893531,2.27994754,-4.16182699,,,
imu,131.292562,-0.7321390272000001,-9.460384684800001,2.910611524800001,-1.96631986,2.14536316,-4.32631901,,,
imu,131.301052,-0.7369242496000001,-9.457393920800001,2.9195838168,-2.26539626,1.98087114,-4.63287232,,,
imu,131.309542,-0.7357279440000001,-9.478329268800001,2.9207801224,-2.34764227,1.8014253,-4.715118329999999,,,
imu,131.318033,-0.741709472,-9.472347740800002,2.927957956,-2.34016536,1.49487199,-4.74502597,,,
imu,131.326523,-0.7590559032000002,-9.4801237272,2.9231727336,-2.30278081,1.38271834,-4.625395409999999,,,
imu,131.335013,-0.7955432240000001,-9.48072188,2.9267616504,-2.16819643,1.34533379,-4.28145755,,,
imu,131.343503,-0.8140859608000002,-9.469356976800002,2.935733942400001,-2.12333497,1.32290306,-3.80293531,,,
imu,131.351994,-0.8386102256000002,-9.4490197816,2.933939484000001,-1.9962275,1.41262598,-3.23469015,,,
imu,131.360493,-0.8547603512000002,-9.4424401008,2.921976428000001,-1.72705874,1.67431783,-2.86832156,,,
imu,131.368992,-0.8547603512000002,-9.414925072,2.9417154704,-1.58499745,1.61450255,-2.78607555,,,
imu,131.377491,-0.8386102256000002,-9.377241445600001,2.9273598032,-1.45788998,1.78647148,-2.73373718,,,
imu,131.38599,-0.8493769760000001,-9.379035904000002,2.9261634976,-1.0242292,1.93600968,-2.83093701,,,
imu,131.394489,-0.8571529624000002,-9.379035904000002,2.9321450256,-0.61299915,2.12293243,-3.09262886,,,
imu,131.402988,-0.8439936008000001,-9.394587876800001,2.917789358400001,-0.44103022,2.2500399,-3.14496723,,,
imu,131.411488,-0.8427972952,-9.401765710400001,2.904031844000001,-0.32139966,2.46687029,-3.05524431,,,
imu,131.419987,-0.8200674888,-9.411934308000001,2.905228149600001,0.01506129,2.72856214,-3.00290594,,,
imu,131.428486,-0.8164785720000002,-9.420906600000002,2.9004429272,0.31413769,3.18465365,-2.76364482,,,
imu,131.436985,-0.7728134176000001,-9.441841948000002,2.8836946488,0.34404533,3.26689966,-2.54681443,,,
imu,131.445484,-0.7458965416000001,-9.429878892000001,2.8854891072,0.51601426,3.40148404,-2.4496146,,,
imu,131.453983,-0.7303445688000001,-9.443636406400001,2.8807038848,0.64312173,3.09493073,-2.49447606,,,
imu,131.462483,-0.70282954,-9.488497866400001,2.865151912,0.8449983,3.02763854,-2.63653735,,,
imu,131.470982,-0.6806978864000002,-9.479525574400002,2.883096496000001,1.06182869,2.95286944,-2.62158353,,,
imu,131.479481,-0.6836886504,-9.451412392800002,2.904031844000001,0.97210577,2.3995781,-2.80850628,,,
imu,131.48798,-0.6789034280000001,-9.477731116000001,2.895657704800001,1.26370526,2.10797861,-2.8982292,,,
imu,131.496479,-0.6645477608,-9.5219944232,2.8848909544,1.07678251,1.7266562,-3.10010577,,,
imu,131.504978,-0.6723237472000001,-9.530368562400001,2.892068788,0.88985976,1.49487199,-3.21225942,,,
imu,131.513477,-0.6812960392000001,-9.538742701600002,2.891470635200001,0.94219813,1.30047233,-3.1973056,,,
imu,131.521977,-0.6884738728,-9.573435564,2.892068788,0.8749059399999999,1.00139593,-3.32441307,,,
imu,131.530476,-0.7070166096,-9.596763523200002,2.8819001904,0.41133752,0.6724118899999998,-3.52628964,,,
imu,131.538975,-0.7919543072000002,-9.506442450400002,2.8717315928,0.08983038999999998,0.5677351499999999,-3.67582784,,,
imu,131.547474,-0.6884738728,-9.634447149600001,2.854983314400001,-0.21672292,0.80699627,-3.66835093,,,
imu,131.555973,-0.8051136688,-9.584800467200001,2.850198092000001,-0.47093786,0.2910894799999997,-3.37675144,,,
imu,131.564599,-0.8027210576,-9.5590798968,2.8633574536,-0.85973718,0.4555814999999996,-3.30945925,,,
imu,131.573226,-0.8236564056000001,-9.5393408544,2.883096496000001,-1.29339796,0.7397040799999997,-3.16739796,,,
imu,131.581852,-0.7943469184000002,-9.553098368800002,2.8813020376,-1.40555161,0.9116730099999999,-2.78607555,,,
imu,131.590478,-0.7985339880000002,-9.576426328,2.88608726,-1.65228964,1.37524143,-2.71878336,,,
imu,131.599105,-0.7859727792000001,-9.5704448,2.8878817184,-1.94388913,1.52477963,-2.79355246,,,
imu,131.607731,-0.7722152648000001,-9.520798117600002,2.8902743296,-2.28035008,1.71917929,-2.93561375,,,
imu,131.616357,-0.7596540560000001,-9.4944793944,2.914798594400001,-2.37754991,2.1005017,-2.79355246,,,
imu,131.624984,-0.7423076248,-9.4962738528,2.914798594400001,-2.67662631,2.27247063,-2.64401426,,,
imu,131.63361,-0.7231667352000001,-9.4753385048,2.914798594400001,-2.72896468,2.45939338,-2.50195297,,,
imu,131.642236,-0.6968480120000001,-9.429280739200001,2.9171912056,-2.85607215,2.58650085,-2.50942988,,,
imu,131.650862,-0.6771089696000001,-9.4071490856,2.9417154704,-2.69158013,2.60893158,-2.58419898,,,
imu,131.659489,-0.6424161072,-9.3975786408,2.9255653448,-2.41493446,2.50425484,-2.6739219,,,
imu,131.668115,-0.6346401208000001,-9.3802322096,2.924967192,-2.0709966,2.36219355,-2.91318302,,,
imu,131.676741,-0.6268641344,-9.364680236800002,2.9393228592,-1.62985891,2.24256299,-3.14496723,,,
imu,131.685368,-0.6143029256000001,-9.374250681600001,2.9584637488,-1.35321324,1.92853277,-3.38422835,,,
imu,130.249888,,,,,,,-81.45865640000001,172.298494,113.9237088
imu,130.351451,,,,,,,-81.373206,172.3839444,113.7406008
imu,130.453013,,,,,,,-81.61735,172.725746,113.4232136
imu,130.554606,,,,,,,-79.45667560000001,172.420566,113.2889344
imu,130.656138,,,,,,,-81.50748519999999,172.7135388,113.4720424
imu,130.757701,,,,,,,-79.48109000000001,171.871242,111.3601968
imu,130.859874,,,,,,,-81.6661788,172.9332684,114.0457808
imu,130.960856,,,,,,,-81.8248724,172.6158812,111.067224
imu,131.69389,-0.6298548984000001,-9.364680236800002,2.966239735200001,-1.22610577,1.40514907,-3.95995042,,,
imu,131.702516,-0.6555754688000001,-9.379035904000002,2.9764083328,-1.15133667,1.1285034,-4.40108811,,,
imu,131.711143,-0.6645477608,-9.402962016000002,2.9734175688,-0.7550604399999999,0.8593346399999997,-4.28893446,,,
imu,131.719769,-0.6872775672000001,-9.417915836,2.9841843192,-0.59056842,0.8518577299999999,-4.17678081,,,
imu,131.728395,-0.7171852072000001,-9.441841948000002,2.982389860800001,-0.39616876,0.7546578999999998,-4.20668845,,,
imu,131.737022,-0.7405131664000002,-9.4621791432,2.993754764000001,-0.3513073,0.52287369,-4.057150249999999,,,
imu,131.745648,-0.76264482,-9.4753385048,2.9985399864,-0.38121494,0.50044296,-3.8702275,,,
imu,131.754274,-0.7841783208,-9.458590226400002,3.0122975008,-0.38121494,0.47801223,-3.83284295,,,
imu,131.762901,-0.7913561544000001,-9.4633754488,2.999736292,-0.23915365,0.5153967799999997,-3.68330475,,,
imu,131.771149,-0.7997302936000001,-9.48072188,3.008708584,-0.31392275,0.5303505999999998,-3.66835093,,,
imu,131.779398,-0.8152822664000001,-9.5004609224,3.0093067368,-0.41112258,0.4555814999999996,-3.68330475,,,
imu,131.787646,-0.8284416280000001,-9.513620284000002,3.0063159728,-0.67281443,0.50044296,-3.84779677,,,
imu,131.795895,-0.8553585040000001,-9.514218436800002,3.030840237600001,-0.71767589,0.6275504299999999,-3.90013514,,,
imu,131.804144,-0.8541621984000002,-9.510031367200002,3.041606988,-0.9644139199999999,0.7546578999999998,-3.75807385,,,
imu,131.812392,-0.8655271016000001,-9.4801237272,3.0463922104,-1.18872122,0.9341037399999998,-3.51133582,,,
imu,131.820641,-0.8577511152000001,-9.46576806,3.0434014464,-1.33078251,1.21822632,-3.07767504,,,
imu,131.82889,-0.840404684,-9.4526086984,3.029045779200001,-1.53265908,1.55468727,-2.68139881,,,
imu,131.837138,-0.8212637944000001,-9.419710294400002,3.0392143768,-1.51770526,2.01077878,-2.10567674,,,
imu,131.845387,-0.7853746264000001,-9.399971252000002,3.02067164,-1.48779762,2.54163939,-1.6271545,,,
imu,131.853636,-0.7357279440000001,-9.3927934184,3.020073487200001,-1.48032071,2.96034635,-1.26826282,,,
imu,131.861884,-0.684884956,-9.3862137376,3.0374199184,-1.35321324,3.15474601,-1.1037708,,,
imu,131.870133,-0.6340419680000001,-9.3963823352,3.0320365432,-1.19619813,3.2220382,-1.12620153,,,
imu,131.878382,-0.5796100632000001,-9.398176793600001,3.026653168000001,-1.10647521,3.13979219,-1.17106299,,,
imu,131.88663,-0.55329134,-9.388008196000001,3.030840237600001,-0.90459864,2.99025399,-1.16358608,,,
imu,131.894879,-0.5090280328000001,-9.3975786408,3.017082723200001,-0.69524516,2.93791562,-1.05890934,,,
imu,131.903128,-0.4970649768000001,-9.391597112800001,3.017082723200001,-0.41112258,2.75846978,-1.12620153,,,
imu,131.911376,-0.4743351704000001,-9.396980488,3.0122975008,-0.08961545,2.4743472,-1.20097063,,,
imu,131.919625,-0.4605776560000001,-9.405952780000002,3.022466098400001,0.3889067899999999,2.11545552,-1.36546265,,,
imu,131.927873,-0.4767277816000001,-9.416121377600001,3.0260550152,0.79265993,1.71917929,-1.71687742,,,
imu,131.936122,-0.4767277816000001,-9.447225323200001,3.0260550152,0.6954601,1.43505671,-2.12810747,,,
imu,131.944371,-0.4874945320000001,-9.461580990400002,3.0182790288,0.88985976,1.23318014,-2.43466078,,,
imu,131.952619,-0.5096261856000001,-9.453206851200001,3.022466098400001,1.00201341,1.00139593,-2.80102937,,,
imu,131.960868,-0.5419264368000001,-9.462777296000002,3.0272513208,1.00201341,0.9191499199999997,-3.06272122,,,
imu,131.969684,-0.5688433128,-9.48072188,3.0350273072,1.11416706,0.9116730099999999,-3.33188998,,,
imu,131.978499,-0.5945638832000001,-9.482516338400002,3.0481866688,0.8375213899999999,0.9415806499999997,-3.66087402,,,
imu,131.987315,-0.6172936896000001,-9.481918185600001,3.041606988,0.58330645,0.9191499199999997,-4.17678081,,,
imu,131.99613,-0.6412198016000001,-9.495675700000001,3.0398125296,0.40386061,1.03130357,-4.72259524,,,
imu,132.004946,-0.6627533024,-9.511227672800002,3.0332328488,0.28423005,1.22570323,-5.08896383,,,
imu,132.013762,-0.6866794144,-9.477731116000001,3.0451959048,0.03749201999999999,1.45748744,-5.26840967,,,
imu,132.022577,-0.6968480120000001,-9.440645642400002,3.0428032936,-0.23167674,1.577118,-5.59739371,,,
imu,132.031393,-0.7129981376000001,-9.385615584800002,3.0350273072,-0.3513073,1.89862513,-5.93385466,,,
imu,132.040208,-0.7207741240000002,-9.388606348800002,3.0320365432,-0.47841477,2.15284007,-6.14320814,,,
imu,132.049024,-0.7106055264000001,-9.420906600000002,3.0320365432,-0.37373803,2.21265535,-6.47219218,,,
imu,132.05784,-0.7183815128000002,-9.444234559200002,3.0422051408,-0.24663056,2.39210119,-7.02548352,,,
imu,132.066655,-0.7405131664000002,-9.452010545600002,3.0523737384,-0.28401511,2.30985518,-7.272221549999999,,,
imu,132.075471,-0.7405131664000002,-9.453206851200001,3.0469903632,-0.2765382,2.324809,-7.13016026,,,
imu,132.084286,-0.7578595976000001,-9.450216087200001,3.063738641600001,-0.26158438,2.22013226,-6.973145150000001,,,
imu,132.093102,-0.7770004872000001,-9.436458572800001,3.077496156,-0.44850713,2.27247063,-6.532007459999999,,,
imu,132.101918,-0.7787949456000002,-9.417915836,3.0697201696,-0.41112258,2.20517844,-5.92637775,,,
imu,132.110733,-0.7823838624,-9.405354627200001,3.0547663496,-0.2017691,2.13788625,-5.68711663,,,
imu,132.119549,-0.7871690848,-9.373054376,3.029045779200001,-0.06718472,2.05564024,-5.74693191,,,
imu,132.128364,-0.7859727792000001,-9.338959666400001,3.0463922104,0.09730729999999999,1.85376367,-5.67216281,,,
imu,132.13718,-0.7793930984000002,-9.3479319584,3.038018071200001,0.41133752,1.78647148,-5.79927028,,,
imu,132.145996,-0.7919543072000002,-9.361091320000002,3.0194753344,0.9048135799999999,1.577118,-5.83665483,,,
imu,132.154811,-0.7883653904000001,-9.356904250400001,3.0368217656,1.12912088,1.45748744,-6.0385314,,,
imu,132.163627,-0.8093007384,-9.3347725968,3.0350273072,1.57025857,1.14345722,-6.113300499999999,,,
imu,132.172109,-0.8344231560000002,-9.4316733504,3.0051196672,1.89924261,0.98644211,-6.158161959999999,,,
imu,132.180592,-0.8290397808000001,-9.402363863200002,3.0009325976,2.02635008,0.8518577299999999,-6.1880696,,,
imu,132.189075,-0.8601437264,-9.395784182400002,3.008708584,2.13850373,0.8219500899999996,-5.97123921,,,
imu,132.197557,-0.8529658928000001,-9.418513988800001,2.9871750832,2.48244159,0.7770886299999997,-5.53757843,,,
imu,132.20604,-0.8619381848000001,-9.443038253600001,2.9901658472,2.35533412,0.84438082,-5.350655679999999,,,
imu,132.214523,-0.8613400320000001,-9.4526086984,2.9734175688,2.4151494,0.8967191899999998,-5.25345585,,,
imu,132.223005,-0.8756956992000001,-9.437056725600002,2.9584637488,2.44505704,0.8369039099999998,-5.044102369999999,,,
imu,132.231488,-0.8846679912000001,-9.3993730992,2.9734175688,2.58711833,0.8518577299999999,-4.87213344,,,
imu,132.23997,-0.8972292000000002,-9.405952780000002,2.96085636,2.54225687,1.06868812,-4.5431494,,,
imu,132.248453,-0.9062014920000001,-9.444234559200002,2.945304387200001,2.82637945,1.15841104,-4.4683803,,,
imu,132.256936,-0.8954347416000001,-9.477731116000001,2.927957956,2.98339456,1.11354958,-4.386134289999999,,,
imu,132.265418,-0.9097904088000002,-9.456197615200002,2.9255653448,2.94601001,1.26308778,-4.34874974,,,
imu,132.273901,-0.9181645480000001,-9.461580990400002,2.9267616504,3.02077911,1.22570323,-4.31136519,,,
imu,132.282383,-0.9205571592,-9.483712644000002,2.9142004416,3.11797894,1.49487199,-4.10948862,,,
imu,132.290866,-0.9265386872000001,-9.5082369088,2.8986484688,2.98339456,1.68927165,-4.057150249999999,,,
imu,132.299349,-0.9313239096000001,-9.532163020800002,2.896854010400001,2.97591765,1.98087114,-3.95995042,,,
imu,132.307831,-0.9283331456000001,-9.517807353600002,2.874124204,2.80394872,2.10797861,-3.83284295,,,
imu,132.316314,-0.9379035904000002,-9.516611048000001,2.874124204,2.59459524,2.46687029,-3.59358183,,,
imu,132.324797,-0.9181645480000001,-9.5327611736,2.8902743296,2.36281103,2.87062343,-3.63096638,,,
imu,132.333279,-0.9247442288000001,-9.541135312800002,2.8627593008,2.17588828,2.81080815,-3.82536604,,,
imu,132.341762,-0.9073977976000001,-9.555490980000002,2.8824983432,1.6674584,3.01268472,-3.90013514,,,
imu,132.350244,-0.8918458248000001,-9.577024480800002,2.8974521632,1.32352054,3.21456129,-3.87770441,,,
imu,132.358727,-0.8876587552000001,-9.6051376624,2.8962558576,1.06182869,3.58092988,-3.7206893,,,
imu,132.36721,-0.8816772272000001,-9.584800467200001,2.918985664,0.59078336,3.70803735,-3.69825857,,,
imu,132.375667,-0.8786864632000002,-9.585996772800002,2.936930248,0.17955331,3.91739083,-3.30198234,,,
imu,132.384124,-0.8667234072000001,-9.5877912312,2.942911776,-0.2765382,3.9697292,-3.00290594,,,
imu,132.392581,-0.8481806704000001,-9.553098368800002,2.936930248,-0.5008455,4.171605769999999,-2.92813684,,,
imu,132.401038,-0.8356194616000001,-9.4980683112,2.943509928800001,-0.71019898,4.35105161,-2.88327538,,,
imu,132.409496,-0.8069081272,-9.456795768000001,2.924967192,-0.79244499,4.35105161,-2.83093701,,,
imu,132.417953,-0.8063099744000001,-9.4412437952,2.9183875112,-0.79244499,4.39591307,-2.74121409,,,
imu,132.42641,-0.7877672376000001,-9.419112141600001,2.9255653448,-0.5307531400000001,4.2688056,-2.75616791,,,
imu,132.434867,-0.7770004872000001,-9.3993730992,2.9327431784,-0.33635348,4.17908268,-2.92813684,,,
imu,132.443324,-0.7656355840000001,-9.361689472800002,2.941117317600001,-0.13447691,4.05945212,-3.16739796,,,
imu,132.451781,-0.7614485144,-9.3586987088,2.9423136232,0.17955331,3.91739083,-3.21973633,,,
imu,132.460239,-0.7542706808000001,-9.368269153600002,2.927957956,0.5982602699999999,3.57345297,-3.37675144,,,
imu,132.468696,-0.7608503616000001,-9.387410043200001,2.927957956,0.74779847,3.34166876,-3.48890509,,,
imu,132.477153,-0.7506817640000001,-9.387410043200001,2.9165930528,1.16650543,3.19960747,-3.55619728,,,
imu,132.48561,-0.7758041816000001,-9.373054376,2.9171912056,1.46558183,3.10240764,-3.62348947,,,
imu,132.494067,-0.7793930984000002,-9.3963823352,2.920181969600001,1.77961205,2.88557725,-3.59358183,,,
imu,132.502525,-0.8093007384,-9.440645642400002,2.898050316,2.10859609,2.90053107,-3.35432071,,,
imu,131.062388,,,,,,,-81.2633412,173.091962,113.7406008
imu,131.163951,,,,,,,-81.3609988,173.0675476,113.3987992
imu,131.265513,,,,,,,-81.0802332,173.2628628,113.5697
imu,131.367076,,,,,,,-81.5929356,173.5680428,113.1302408
imu,131.470378,,,,,,,-81.4098276,172.9210612,113.1180336
imu,131.570201,,,,,,,-81.56852119999999,173.5436284,113.7772224
imu,131.671794,,,,,,,-79.51771160000001,172.420566,112.0926288
imu,131.773326,,,,,,,-81.5807284,173.6534932,112.7274032
imu,132.510982,-0.8278434752000001,-9.463973601600001,2.8753205096,2.3403803,2.87062343,-3.32441307,,,
imu,132.519439,-0.8457880592000001,-9.479525574400002,2.8824983432,2.52730305,3.02016163,-3.08515195,,,
imu,132.527896,-0.8445917536,-9.458590226400002,2.8753205096,2.6394567,3.06502309,-2.96552139,,,
imu,132.536353,-0.8529658928000001,-9.4908904776,2.8783112736,2.6394567,3.31176112,-2.98047521,,,
imu,132.54481,-0.8523677400000002,-9.481320032800001,2.874124204,2.60954906,3.52859151,-2.98047521,,,
imu,132.553268,-0.8224601,-9.503451686400002,2.866348217600001,2.63197979,3.73794499,-3.10758268,,,
imu,132.561725,-0.8110951968000001,-9.483712644000002,2.8932650936,2.68431816,4.03702139,-3.04029049,,,
imu,132.570182,-0.804515516,-9.48072188,2.898050316,2.55721069,4.18655959,-2.9729983,,,
imu,132.578675,-0.7692245008,-9.5459205352,2.8687408288,2.4899185,4.32114397,-2.86084465,,,
imu,132.587168,-0.7572614448000001,-9.554892827200002,2.8723297456,2.20579592,4.23889796,-2.89075229,,,
imu,132.59566,-0.7530743752000001,-9.483712644000002,2.899246621600001,1.90671952,4.32114397,-3.13001341,,,
imu,132.604153,-0.7584577504000002,-9.551303910400001,2.883096496000001,1.6674584,4.29123633,-3.11505959,,,
imu,132.612646,-0.741709472,-9.6075302736,2.864553759200001,1.53287402,4.20151341,-3.00290594,,,
imu,132.621139,-0.7249611936,-9.5638651192,2.8729278984,1.07678251,4.0444983,-3.1225365,,,
imu,132.629632,-0.7040258456,-9.520199964800002,2.8836946488,0.6132140899999999,3.78280645,-3.26459779,,,
imu,132.638124,-0.7016332344,-9.533359326400001,2.8836946488,0.41133752,3.48373005,-3.47395127,,,
imu,132.646617,-0.7082129152000001,-9.5812115504,2.8729278984,0.2468455,3.19213056,-3.59358183,,,
imu,132.65511,-0.7165870544000001,-9.581809703200001,2.887283565600001,0.04496892999999999,2.93791562,-3.59358183,,,
imu,132.663603,-0.7231667352000001,-9.551902063200002,2.8932650936,-0.28401511,2.72856214,-3.50385891,,,
imu,132.672095,-0.7435039304000001,-9.530368562400001,2.898050316,-0.47841477,2.57154703,-3.30198234,,,
imu,132.680588,-0.7476910000000001,-9.519003659200001,2.8866854128,-0.7401066199999999,2.52668557,-3.15244414,,,
imu,132.689081,-0.7554669864000001,-9.496872005600002,2.8819001904,-0.8522602699999999,2.43696265,-3.14496723,,,
imu,132.697574,-0.7901598488000001,-9.487899713600001,2.8884798712,-0.8821679099999999,2.36967046,-3.03281358,,,
imu,132.706067,-0.7829820152,-9.4831144912,2.8783112736,-0.93450628,2.46687029,-2.89075229,,,
imu,132.714559,-0.7853746264000001,-9.437056725600002,2.8908724824,-0.89712173,2.55659321,-2.74121409,,,
imu,132.723052,-0.7752060288000001,-9.425691822400001,2.904031844000001,-0.71019898,2.76594669,-2.46456842,,,
imu,132.731545,-0.7638411256000001,-9.447823476,2.8944613992,-0.52327623,2.82576197,-2.55429134,,,
imu,132.740038,-0.7530743752000001,-9.4669643656,2.8884798712,-0.3513073,2.85566961,-2.56176825,,,
imu,132.748531,-0.7452983888000001,-9.471749588000002,2.9171912056,-0.06718472,2.82576197,-2.61410662,,,
imu,132.757023,-0.7321390272000001,-9.437654878400002,2.8627593008,0.05992275,2.78837742,-2.53933752,,,
imu,132.765516,-0.7333353328000001,-9.364680236800002,2.8789094264,0.17955331,2.84071579,-2.63653735,,,
imu,132.774009,-0.723764888,-9.4137287664,2.887283565600001,0.50853735,2.81828506,-2.88327538,,,
imu,132.782463,-0.7153907488000001,-9.483712644000002,2.8609648424,0.97210577,2.72108523,-2.8234601,,,
imu,132.790994,-0.7064184568,-9.5148165896,2.863955606400001,1.00201341,2.57154703,-2.89075229,,,
imu,132.799525,-0.70282954,-9.484908949600001,2.8836946488,0.8973366700000001,2.46687029,-2.90570611,,,
imu,132.808056,-0.681894192,-9.444832712,2.8795075792,0.9870595899999999,2.2500399,-2.83093701,,,
imu,131.874806,,,,,,,-79.2125316,173.2872772,110.8719088
imu,131.976369,,,,,,,-81.678386,173.9708804,113.813844
imu,132.077931,,,,,,,-81.50748519999999,173.7267364,111.6043408
imu,132.179494,,,,,,,-81.1168548,173.4825924,113.6429432
imu,132.281056,,,,,,,-81.62955720000001,173.1407908,113.4110064
imu,132.382619,,,,,,,-81.8859084,172.9820972,114.0824024
imu,132.484181,,,,,,,-81.51969240000001,173.2384484,112.7884392
imu,132.585744,,,,,,,-81.6539716,173.0675476,112.8860968
imu,132.687337,,,,,,,-80.0548284,172.3717372,111.2625392
imu,132.788869,,,,,,,-82.0568092,173.1896196,113.3621776
