Type,Timestamp,Data Accelerometer X,Data Accelerometer Y,Data Accelerometer Z,Data Gyroscope X,Data Gyroscope Y,Data Gyroscope Z,Data Magnetometer X,Data Magnetometer Y,Data Magnetometer Z
imu,377.120414,-2.130022120800001,-9.191215924800002,3.7276882496,-0.55318387,-11.64953579,-14.49491661,,,
imu,377.128879,-2.188042942400001,-9.194804841600002,3.7390531528,-0.68029134,-9.52609335,-12.67802748,,,
imu,377.137343,-2.2059875264,-9.218132800800001,3.737258694400001,-0.58309151,-7.38022018,-10.78636925,,,
imu,377.14616,-2.2125672072,-9.214543884000001,3.7157251936,-0.36626112,-5.28668538,-8.917141749999999,,,
imu,377.154977,-2.222137652,-9.184636244000002,3.7001732208,-0.15690764,-3.5071808,-7.227360089999999,,,
imu,377.163794,-2.180266956,-9.139774784,3.6923972344,0.05992275,-1.8622606,-5.38804023,,,
imu,377.172611,-2.1342091904,-9.108072685600002,3.6600969832,0.46367589,-0.3444478700000002,-3.54872037,,,
imu,377.181428,-2.0504677984,-9.070389059200002,3.622413356800001,1.09921324,0.9789651999999998,-1.55986231,,,
imu,377.190245,-1.9535670448,-9.0434721832,3.582935272,1.63755076,2.13040934,-0.04952648999999987,,,
imu,377.199062,-1.8435069296,-9.017751612800001,3.515942158400001,2.32542648,2.76594669,1.17668675,,,
imu,377.207879,-1.7202874528,-9.014760848800002,3.4920160464,3.17031731,3.21456129,2.30570016,,,
imu,377.216696,-1.6072365736,-9.003395945600001,3.439976752800001,3.9105314,3.35662258,3.29265228,,,
imu,377.225513,-1.4941856944,-9.000405181600001,3.4070783488,4.38157673,3.16222292,4.1300662,,,
imu,377.23433,-1.3733588288,-8.994423653600002,3.358627972000001,5.30871357,2.72856214,4.96000321,,,
imu,377.243147,-1.2585134912,-8.999208876,3.323935109600001,6.23585041,2.06311715,5.580586739999999,,,
imu,377.251964,-1.18135178,-9.034499891200001,3.283858872000001,6.9760645,1.17336486,6.103970440000001,,,
imu,377.26078,-1.1071808328,-9.0781650456,3.233015884,8.00040117,0.05930526999999985,6.68716942,,,
imu,377.269597,-1.0383932608,-9.132596950400002,3.2108842304,8.673323069999999,-1.24915398,6.70960015,,,
imu,377.278414,-0.998915176,-9.183439938400001,3.177387673600001,9.660275189999998,-2.61742851,6.79184616,,,
imu,377.287231,-0.9600352440000001,-9.242657065600001,3.1588449368,10.52759675,-4.00813377,6.8217538,,,
imu,377.296048,-0.9390998960000001,-9.2689757888,3.1199650048,11.45473359,-5.3764083,6.694646330000001,,,
imu,377.304865,-0.9151737840000002,-9.2958926648,3.1091982544,12.17999386,-6.87926721,6.35818538,,,
imu,377.313682,-0.9103885616000001,-9.322809540800002,3.084673989600001,13.04731542,-8.42698758,5.872186230000001,,,
imu,377.322499,-0.9008181168,-9.3479319584,3.0798887672,13.36134564,-10.00461559,5.124495229999999,,,
imu,377.331316,-0.9115848672000001,-9.399971252000002,3.0422051408,13.73519114,-11.44018231,4.39175805,,,
imu,377.340133,-0.9379035904000002,-9.437056725600002,3.0398125296,14.10155973,-12.96547195,3.5319134,,,
imu,377.348678,-0.9708019944000001,-9.4669643656,3.0284476264,14.18380574,-14.48328468,2.61225347,,,
imu,377.357223,-0.9851576616000001,-9.479525574400002,3.0260550152,14.20623647,-15.82165157,1.92437775,,,
imu,377.365768,-1.0467674,-9.501657228000001,3.02067164,14.3034363,-16.8160806,1.27388658,,,
imu,377.374312,-1.088638096,-9.4980683112,2.9859787776,14.32586703,-17.84789418,0.6981645100000002,,,
imu,377.382857,-1.1616127376,-9.4555994624,2.9704268048,14.23614411,-18.7600772,0.1224424399999999,,,
imu,377.391402,-1.2304003096,-9.452010545600002,2.945304387200001,14.29595939,-19.35823,-0.14672632,,,
imu,377.399947,-1.3045712568,-9.4621791432,2.9303505672,14.079129,-19.82927533,-0.5280487299999999,,,
imu,377.408492,-1.3895089544,-9.4843107968,2.922574580800001,14.04922136,-20.15825937,-0.9018942299999999,,,
imu,377.417037,-1.462483596,-9.513022131200001,2.9004429272,13.76509878,-20.30032066,-1.22340136,,,
imu,377.425582,-1.5330656264,-9.51062952,2.895657704800001,13.56322221,-20.01619808,-1.49257012,,,
imu,377.434127,-1.5946753648,-9.526779645600001,2.8836946488,13.45854547,-19.44047601,-1.5523854,,,
imu,377.442672,-1.6670518536,-9.548313146400002,2.883096496000001,13.1071307,-18.66287737,-1.44770866,,,
imu,377.451217,-1.7232782168,-9.571042952800001,2.8669463704,12.62860846,-17.84041727,-1.30564737,,,
imu,377.459762,-1.770532288,-9.605735815200001,2.8495999392,12.1351324,-16.8908497,-1.23087827,,,
imu,377.468307,-1.8070196088,-9.6117173432,2.8340479664,11.64913325,-15.75435938,-1.43275484,,,
imu,377.476852,-1.833338332,-9.5985579816,2.8238793688,10.80424242,-14.66273052,-1.76173888,,,
imu,377.485396,-1.842310624,-9.6015487456,2.8137107712,10.13879743,-13.66082458,-2.09819983,,,
imu,377.493941,-1.83931986,-9.595567217600001,2.7909809648,9.458398619999999,-12.44956516,-2.47204533,,,
imu,377.502486,-1.845301388,-9.605735815200001,2.7802142144,8.70323071,-11.44765922,-2.92065993,,,
imu,377.511031,-1.836329096,-9.631456385600002,2.761671477600001,7.94058589,-10.32612272,-3.33188998,,,
imu,377.519576,-1.8345346376,-9.651793580800001,2.738941671200001,7.04335669,-9.17467858,-3.57862801,,,
imu,377.528099,-1.8255623456,-9.672130776000001,2.7383435184,6.3779117,-8.12791118,-3.65339711,,,
imu,377.536644,-1.815393748,-9.675719692800001,2.7347546016,5.54797469,-7.021328499999999,-3.45152054,,,
imu,377.545189,-1.7950565528,-9.701440263200002,2.712622948,4.74046841,-5.96708419,-3.33936689,,,
imu,377.553583,-1.773523052,-9.699047652,2.7084358784,4.17970016,-4.80816314,-3.15992105,,,
imu,377.561977,-1.7460080232,-9.6942624296,2.7030525032,3.48434753,-3.77634956,-2.86832156,,,
imu,377.57037,-1.7208856056,-9.706225485600001,2.7024543504,2.75161035,-2.81182817,-2.77112173,,,
imu,377.578764,-1.6993521048,-9.7193848472,2.7078377256,1.92915025,-1.92955279,-2.86084465,,,
imu,377.587157,-1.6766222984,-9.7403201952,2.7203989344,1.01696723,-1.08466196,-3.14496723,,,
imu,377.595551,-1.662864784,-9.744507264800001,2.7353527544,0.13469185,-0.4192169699999999,-3.36179762,,,
imu,377.603945,-1.6455183528,-9.7510869456,2.761671477600001,-0.68029134,0.07425908999999997,-3.69078166,,,
imu,377.612338,-1.653892492,-9.746899876,2.7670548528,-1.63733582,0.56025824,-4.28893446,,,
imu,377.620732,-1.6335552968,-9.736731278400002,2.775428992000001,-2.63176485,0.7546578999999998,-4.976810179999999,,,
imu,377.629125,-1.6203959352,-9.7008421104,2.783204978400001,-3.6411477,1.0537343,-5.589916799999999,,,
imu,377.637519,-1.62996638,-9.657775108800001,2.775428992000001,-4.276685049999999,1.06868812,-6.17311578,,,
imu,377.645913,-1.6293682272,-9.630858232800001,2.7706437696,-4.88231476,1.23318014,-6.51705364,,,
imu,377.654306,-1.6401349776,-9.591380148,2.7652603944,-5.54775975,1.45001053,-6.621730379999999,,,
imu,377.6627,-1.650901728,-9.538742701600002,2.7682511584,-5.85431306,1.67431783,-6.54696128,,,
imu,377.671093,-1.6526961864,-9.492086783200001,2.7532973384,-5.95151289,1.96591732,-6.464715269999999,,,
imu,377.679487,-1.6766222984,-9.415523224800001,2.7652603944,-5.958989799999999,2.25751681,-6.031054489999999,,,
imu,377.687881,-1.6640610896,-9.381428515200001,2.7550917968,-5.92160525,2.54163939,-5.41047096,,,
imu,377.696274,-1.6526961864,-9.353315333600001,2.7473158104,-5.47299065,3.03511545,-4.77493361,,,
imu,377.704668,-1.6491072696,-9.324005846400002,2.745521352,-5.315975539999999,3.36409949,-4.318842099999999,,,
imu,377.713061,-1.6245830048,-9.298883428800002,2.738941671200001,-4.79259184,3.70056044,-3.93004278,,,
imu,377.721455,-1.6114236432,-9.280938844800001,2.725184156800001,-4.07480848,4.02954448,-3.22721324,,,
imu,377.729849,-1.5922827536,-9.283929608800001,2.7078377256,-3.2673022,4.44825144,-2.748691,,,
imu,377.738242,-1.567160336,-9.2761536224,2.706043267200001,-2.54204193,4.72489711,-2.23278421,,,
imu,377.746636,-1.5366545432,-9.2719665528,2.689893141600001,-1.58499745,5.0164966,-1.78416961,,,
imu,377.755105,-1.52528964,-9.272564705600002,2.671350404800001,-0.74758353,5.22585008,-1.50752394,,,
imu,377.763573,-1.4929893888,-9.264788719200002,2.6725467104,0.15712258,5.43520356,-1.22340136,,,
imu,377.772042,-1.4762411104,-9.2935000536,2.670752252,1.03939796,5.71932614,-1.20844754,,,
imu,377.78051,-1.4481279288,-9.343146736000001,2.671350404800001,1.98148862,5.853910519999999,-1.08881698,,,
imu,377.788979,-1.4188184416,-9.395186029600001,2.667163335200001,2.6394567,5.90624889,-0.9542325999999999,,,
imu,377.797448,-1.4032664688,-9.429878892000001,2.682715308000001,2.98339456,6.033356359999999,-1.08881698,,,
imu,377.805916,-1.39070526,-9.453206851200001,2.6880986832,3.24508641,5.9137258,-1.3280781,,,
imu,377.814385,-1.3572087032,-9.478927421600002,2.6863042248,3.45443989,5.943633439999999,-1.34303192,,,
imu,377.822854,-1.3404604248,-9.4938812416,2.6773319328,3.45443989,5.82400288,-1.4776163,,,
imu,377.831322,-1.3225158408,-9.508835061600001,2.689893141600001,3.33480933,5.71184923,-1.73183124,,,
imu,377.839791,-1.3225158408,-9.572239258400002,2.696472822400001,3.20770186,5.569787939999999,-2.04586146,,,
imu,377.848259,-1.318926924,-9.631456385600002,2.7012580448,2.78151799,5.30061918,-2.32998404,,,
imu,377.856728,-1.3183287712,-9.671532623200001,2.717408170400001,2.42262631,5.15108098,-2.65149117,,,
imu,377.865197,-1.3123472432,-9.692467971200001,2.7341564488,1.76465823,4.762281659999999,-2.86084465,,,
imu,377.873665,-1.3267029104,-9.70502918,2.736549060000001,1.12164397,4.50806672,-2.98047521,,,
imu,377.882134,-1.3320862856,-9.7217774584,2.7431287408,0.56835263,4.38095925,-2.89075229,,,
imu,377.890603,-1.357806856,-9.731946056000002,2.7467176576,-0.07466163,4.28375942,-2.53933752,,,
imu,377.899071,-1.3781440512,-9.713403319200001,2.7568862552,-0.88964482,4.20899032,-2.21035348,,,
imu,377.90754,-1.3954904824,-9.6799067624,2.7652603944,-1.45788998,4.30619015,-1.73930815,,,
imu,377.916008,-1.408649844,-9.671532623200001,2.7628677832,-1.9962275,4.36600543,-1.47013939,,,
imu,377.924477,-1.4200147472,-9.652989886400002,2.7652603944,-2.78130305,4.530497449999999,-1.24583209,,,
imu,377.932946,-1.4457353176,-9.614109954400002,2.7646622416,-3.25982529,4.65012801,-1.20097063,,,
imu,377.941414,-1.4666706656,-9.593174606400002,2.771241922400001,-3.82807045,4.70994329,-1.09629389,,,
imu,377.949883,-1.4738484992,-9.571042952800001,2.7861957424,-4.17200831,5.06135806,-1.0290017,,,
imu,377.958382,-1.4977746112,-9.541135312800002,2.784999436800001,-4.55333072,5.33800373,-0.85703277,,,
imu,377.966881,-1.504354292,-9.553098368800002,2.801747715200001,-4.986991499999999,5.74175687,-0.63272547,,,
imu,377.97538,-1.5115321256,-9.537546396000002,2.8095237016,-5.40569846,6.10064855,-0.5056179999999999,,,
imu,377.98388,-1.5055505976,-9.534555632000002,2.8208886048,-5.44308301,6.61655534,-0.18411087,,,
imu,377.992379,-1.5157191952,-9.504647992000002,2.832253508,-5.70477486,7.222185049999999,0.1523500800000002,,,
imu,378.000878,-1.5025598336,-9.498666464000001,2.85617962,-6.168343279999999,7.7081842,0.2869344599999999,,,
imu,378.009377,-1.4947838472,-9.512423978400001,2.8699371344,-6.377696759999999,8.007260599999999,0.4215188400000001,,,
imu,378.017876,-1.4876060136,-9.4974701584,2.8789094264,-6.46741968,8.42596756,0.4813341200000001,,,
imu,378.026375,-1.4762411104,-9.491488630400001,2.8926669408,-6.639388609999999,8.73999778,0.242073,,,
imu,378.034874,-1.43556672,-9.501657228000001,2.9004429272,-6.64686552,8.964305079999999,0.3168421000000001,,,
imu,378.043374,-1.4002757048,-9.4735440464,2.9165930528,-6.84126518,9.19608929,-0.07195722000000004,,,
imu,378.051873,-1.3811348152,-9.440645642400002,2.9291542616,-6.81883445,9.166181649999999,-0.55047946,,,
imu,378.060372,-1.351825328,-9.4203084472,2.948893304,-6.7066808,9.45778114,-0.57291019,,,
imu,378.068871,-1.3207213824,-9.405952780000002,2.981791708,-6.497327319999999,9.67461153,-0.3411259799999999,,,
imu,378.07737,-1.2985897288,-9.396980488,2.9776046384,-6.287973839999999,9.599842429999999,-0.2140185099999998,,,
imu,378.085869,-1.2609061024,-9.402962016000002,2.9883713888,-6.22815856,9.56245788,-0.1317724999999998,,,
imu,378.094368,-1.2208298648,-9.4005694048,2.999736292,-5.96646671,9.41291968,0.002811879999999878,,,
imu,378.102868,-1.172379488,-9.3586987088,2.9889695416,-5.66739031,9.300766029999998,0.09253480000000014,,,
imu,378.111367,-1.1412755424,-9.313239096000002,3.002727056,-5.23372953,9.10636637,0.03271952000000011,,,
imu,378.119866,-1.1041900688,-9.315033554400001,3.017082723200001,-4.725299649999999,8.74747469,0.10001171,,,
imu,378.128365,-1.0330098856,-9.342548583200001,3.022466098400001,-4.26173123,8.08950661,-0.09438795,,,
imu,378.136864,-0.9666149248000001,-9.343146736000001,3.0254568624,-3.84302427,7.2595696,-0.43832581,,,
imu,378.145363,-0.8583492680000002,-9.3455393472,3.0284476264,-3.58880933,6.00344872,-0.8495558599999999,,,
imu,378.153862,-0.7871690848,-9.393989724,3.0511774328,-3.3420713,4.32114397,-1.58976995,,,
imu,378.16264,-0.7710189592000001,-9.460982837600001,3.0422051408,-3.37197894,2.49677793,-2.1505382,,,
imu,378.171417,-0.7650374312,-9.509433214400001,3.047588516000001,-3.67105534,0.6798887999999996,-2.19539966,,,
imu,378.180194,-0.7393168608000001,-9.534555632000002,3.0439995992,-4.08228539,-1.21176943,-2.001,,,
imu,378.188971,-0.7494854584000001,-9.547714993600001,3.041606988,-4.56828454,-2.93893564,-1.82155416,,,
imu,378.197748,-0.8170767248000002,-9.567454036,3.0428032936,-5.151483519999999,-4.46422528,-1.89632326,,,
imu,378.206525,-0.9085941032000001,-9.574631869600001,3.0577571136,-5.50289829,-5.712869250000001,-1.55986231,,,
imu,378.215302,-1.0060930096,-9.520798117600002,3.0667294056,-5.63000576,-6.453083339999999,-0.4308489,,,
imu,378.224079,-1.0952177768,-9.477132963200003,3.0852721424,-5.91412834,-6.886744119999999,0.6533030499999999,,,
imu,378.232857,-1.1735757936,-9.447823476,3.112787171200001,-6.28049693,-6.9465594,1.23650203,,,
imu,378.241634,-1.235185532,-9.427486280800002,3.140900352800001,-6.54218878,-6.7970212,1.94680848,,,
imu,378.250411,-1.280046992,-9.401765710400001,3.1714061456,-6.639388609999999,-6.303545140000001,3.03843734,,,
imu,378.259188,-1.3003841872,-9.3904008072,3.20011748,-6.833788269999999,-5.57080796,3.6066825,,,
imu,378.267965,-1.3117490904,-9.403560168800002,3.2306232728,-6.968372649999999,-4.78573241,3.80855907,,,
imu,378.276742,-1.2955989648,-9.399971252000002,3.247969704,-6.98332647,-3.90345703,3.87585126,,,
imu,378.285519,-1.2818414504,-9.367671000800001,3.2736902744,-6.99080338,-2.88659727,3.84594362,,,
imu,378.294296,-1.2573171856,-9.3479319584,3.2940274696,-6.998280289999999,-1.95946043,3.57677486,,,
imu,378.303073,-1.2387744488,-9.3377633608,3.331112943200001,-6.826311359999999,-1.07718505,3.24031391,,,
imu,378.311851,-1.2184372536,-9.3419504304,3.3628150416,-6.549665689999999,-0.04537147000000008,2.91880678,,,
imu,378.320628,-1.1879314608,-9.325800304800001,3.3646095,-6.2580662,0.8369039099999998,2.41785381,,,
imu,378.329405,-1.1550330568,-9.283331456,3.3711891808,-5.85431306,1.62945637,1.67016281,,,
imu,378.338182,-1.1323032504,-9.2480404408,3.389133764800001,-5.51785211,2.36219355,0.7953643399999999,,,
imu,378.346959,-1.0964140824,-9.2157401896,3.3909282232,-5.03932987,3.04259236,0.0177657,,,
imu,378.355736,-1.0778713456,-9.211553120000001,3.398106056800001,-4.53089999,3.66317589,-0.5878640099999999,,,
imu,378.364233,-1.055739692,-9.207366050400001,3.403489432,-3.91031646,4.3435747,-1.1785399,,,
imu,378.372729,-1.0371969552,-9.207366050400001,3.4016949736,-3.30468675,4.87443531,-1.78416961,,,
imu,378.381226,-1.0300191216,-9.222918023200002,3.397507904,-2.45979592,5.3903421,-2.25521494,,,
imu,378.389723,-1.0162616072,-9.226506940000002,3.4016949736,-1.81678166,5.80157215,-2.83093701,,,
imu,378.398219,-0.9857558144000002,-9.235479232000001,3.4058820432,-1.3980747,6.02587945,-3.4216129,,,
imu,378.406716,-0.9719983000000001,-9.250433052000002,3.4106672656,-0.97189083,6.063264,-3.99733497,,,
imu,378.415212,-0.9648204664000001,-9.267779483200002,3.3927226816,-0.55318387,5.943633439999999,-4.40108811,,,
imu,378.423709,-0.9672130776000001,-9.283331456,3.3987042096,-0.3513073,5.95111035,-4.692687599999999,,,
imu,378.432206,-0.9582407856000001,-9.290509289600001,3.4016949736,-0.17186146,5.75671069,-5.05905619,,,
imu,378.440702,-0.9666149248000001,-9.288714831200002,3.3867411536,-0.02980017,5.53240339,-5.193640569999999,,,
imu,378.449199,-0.980970592,-9.303070498400002,3.370591028000001,0.05244583999999999,5.136127159999999,-5.53757843,,,
imu,378.457695,-0.9881484256000002,-9.3204169296,3.37956332,0.35152224,4.54545127,-5.65720899,,,
imu,378.466192,-0.9941299536000001,-9.326398457600002,3.3670021112,0.44872207,4.23142105,-5.77683955,,,
imu,378.474689,-1.004896704,-9.328791068800001,3.3562353608,0.41133752,3.60336061,-5.90394702,,,
imu,377.152992,,,,,,,-86.9030676,175.9240324,111.4212328
imu,377.254554,,,,,,,-86.378158,175.350294,111.6897912
imu,377.356178,,,,,,,-85.2550956,174.984078,112.0071784
imu,377.457679,,,,,,,-84.54707800000001,174.7033124,112.7518176
imu,377.559242,,,,,,,-83.61933079999999,174.2394388,113.7894296
imu,377.660835,,,,,,,-81.9103228,173.336106,111.189296
imu,377.762397,,,,,,,-84.4616276,174.2272316,113.3621776
imu,378.483185,-1.034804344,-9.342548583200001,3.365207652800001,0.68798319,3.03511545,-5.91142393,,,
imu,378.491682,-1.0569359976,-9.363483931200001,3.3490575272,0.94219813,2.68370068,-5.56000916,,,
imu,378.500178,-1.0659082896,-9.364082084000001,3.3478612216,1.02444414,2.4743472,-5.17868675,,,
imu,378.508675,-1.0832547208,-9.356904250400001,3.320944345600001,1.12912088,2.26499372,-4.89456417,,,
imu,378.517172,-1.0964140824,-9.344941194400002,3.31974804,1.32352054,2.07059406,-4.58053395,,,
imu,378.525668,-1.1041900688,-9.337165208000002,3.3041960672,1.37585891,1.81637912,-4.124442439999999,,,
imu,378.534165,-1.1059845272,-9.352119028,3.3012053032,1.41324346,1.77151766,-3.90013514,,,
imu,378.542661,-1.1209383472,-9.364082084000001,3.2898404,1.63755076,1.97339423,-3.33936689,,,
imu,378.551158,-1.1077789856,-9.382026668000002,3.2772791912,1.65250458,1.90610204,-2.93561375,,,
imu,378.559655,-1.0994048464,-9.394587876800001,3.2665124408,1.8169966,2.04068642,-2.59167589,,,
imu,378.568203,-1.0904325544,-9.378437751200002,3.256941996000001,1.83942733,1.9509635,-2.45709151,,,
imu,378.576752,-1.07667504,-9.373652528800001,3.250960468,1.76465823,2.01825569,-2.0757691,,,
imu,378.585301,-1.0533470808,-9.3688673064,3.241988176,2.07868845,1.93600968,-1.9262309,,,
imu,378.59385,-1.0449729416,-9.359895014400001,3.237801106400001,2.24318047,1.96591732,-1.97109236,,,
imu,378.602398,-1.0401877192,-9.351520875200002,3.2461752456,2.34785721,1.8761944,-2.1505382,,,
imu,378.610947,-1.0360006496,-9.328791068800001,3.2485678568,2.34785721,1.77151766,-2.40475314,,,
imu,378.619586,-1.0210468296,-9.3688673064,3.2617272184,2.37028794,1.67431783,-2.47952224,,,
imu,378.628135,-1.010878232,-9.417915836,3.2814662608,2.19831901,1.33785688,-2.77859864,,,
imu,378.636684,-1.0234394408,-9.450216087200001,3.2874477888,2.01887317,1.25561087,-2.88327538,,,
imu,378.645233,-1.0001114816,-9.478329268800001,3.3173554288,1.51044329,1.2032725,-2.87579847,,,
imu,378.653781,-1.0132708432,-9.484908949600001,3.302999761600001,1.19641307,0.9640113799999996,-2.91318302,,,
imu,378.66233,-1.0066911624,-9.499264616800001,3.3065886784,1.01696723,0.8518577299999999,-2.54681443,,,
imu,378.670879,-1.0060930096,-9.4753385048,3.3065886784,0.4711528,0.8817653699999997,-2.27016876,,,
imu,378.679428,-1.00190594,-9.444832712,3.3113739008,0.23936859,0.92662683,-1.8514618,,,
imu,378.687976,-1.0013077872,-9.431075197600002,3.2994108448,-0.05970781,0.8144731799999998,-1.65706214,,,
imu,378.696525,-1.0072893152,-9.408943544000001,3.2826625664,-0.19429219,0.8219500899999996,-1.5523854,,,
imu,378.705074,-1.0072893152,-9.330585527200002,3.273092121600001,-0.38121494,0.9116730099999999,-1.39537029,,,
imu,378.713623,-1.0102800792,-9.3443430416,3.2641198296,-0.23915365,0.9789651999999998,-1.4028472,,,
imu,378.722171,-1.0174579128,-9.324005846400002,3.254549384800001,-0.13447691,0.9714882899999999,-1.67949287,,,
imu,378.73072,-1.0222431352,-9.2994815816,3.2635216768,-0.007369440000000005,0.9191499199999997,-1.84398489,,,
imu,378.739269,-1.0252338992,-9.2970889704,3.2790736496,0.19450713,0.94905756,-2.03090764,,,
imu,378.747817,-1.03181358,-9.321613235200001,3.2736902744,0.56087572,0.9939190199999999,-2.21035348,,,
imu,378.756366,-1.0246357464,-9.3479319584,3.270101357600001,0.85995212,1.23318014,-2.32998404,,,
imu,378.764915,-1.0090837736,-9.3658765424,3.288045941600001,0.8749059399999999,1.41262598,-2.34493786,,,
imu,378.773274,-0.9929336480000002,-9.395186029600001,3.3155609704,1.0693056,1.59954873,-2.39727623,,,
imu,378.781634,-0.9839613560000001,-9.411934308000001,3.3251314152,1.10669015,1.78647148,-2.49447606,,,
imu,378.789993,-0.9725964528000002,-9.444832712,3.3329074016,0.8674290299999999,1.76404075,-2.73373718,,,
imu,378.798352,-0.9606333968,-9.4490197816,3.326327720800001,0.57582954,1.86124058,-3.00290594,,,
imu,378.806711,-0.9582407856000001,-9.434065961600002,3.331112943200001,0.35899915,1.81637912,-3.29450543,,,
imu,378.815071,-0.9420906600000001,-9.4173176832,3.3341037072,0.13469185,1.84628676,-3.53376655,,,
imu,378.82343,-0.9385017432000002,-9.4077472384,3.331112943200001,0.03001510999999998,1.71170238,-3.71321239,,,
imu,378.831789,-0.9361091320000001,-9.405354627200001,3.3221406512,-0.13447691,1.39019525,-4.11696553,,,
imu,378.840148,-0.9474740352000001,-9.387410043200001,3.3131683592,0.01506129,1.25561087,-4.244073,,,
imu,378.848508,-0.9558481744000001,-9.356306097600001,3.3059905256,-0.02980017,1.08364194,-4.46090339,,,
imu,378.856867,-0.9648204664000001,-9.355109792000002,3.305392372800001,0.10478421,0.9116730099999999,-4.55062631,,,
imu,378.865226,-0.9719983000000001,-9.361091320000002,3.292831164,0.23936859,0.7322271699999998,-4.72259524,,,
imu,378.873586,-0.980970592,-9.3479319584,3.289242247200001,0.43376825,0.5303505999999998,-4.991764,,,
imu,378.881945,-0.9965225648000002,-9.3443430416,3.286849636000001,0.8524752099999999,0.4555814999999996,-5.021671639999999,,,
imu,378.890304,-1.0276265104,-9.3269966104,3.2922330112,0.8749059399999999,0.2611818399999999,-5.13382529,,,
imu,378.898663,-1.0401877192,-9.334174444000002,3.3035979144,1.09173633,0.13407437,-5.10391765,,,
imu,378.907023,-1.0515526224,-9.373054376,3.297616386400001,1.22632071,0.1265974599999997,-5.35813259,,,
imu,378.915382,-1.0850491792,-9.3993730992,3.2970182336,1.24875144,-0.08275602000000015,-5.761885729999999,,,
imu,378.923741,-1.1101715968,-9.370661764800001,3.3024016088,1.09173633,-0.2397711300000003,-6.158161959999999,,,
imu,378.9321,-1.1311069448,-9.364082084000001,3.313766512,0.74779847,-0.2248173100000002,-6.419853809999999,,,
imu,378.94046,-1.1340977088,-9.388008196000001,3.3024016088,0.71789083,-0.1126636599999999,-6.50209982,,,
imu,378.948819,-1.169388724,-9.398774946400001,3.3024016088,0.52349117,-0.08275602000000015,-6.666591840000001,,,
imu,378.957178,-1.184342544,-9.3868118904,3.296420080800001,0.56087572,0.05182836000000002,-6.47966909,,,
imu,378.965538,-1.1951092944,-9.3862137376,3.291634858400001,0.50853735,0.27613566,-6.06096213,,,
imu,378.974011,-1.1945111416,-9.384419279200001,3.277877344000001,0.64312173,0.44062768,-5.77683955,,,
imu,378.982485,-1.2070723504,-9.3688673064,3.256343843200001,0.6132140899999999,0.50044296,-5.61982444,,,
imu,378.990959,-1.202287128,-9.3443430416,3.2557456904,0.80013684,0.6873657099999999,-5.34317877,,,
imu,378.999432,-1.2094649616,-9.3317818328,3.2503623152,0.97210577,0.7397040799999997,-5.11887147,,,
imu,379.007906,-1.2196335592,-9.335370749600001,3.2503623152,1.15902852,0.7770886299999997,-5.044102369999999,,,
imu,379.01638,-1.2166427952,-9.340754124800002,3.256343843200001,1.2188438,0.7920424499999998,-4.89456417,,,
imu,379.024854,-1.2070723504,-9.350922722400002,3.2503623152,1.33099745,0.9116730099999999,-4.83474889,,,
imu,379.033327,-1.2178391008,-9.368269153600002,3.2413900232,1.41324346,0.92662683,-4.87961035,,,
imu,379.041801,-1.214250184,-9.388008196000001,3.254549384800001,1.50296638,0.9191499199999997,-4.74502597,,,
imu,379.050275,-1.22621324,-9.4113361552,3.2437826344,1.39081273,0.9939190199999999,-4.74502597,,,
imu,379.058748,-1.229204004,-9.427486280800002,3.2467733984,1.33847436,1.0537343,-4.44594957,,,
imu,379.067222,-1.2339892264,-9.444832712,3.2497641624,1.1440747,1.1285034,-4.22164227,,,
imu,379.075696,-1.2459522824,-9.456197615200002,3.2407918704,0.9197674,1.15841104,-4.19173463,,,
imu,379.08417,-1.2315966152,-9.459786532,3.244978940000001,0.67302937,1.42010289,-4.15435008,,,
imu,379.092643,-1.2405689072,-9.4490197816,3.2503623152,0.41881443,1.59954873,-3.93004278,,,
imu,379.101117,-1.2345873792,-9.4382530312,3.2503623152,0.007584380000000002,1.88367131,-3.89265823,,,
imu,379.109591,-1.2387744488,-9.426289975200001,3.2533530792,-0.28401511,2.19022462,-3.70573548,,,
imu,379.118064,-1.2298021568,-9.422701058400001,3.260530912800001,-0.53823005,2.57154703,-3.50385891,,,
imu,379.126538,-1.2244187816,-9.413130613600002,3.2575401488,-0.60552224,2.85566961,-3.20478251,,,
imu,379.135012,-1.1986982112,-9.388008196000001,3.2611290656,-0.89712173,3.06502309,-2.95056757,,,
imu,379.143486,-1.172379488,-9.364680236800002,3.258736454400001,-1.0242292,3.35662258,-2.91318302,,,
imu,379.151959,-1.163407196,-9.3557079448,3.247371551200001,-0.95693701,3.43886859,-3.10758268,,,
imu,379.160433,-1.1358921672,-9.344941194400002,3.2557456904,-0.8522602699999999,3.46129932,-3.1973056,,,
imu,379.168907,-1.1358921672,-9.329987374400002,3.2635216768,-0.79244499,3.48373005,-3.33188998,,,
imu,379.177712,-1.1287143336,-9.332978138400001,3.2647179824,-0.60552224,3.17717674,-3.4216129,,,
imu,379.186517,-1.1209383472,-9.319220624000002,3.27488658,-0.50832241,2.91548489,-3.60853565,,,
imu,379.195322,-1.1107697496,-9.295294512000002,3.2677087464,-0.07466163,2.74351596,-3.65339711,,,
imu,379.204127,-1.109573444,-9.298285276000001,3.270699510400001,0.13469185,2.67622377,-3.72816621,,,
imu,379.212932,-1.0964140824,-9.297687123200001,3.2647179824,0.23936859,2.67622377,-3.68330475,,,
imu,379.221737,-1.100601152,-9.304266804000001,3.279671802400001,0.4861066199999999,2.50425484,-3.48142818,,,
imu,379.230542,-1.0952177768,-9.328192916,3.2790736496,0.77770611,2.36967046,-3.43656672,,,
imu,379.239347,-1.1149568192,-9.344941194400002,3.286849636000001,0.70293701,2.04068642,-3.63844329,,,
imu,379.248152,-1.118545736,-9.363483931200001,3.2856533304,0.80013684,1.79394839,-3.66835093,,,
imu,379.256957,-1.1221346528,-9.395784182400002,3.300607150400001,0.9571519499999999,1.52477963,-3.60853565,,,
imu,379.265762,-1.1370884728,-9.3904008072,3.3012053032,1.03192105,1.30047233,-3.5711511,,,
imu,379.274566,-1.1532385984,-9.378437751200002,3.2922330112,1.09921324,1.33037997,-3.56367419,,,
imu,379.283371,-1.1759684048,-9.3652783896,3.2904385528,1.09921324,1.21822632,-3.66087402,,,
imu,379.292176,-1.1765665576,-9.3455393472,3.2850551776,1.02444414,1.30047233,-3.44404363,,,
imu,377.86401,,,,,,,-82.2521244,173.8488084,110.8963232
imu,377.965603,,,,,,,-85.2428884,175.1549788,113.4964568
imu,378.067135,,,,,,,-84.24189799999999,175.3258796,112.2391152
imu,378.168728,,,,,,,-85.14523080000001,175.960654,111.9705568
imu,378.27026,,,,,,,-84.4005916,176.143762,112.1902864
imu,378.371822,,,,,,,-83.96113240000001,176.387906,112.1292504
imu,378.473385,,,,,,,-84.6325284,176.815158,112.0193856
imu,378.574978,,,,,,,-84.0709972,176.63205,111.3357824
imu,379.300981,-1.1963056,-9.337165208000002,3.270101357600001,1.30856672,1.41262598,-3.26459779,,,
imu,379.309786,-1.1969037528,-9.340754124800002,3.265914288000001,1.27118217,1.45748744,-3.30945925,,,
imu,379.318591,-1.2028852808,-9.3479319584,3.2635216768,1.368382,1.56216418,-3.22721324,,,
imu,379.327396,-1.2034834336,-9.350324569600001,3.2736902744,1.65998149,1.75656384,-3.21973633,,,
imu,379.336201,-1.214250184,-9.350324569600001,3.2814662608,1.86185806,1.8761944,-3.33936689,,,
imu,379.345006,-1.2118575728,-9.3658765424,3.279671802400001,1.83195042,2.01077878,-3.45899745,,,
imu,379.353811,-1.208268656,-9.379035904000002,3.2653161352,1.86185806,2.21265535,-3.54872037,,,
imu,379.362616,-1.2040815864,-9.370063612000001,3.2557456904,1.87681188,2.36219355,-3.46647436,,,
imu,379.371421,-1.2064741976,-9.361091320000002,3.27488658,1.86933497,2.64631613,-3.37675144,,,
imu,379.3799,-1.1927166832,-9.3652783896,3.2623253712,1.92167334,2.80333124,-3.20478251,,,
imu,379.388379,-1.1789591688,-9.370661764800001,3.2437826344,1.94410407,2.86314652,-3.15244414,,,
imu,379.396858,-1.1819499328,-9.352119028,3.2575401488,1.78708896,2.90800798,-3.22721324,,,
imu,379.405337,-1.1741739464,-9.340754124800002,3.2623253712,1.6674584,2.94539253,-3.17487487,,,
imu,379.413815,-1.16639796,-9.373054376,3.253951232,1.73475059,2.9229618,-3.10758268,,,
imu,379.422294,-1.1472570704,-9.429878892000001,3.235408495200001,1.79456587,2.9229618,-3.05524431,,,
imu,379.430773,-1.148453376,-9.429280739200001,3.237801106400001,1.68241222,2.79585433,-3.20478251,,,
imu,379.439252,-1.1508459872,-9.4250936696,3.2437826344,1.48053565,2.63883922,-3.32441307,,,
imu,379.447731,-1.1508459872,-9.420906600000002,3.242586328800001,1.48801256,2.60893158,-3.30198234,,,
imu,379.456209,-1.15144414,-9.436458572800001,3.2407918704,1.61512003,2.63883922,-2.89075229,,,
imu,379.464688,-1.1490515288,-9.435860420000001,3.218062064,1.72727368,2.7734236,-2.49447606,,,
imu,379.473167,-1.1496496816,-9.4250936696,3.212678688800001,1.63007385,2.87810034,-2.30755331,,,
imu,379.481646,-1.133499556,-9.4137287664,3.2025100912,1.78708896,2.96782326,-2.10567674,,,
imu,379.490125,-1.1251254168,-9.385615584800002,3.196528563200001,1.93662716,2.93791562,-2.10567674,,,
imu,379.498603,-1.1149568192,-9.361091320000002,3.1839673544,1.8917657,2.83323888,-2.49447606,,,
imu,379.507082,-1.112564208,-9.351520875200002,3.1696116872,2.01139626,2.74351596,-2.77859864,,,
imu,379.515561,-1.0964140824,-9.349128264,3.167219076,2.24318047,2.64631613,-2.99542903,,,
imu,379.52404,-1.0940214712,-9.3718580704,3.180378437600001,2.35533412,2.56407012,-3.17487487,,,
imu,379.532519,-1.0754787344,-9.3963823352,3.172004298400001,2.43758013,2.42200883,-3.23469015,,,
imu,379.540997,-1.0712916648,-9.419112141600001,3.167219076,2.20579592,2.19770153,-3.31693616,,,
imu,379.549476,-1.0688990536,-9.433467808800001,3.1648264648,2.27308811,2.06311715,-3.2720747,,,
imu,379.557955,-1.0712916648,-9.448421628800002,3.1809765904,2.05625772,1.91357895,-3.37675144,,,
imu,379.566434,-1.0790676512,-9.470553282400001,3.172004298400001,1.97401171,1.71170238,-3.17487487,,,
imu,379.574913,-1.0832547208,-9.468758824,3.179780284800001,1.71979677,1.577118,-3.07019813,,,
imu,379.583376,-1.0892362488,-9.478927421600002,3.173200604000001,1.5179202,1.45748744,-3.01038285,,,
imu,379.59184,-1.0970122352,-9.474740352000001,3.1654246176,1.40576655,1.39019525,-2.81598319,,,
imu,379.600303,-1.0994048464,-9.478927421600002,3.1630320064,1.05435178,1.38271834,-2.90570611,,,
imu,379.608767,-1.109573444,-9.469356976800002,3.167219076,0.59078336,1.2780416,-3.08515195,,,
imu,379.61723,-1.1257235696,-9.460384684800001,3.164228312,0.44872207,1.577118,-3.14496723,,,
imu,379.625694,-1.1329014032,-9.468758824,3.1726024512,0.49358353,1.77151766,-2.98047521,,,
imu,379.634157,-1.1496496816,-9.468758824,3.1690135344,0.20198404,2.07059406,-3.06272122,,,
imu,379.642621,-1.1616127376,-9.440645642400002,3.1696116872,0.03001510999999998,2.2500399,-3.0477674,,,
imu,379.651084,-1.1628090432,-9.4250936696,3.184565507200001,-0.06718472,2.66874686,-2.91318302,,,
imu,379.659548,-1.1550330568,-9.4424401008,3.186958118400001,-0.24663056,3.10988455,-2.98795212,,,
imu,379.668011,-1.1532385984,-9.4424401008,3.18516366,-0.26158438,3.49120696,-3.00290594,,,
imu,379.676475,-1.157425668,-9.396980488,3.180378437600001,-0.09709236,3.820191,-2.86084465,,,
imu,379.684939,-1.1622108904,-9.368269153600002,3.2019119384,-0.08213854000000001,4.171605769999999,-2.49447606,,,
imu,379.693402,-1.142471848,-9.389204501600002,3.2043045496,0.06739966,4.38095925,-2.41970696,,,
imu,379.701866,-1.1215365,-9.414326919200002,3.2138749944,0.12721494,4.4931129,-2.53933752,,,
imu,379.710261,-1.094619624,-9.4005694048,3.204902702400001,0.30666078,4.57535891,-2.63653735,,,
imu,379.718724,-1.067702748,-9.3718580704,3.2072953136,0.41881443,4.47068217,-2.84589083,,,
imu,379.727188,-1.055739692,-9.3688673064,3.235408495200001,0.42629134,4.33609779,-2.96552139,,,
imu,379.735651,-1.0473655528,-9.380830362400001,3.2318195784,0.3963837,4.20151341,-2.92065993,,,
imu,379.744115,-1.0360006496,-9.4041583216,3.2407918704,0.34404533,4.02954448,-2.5991528,,,
imu,379.752578,-1.0294209688,-9.4071490856,3.237801106400001,0.11226112,4.02206757,-2.73373718,,,
imu,379.761042,-1.0192523712,-9.416121377600001,3.2437826344,-0.03727708,3.73046808,-2.748691,,,
imu,379.769506,-1.028822816,-9.403560168800002,3.241988176,-0.11204618,3.4463455,-2.83841392,,,
imu,379.777969,-1.0312154272,-9.396980488,3.2413900232,-0.18681528,3.23699202,-2.98047521,,,
imu,379.786433,-1.0294209688,-9.398774946400001,3.233614036800001,-0.24663056,3.04259236,-3.24964397,,,
imu,379.794896,-1.0395895664,-9.382026668000002,3.235408495200001,-0.44850713,2.60893158,-3.77302767,,,
imu,379.80336,-1.0455710944,-9.360493167200001,3.228828814400001,-0.39616876,2.26499372,-4.0945348,,,
imu,379.811823,-1.043776636,-9.3586987088,3.235408495200001,-0.38869185,1.97339423,-4.37865738,,,
imu,379.820287,-1.0425803304,-9.352119028,3.235408495200001,-0.5980453299999999,1.52477963,-4.70016451,,,
imu,379.82875,-1.0503563168,-9.346735652800001,3.2276325088,-0.43355331,1.06121121,-4.96933327,,,
imu,379.837214,-1.0754787344,-9.33118368,3.216267605600001,-0.25410747,0.7546578999999998,-5.044102369999999,,,
imu,379.845677,-1.0910307072,-9.316229860000002,3.2055008552,-0.28401511,0.27613566,-5.45533242,,,
imu,379.854141,-1.1113679024,-9.3168280128,3.2096879248,0.15712258,-0.1425713000000002,-5.612347529999999,,,
imu,379.862605,-1.1329014032,-9.337165208000002,3.212080536000001,0.56835263,-0.3818324200000003,-5.612347529999999,,,
imu,379.871068,-1.1819499328,-9.358100556000002,3.2072953136,0.94219813,-0.5463244400000002,-5.53757843,,,
imu,379.879532,-1.1986982112,-9.382026668000002,3.209089772,1.09173633,-0.6360473600000001,-5.350655679999999,,,
imu,379.887995,-1.2244187816,-9.3993730992,3.209089772,1.30856672,-0.5911859000000002,-5.328224949999999,,,
imu,379.896459,-1.2357836848,-9.4041583216,3.212080536000001,1.38333582,-0.3594016900000003,-5.08148692,,,
imu,379.904922,-1.2597097968,-9.401167557600001,3.219856522400001,1.34595127,0.1191205499999999,-4.647826139999999,,,
imu,379.913386,-1.2579153384,-9.392195265600002,3.2186602168,1.30856672,0.4555814999999996,-4.02724261,,,
imu,379.921849,-1.2585134912,-9.3664746952,3.216267605600001,1.52539711,1.04625739,-3.53376655,,,
imu,379.930313,-1.2495411992,-9.358100556000002,3.206099008,1.47305874,1.54721036,-3.27955161,,,
imu,379.938776,-1.232194768,-9.364680236800002,3.206099008,1.52539711,1.91357895,-3.02533667,,,
imu,379.94724,-1.2064741976,-9.370661764800001,3.1995193272,1.63007385,2.23508608,-2.9729983,,,
imu,379.955703,-1.2028852808,-9.379035904000002,3.2037063968,1.83942733,2.60145467,-2.98047521,,,
imu,379.964167,-1.1831462384,-9.3802322096,3.1863599656,1.82447351,2.8481927,-2.96552139,,,
imu,379.972631,-1.163407196,-9.367072848000001,3.1947341048,2.01139626,3.05754618,-2.80850628,,,
imu,379.981094,-1.1448644592,-9.353913486400002,3.179182132,2.10111918,3.13979219,-2.87579847,,,
imu,379.989602,-1.1227328056,-9.364082084000001,3.1785839792,2.29551884,3.22951511,-2.95056757,,,
imu,379.99811,-1.1215365,-9.382624820800002,3.195332257600001,2.40019558,3.24446893,-2.98047521,,,
imu,380.006618,-1.1119660552,-9.394587876800001,3.181574743200001,2.47496468,3.2220382,-3.01785976,,,
imu,380.015126,-1.1011993048,-9.4071490856,3.179780284800001,2.68431816,3.31176112,-2.95056757,,,
imu,380.023634,-1.1041900688,-9.408345391200001,3.191145188000001,2.64693361,3.30428421,-2.90570611,,,
imu,380.032142,-1.094619624,-9.435262267200002,3.18516366,2.5646876,3.2968073,-2.92813684,,,
imu,380.04065,-1.0868436376,-9.441841948000002,3.170807992800001,2.46001086,3.15474601,-2.87579847,,,
imu,380.049158,-1.0730861232,-9.444234559200002,3.172004298400001,2.30299575,2.93043871,-3.0477674,,,
imu,380.057667,-1.0700953592,-9.4215047528,3.1600412424,2.37776485,2.90800798,-3.11505959,,,
imu,380.066175,-1.0545433864,-9.417915836,3.146881880800001,2.22822665,2.60145467,-3.32441307,,,
imu,380.074683,-1.0539452336,-9.418513988800001,3.1414985056,2.14598064,2.48182411,-3.47395127,,,
imu,380.083191,-1.049758164,-9.418513988800001,3.1307317552,2.2656112,2.324809,-3.65339711,,,
imu,380.091699,-1.0635156784,-9.417915836,3.138507741600001,2.22074974,2.324809,-3.70573548,,,
imu,380.100207,-1.0599267616,-9.429280739200001,3.140302200000001,2.14598064,2.13788625,-3.73564312,,,
imu,380.108715,-1.0515526224,-9.438851184,3.146881880800001,2.116073,1.89114822,-3.85527368,,,
imu,378.67651,,,,,,,-83.96113240000001,176.9250228,112.3245656
imu,378.778103,,,,,,,-82.1788812,176.143762,109.2849728
imu,378.879635,,,,,,,-84.6325284,176.8884012,111.5921336
imu,378.981197,,,,,,,-81.9347372,175.9850684,109.2239368
imu,379.08276,,,,,,,-84.8278436,176.32687,112.0071784
imu,379.184322,,,,,,,-84.27851960000001,176.2414196,111.9461424
imu,379.285885,,,,,,,-84.1320332,177.059302,112.3978088
imu,379.387447,,,,,,,-83.98554680000001,176.3512844,111.6287552
imu,380.117223,-1.0551415392,-9.450216087200001,3.1474800336,1.98148862,1.86124058,-3.96742733,,,
imu,380.125731,-1.0539452336,-9.458590226400002,3.1438911168,1.83195042,1.92853277,-3.81041222,,,
imu,380.134239,-1.0683009008,-9.4460290176,3.140302200000001,1.63007385,1.70422547,-3.88518132,,,
imu,380.142747,-1.0671045952,-9.420906600000002,3.143292964,1.48053565,1.40514907,-3.88518132,,,
imu,380.151255,-1.0623193728,-9.3754469872,3.140302200000001,1.42819728,1.26308778,-4.102011709999999,,,
imu,380.159763,-1.0952177768,-9.4244955168,3.1062074904,1.5926893,1.01634975,-4.42351884,,,
imu,380.168271,-1.0994048464,-9.411934308000001,3.1199650048,1.42819728,0.86681155,-4.61044159,,,
imu,380.176779,-1.1418736952,-9.414326919200002,3.126544685600001,1.45810492,0.7696117199999999,-4.46090339,,,
imu,380.185287,-1.1400792368,-9.495675700000001,3.113385324,1.56278166,0.64250425,-4.70016451,,,
imu,380.194063,-1.1681924184,-9.489096019200002,3.128339144,1.39828964,0.7920424499999998,-4.66277996,,,
imu,380.202839,-1.1777628632,-9.490292324800002,3.1109927128,1.42819728,0.80699627,-4.51324176,,,
imu,380.211615,-1.1909222248,-9.506442450400002,3.1032167264,1.50296638,0.92662683,-4.37865738,,,
imu,380.22039,-1.1927166832,-9.4454308648,3.1050111848,1.46558183,1.22570323,-4.20668845,,,
imu,380.229166,-1.193314836,-9.4244955168,3.105609337600001,1.39081273,1.42010289,-3.98985806,,,
imu,380.237942,-1.1861370024,-9.441841948000002,3.0762998504,1.65250458,1.62945637,-3.90761205,,,
imu,380.246718,-1.1795573216,-9.440645642400002,3.0553645024,1.65250458,1.74161002,-4.07210407,,,
imu,380.255494,-1.1867351552,-9.398176793600001,3.0661312528,1.79456587,1.76404075,-4.04219643,,,
imu,380.264269,-1.1646035016,-9.387410043200001,3.0691220168,1.73475059,1.8014253,-4.169303899999999,,,
imu,380.273045,-1.1687905712,-9.401765710400001,3.063738641600001,1.71979677,1.8761944,-4.32631901,,,
imu,380.281821,-1.175370252,-9.402363863200002,3.059551572000001,1.7422275,1.84628676,-4.52819558,,,
imu,380.290597,-1.1771647104,-9.414925072,3.0697201696,1.69736604,1.78647148,-4.3936112,,,
imu,380.299373,-1.1765665576,-9.433467808800001,3.065533100000001,1.54035093,1.86871749,-4.29641137,,,
imu,380.308148,-1.1717813352,-9.452010545600002,3.074505392,1.25622835,1.77899457,-4.37118047,,,
imu,380.316924,-1.1861370024,-9.4663662128,3.071514628,1.21136689,1.77151766,-4.16182699,,,
imu,380.3257,-1.1909222248,-9.468160671200001,3.0786924616,1.09921324,1.74161002,-4.0945348,,,
imu,380.334476,-1.1921185304,-9.467562518400001,3.080486920000001,0.9945364999999999,1.80890221,-3.69078166,,,
imu,380.343252,-1.2088668088,-9.477731116000001,3.0816832256,0.7403215599999999,2.03320951,-3.54124346,,,
imu,380.352027,-1.2124557256,-9.482516338400002,3.089459212,0.67302937,2.13040934,-3.48890509,,,
imu,380.360803,-1.2124557256,-9.477731116000001,3.0906555176,0.3739529699999999,2.06311715,-3.37675144,,,
imu,380.369579,-1.2190354064,-9.471749588000002,3.0912536704,-0.007369440000000005,2.13788625,-3.5711511,,,
imu,380.378355,-1.208268656,-9.468160671200001,3.1086001016,-0.06718472,2.33228591,-3.58610492,,,
imu,380.38713,-1.2058760448,-9.4801237272,3.119366852000001,-0.09709236,2.41453192,-3.62348947,,,
imu,380.3956,-1.190324072,-9.4765348104,3.1319280608,-0.26158438,2.42948574,-3.57862801,,,
imu,380.40407,-1.1717813352,-9.48072188,3.128937296800001,-0.5307531400000001,2.48182411,-3.60853565,,,
imu,380.41254,-1.1562293624,-9.4699551296,3.1391058944,-0.51579932,2.48930102,-3.51133582,,,
imu,380.42101,-1.1490515288,-9.427486280800002,3.1397040472,-0.5756146,2.63136231,-3.44404363,,,
imu,380.42948,-1.142471848,-9.3664746952,3.143292964,-0.50832241,2.63883922,-3.27955161,,,
imu,380.43795,-1.133499556,-9.384419279200001,3.1576486312,-0.44850713,2.59397776,-3.15992105,,,
imu,380.44642,-1.1269198752,-9.4316733504,3.1480781864,-0.33635348,2.45191647,-3.39170526,,,
imu,380.45489,-1.1191438888,-9.434065961600002,3.140302200000001,-0.33635348,2.19770153,-3.51133582,,,
imu,380.46336,-1.1053863744,-9.3975786408,3.1456855752,-0.26906129,1.92853277,-3.69078166,,,
imu,380.471829,-1.1251254168,-9.3802322096,3.1576486312,-0.02980017,1.77899457,-3.91508896,,,
imu,380.480299,-1.1329014032,-9.353315333600001,3.142694811200001,-0.11204618,1.61450255,-3.76555076,,,
imu,380.488769,-1.1466589176,-9.3796340568,3.134320672,-0.02980017,1.50982581,-3.496382,,,
imu,380.497239,-1.1610145848,-9.4041583216,3.1379095888,-0.007369440000000005,1.31542615,-3.35432071,,,
imu,380.505709,-1.1885296136,-9.390998960000001,3.1295354496,-0.10456927,1.36028761,-3.29450543,,,
imu,380.514179,-1.205277892,-9.382624820800002,3.1450874224,0.11226112,1.32290306,-3.36179762,,,
imu,380.522649,-1.2070723504,-9.3796340568,3.1414985056,0.41881443,1.47991817,-3.39918217,,,
imu,380.531119,-1.2130538784,-9.378437751200002,3.1259465328,0.26179932,1.49487199,-3.66087402,,,
imu,380.539589,-1.2190354064,-9.368269153600002,3.126544685600001,0.29918387,1.54721036,-3.83284295,,,
imu,380.548059,-1.2244187816,-9.363483931200001,3.1169742408,0.41881443,1.86871749,-3.90013514,,,
imu,380.556528,-1.2154464896,-9.381428515200001,3.1157779352,0.66555246,2.10797861,-3.75807385,,,
imu,380.564998,-1.2166427952,-9.3868118904,3.1241520744,1.00949032,2.29490136,-3.69825857,,,
imu,380.573468,-1.2010908224,-9.402962016000002,3.115179782400001,1.09173633,2.51920866,-3.61601256,,,
imu,380.581938,-1.184342544,-9.408345391200001,3.1181705464,1.21136689,2.67622377,-3.48890509,,,
imu,380.590408,-1.1801554744,-9.444832712,3.1038148792,1.30108981,2.81080815,-3.38422835,,,
imu,380.598881,-1.1747720992,-9.450216087200001,3.104413032,0.9870595899999999,2.81080815,-3.48142818,,,
imu,380.607353,-1.1586219736,-9.444832712,3.1091982544,0.9347212199999999,2.79585433,-3.50385891,,,
imu,380.615825,-1.160416432,-9.4555994624,3.1091982544,1.07678251,2.7734236,-3.48142818,,,
imu,380.624298,-1.1562293624,-9.465169907200002,3.116376088,0.9347212199999999,2.63883922,-3.50385891,,,
imu,380.63277,-1.148453376,-9.478927421600002,3.1062074904,0.8823828499999999,2.66126995,-3.42908981,,,
imu,380.641243,-1.1442663064,-9.481320032800001,3.0948425872,0.80761375,2.52668557,-3.50385891,,,
imu,380.649715,-1.1532385984,-9.481320032800001,3.100225962400001,0.7403215599999999,2.49677793,-3.51133582,,,
imu,380.658188,-1.1400792368,-9.460384684800001,3.0978333512,0.55339881,2.45939338,-3.39918217,,,
imu,380.66666,-1.1370884728,-9.467562518400001,3.0930481288,0.44124516,2.38462428,-3.25712088,,,
imu,380.675133,-1.13649032,-9.4496179344,3.096637045600001,0.35152224,2.13788625,-3.26459779,,,
imu,380.683605,-1.145462612,-9.447823476,3.0948425872,0.29170696,2.07059406,-3.14496723,,,
imu,380.692077,-1.154434904,-9.435860420000001,3.096637045600001,0.34404533,2.01077878,-3.0477674,,,
imu,380.70055,-1.1550330568,-9.427486280800002,3.0912536704,0.11973803,1.97339423,-3.07767504,,,
imu,380.709022,-1.1711831824,-9.436458572800001,3.0948425872,0.08983038999999998,1.90610204,-3.04029049,,,
imu,380.717495,-1.1807536272,-9.4322715032,3.0900573648,0.05244583999999999,1.85376367,-2.99542903,,,
imu,380.725967,-1.1945111416,-9.415523224800001,3.0762998504,-0.02980017,1.94348659,-2.86084465,,,
imu,380.73444,-1.1915203776,-9.395186029600001,3.0840758368,-0.0522309,1.90610204,-2.90570611,,,
imu,380.742912,-1.1963056,-9.398176793600001,3.077496156,0.02253820000000001,2.08554788,-2.8982292,,,
imu,380.751384,-1.1986982112,-9.3904008072,3.070916475200001,0.07487657,2.25751681,-2.95804448,,,
imu,380.759857,-1.1885296136,-9.381428515200001,3.054168196800001,0.23936859,2.27247063,-2.95056757,,,
imu,380.768329,-1.1897259192,-9.4005694048,3.0631404888,0.58330645,2.49677793,-3.02533667,,,
imu,380.776802,-1.1927166832,-9.405952780000002,3.0691220168,0.82256757,2.5491163,-3.08515195,,,
imu,380.785274,-1.1879314608,-9.419112141600001,3.073309086400001,0.9272443100000001,2.63883922,-3.28702852,,,
imu,380.793747,-1.2034834336,-9.439449336800001,3.09544074,1.00949032,2.72108523,-3.4216129,,,
imu,380.802688,-1.1939129888,-9.463973601600001,3.0996278096,0.8749059399999999,2.83323888,-3.60853565,,,
imu,380.811148,-1.1879314608,-9.506442450400002,3.0978333512,0.6132140899999999,2.87062343,-3.84031986,,,
imu,380.819608,-1.1669961128,-9.513620284000002,3.098431504000001,0.32909151,2.96782326,-3.7954584,,,
imu,380.828067,-1.1502478344,-9.4962738528,3.0996278096,0.34404533,2.99025399,-3.66835093,,,
imu,380.836527,-1.1586219736,-9.467562518400001,3.0978333512,0.08983038999999998,2.98277708,-3.60853565,,,
imu,380.844987,-1.1352940144,-9.4424401008,3.0978333512,-0.17186146,2.95286944,-3.56367419,,,
imu,380.853447,-1.1382847784,-9.4203084472,3.087066600800001,-0.22419983,2.84071579,-3.61601256,,,
imu,380.861906,-1.1448644592,-9.402363863200002,3.087066600800001,-0.3513073,2.57902394,-3.84779677,,,
imu,380.870366,-1.1592201264,-9.412532460800001,3.0948425872,-0.49336859,2.40705501,-3.78798149,,,
imu,380.878826,-1.1586219736,-9.438851184,3.105609337600001,-0.38121494,2.33228591,-3.68330475,,,
imu,380.887285,-1.1592201264,-9.463973601600001,3.107403796,-0.44103022,2.16779389,-3.70573548,,,
imu,380.895745,-1.1741739464,-9.4490197816,3.115179782400001,-0.47841477,2.04816333,-3.60853565,,,
imu,380.904205,-1.18135178,-9.432869656000001,3.121759463200001,-0.6503837,2.06311715,-3.44404363,,,
imu,380.912665,-1.1861370024,-9.3993730992,3.1301336024,-0.6503837,2.01077878,-3.17487487,,,
imu,380.921124,-1.190324072,-9.3694654592,3.1157779352,-0.5980453299999999,1.97339423,-2.88327538,,,
imu,380.929584,-1.1951092944,-9.367072848000001,3.116376088,-0.38121494,1.99582496,-2.748691,,,
imu,379.489477,,,,,,,-83.997754,176.387906,112.776232
imu,379.59104,,,,,,,-84.02216840000001,176.1681764,112.3123584
imu,379.693274,,,,,,,-83.20428600000001,176.143762,111.4090256
imu,379.794195,,,,,,,-84.0465828,176.0705188,112.1292504
imu,379.895727,,,,,,,-81.80045799999999,175.838582,109.2849728
imu,379.99729,,,,,,,-84.1686548,176.5343924,111.677584
imu,380.098852,,,,,,,-82.23991720000001,175.6066452,109.4924952
imu,380.200445,,,,,,,-84.02216840000001,176.509978,112.3367728
imu,380.938044,-1.190324072,-9.3694654592,3.112787171200001,-0.08961545,1.92105586,-2.68887572,,,
imu,380.946504,-1.1945111416,-9.3658765424,3.112189018400001,0.11973803,1.9509635,-2.70382954,,,
imu,380.954963,-1.1957074472,-9.364082084000001,3.1026185736,0.26927623,1.97339423,-2.80850628,,,
imu,380.963423,-1.1998945168,-9.376045140000002,3.098431504000001,0.44872207,1.9509635,-2.87579847,,,
imu,380.971883,-1.2070723504,-9.384419279200001,3.1050111848,0.59078336,1.9509635,-3.05524431,,,
imu,380.980342,-1.2166427952,-9.393989724,3.101422268000001,0.66555246,2.03320951,-3.11505959,,,
imu,380.988802,-1.2154464896,-9.408943544000001,3.094244434400001,0.73284465,2.16031698,-3.11505959,,,
imu,380.997262,-1.2148483368,-9.435262267200002,3.1032167264,0.8524752099999999,2.25751681,-3.05524431,,,
imu,381.005779,-1.2076705032,-9.4424401008,3.115179782400001,0.7104139199999999,2.41453192,-2.91318302,,,
imu,381.014296,-1.1945111416,-9.4555994624,3.1187686992,0.4861066199999999,2.50425484,-2.86084465,,,
imu,381.022813,-1.1879314608,-9.46576806,3.1211613104,0.5459219,2.59397776,-2.65149117,,,
imu,381.03133,-1.1861370024,-9.471749588000002,3.113385324,0.44124516,2.68370068,-2.45709151,,,
imu,381.039847,-1.1747720992,-9.4753385048,3.121759463200001,0.09730729999999999,2.81828506,-2.48699915,,,
imu,381.048364,-1.1819499328,-9.450216087200001,3.1301336024,-0.18681528,2.90800798,-2.45709151,,,
imu,381.056881,-1.1729776408,-9.444832712,3.1271428384,-0.20924601,2.93791562,-2.39727623,,,
imu,381.065397,-1.1765665576,-9.426888128000002,3.1271428384,-0.32887657,2.90800798,-2.47204533,,,
imu,381.073914,-1.1681924184,-9.4113361552,3.1205631576,-0.29149202,2.9977309,-2.58419898,,,
imu,381.082431,-1.1520422928,-9.3993730992,3.109796407200001,-0.34383039,3.10240764,-2.56924516,,,
imu,381.090948,-1.1508459872,-9.402363863200002,3.1211613104,-0.28401511,3.11736146,-2.63653735,,,
imu,381.099465,-1.1388829312,-9.401765710400001,3.1109927128,-0.32887657,3.10240764,-2.63653735,,,
imu,381.107982,-1.118545736,-9.412532460800001,3.113983476800001,-0.06718472,3.21456129,-2.41223005,,,
imu,381.116499,-1.109573444,-9.422102905600001,3.115179782400001,0.01506129,3.17717674,-2.4496146,,,
imu,381.125016,-1.094619624,-9.401765710400001,3.1086001016,-0.08213854000000001,3.10988455,-2.4496146,,,
imu,381.133533,-1.1023956104,-9.402363863200002,3.1319280608,0.15712258,3.16969983,-2.43466078,,,
imu,381.14205,-1.0838528736,-9.439449336800001,3.12534838,0.22441477,2.95286944,-2.48699915,,,
imu,381.150567,-1.088638096,-9.4753385048,3.1145816296,0.22441477,2.81828506,-2.68887572,,,
imu,381.159084,-1.0850491792,-9.443636406400001,3.1187686992,0.14216876,2.6986545,-2.89075229,,,
imu,381.167601,-1.0700953592,-9.427486280800002,3.126544685600001,0.2468455,2.72856214,-3.0477674,,,
imu,381.176118,-1.079665804,-9.432869656000001,3.1187686992,0.18703022,2.63136231,-3.24964397,,,
imu,381.184635,-1.0838528736,-9.440645642400002,3.126544685600001,0.11226112,2.5491163,-3.14496723,,,
imu,381.193152,-1.079665804,-9.443636406400001,3.1295354496,0.05244583999999999,2.50425484,-2.80102937,,,
imu,381.201669,-1.0850491792,-9.444832712,3.1259465328,0.01506129,2.44443956,-2.76364482,,,
imu,381.210429,-1.097610388,-9.447225323200001,3.1229557688,0.04496892999999999,2.40705501,-2.61410662,,,
imu,381.219188,-1.0910307072,-9.4412437952,3.115179782400001,-0.04475399000000001,2.35471664,-2.62158353,,,
imu,381.227948,-1.1000029992,-9.4244955168,3.108001948800001,-0.02980017,2.30237827,-2.83841392,,,
imu,381.236708,-1.1173494304,-9.426888128000002,3.1169742408,-0.13447691,2.30985518,-2.9729983,,,
imu,381.245468,-1.1472570704,-9.433467808800001,3.112787171200001,-0.16438455,2.22013226,-3.10758268,,,
imu,381.254228,-1.1657998072,-9.441841948000002,3.1115908656,-0.08213854000000001,2.35471664,-3.33188998,,,
imu,381.262988,-1.169388724,-9.457992073600002,3.1211613104,-0.21672292,2.46687029,-3.496382,,,
imu,381.271748,-1.1681924184,-9.456197615200002,3.131329908000001,-0.2765382,2.70613141,-3.32441307,,,
imu,381.280507,-1.1717813352,-9.453206851200001,3.1301336024,-0.50832241,3.00520781,-3.22721324,,,
imu,381.289267,-1.1592201264,-9.453206851200001,3.1379095888,-0.60552224,3.32671494,-2.98047521,,,
imu,381.298027,-1.1669961128,-9.448421628800002,3.138507741600001,-0.71019898,3.57345297,-2.79355246,,,
imu,381.306787,-1.1382847784,-9.440047489600001,3.1528634088,-1.0242292,3.79028336,-2.5243837,,,
imu,381.315547,-1.1227328056,-9.423897364000002,3.149274492,-1.21862886,3.87252937,-2.62906044,,,
imu,381.324307,-1.1161531248,-9.3993730992,3.1480781864,-1.28592105,3.86505246,-2.69635263,,,
imu,381.333067,-1.10658268,-9.381428515200001,3.1504707976,-1.34573633,3.90243701,-2.87579847,,,
imu,381.341827,-1.1047882216,-9.372456223200002,3.15525602,-1.27844414,3.67812971,-3.24964397,,,
imu,381.350586,-1.1101715968,-9.380830362400001,3.152265256000001,-1.0989983,3.52859151,-3.51881273,,,
imu,381.359346,-1.1137605136,-9.3838211264,3.159443089600001,-1.00927538,3.53606842,-3.58610492,,,
imu,381.368106,-1.1179475832,-9.371259917600002,3.1624338536,-0.82235263,3.45382241,-3.60105874,,,
imu,381.376866,-1.1329014032,-9.371259917600002,3.170209840000001,-0.55318387,3.43139168,-3.65339711,,,
imu,381.385626,-1.1251254168,-9.390998960000001,3.170209840000001,-0.44103022,3.33419185,-3.7206893,,,
imu,381.394386,-1.1113679024,-9.357502403200002,3.191145188000001,-0.10456927,3.49120696,-3.54872037,,,
imu,381.403146,-1.1293124864,-9.401167557600001,3.1749950624,0.20198404,3.58840679,-3.39170526,,,
imu,381.411624,-1.1137605136,-9.437056725600002,3.1779858264,0.33656842,3.46129932,-3.31693616,,,
imu,381.420103,-1.0988066936,-9.427486280800002,3.181574743200001,0.36647606,3.64074516,-3.11505959,,,
imu,381.428582,-1.0952177768,-9.405952780000002,3.200715632800001,0.32909151,3.64074516,-2.95804448,,,
imu,381.437061,-1.0862454848,-9.436458572800001,3.1923414936,0.12721494,3.55102224,-3.1225365,,,
imu,381.44554,-1.0778713456,-9.4729458936,3.1779858264,0.09730729999999999,3.27437657,-3.18235178,,,
imu,381.454018,-1.0760768872,-9.435860420000001,3.1857618128,-0.13447691,3.05006927,-3.1225365,,,
imu,381.462497,-1.0694972064,-9.387410043200001,3.212080536000001,-0.0522309,2.95286944,-2.92813684,,,
imu,381.470976,-1.0605249144,-9.403560168800002,3.20011748,-0.13447691,2.78090051,-2.92813684,,,
imu,381.479455,-1.0485618584,-9.417915836,3.2013137856,-0.06718472,2.59397776,-2.75616791,,,
imu,381.487934,-1.0611230672,-9.408943544000001,3.204902702400001,-0.05970781,2.26499372,-2.74121409,,,
imu,381.496412,-1.0712916648,-9.396980488,3.1995193272,-0.17186146,2.23508608,-2.77112173,,,
imu,381.504891,-1.0748805816,-9.401765710400001,3.188154424,-0.13447691,2.18274771,-2.62906044,,,
imu,381.51337,-1.0820584152,-9.373652528800001,3.1935377992,-0.11952309,2.00330187,-2.41970696,,,
imu,381.521849,-1.0820584152,-9.364082084000001,3.1875562712,-0.11204618,1.95844041,-2.43466078,,,
imu,381.530328,-1.0940214712,-9.3664746952,3.1767895208,0.03749201999999999,1.96591732,-2.34493786,,,
imu,381.538806,-1.1167512776,-9.3802322096,3.170807992800001,0.23936859,2.24256299,-2.21783039,,,
imu,381.547285,-1.103591916,-9.368269153600002,3.170209840000001,0.26927623,2.324809,-2.19539966,,,
imu,381.555764,-1.1179475832,-9.382026668000002,3.179182132,0.44872207,2.58650085,-2.35989168,,,
imu,381.564243,-1.1029937632,-9.412532460800001,3.1827710488,0.57582954,2.71360832,-2.45709151,,,
imu,381.572722,-1.097610388,-9.422701058400001,3.18516366,0.29170696,2.78837742,-2.59167589,,,
imu,381.5812,-1.0910307072,-9.422701058400001,3.195332257600001,0.30666078,3.13231528,-2.68139881,,,
imu,381.589679,-1.0844510264,-9.4424401008,3.1917433408,0.53844499,3.31923803,-2.74121409,,,
imu,381.598158,-1.0748805816,-9.4412437952,3.1749950624,0.51601426,3.46877623,-2.63653735,,,
imu,381.606637,-1.0503563168,-9.410139849600002,3.1737987568,0.2468455,3.52859151,-2.83093701,,,
imu,381.615136,-1.0342061912,-9.3802322096,3.159443089600001,0.34404533,3.5958837,-2.90570611,,,
imu,381.623635,-1.0234394408,-9.387410043200001,3.179780284800001,0.14964567,3.48373005,-2.86084465,,,
imu,381.632134,-1.0156634544,-9.417915836,3.170807992800001,0.34404533,3.31176112,-2.74121409,,,
imu,381.640633,-0.9971207176000002,-9.4382530312,3.1618357008,0.55339881,3.23699202,-2.72626027,,,
imu,381.649133,-0.9887465784000001,-9.4412437952,3.1809765904,0.3963837,3.01268472,-2.86084465,,,
imu,381.657632,-0.9941299536000001,-9.425691822400001,3.182172896,0.41133752,2.73603905,-2.77112173,,,
imu,381.666131,-0.9995133288000001,-9.419710294400002,3.1839673544,0.5010604399999999,2.60893158,-2.50195297,,,
imu,381.67463,-1.0037003984,-9.423897364000002,3.1767895208,0.47862971,2.40705501,-2.27016876,,,
imu,381.683129,-1.0120745376,-9.446627170400001,3.1690135344,0.45619898,2.42200883,-1.91875399,,,
imu,381.691628,-1.004896704,-9.426888128000002,3.1696116872,0.36647606,2.36219355,-1.56733922,,,
imu,381.700127,-0.9983170232,-9.410139849600002,3.167817228800001,0.25432241,2.27994754,-1.55986231,,,
imu,381.708627,-1.0180560656,-9.410139849600002,3.166022770400001,0.25432241,2.41453192,-1.78416961,,,
imu,381.717126,-1.0264302048,-9.410139849600002,3.1624338536,0.33656842,2.36967046,-2.01595382,,,
imu,381.725625,-1.0330098856,-9.4077472384,3.1714061456,0.43376825,2.53416248,-2.21035348,,,
imu,381.734124,-1.0300191216,-9.4107380024,3.1767895208,0.31413769,2.55659321,-2.56924516,,,
imu,381.742623,-1.0264302048,-9.420906600000002,3.181574743200001,0.08235347999999998,2.58650085,-2.8982292,,,
imu,381.751122,-1.0174579128,-9.423299211200002,3.198921174400001,-0.08961545,2.85566961,-3.15244414,,,
imu,380.302221,,,,,,,-84.0465828,176.5221852,112.5442952
imu,380.40354,,,,,,,-83.997754,176.3146628,112.9959616
imu,380.512915,,,,,,,-84.05879,176.1681764,112.104836
imu,380.62232,,,,,,,-84.5226636,176.2902484,112.4832592
imu,380.723852,,,,,,,-82.6183404,176.0705188,112.0315928
imu,380.832647,,,,,,,-84.1320332,176.0949332,112.3733944
imu,380.926977,,,,,,,-82.4352324,175.3136724,109.724432
imu,381.02854,,,,,,,-84.3273484,176.4733564,112.0804216
imu,381.759622,-1.0031022456,-9.437056725600002,3.20011748,-0.03727708,3.16222292,-3.15992105,,,
imu,381.768121,-0.9971207176000002,-9.422701058400001,3.1959304104,-0.127,3.2968073,-3.25712088,,,
imu,381.77662,-0.9839613560000001,-9.4113361552,3.198921174400001,-0.14943073,3.37905331,-3.17487487,,,
imu,381.785119,-0.9618297024000001,-9.408345391200001,3.2066971608,-0.17933837,3.49868387,-3.26459779,,,
imu,381.793618,-0.9594370912000001,-9.423299211200002,3.209089772,-0.20924601,3.55102224,-3.33936689,,,
imu,381.802117,-0.9660167720000001,-9.419710294400002,3.2072953136,-0.32887657,3.36409949,-3.4216129,,,
imu,381.810616,-0.9522592576000002,-9.402962016000002,3.2192583696,-0.3513073,3.19213056,-3.72816621,,,
imu,381.81929,-0.9570444800000002,-9.3904008072,3.224043592000001,-0.32887657,3.05754618,-4.10948862,,,
imu,381.827963,-0.9702038416000002,-9.393989724,3.2342121896,-0.29149202,2.97530017,-4.32631901,,,
imu,381.836636,-0.9821668976000001,-9.395186029600001,3.238399259200001,-0.30644584,2.84071579,-4.57305704,,,
imu,381.84531,-0.9815687448000001,-9.389204501600002,3.238399259200001,-0.36626112,2.63136231,-4.82727198,,,
imu,381.853983,-1.0090837736,-9.3838211264,3.2401937176,-0.34383039,2.34723973,-5.10391765,,,
imu,381.862656,-1.019850524,-9.3796340568,3.231221425600001,-0.21672292,2.22760917,-5.1413022,,,
imu,381.87133,-1.0282246632,-9.371259917600002,3.219856522400001,-0.14943073,2.2500399,-5.17868675,,,
imu,381.880003,-1.0389914136,-9.3628857784,3.2037063968,-0.05970781,2.07059406,-5.41047096,,,
imu,381.888677,-1.0521507752,-9.328192916,3.1959304104,0.33656842,1.89862513,-5.477763149999999,,,
imu,381.897246,-1.0844510264,-9.289312984,3.1917433408,0.59078336,1.88367131,-5.27588658,,,
imu,381.905919,-1.1000029992,-9.2929019008,3.194135952000001,1.06182869,1.97339423,-5.0665331,,,
imu,381.914592,-1.1089752912,-9.328791068800001,3.1863599656,1.48801256,2.06311715,-5.01419473,,,
imu,381.923266,-1.1239291112,-9.3688673064,3.182172896,1.82447351,2.09302479,-5.20859439,,,
imu,381.931939,-1.1083771384,-9.3832229736,3.1917433408,1.80951969,1.98834805,-5.3656095,,,
imu,381.940612,-1.127518028,-9.402363863200002,3.209089772,1.93662716,2.03320951,-5.305794219999999,,,
imu,381.949286,-1.133499556,-9.436458572800001,3.216267605600001,1.82447351,2.11545552,-5.13382529,,,
imu,381.957959,-1.130508792,-9.438851184,3.198323021600001,1.67493531,2.21265535,-4.89456417,,,
imu,381.966632,-1.1191438888,-9.429878892000001,3.194135952000001,1.49548947,2.28742445,-4.602964679999999,,,
imu,381.975306,-1.112564208,-9.423299211200002,3.1959304104,1.47305874,2.44443956,-4.25154991,,,
imu,381.983979,-1.0994048464,-9.4203084472,3.1779858264,1.4431511,2.45939338,-3.99733497,,,
imu,381.992652,-1.0988066936,-9.416121377600001,3.1743969096,1.58521239,2.3995781,-3.86275059,,,
imu,382.001326,-1.09162886,-9.410139849600002,3.1743969096,1.73475059,2.31733209,-3.71321239,,,
imu,382.009999,-1.0958159296,-9.416719530400002,3.1666209232,1.87681188,2.31733209,-3.71321239,,,
imu,382.018672,-1.0922270128,-9.4113361552,3.1570504784,1.68241222,1.98834805,-3.93751969,,,
imu,382.026889,-1.0898344016,-9.404756474400001,3.172004298400001,1.64502767,1.89114822,-3.98238115,,,
imu,382.035106,-1.1041900688,-9.4137287664,3.1648264648,1.57773548,1.74161002,-3.76555076,,,
imu,382.043323,-1.1023956104,-9.418513988800001,3.156452325600001,1.5926893,1.74908693,-3.48890509,,,
imu,382.05154,-1.1053863744,-9.4244955168,3.1648264648,1.61512003,1.68179474,-3.21225942,,,
imu,382.059757,-1.109573444,-9.434065961600002,3.156452325600001,1.5179202,1.61450255,-3.06272122,,,
imu,382.067974,-1.1161531248,-9.437056725600002,3.1516671032,1.47305874,1.68927165,-2.87579847,,,
imu,382.07619,-1.1179475832,-9.4412437952,3.1456855752,1.33099745,1.85376367,-2.65896808,,,
imu,382.084407,-1.109573444,-9.4286825864,3.1414985056,1.27118217,1.96591732,-2.65149117,,,
imu,382.092624,-1.1083771384,-9.4215047528,3.1295354496,1.25622835,2.20517844,-2.58419898,,,
imu,382.100841,-1.1071808328,-9.429878892000001,3.1277409912,1.35342818,2.19770153,-2.5991528,,,
imu,382.109058,-1.103591916,-9.423299211200002,3.1295354496,1.34595127,2.33228591,-2.54681443,,,
imu,382.117275,-1.0928251656,-9.434065961600002,3.128937296800001,1.42072037,2.51920866,-2.46456842,,,
imu,381.129985,,,,,,,-82.32536759999999,175.2648436,109.8098824
imu,381.231547,,,,,,,-84.4127988,175.9728612,112.4466376
imu,381.33311,,,,,,,-83.8878892,176.082726,112.471052
imu,381.434672,,,,,,,-84.18086200000002,176.448942,112.5809168
imu,381.536235,,,,,,,-84.48604200000001,176.509978,111.7264128
imu,381.637797,,,,,,,-84.2296908,176.5221852,111.9705568
imu,381.73936,,,,,,,-84.21748360000001,176.7419148,111.7630344
imu,381.848735,,,,,,,-82.23991720000001,176.5221852,111.2259176
imu,381.950297,,,,,,,-84.5226636,176.9128156,111.8851064
imu,382.05189,,,,,,,-82.1788812,175.838582,109.7976752
