Type,Timestamp,Data Accelerometer X,Data Accelerometer Y,Data Accelerometer Z,Data Gyroscope X,Data Gyroscope Y,Data Gyroscope Z,Data Magnetometer X,Data Magnetometer Y,Data Magnetometer Z
imu,42.101362,-1.5007653752,-9.4280844336,2.5307844968,-1.30087487,-1.85478369,-3.32441307,,,
imu,42.10984,-1.5121302784,-9.444234559200002,2.5188214408,-1.09152139,-1.60056875,-3.4216129,,,
imu,42.118317,-1.531271168,-9.446627170400001,2.5248029688,-0.95693701,-1.428599820000001,-3.39170526,,,
imu,42.126795,-1.5336637792,-9.450814240000001,2.527793732800001,-1.00927538,-1.23420016,-3.3468438,,,
imu,42.135272,-1.5175136536,-9.439449336800001,2.5385604832,-0.85973718,-0.9650314,-3.33936689,,,
imu,42.14375,-1.522298876,-9.441841948000002,2.539158636000001,-0.55318387,-0.4790322499999999,-3.3468438,,,
imu,42.152227,-1.5228970288,-9.450216087200001,2.541551247200001,-0.25410747,-0.20986349,-3.47395127,,,
imu,42.160705,-1.5067469032,-9.434065961600002,2.5517198448,-0.19429219,-0.2023865800000002,-3.58610492,,,
imu,42.169182,-1.51033582,-9.435262267200002,2.5475327752,0.01506129,-0.0005100100000001717,-3.78050458,,,
imu,42.17766,-1.516317348,-9.447823476,2.536167872,0.21693786,0.1864127399999997,-3.8702275,,,
imu,42.186137,-1.5151210424,-9.440047489600001,2.5493272336,0.2468455,0.2686587499999997,-3.93751969,,,
imu,42.194594,-1.5019616808,-9.426289975200001,2.552916150400001,0.46367589,0.4032431299999999,-3.99733497,,,
imu,42.203052,-1.492391236,-9.440047489600001,2.5505235392,0.56835263,0.6275504299999999,-3.87770441,,,
imu,42.211509,-1.4929893888,-9.457393920800001,2.5475327752,0.7702292,0.6724118899999998,-3.81041222,,,
imu,42.219966,-1.4911949304,-9.448421628800002,2.543345705600001,0.9571519499999999,0.72475026,-3.81788913,,,
imu,42.228423,-1.474446652,-9.446627170400001,2.552916150400001,1.1440747,0.78456554,-3.65339711,,,
imu,42.23688,-1.477437416,-9.4460290176,2.5427475528,1.4431511,0.7920424499999998,-3.55619728,,,
imu,42.245338,-1.4648762072,-9.441841948000002,2.5337752608,1.58521239,0.6051196999999999,-3.75059694,,,
imu,42.253795,-1.4720540408,-9.437654878400002,2.525401121600001,1.54035093,0.5752120599999997,-3.86275059,,,
imu,42.262252,-1.4738484992,-9.430477044800002,2.525401121600001,1.77213514,0.4555814999999996,-3.8702275,,,
imu,42.270709,-1.4840170968,-9.4244955168,2.51224176,1.97401171,0.2387511099999999,-3.9449966,,,
imu,42.279166,-1.4965783056,-9.429280739200001,2.5134380656,2.0413039,0.1041667299999998,-4.169303899999999,,,
imu,42.287623,-1.5037561392,-9.4424401008,2.506858384800001,2.32542648,0.08921290999999965,-4.23659609,,,
imu,42.296081,-1.522298876,-9.4699551296,2.5074565376,2.44505704,0.08921290999999965,-4.25154991,,,
imu,42.304538,-1.5378508488,-9.484908949600001,2.4978860928,2.54973378,0.05182836000000002,-4.244073,,,
imu,42.312995,-1.534261932,-9.478329268800001,2.4865211896,2.48244159,0.21632038,-4.37118047,,,
imu,42.321452,-1.5330656264,-9.4765348104,2.479343356,2.5646876,0.1864127399999997,-4.386134289999999,,,
imu,42.329909,-1.5420379184,-9.460982837600001,2.470371064,2.5646876,0.21632038,-4.40108811,,,
imu,42.338367,-1.5516083632,-9.482516338400002,2.4667821472,2.69927198,0.2462280199999998,-4.453426479999999,,,
imu,42.346824,-1.5528046688,-9.490292324800002,2.4572117024,2.78151799,0.35838167,-4.57305704,,,
imu,42.355281,-1.5504120576,-9.4908904776,2.447043104800001,2.75161035,0.44062768,-4.47585721,,,
imu,42.363738,-1.55519728,-9.483712644000002,2.440463424,2.74413344,0.29856639,-4.56558013,,,
imu,42.372195,-1.5545991272,-9.502255380800001,2.437472660000001,2.81142563,0.3957662200000001,-4.49828794,,,
imu,42.380652,-1.55519728,-9.502853533600002,2.4231169928,2.998348379999999,0.3733354899999997,-4.42351884,,,
imu,42.38911,-1.5593843496,-9.519003659200001,2.42251884,3.04320984,0.2910894799999997,-4.37865738,,,
imu,42.397575,-1.5647677248,-9.530966715200002,2.410555784,2.99087147,0.3808123999999999,-4.22911918,,,
imu,42.406039,-1.5803196976,-9.551902063200002,2.4117520896,2.92357928,0.5677351499999999,-4.0945348,,,
imu,42.414504,-1.5892919896,-9.556089132800002,2.3979945752,2.89367164,0.41819695,-3.97490424,,,
imu,42.422969,-1.5898901424,-9.5740337168,2.3872278248,2.60207215,0.4256738599999998,-4.06462716,,,
imu,42.431434,-1.5904882952,-9.5865949256,2.371675852,2.54973378,0.50044296,-3.89265823,,,
imu,42.439899,-1.5994605872,-9.587193078400002,2.3674887824,2.46748777,0.5303505999999998,-3.84031986,,,
imu,42.448363,-1.6012550456,-9.573435564,2.362105407200001,2.24318047,0.7546578999999998,-3.69078166,,,
imu,42.456828,-1.6096291848,-9.5590798968,2.3525349624,2.10111918,0.8892422799999999,-3.67582784,,,
imu,42.465293,-1.6048439624,-9.552500216,2.3603109488,1.74970441,0.8817653699999997,-3.80293531,,,
imu,42.473758,-1.609031032,-9.5566872856,2.3561238792,1.64502767,1.06868812,-3.80293531,,,
imu,42.482223,-1.5964698232,-9.554892827200002,2.359712796,1.40576655,1.36776452,-3.6459202,,,
imu,42.490687,-1.5922827536,-9.561472508000001,2.362105407200001,1.28613599,1.43505671,-3.62348947,,,
imu,42.499152,-1.5803196976,-9.569248494400002,2.3615072544,1.10669015,1.70422547,-3.55619728,,,
imu,42.507617,-1.5713474056,-9.572239258400002,2.371675852,0.85995212,1.88367131,-3.51133582,,,
imu,42.516082,-1.5504120576,-9.5812115504,2.3800499912,0.57582954,1.88367131,-3.47395127,,,
imu,42.524547,-1.55519728,-9.5776226336,2.3842370608,0.46367589,1.95844041,-3.38422835,,,
imu,42.533012,-1.5408416128,-9.565061424800001,2.374666616,0.08235347999999998,1.91357895,-3.42908981,,,
imu,42.541476,-1.534261932,-9.554294674400001,2.383638908,-0.05970781,1.76404075,-3.44404363,,,
imu,42.549941,-1.5378508488,-9.556089132800002,2.3938075056,-0.17186146,1.83880985,-3.46647436,,,
imu,42.558406,-1.5205044176,-9.549509452,2.3938075056,-0.23915365,1.89114822,-3.3468438,,,
imu,42.566871,-1.5240933344,-9.5423316184,2.398592728,-0.21672292,1.86871749,-3.29450543,,,
imu,42.575336,-1.5181118064,-9.524387034400002,2.40756502,-0.31392275,1.68179474,-3.33188998,,,
imu,42.5838,-1.5127284312,-9.505844297600001,2.4117520896,-0.17186146,1.50982581,-3.21973633,,,
imu,42.592265,-1.5145228896,-9.502255380800001,2.413546548,-0.11952309,1.50982581,-3.47395127,,,
imu,42.600783,-1.5157191952,-9.505844297600001,2.4153410064,-0.06718472,1.45748744,-3.50385891,,,
imu,42.609302,-1.5109339728,-9.4831144912,2.4261077568,-0.20924601,1.31542615,-3.53376655,,,
imu,42.61782,-1.513326584,-9.468160671200001,2.42251884,0.03749201999999999,1.31542615,-3.61601256,,,
imu,42.626338,-1.5169155008,-9.463973601600001,2.4320892848,0.20198404,1.24813396,-3.66835093,,,
imu,42.634856,-1.5276822512,-9.471151435200001,2.434481896,0.16459949,1.09859576,-3.83284295,,,
imu,42.643375,-1.5246914872,-9.444234559200002,2.4380708128,0.3216146,1.00887284,-4.00481188,,,
imu,42.651893,-1.5324674736,-9.4412437952,2.4261077568,0.43376825,0.9191499199999997,-4.146873169999999,,,
imu,42.660411,-1.5450286824,-9.4460290176,2.431491132,0.66555246,0.8219500899999996,-4.27398064,,,
imu,42.668929,-1.5695529472,-9.462777296000002,2.4290985208,0.97210577,0.8219500899999996,-4.20668845,,,
imu,42.677447,-1.576132628,-9.474740352000001,2.4320892848,1.12912088,0.8219500899999996,-4.18425772,,,
imu,42.685966,-1.5815160032,-9.489694172,2.429696673600001,1.26370526,0.9640113799999996,-4.079580979999999,,,
imu,42.694484,-1.5827123088,-9.5148165896,2.434481896,1.35342818,1.09111885,-3.8702275,,,
imu,42.703002,-1.594077212,-9.52558334,2.4243132984,1.15902852,0.9939190199999999,-3.84031986,,,
imu,42.71152,-1.5916846008,-9.535153784800002,2.4243132984,1.04687487,1.00887284,-3.76555076,,,
imu,42.720038,-1.594077212,-9.541733465600002,2.4261077568,1.08425942,1.24065705,-3.5711511,,,
imu,42.728557,-1.5904882952,-9.553098368800002,2.4261077568,0.94219813,1.32290306,-3.59358183,,,
imu,42.737075,-1.5863012256,-9.557883591200001,2.427304062400001,0.7702292,1.48739508,-3.51133582,,,
imu,42.745593,-1.5845067672,-9.537546396000002,2.428500368,0.4861066199999999,1.56964109,-3.60853565,,,
imu,42.754111,-1.582114156,-9.522592576000001,2.4308929792,0.2468455,1.53225654,-3.61601256,,,
imu,42.76263,-1.5719455584,-9.5184055064,2.4249114512,0.20198404,1.61450255,-3.59358183,,,
imu,42.771148,-1.5659640304,-9.503451686400002,2.4129483952,0.10478421,1.53973345,-3.58610492,,,
imu,42.779666,-1.5635714192,-9.460384684800001,2.4081631728,0.05992275,1.45748744,-3.66835093,,,
imu,42.788184,-1.5737400168,-9.4454308648,2.4231169928,0.28423005,1.55468727,-3.63096638,,,
imu,42.796702,-1.5827123088,-9.4843107968,2.4326874376,0.42629134,1.41262598,-3.63096638,,,
imu,42.805464,-1.5976661288,-9.516611048000001,2.4279022152,0.31413769,1.3528107,-3.65339711,,,
imu,42.814225,-1.5994605872,-9.498666464000001,2.419528076,0.42629134,1.36028761,-3.66835093,,,
imu,42.822986,-1.612021796,-9.450216087200001,2.4290985208,0.23936859,1.49487199,-3.54124346,,,
imu,42.831747,-1.6174051712,-9.455001309600002,2.443454188,0.47862971,1.60702564,-3.35432071,,,
imu,42.840508,-1.632957144,-9.496872005600002,2.441061576800001,0.74779847,1.83880985,-2.9729983,,,
imu,42.84927,-1.6347516024,-9.508835061600001,2.429696673600001,0.80761375,2.04816333,-2.68887572,,,
imu,42.858031,-1.612021796,-9.498666464000001,2.4177336176,0.9347212199999999,2.41453192,-2.58419898,,,
imu,42.866792,-1.6042458096,-9.470553282400001,2.420126228800001,1.03192105,2.60145467,-2.70382954,,,
imu,42.875553,-1.5587861968,-9.481918185600001,2.4243132984,1.20388998,2.72108523,-3.02533667,,,
imu,42.884314,-1.5587861968,-9.496872005600002,2.4027797976,1.4431511,2.90053107,-3.41413599,,,
imu,42.893076,-1.5336637792,-9.477731116000001,2.3908167416,1.37585891,2.73603905,-3.77302767,,,
imu,42.901837,-1.5205044176,-9.46576806,2.383040755200001,1.5179202,2.63883922,-3.78798149,,,
imu,42.910598,-1.5181118064,-9.467562518400001,2.3842370608,1.48053565,2.57902394,-3.81041222,,,
imu,42.919359,-1.5115321256,-9.477731116000001,2.374666616,1.35342818,2.42948574,-3.78050458,,,
imu,42.92812,-1.5001672224,-9.4831144912,2.3758629216,1.42072037,2.34723973,-3.52628964,,,
imu,42.936882,-1.5037561392,-9.4962738528,2.3752647688,1.22632071,2.13788625,-3.36179762,,,
imu,42.945643,-1.4876060136,-9.472347740800002,2.3704795464,1.12164397,1.98087114,-3.11505959,,,
imu,42.954404,-1.507345056,-9.450216087200001,2.3644980184,1.12164397,1.89862513,-2.84589083,,,
imu,42.963165,-1.5145228896,-9.441841948000002,2.3740684632,0.8449983,1.58459491,-2.748691,,,
imu,42.971926,-1.528280404,-9.470553282400001,2.369283240800001,0.74779847,1.40514907,-2.65149117,,,
imu,42.980688,-1.55519728,-9.495675700000001,2.3824426024,0.83004448,1.24065705,-2.65149117,,,
imu,42.989401,-1.588095684,-9.530368562400001,2.3979945752,0.9272443100000001,1.13598031,-2.74121409,,,
imu,42.998162,-1.6102273376,-9.560874355200001,2.4057705616,0.97210577,1.16588795,-2.91318302,,,
imu,43.006625,-1.6443220472,-9.583604161600002,2.4213225344,0.74779847,1.3528107,-3.08515195,,,
imu,43.015088,-1.656883256,-9.560874355200001,2.414144700800001,0.4711528,1.65936401,-3.04029049,,,
imu,43.023552,-1.6562851032,-9.484908949600001,2.4081631728,0.14964567,2.01077878,-2.8982292,,,
imu,43.032015,-1.6485091168,-9.419112141600001,2.4219206872,-0.06718472,2.45939338,-2.78607555,,,
imu,43.040478,-1.6485091168,-9.406550932800002,2.4428560352,-0.29896893,2.91548489,-2.77859864,,,
imu,43.048941,-1.6401349776,-9.444234559200002,2.427304062400001,-0.30644584,3.06502309,-2.748691,,,
imu,43.057404,-1.6102273376,-9.4633754488,2.4231169928,-0.03727708,3.40148404,-2.60662971,,,
imu,43.065867,-1.5773289336,-9.419710294400002,2.4308929792,0.1720764,3.55849915,-2.49447606,,,
imu,43.07433,-1.543234224,-9.3963823352,2.437472660000001,0.38142988,3.65569898,-2.49447606,,,
imu,43.082794,-1.5157191952,-9.378437751200002,2.4350800488,0.56835263,3.21456129,-2.9729983,,,
imu,43.091257,-1.5121302784,-9.4322715032,2.4757544392,1.15155161,2.91548489,-3.37675144,,,
imu,43.09972,-1.4941856944,-9.517807353600002,2.4817359672,1.30108981,2.42200883,-4.15435008,,,
imu,43.108183,-1.51033582,-9.596165370400001,2.4775488976,1.50296638,2.03320951,-4.81979507,,,
imu,43.116646,-1.4971764584,-9.619493329600001,2.488315648,1.5179202,1.45748744,-5.33570186,,,
imu,43.125109,-1.495382,-9.627269316000001,2.543345705600001,1.31604363,0.7995193599999997,-5.93385466,,,
imu,43.133572,-1.52528964,-9.700243957600001,2.5738514984,1.17398234,0.07425908999999997,-6.33013089,,,
imu,43.142036,-1.5378508488,-9.748096181600001,2.5582995256,1.12912088,-0.5837089900000003,-6.464715269999999,,,
imu,43.150499,-1.5563935856,-9.697851346400002,2.5535143032,0.59078336,-1.06223123,-6.59182274,,,
imu,43.158962,-1.5635714192,-9.619493329600001,2.5732533456,0.35899915,-1.72019931,-6.67406875,,,
imu,43.167425,-1.5958716704,-9.564463272000001,2.541551247200001,0.18703022,-2.31835211,-6.943237509999999,,,
imu,43.175888,-1.620994088,-9.488497866400001,2.4907082592,0.26179932,-2.85668963,-7.02548352,,,
imu,43.184351,-1.662864784,-9.346735652800001,2.4452486464,0.65807555,-3.19315058,-6.838560769999999,,,
imu,43.192814,-1.70473548,-9.204375286400001,2.4123502424,1.2188438,-3.55204226,-6.60677656,,,
imu,43.201277,-1.7663452184,-9.1373821728,2.383638908,2.09364227,-3.68662664,-6.0385314,,,
imu,43.209741,-1.8309457208,-9.124820964000001,2.326814392,3.24508641,-3.26044277,-5.15625602,,,
imu,43.218178,-1.8710219584,-9.065603836800001,2.2466619168,4.44139201,-2.7594898,-3.93751969,,,
imu,43.226616,-1.8764053336,-8.9980125704,2.2197450408,5.53302087,-1.95946043,-2.6739219,,,
imu,43.235053,-1.8907610008,-9.030910974400001,2.232306249600001,6.49754226,-0.7781086500000001,-1.26826282,,,
imu,43.243491,-1.8584607496,-9.190019619200001,2.208978290400001,7.41720219,0.64250425,0.13739626,,,
imu,43.251928,-1.7962528584,-9.3628857784,2.1844540256,8.37424667,2.1752708,1.61034753,,,
imu,43.260366,-1.695763188,-9.4908904776,2.1718928168,8.650892339999999,3.34166876,2.44776145,,,
imu,43.268803,-1.5934790592,-9.5668558832,2.191631859200001,8.48640032,4.44825144,2.91880678,,,
imu,43.277241,-1.5324674736,-9.618895176800002,2.1844540256,7.933108979999999,5.091265699999999,3.03843734,,,
imu,43.285678,-1.4582965264,-9.685290137600001,2.2035949152,7.08074124,5.50997266,2.91132987,,,
imu,43.294116,-1.3871163432,-9.739123889600002,2.2113709016,5.86200491,5.78661833,2.26831561,,,
imu,43.302553,-1.3404604248,-9.758862932000001,2.2215394992,4.33671527,5.77914142,1.46080933,,,
imu,43.310991,-1.3332825912,-9.7780038216,2.237091472,3.12545585,5.82400288,0.6832106900000001,,,
imu,43.319428,-1.295000812,-9.756470320800002,2.2263247216,1.65250458,5.62212631,0.04019642999999995,,,
imu,43.327866,-1.2674857832,-9.717590388800001,2.2155579712,0.68798319,5.49501884,-0.4458027199999999,,,
imu,43.336303,-1.2495411992,-9.664952942400001,2.1928281648,0.05244583999999999,5.308096089999999,-0.7299252999999999,,,
imu,43.344741,-1.2304003096,-9.596763523200002,2.1856503312,-0.39616876,5.046404239999999,-0.90937114,,,
imu,43.353178,-1.2088668088,-9.590183842400002,2.2245302632,-0.20924601,4.82209694,-0.5280487299999999,,,
imu,43.361616,-1.1927166832,-9.676317845600002,2.2592231256,0.02253820000000001,4.59031273,-0.1392494099999999,,,
imu,43.370053,-1.1592201264,-9.767835224,2.266999112000001,0.33656842,4.23889796,0.01028879000000016,,,
imu,43.378491,-1.1388829312,-9.812098531200002,2.2855418488,0.5459219,3.56597606,0.08505788999999986,,,
imu,43.386928,-1.1281161808,-9.850978463200002,2.3339922256,0.80013684,2.87810034,0.03271952000000011,,,
imu,43.395366,-1.1137605136,-9.872511964000001,2.3531331152,0.68798319,2.20517844,-0.1915877799999999,,,
imu,43.403803,-1.115554972,-9.898830687200002,2.3764610744,0.30666078,1.21822632,-0.7224483899999998,,,
imu,43.412241,-1.139481084,-9.880886103200002,2.380648144,-0.2017691,0.1864127399999997,-1.50004703,,,
imu,43.420678,-1.1580238208,-9.828248656800001,2.3633017128,-0.63542988,-0.76315483,-2.33746095,,,
imu,43.429128,-1.205277892,-9.728955292000002,2.350740504,-1.06161375,-1.6379533,-3.15244414,,,
imu,43.437577,-1.2537282688,-9.623082246400001,2.321431016800001,-1.27096723,-2.64733615,-4.034719519999999,,,
imu,43.446027,-1.3171324656,-9.5459205352,2.3142531832,-1.40555161,-3.44736552,-4.931948719999999,,,
imu,43.454476,-1.3793403568,-9.4753385048,2.2885326128,-1.30835178,-3.84364175,-5.42542478,,,
imu,43.462926,-1.4379593312,-9.4113361552,2.266999112000001,-0.85973718,-4.26982562,-5.896470109999999,,,
imu,43.471375,-1.501363528,-9.3652783896,2.255036056,-0.29896893,-4.49413292,-6.1880696,,,
imu,43.479825,-1.5587861968,-9.357502403200002,2.2418766944,0.42629134,-4.56890202,-6.21797724,,,
imu,43.488275,-1.591086448,-9.361091320000002,2.225128416,1.27865908,-4.53899438,-6.1880696,,,
imu,43.496724,-1.641929436,-9.373054376,2.2233339576,2.07121154,-4.08290287,-5.90394702,,,
imu,43.505174,-1.677818604,-9.4173176832,2.2233339576,2.57964142,-3.73896501,-5.73197809,,,
imu,43.513623,-1.7119133136,-9.48072188,2.225128416,2.83385636,-3.23053513,-5.41047096,,,
imu,43.522073,-1.7155022304,-9.530966715200002,2.237091472,2.93105619,-2.3856443,-4.90204108,,,
imu,42.107917,,,,,,,78.40683479999998,-42.26746040000003,142.1223408
imu,42.209479,,,,,,,78.2603484,-42.21863160000001,141.1701792
imu,42.311042,,,,,,,78.50449239999999,-41.98669480000001,140.974864
imu,42.414924,,,,,,,79.84728439999999,-42.62146920000001,141.219008
imu,42.514167,,,,,,,78.8829156,-43.03651400000001,141.6828816
imu,42.615729,,,,,,,79.1392668,-42.98768520000002,142.2322056
imu,42.717292,,,,,,,81.73940040000001,-44.0985404,139.5344144
imu,42.818885,,,,,,,79.50548280000001,-42.78016280000001,142.4519352
imu,43.530522,-1.7119133136,-9.574631869600001,2.2335025552,2.7889949,-1.78001459,-4.59548777,,,
imu,43.538972,-1.7059317856,-9.600352440000002,2.2424748472,2.47496468,-1.18186179,-4.408565019999999,,,
imu,43.547421,-1.6933705768,-9.620689635200002,2.2364933192,2.07121154,-0.37435551,-4.20668845,,,
imu,43.555871,-1.677818604,-9.633848996800001,2.249652680800001,1.30108981,0.2312741999999997,-4.15435008,,,
imu,43.564321,-1.668846312,-9.630260080000001,2.2526434448,0.60573718,0.8294269999999999,-4.169303899999999,,,
imu,43.57277,-1.6437238944,-9.613511801600001,2.2616157368,-0.08213854000000001,1.39767216,-4.079580979999999,,,
imu,43.58122,-1.6168070184,-9.6039413568,2.2861400016,-0.71767589,1.7266562,-4.13939626,,,
imu,43.589669,-1.5833104616,-9.595567217600001,2.28793446,-1.27096723,2.08554788,-4.23659609,,,
imu,43.598119,-1.5510102104,-9.567454036,2.299897516,-1.76444329,2.26499372,-4.33379592,,,
imu,43.606568,-1.5246914872,-9.549509452,2.3136550304,-2.01118132,2.45939338,-4.58801086,,,
imu,43.615018,-1.5067469032,-9.520798117600002,2.3220291696,-2.10838115,2.29490136,-4.602964679999999,,,
imu,43.623467,-1.4852134024,-9.5082369088,2.3286088504,-1.81678166,2.15284007,-4.430995749999999,,,
imu,43.632286,-1.4965783056,-9.510031367200002,2.3411700592,-1.65976655,1.96591732,-4.453426479999999,,,
imu,43.641104,-1.489400472,-9.4980683112,2.3495441984,-1.3233056,1.53973345,-4.37865738,,,
imu,43.649922,-1.4917930832,-9.499264616800001,2.3615072544,-0.8522602699999999,1.22570323,-4.22164227,,,
imu,43.65874,-1.5037561392,-9.4974701584,2.365694324000001,-0.3513073,0.9789651999999998,-3.97490424,,,
imu,43.667559,-1.5139247368,-9.513620284000002,2.3704795464,0.2468455,0.7696117199999999,-3.76555076,,,
imu,43.676377,-1.5240933344,-9.517807353600002,2.3668906296,0.73284465,0.5453044199999999,-3.44404363,,,
imu,43.685195,-1.5306730152,-9.516611048000001,2.356722032,1.12912088,0.41819695,-3.23469015,,,
imu,43.694013,-1.5557954328,-9.51062952,2.359712796,1.47305874,0.2910894799999997,-3.03281358,,,
imu,43.702832,-1.5743381696,-9.5148165896,2.3489460456,1.67493531,0.1714589200000001,-2.77859864,,,
imu,43.71165,-1.573141864,-9.5148165896,2.33279592,1.83195042,0.3209971199999999,-2.57672207,,,
imu,43.720468,-1.5797215448,-9.510031367200002,2.3256180864,1.91419643,0.4032431299999999,-2.65149117,,,
imu,43.729286,-1.5863012256,-9.4962738528,2.3196365584,1.76465823,0.6125966099999998,-2.68887572,,,
imu,43.738105,-1.5904882952,-9.474740352000001,2.3190384056,1.83942733,0.7696117199999999,-2.73373718,,,
imu,43.746923,-1.597067976,-9.4729458936,2.3052808912,1.68988913,1.09111885,-2.93561375,,,
imu,43.755741,-1.588095684,-9.491488630400001,2.3004956688,1.42819728,1.21822632,-3.2720747,,,
imu,43.764559,-1.5773289336,-9.5184055064,2.30288828,1.38333582,1.42010289,-3.54872037,,,
imu,43.773378,-1.582114156,-9.516611048000001,2.2933178352,1.39081273,1.56216418,-3.77302767,,,
imu,43.782196,-1.5695529472,-9.499862769600002,2.2825510848,1.25622835,1.65936401,-3.84779677,,,
imu,43.791014,-1.5605806552,-9.493283088800002,2.2783640152,1.37585891,1.92105586,-3.5711511,,,
imu,43.799832,-1.5540009744,-9.520798117600002,2.2741769456,1.54035093,2.22760917,-3.18982869,,,
imu,43.808651,-1.5420379184,-9.549509452,2.255036056,1.61512003,2.4743472,-2.89075229,,,
imu,43.817469,-1.5121302784,-9.5489112992,2.2598212784,1.45810492,2.56407012,-2.81598319,,,
imu,43.826287,-1.4917930832,-9.566257730400002,2.2711861816,1.57025857,2.73603905,-2.78607555,,,
imu,43.834833,-1.4618854432,-9.592576453600001,2.2675972648,1.48801256,2.42948574,-3.0477674,,,
imu,43.84338,-1.4499223872,-9.593772759200002,2.2675972648,1.23379762,2.324809,-3.21225942,,,
imu,43.851926,-1.4331741088,-9.6015487456,2.275971404,1.06182869,2.11545552,-3.38422835,,,
imu,43.860472,-1.4349685672,-9.605735815200001,2.2861400016,0.9646288599999999,1.94348659,-3.45152054,,,
imu,43.869018,-1.4457353176,-9.5865949256,2.2658028064,0.68050628,1.54721036,-3.62348947,,,
imu,43.877564,-1.4559039152,-9.5842023144,2.2705880288,0.6132140899999999,1.19579559,-3.78050458,,,
imu,43.886111,-1.4612872904,-9.559678049600002,2.2574286672,0.8375213899999999,1.0537343,-3.80293531,,,
imu,43.894657,-1.4750448048,-9.541733465600002,2.2478582224,0.88985976,0.7097964399999999,-3.84779677,,,
imu,43.903203,-1.5007653752,-9.5237888816,2.2352970136,0.94219813,0.4107200399999997,-3.93004278,,,
imu,43.911749,-1.5151210424,-9.513022131200001,2.222735804800001,1.27865908,0.3060432999999998,-3.83284295,,,
imu,43.920295,-1.537252696,-9.5219944232,2.2149598184,1.53287402,0.1864127399999997,-3.83284295,,,
imu,43.928842,-1.5534028216,-9.5447242296,2.2035949152,1.7422275,0.1789358299999999,-3.82536604,,,
imu,43.937388,-1.5833104616,-9.552500216,2.2047912208,1.82447351,0.2088434699999997,-3.86275059,,,
imu,43.945934,-1.5946753648,-9.5656595776,2.2006041512,1.98148862,0.35838167,-3.72816621,,,
imu,43.95448,-1.5928809064,-9.5776226336,2.2173524296,1.94410407,0.6499811599999998,-3.70573548,,,
imu,43.963026,-1.597067976,-9.596165370400001,2.2059875264,1.8169966,0.7172733499999997,-3.75807385,,,
imu,43.971573,-1.5994605872,-9.593772759200002,2.2047912208,1.52539711,0.8817653699999997,-3.8702275,,,
imu,43.980119,-1.6048439624,-9.593174606400002,2.2006041512,1.27865908,1.13598031,-3.95247351,,,
imu,43.988665,-1.5946753648,-9.594370912,2.1970152344,1.16650543,1.37524143,-3.80293531,,,
imu,43.997211,-1.5874975312,-9.6039413568,2.1976133872,0.9646288599999999,1.56216418,-3.66087402,,,
imu,44.005757,-1.5797215448,-9.608128426400002,2.1994078456,0.82256757,1.8761944,-3.60853565,,,
imu,44.014303,-1.5629732664,-9.6015487456,2.1874447896,0.53844499,1.8761944,-3.51881273,,,
imu,44.02285,-1.55519728,-9.569248494400002,2.2023986096,0.10478421,1.96591732,-3.61601256,,,
imu,44.031396,-1.5366545432,-9.567454036,2.2382877776,-0.03727708,1.97339423,-3.48142818,,,
imu,44.039795,-1.5240933344,-9.602146898400001,2.243073,-0.32887657,1.90610204,-3.48142818,,,
imu,44.048193,-1.5366545432,-9.616502565600001,2.2364933192,-0.6279529699999999,1.74908693,-3.496382,,,
imu,44.056592,-1.5199062648,-9.595567217600001,2.2448674584,-0.82235263,1.63693328,-3.45152054,,,
imu,44.064991,-1.5288785568,-9.571042952800001,2.2675972648,-1.26349032,1.49487199,-3.42908981,,,
imu,44.073389,-1.5444305296,-9.594370912,2.2837473904,-1.06161375,1.47991817,-3.13001341,,,
imu,44.081736,-1.55519728,-9.609324732000001,2.2771677096,-1.20367504,1.50982581,-2.81598319,,,
imu,44.090135,-1.5599825024,-9.594370912,2.2873363072,-1.33825942,1.53225654,-2.51690679,,,
imu,44.098534,-1.5545991272,-9.5740337168,2.2897289184,-1.30087487,1.77151766,-2.10567674,,,
imu,44.106932,-1.5545991272,-9.541135312800002,2.2933178352,-1.30087487,1.86124058,-2.27764567,,,
imu,44.115331,-1.5378508488,-9.524387034400002,2.2825510848,-1.23358268,1.99582496,-2.41223005,,,
imu,44.12373,-1.534261932,-9.4962738528,2.2825510848,-1.14385976,1.88367131,-2.78607555,,,
imu,44.132129,-1.5336637792,-9.463973601600001,2.2765695568,-0.9943215599999999,1.96591732,-3.03281358,,,
imu,44.140527,-1.5444305296,-9.4412437952,2.2717843344,-0.65786061,1.97339423,-3.10010577,,,
imu,44.148926,-1.5420379184,-9.423299211200002,2.27298064,-0.41859949,1.92853277,-3.33936689,,,
imu,44.157325,-1.5563935856,-9.429280739200001,2.263410195200001,-0.05970781,2.01825569,-3.36927453,,,
imu,44.165723,-1.5504120576,-9.438851184,2.2783640152,0.42629134,2.21265535,-3.24964397,,,
imu,44.174122,-1.5516083632,-9.4490197816,2.275971404,0.80761375,2.29490136,-3.13001341,,,
imu,44.182521,-1.54024346,-9.4765348104,2.2717843344,1.08425942,2.34723973,-3.09262886,,,
imu,44.190919,-1.5348600848,-9.4843107968,2.2586249728,1.25622835,2.40705501,-3.03281358,,,
imu,44.199318,-1.5217007232,-9.5172092008,2.2783640152,1.48053565,2.45191647,-3.00290594,,,
imu,44.207717,-1.5181118064,-9.539939007200001,2.2813547792,1.5926893,2.63883922,-3.02533667,,,
imu,44.216115,-1.5109339728,-9.578818939200001,2.28793446,1.51044329,2.57902394,-2.91318302,,,
imu,44.224514,-1.513326584,-9.599156134400001,2.2927196824,1.27118217,2.51920866,-2.92813684,,,
imu,44.232913,-1.51033582,-9.614708107200002,2.2921215296,0.97958268,2.45191647,-2.96552139,,,
imu,44.241374,-1.498372764,-9.614109954400002,2.284943696,0.68798319,2.34723973,-2.90570611,,,
imu,44.249835,-1.4971764584,-9.6075302736,2.290925224,0.38142988,2.48182411,-2.8982292,,,
imu,44.258296,-1.489400472,-9.6015487456,2.293915988,0.2468455,2.48930102,-2.83093701,,,
imu,44.266757,-1.4840170968,-9.596165370400001,2.2981030576,-0.16438455,2.33228591,-2.8982292,,,
imu,44.275218,-1.4822226384,-9.585398620000001,2.3022901272,-0.31392275,2.36219355,-2.74121409,,,
imu,44.283679,-1.48042818,-9.559678049600002,2.2975049048,-0.47841477,2.42200883,-2.77859864,,,
imu,44.29214,-1.4738484992,-9.5327611736,2.3100661136,-0.5756146,2.2500399,-2.77859864,,,
imu,44.300601,-1.4612872904,-9.5213962704,2.3082716552,-0.54570696,2.22760917,-2.70382954,,,
imu,44.309062,-1.4511186928,-9.517807353600002,2.3166457944,-0.46346095,2.09302479,-2.89075229,,,
imu,44.317523,-1.4582965264,-9.519003659200001,2.323823628,-0.43355331,2.03320951,-3.09262886,,,
imu,44.325984,-1.4469316232,-9.4980683112,2.3226273224,-0.32887657,2.03320951,-3.13749032,,,
imu,44.334445,-1.444539012,-9.483712644000002,2.3196365584,-0.08961545,1.79394839,-3.18982869,,,
imu,44.342906,-1.4457353176,-9.467562518400001,2.308869808,0.08983038999999998,1.67431783,-3.31693616,,,
imu,42.920357,,,,,,,78.846294,-42.82899160000002,141.5730168
imu,43.021919,,,,,,,78.846294,-43.15858600000002,141.9026112
imu,43.123482,,,,,,,78.4312492,-42.81678440000001,141.7805392
imu,43.225044,,,,,,,78.93174439999999,-43.0487212,141.8781968
imu,43.326637,,,,,,,79.0782308,-43.42714440000002,141.1457648
imu,43.428139,,,,,,,81.01917560000001,-42.86561320000002,140.12036
imu,43.53138,,,,,,,79.700798,-42.99989240000001,140.9260352
imu,43.631294,,,,,,,81.8858868,-43.93984680000001,138.4235592
imu,44.351367,-1.4439408592,-9.451412392800002,2.311860572000001,0.43376825,1.577118,-3.3468438,,,
imu,44.359828,-1.4511186928,-9.446627170400001,2.314851336,0.78518302,1.45748744,-3.46647436,,,
imu,44.368289,-1.45052054,-9.447225323200001,2.3052808912,1.03192105,1.21074941,-3.56367419,,,
imu,44.37675,-1.4660725128,-9.453206851200001,2.2885326128,1.36090509,1.06121121,-3.496382,,,
imu,44.385211,-1.4905967776,-9.4496179344,2.290327071200001,1.71979677,0.9789651999999998,-3.43656672,,,
imu,44.393672,-1.4947838472,-9.468160671200001,2.2783640152,2.08616536,0.78456554,-3.45152054,,,
imu,44.402133,-1.5121302784,-9.509433214400001,2.278962168,2.29551884,0.8593346399999997,-3.5711511,,,
imu,44.410594,-1.5318693208,-9.556089132800002,2.2795603208,2.28804193,0.9041961000000001,-3.53376655,,,
imu,44.419055,-1.5390471544,-9.580613397600002,2.2664009592,2.51982614,1.0537343,-3.51133582,,,
imu,44.427516,-1.546224988,-9.592576453600001,2.249054528,2.54225687,1.3528107,-3.54124346,,,
imu,44.435977,-1.543234224,-9.595567217600001,2.2622138896,2.37776485,1.47991817,-3.45899745,,,
imu,44.444438,-1.5414397656,-9.613511801600001,2.2478582224,2.13850373,1.61450255,-3.41413599,,,
imu,44.452899,-1.531271168,-9.627867468800002,2.2514471392,1.86185806,1.77151766,-3.47395127,,,
imu,44.46136,-1.5217007232,-9.6296619272,2.2526434448,1.60016621,1.98834805,-3.43656672,,,
imu,44.469821,-1.51033582,-9.632054538400002,2.252045292,1.23379762,2.1005017,-3.36179762,,,
imu,44.478282,-1.501363528,-9.625474857600002,2.246063764000001,0.9945364999999999,2.21265535,-3.28702852,,,
imu,44.486743,-1.4852134024,-9.597959828800002,2.2352970136,0.8449983,2.19022462,-3.35432071,,,
imu,44.495204,-1.4756429576,-9.5740337168,2.2394840832,0.63564482,2.08554788,-3.36927453,,,
imu,44.503665,-1.471455888,-9.5590798968,2.2388859304,0.53844499,1.98834805,-3.40665908,,,
imu,44.512126,-1.4726521936,-9.552500216,2.2275210272,0.53844499,1.88367131,-3.27955161,,,
imu,44.520587,-1.4750448048,-9.5489112992,2.2376896248,0.44872207,1.83133294,-3.33188998,,,
imu,44.529048,-1.4798300272,-9.541733465600002,2.2406803888,0.29170696,1.71917929,-3.30198234,,,
imu,44.537509,-1.4780355688,-9.549509452,2.2436711528,0.5010604399999999,1.69674856,-3.36927453,,,
imu,44.54597,-1.483418944,-9.553696521600001,2.255036056,0.5459219,1.5023489,-3.39170526,,,
imu,44.554431,-1.4816244856,-9.554892827200002,2.2502508336,0.59078336,1.56964109,-3.30945925,,,
imu,44.562892,-1.4947838472,-9.534555632000002,2.2454656112,0.52349117,1.66684092,-3.22721324,,,
imu,44.571353,-1.4965783056,-9.5489112992,2.2466619168,0.55339881,1.77899457,-3.1225365,,,
imu,44.579814,-1.486409708,-9.558481744000002,2.2388859304,0.5982602699999999,1.75656384,-3.1225365,,,
imu,44.588275,-1.4828207912,-9.571641105600001,2.2364933192,0.74779847,1.82385603,-3.15992105,,,
imu,44.596736,-1.4702595824,-9.554294674400001,2.2442693056,0.66555246,1.71170238,-3.3468438,,,
imu,44.605197,-1.474446652,-9.555490980000002,2.255036056,0.52349117,1.6518871,-3.36179762,,,
imu,44.613658,-1.4738484992,-9.579417092000002,2.2723824872,0.3963837,1.6518871,-3.36927453,,,
imu,44.622119,-1.4750448048,-9.613511801600001,2.27298064,0.16459949,1.63693328,-3.50385891,,,
imu,44.63058,-1.471455888,-9.633250844,2.269989876,0.20946095,1.38271834,-3.70573548,,,
imu,44.639041,-1.4720540408,-9.588389384000001,2.2622138896,-0.06718472,1.23318014,-3.86275059,,,
imu,44.64786,-1.477437416,-9.5393408544,2.269989876,-0.38121494,1.14345722,-3.98238115,,,
imu,44.65668,-1.4858115552,-9.535153784800002,2.266999112000001,-0.16438455,1.10607267,-3.74312003,,,
imu,44.6655,-1.5085413616,-9.554294674400001,2.2604194312,0.16459949,1.14345722,-3.51133582,,,
imu,44.674319,-1.5127284312,-9.553696521600001,2.2526434448,0.19450713,1.19579559,-3.3468438,,,
imu,44.683139,-1.5025598336,-9.5357519376,2.261017584,0.2468455,1.26308778,-3.43656672,,,
imu,44.691958,-1.501363528,-9.538742701600002,2.2526434448,0.3889067899999999,1.27056469,-3.51881273,,,
imu,44.700778,-1.4905967776,-9.5381445488,2.2508489864,0.59078336,1.2780416,-3.78050458,,,
imu,44.709597,-1.4911949304,-9.540537160000001,2.237091472,0.53844499,1.2032725,-3.96742733,,,
imu,44.718417,-1.4941856944,-9.52558334,2.2406803888,0.53844499,1.13598031,-4.19173463,,,
imu,44.727237,-1.4971764584,-9.5237888816,2.2412785416,0.52349117,1.13598031,-4.17678081,,,
imu,44.736056,-1.5097376672,-9.5423316184,2.2448674584,0.46367589,1.27056469,-4.169303899999999,,,
imu,44.744876,-1.5025598336,-9.555490980000002,2.25802682,0.3963837,1.33785688,-3.95995042,,,
imu,44.753695,-1.5097376672,-9.553696521600001,2.2502508336,0.2468455,1.16588795,-3.8702275,,,
imu,44.762515,-1.4995690696,-9.5423316184,2.2592231256,0.13469185,1.18831868,-3.63844329,,,
imu,44.771334,-1.4941856944,-9.540537160000001,2.2586249728,0.21693786,1.11354958,-3.47395127,,,
imu,44.780154,-1.498372764,-9.529770409600001,2.2616157368,-0.04475399000000001,1.00139593,-3.45899745,,,
imu,44.788974,-1.5001672224,-9.529770409600001,2.2664009592,0.04496892999999999,0.9565344699999998,-3.36927453,,,
imu,44.797793,-1.5025598336,-9.537546396000002,2.2693917232,-0.02232326000000001,0.8593346399999997,-3.56367419,,,
imu,44.806613,-1.5181118064,-9.528574104,2.2813547792,0.01506129,0.72475026,-3.60105874,,,
imu,44.815432,-1.5294767096,-9.52558334,2.2831492376,0.1720764,0.5901658799999998,-3.56367419,,,
imu,44.824252,-1.5336637792,-9.536948243200001,2.290327071200001,0.2468455,0.66493498,-3.66835093,,,
imu,44.833072,-1.5414397656,-9.5501076048,2.3034864328,0.2468455,0.72475026,-3.61601256,,,
imu,44.841891,-1.5444305296,-9.541135312800002,2.3046827384,0.14216876,0.6948426199999997,-3.69825857,,,
imu,44.850353,-1.5474212936,-9.537546396000002,2.314851336,0.18703022,0.6873657099999999,-3.66087402,,,
imu,44.858815,-1.543234224,-9.548313146400002,2.307673502400001,0.15712258,0.8219500899999996,-3.60853565,,,
imu,44.867277,-1.5324674736,-9.535153784800002,2.3046827384,0.15712258,0.94905756,-3.56367419,,,
imu,44.875739,-1.5217007232,-9.538742701600002,2.320832864,0.15712258,0.9565344699999998,-3.55619728,,,
imu,44.884201,-1.5390471544,-9.5393408544,2.314851336,0.19450713,0.9789651999999998,-3.496382,,,
imu,44.892663,-1.5330656264,-9.535153784800002,2.3034864328,0.13469185,0.86681155,-3.496382,,,
imu,44.901125,-1.5360563904,-9.5148165896,2.3106642664,0.1720764,1.06121121,-3.38422835,,,
imu,44.909586,-1.5324674736,-9.514218436800002,2.3274125448,-0.05970781,0.9789651999999998,-3.51881273,,,
imu,44.918048,-1.5205044176,-9.539939007200001,2.321431016800001,0.12721494,0.94905756,-3.55619728,,,
imu,44.92651,-1.5270840984,-9.528574104,2.3022901272,0.13469185,0.7770886299999997,-3.86275059,,,
imu,44.934972,-1.5145228896,-9.481918185600001,2.3064771968,0.03749201999999999,0.7097964399999999,-3.83284295,,,
imu,44.943434,-1.52528964,-9.455001309600002,2.321431016800001,0.11973803,0.6499811599999998,-3.66087402,,,
imu,44.951896,-1.5420379184,-9.481918185600001,2.3315996144,0.29918387,0.6948426199999997,-3.42908981,,,
imu,44.960358,-1.5563935856,-9.490292324800002,2.3154494888,0.55339881,0.72475026,-3.23469015,,,
imu,44.96882,-1.55519728,-9.4765348104,2.3154494888,0.77770611,0.7995193599999997,-3.10758268,,,
imu,44.977282,-1.552206516,-9.474142199200001,2.3136550304,0.9571519499999999,0.8892422799999999,-3.13001341,,,
imu,44.985744,-1.5438323768,-9.4633754488,2.290925224,1.39828964,0.9415806499999997,-3.15244414,,,
imu,44.994206,-1.5378508488,-9.464571754400001,2.284943696,1.64502767,0.9939190199999999,-3.24964397,,,
imu,45.002667,-1.5450286824,-9.482516338400002,2.2891307656,1.85438115,1.0537343,-3.4216129,,,
imu,45.011129,-1.5486175992,-9.4974701584,2.2825510848,2.22074974,1.19579559,-3.67582784,,,
imu,45.019591,-1.5629732664,-9.507638756,2.2765695568,2.21327283,1.15093413,-3.72816621,,,
imu,45.028053,-1.5534028216,-9.519003659200001,2.2753732512,2.22822665,1.21822632,-3.69078166,,,
imu,45.036515,-1.5540009744,-9.5327611736,2.2604194312,2.27308811,1.3528107,-3.61601256,,,
imu,45.044977,-1.558188044,-9.539939007200001,2.2652046536,2.1908421,1.55468727,-3.33188998,,,
imu,45.053439,-1.5408416128,-9.556089132800002,2.2574286672,2.116073,1.67431783,-3.24216706,,,
imu,45.061891,-1.534261932,-9.578220786400001,2.2454656112,2.13850373,1.84628676,-3.10010577,,,
imu,45.070343,-1.5294767096,-9.597361676,2.252045292,2.12354991,1.89862513,-2.9729983,,,
imu,45.078795,-1.5228970288,-9.595567217600001,2.255036056,1.91419643,1.95844041,-2.95804448,,,
imu,45.087247,-1.5115321256,-9.606333968000001,2.2526434448,1.77961205,1.92105586,-2.76364482,,,
imu,45.095699,-1.504354292,-9.593772759200002,2.249652680800001,1.60764312,1.91357895,-2.81598319,,,
imu,45.104152,-1.5025598336,-9.591380148,2.249054528,1.55530475,1.86124058,-2.87579847,,,
imu,45.112604,-1.4941856944,-9.591978300800001,2.2478582224,1.47305874,1.89114822,-2.86832156,,,
imu,45.121056,-1.4941856944,-9.573435564,2.2364933192,1.34595127,1.77899457,-2.92813684,,,
imu,45.129508,-1.492391236,-9.565061424800001,2.2484563752,1.13659779,1.71170238,-3.10758268,,,
imu,45.13796,-1.4870078608,-9.571641105600001,2.2436711528,1.12912088,1.6518871,-3.1225365,,,
imu,45.146412,-1.4876060136,-9.571042952800001,2.2263247216,0.94967504,1.56964109,-3.23469015,,,
imu,45.154864,-1.4929893888,-9.554294674400001,2.228717332800001,1.13659779,1.63693328,-3.25712088,,,
imu,45.163316,-1.4929893888,-9.548313146400002,2.2275210272,0.9571519499999999,1.71917929,-3.15992105,,,
imu,43.732857,,,,,,,79.45665399999999,-43.32948680000002,141.2678368
imu,43.834419,,,,,,,80.6651668,-44.67227880000002,139.0095048
imu,43.936012,,,,,,,79.578726,-43.35390120000002,141.5119808
imu,44.037544,,,,,,,79.39561799999998,-43.72011720000002,141.1457648
imu,44.139107,,,,,,,79.6641764,-43.5736308,141.2312152
imu,44.240669,,,,,,,79.3834108,-43.36610840000002,140.8161704
imu,44.342232,,,,,,,79.82287,-43.14637880000001,140.8772064
imu,44.443825,,,,,,,79.4810684,-42.97547800000001,141.0847288
imu,45.171733,-1.4947838472,-9.527377798400002,2.216156124,1.03939796,1.68179474,-3.26459779,,,
imu,45.180185,-1.4929893888,-9.5172092008,2.2095764432,1.18145925,1.56216418,-3.31693616,,,
imu,45.188637,-1.4989709168,-9.526779645600001,2.2167542768,1.16650543,1.47991817,-3.41413599,,,
imu,45.197089,-1.4905967776,-9.516012895200001,2.205389373600001,1.40576655,1.48739508,-3.51133582,,,
imu,45.205541,-1.4929893888,-9.493283088800002,2.1958189288,1.42072037,1.5023489,-3.6459202,,,
imu,45.213993,-1.4917930832,-9.4962738528,2.207183832,1.5926893,1.49487199,-3.67582784,,,
imu,45.222445,-1.5037561392,-9.51062952,2.1994078456,1.82447351,1.48739508,-3.86275059,,,
imu,45.230897,-1.5091395144,-9.512423978400001,2.2029967624,2.06373463,1.36776452,-3.86275059,,,
imu,45.23935,-1.5037561392,-9.520199964800002,2.2018004568,2.12354991,1.33037997,-3.89265823,,,
imu,45.247802,-1.4959801528,-9.532163020800002,2.1976133872,2.19831901,1.32290306,-3.74312003,,,
imu,45.256254,-1.495382,-9.541135312800002,2.1976133872,2.35533412,1.24813396,-3.82536604,,,
imu,45.265058,-1.4995690696,-9.5632669664,2.1934263176,2.46001086,1.18084177,-3.71321239,,,
imu,45.273862,-1.4899986248,-9.6009505928,2.1898374008,2.65441052,1.12102649,-3.65339711,,,
imu,45.282667,-1.4876060136,-9.658971414400002,2.2035949152,2.65441052,0.9565344699999998,-3.78798149,,,
imu,45.291471,-1.492391236,-9.717590388800001,2.2029967624,2.63197979,0.6724118899999998,-3.93751969,,,
imu,45.300275,-1.501363528,-9.7570684736,2.1886410952,2.66936434,0.3509047599999997,-4.0197657,,,
imu,45.30908,-1.5127284312,-9.7714241408,2.1808651088,2.47496468,-0.02294074000000013,-4.20668845,,,
imu,45.317884,-1.5318693208,-9.7492924872,2.188042942400001,1.98896553,-0.3818324200000003,-4.55810322,,,
imu,45.326688,-1.5330656264,-9.713403319200001,2.2006041512,1.51044329,-0.59866281,-4.85717962,,,
imu,45.335493,-1.5390471544,-9.679308609600001,2.189239248,1.15155161,-0.71829337,-4.954379449999999,,,
imu,45.344297,-1.5737400168,-9.639232372,2.1850521784,0.620691,-1.09213887,-5.1413022,,,
imu,45.353101,-1.606040268,-9.634447149600001,2.2215394992,0.29170696,-1.27906162,-5.00671782,,,
imu,45.361906,-1.6365460608,-9.591380148,2.18325772,-0.08961545,-1.40616909,-4.96185636,,,
imu,45.37071,-1.6772204512,-9.5357519376,2.1718928168,-0.21672292,-1.36878454,-4.78241052,,,
imu,45.379514,-1.680809368,-9.495675700000001,2.1724909696,-0.20924601,-1.13700033,-4.56558013,,,
imu,45.388319,-1.7083243968,-9.479525574400002,2.170696511200001,-0.02980017,-0.80053938,-4.27398064,,,
imu,45.397123,-1.7178948416,-9.483712644000002,2.1635186776,0.26179932,-0.4416477000000003,-3.95247351,,,
imu,45.405927,-1.722680064,-9.477731116000001,2.1360036488,0.6954601,-0.1650020300000001,-3.7954584,,,
imu,45.414731,-1.7328486616,-9.48072188,2.1455740936,1.1440747,0.2537049300000001,-3.37675144,,,
imu,45.423536,-1.7053336328,-9.4944793944,2.1348073432,1.72727368,0.8967191899999998,-2.98047521,,,
imu,45.43234,-1.7155022304,-9.505844297600001,2.12344244,2.10859609,1.2032725,-2.8234601,,,
imu,45.441144,-1.6969594936,-9.509433214400001,2.1108812312,2.33290339,1.83133294,-2.5243837,,,
imu,45.449949,-1.67482784,-9.48072188,2.0941329528,2.46001086,2.30237827,-2.35989168,,,
imu,45.458753,-1.6461165056,-9.481320032800001,2.0881514248,2.34785721,2.84071579,-1.97856927,,,
imu,45.467557,-1.6197977824,-9.4753385048,2.111479384,2.25065738,3.51363769,-1.45518557,,,
imu,45.476016,-1.5773289336,-9.495077547200001,2.1120775368,2.03382699,3.80523718,-1.09629389,,,
imu,45.484475,-1.5354582376,-9.501657228000001,2.1270313568,1.53287402,4.246374869999999,-0.74487912,,,
imu,45.492933,-1.495382,-9.512423978400001,2.159331608,1.21136689,4.552928179999999,-0.37103362,,,
imu,45.501392,-1.4499223872,-9.536350090400001,2.1754817336,0.58330645,4.84452767,-0.2289723299999999,,,
imu,45.509851,-1.4104443024,-9.538742701600002,2.1976133872,0.03001510999999998,4.96415823,-0.1392494099999999,,,
imu,45.518309,-1.378742204,-9.550705757600001,2.2245302632,-0.43355331,4.95668132,-0.31869525,,,
imu,45.526768,-1.3631902312,-9.556089132800002,2.246063764000001,-0.77001426,4.82209694,-0.66263311,,,
imu,45.535227,-1.3320862856,-9.5740337168,2.261017584,-0.9943215599999999,4.65012801,-0.99161715,,,
imu,45.543686,-1.3237121464,-9.593772759200002,2.2837473904,-0.92702937,4.58283582,-1.21592445,,,
imu,45.552144,-1.3123472432,-9.612913648800001,2.286738154400001,-0.90459864,4.39591307,-1.67201596,,,
imu,45.560603,-1.3051694096,-9.637437913600001,2.3046827384,-0.84478336,4.09683667,-2.09072292,,,
imu,45.569062,-1.2848322144,-9.655382497600002,2.3202347112,-0.68776825,3.70056044,-2.60662971,,,
imu,45.57752,-1.2961971176,-9.640428677600001,2.3124587248,-0.46346095,3.34914567,-3.10758268,,,
imu,45.585979,-1.2938045064,-9.6523917336,2.3381792952,-0.2765382,2.79585433,-3.67582784,,,
imu,45.594438,-1.303973104,-9.675719692800001,2.3459552816,0.02253820000000001,2.29490136,-4.034719519999999,,,
imu,45.602896,-1.3213195352,-9.718786694400002,2.3351885312,0.1720764,1.75656384,-4.363703559999999,,,
imu,45.611355,-1.327899216,-9.7074217912,2.325019933600001,0.29170696,1.09859576,-4.625395409999999,,,
imu,45.619814,-1.3596013144,-9.635643455200002,2.30288828,0.3739529699999999,0.4929660499999997,-4.887087259999999,,,
imu,45.628272,-1.393696024,-9.5632669664,2.2873363072,0.5982602699999999,-0.05284837999999992,-4.82727198,,,
imu,45.636731,-1.444539012,-9.529770409600001,2.2586249728,0.9048135799999999,-0.4939860700000001,-4.5431494,,,
imu,45.64519,-1.4780355688,-9.489694172,2.2095764432,1.50296638,-0.5612782599999999,-4.102011709999999,,,
imu,45.653648,-1.5115321256,-9.434065961600002,2.1766780392,2.116073,-0.4939860700000001,-3.74312003,,,
imu,45.662107,-1.534261932,-9.390998960000001,2.1521537744,2.66936434,-0.4939860700000001,-3.55619728,,,
imu,45.670585,-1.552206516,-9.379035904000002,2.1210498288,3.18527113,-0.31454023,-3.52628964,,,
imu,45.679062,-1.588095684,-9.393391571200002,2.087553272,3.8357623,-0.15004821,-3.47395127,,,
imu,45.68754,-1.588095684,-9.420906600000002,2.0737957576,4.2843769,0.1864127399999997,-3.57862801,,,
imu,45.696017,-1.5719455584,-9.403560168800002,2.042691812,4.53111493,0.41819695,-3.63844329,,,
imu,45.704495,-1.561178808,-9.419710294400002,2.0468788816,4.7329915,0.7920424499999998,-3.81041222,,,
imu,45.712972,-1.5635714192,-9.4873015608,2.0498696456,5.00216026,1.00887284,-3.80293531,,,
imu,45.72145,-1.5540009744,-9.5602762024,2.0420936592,5.12926773,1.23318014,-3.63844329,,,
imu,45.729927,-1.537252696,-9.627269316000001,2.0444862704,4.97225262,1.52477963,-3.48890509,,,
imu,45.738405,-1.5276822512,-9.6817012208,2.0570474792,4.516161110000001,1.54721036,-3.48142818,,,
imu,45.746882,-1.513326584,-9.7295534448,2.0690105352,4.0600696,1.62197946,-3.45899745,,,
imu,45.75536,-1.4971764584,-9.760059237600002,2.0690105352,3.4619168,1.77899457,-3.53376655,,,
imu,45.763837,-1.5037561392,-9.775611210400001,2.0570474792,3.00582529,1.71917929,-3.74312003,,,
imu,45.772315,-1.5067469032,-9.723571916800001,2.0211583112,2.44505704,1.55468727,-4.06462716,,,
imu,45.780792,-1.501363528,-9.727160833600001,2.081571744,2.0413039,1.3528107,-4.318842099999999,,,
imu,45.78927,-1.5157191952,-9.7283571392,2.0630290072,1.74970441,1.33785688,-4.80484125,,,
imu,45.797747,-1.522298876,-9.708019944000002,2.036710284,1.4431511,1.24065705,-5.283363489999999,,,
imu,45.806225,-1.522298876,-9.676915998400002,2.0402992008,1.19641307,1.24813396,-5.38056332,,,
imu,45.814702,-1.546224988,-9.633250844,2.036710284,1.04687487,1.26308778,-5.328224949999999,,,
imu,45.82318,-1.5575898912,-9.6117173432,2.0301306032,1.11416706,1.33785688,-5.27588658,,,
imu,45.831658,-1.5486175992,-9.6039413568,2.0121860192,1.19641307,1.30794924,-5.193640569999999,,,
imu,45.840135,-1.5528046688,-9.6284656216,2.0295324504,1.41324346,1.45001053,-4.976810179999999,,,
imu,45.848613,-1.5480194464,-9.6505972752,2.0402992008,1.5926893,1.61450255,-4.46090339,,,
imu,45.85709,-1.5450286824,-9.688280901600002,2.048673340000001,1.5926893,1.74908693,-3.97490424,,,
imu,45.865568,-1.5498139048,-9.678112304,2.0325232144,1.42819728,1.71170238,-3.84031986,,,
imu,45.874032,-1.5396453072,-9.638036066400002,2.0211583112,1.39828964,1.79394839,-3.63096638,,,
imu,45.882497,-1.5228970288,-9.5877912312,2.0259435336,1.28613599,1.79394839,-3.30945925,,,
imu,45.890962,-1.4971764584,-9.568052188800001,2.0325232144,0.9347212199999999,1.53973345,-3.33188998,,,
imu,45.899427,-1.5007653752,-9.611119190400002,2.0438881176,0.5982602699999999,1.45001053,-3.65339711,,,
imu,45.907892,-1.504354292,-9.617100718400001,2.0241490752,0.29918387,1.39019525,-3.53376655,,,
imu,45.916357,-1.4822226384,-9.568052188800001,2.0355139784,-0.11952309,1.10607267,-3.57862801,,,
imu,45.924821,-1.5031579864,-9.524387034400002,2.0630290072,-0.44850713,1.14345722,-3.5711511,,,
imu,45.933286,-1.5025598336,-9.512423978400001,2.0678142296,-0.7401066199999999,1.16588795,-3.42908981,,,
imu,45.941751,-1.5097376672,-9.547116840800001,2.0869551192,-0.94198319,1.06868812,-3.26459779,,,
imu,45.950216,-1.5085413616,-9.559678049600002,2.0935348,-1.14385976,0.9640113799999996,-3.10010577,,,
imu,45.958681,-1.4941856944,-9.52558334,2.1043015504,-1.37564397,0.9939190199999999,-3.21225942,,,
imu,45.967145,-1.4888023192,-9.524387034400002,2.1348073432,-1.55508981,0.8967191899999998,-3.46647436,,,
imu,45.97561,-1.4947838472,-9.617100718400001,2.1808651088,-1.58499745,0.6275504299999999,-3.7954584,,,
imu,45.984075,-1.5330656264,-9.718786694400002,2.1814632616,-1.87659694,0.4032431299999999,-3.85527368,,,
imu,44.545313,,,,,,,81.7516076,-43.69570280000001,140.0837384
imu,44.648585,,,,,,,79.3101676,-43.63466680000001,141.1213504
imu,44.748469,,,,,,,82.06899480000001,-44.20840520000002,138.5822528
imu,44.857813,,,,,,,79.6031404,-43.54921640000002,141.524188
imu,44.959406,,,,,,,79.1880956,-43.58583800000002,138.6921176
imu,45.06103,,,,,,,80.03039240000001,-43.36610840000002,141.2922512
imu,45.162501,,,,,,,79.68859079999999,-43.21962200000002,140.7795488
imu,45.264124,,,,,,,79.68859079999999,-43.8055676,141.157972
imu,45.99254,-1.552206516,-9.743909112,2.1946226232,-2.36259609,0.2686587499999997,-4.04967334,,,
imu,46.001005,-1.5904882952,-9.7122070136,2.2113709016,-3.13271782,0.1415512799999998,-4.37118047,,,
imu,46.009469,-1.6156107128,-9.672130776000001,2.1970152344,-3.49908641,0.2312741999999997,-4.625395409999999,,,
imu,46.017934,-1.6461165056,-9.654784344800001,2.2197450408,-3.7906859,0.4107200399999997,-4.81979507,,,
imu,46.026399,-1.653892492,-9.655980650400002,2.205389373600001,-4.02994702,0.7920424499999998,-4.81231816,,,
imu,46.034864,-1.6526961864,-9.591978300800001,2.1946226232,-4.14210067,1.01634975,-4.887087259999999,,,
imu,46.043329,-1.6532943392,-9.530368562400001,2.2035949152,-4.02247011,1.09859576,-4.90204108,,,
imu,46.051794,-1.6353497552,-9.458590226400002,2.1940244704,-3.4916095,1.33037997,-4.51324176,,,
imu,46.060258,-1.623984852,-9.443038253600001,2.2023986096,-2.91588743,1.46496435,-4.244073,,,
imu,46.068723,-1.61501256,-9.440047489600001,2.205389373600001,-2.08595042,1.62197946,-3.97490424,,,
imu,46.077185,-1.6281719216,-9.4250936696,2.2059875264,-1.46536689,1.59954873,-3.71321239,,,
imu,46.085648,-1.6132181016,-9.382624820800002,2.2149598184,-0.64290679,1.5023489,-3.57862801,,,
imu,46.09411,-1.6305645328,-9.382624820800002,2.2095764432,0.14216876,1.59954873,-3.52628964,,,
imu,46.102572,-1.6275737688,-9.415523224800001,2.2077819848,0.83004448,1.77899457,-3.42908981,,,
imu,46.111035,-1.6443220472,-9.431075197600002,2.188042942400001,1.47305874,1.89862513,-3.20478251,,,
imu,46.119497,-1.656883256,-9.451412392800002,2.1910337064,1.7422275,2.04816333,-3.11505959,,,
imu,46.127959,-1.650901728,-9.523190728800001,2.21316536,1.94410407,2.22013226,-3.18982869,,,
imu,46.136421,-1.6610703256,-9.571042952800001,2.1994078456,1.8917657,2.45939338,-3.14496723,,,
imu,46.144884,-1.62996638,-9.575230022400001,2.201202304,1.69736604,2.75846978,-3.14496723,,,
imu,46.153346,-1.6227885464,-9.588987536800001,2.2179505824,1.20388998,2.93791562,-3.18982869,,,
imu,46.161808,-1.6114236432,-9.614109954400002,2.2239321104,0.7104139199999999,3.23699202,-3.28702852,,,
imu,46.17027,-1.5922827536,-9.625474857600002,2.2113709016,0.18703022,3.32671494,-3.16739796,,,
imu,46.178733,-1.5749363224,-9.6009505928,2.2065856792,-0.40364567,3.38653022,-3.23469015,,,
imu,46.187195,-1.55519728,-9.554892827200002,2.2018004568,-0.97189083,3.43886859,-3.18235178,,,
imu,46.195657,-1.528280404,-9.520199964800002,2.195220776,-1.30087487,3.23699202,-3.07019813,,,
imu,46.20412,-1.5157191952,-9.532163020800002,2.1964170816,-1.48032071,2.93043871,-3.02533667,,,
imu,46.212582,-1.498372764,-9.5489112992,2.186248484,-1.53265908,2.72108523,-2.92813684,,,
imu,46.221044,-1.498372764,-9.520798117600002,2.1850521784,-1.44293616,2.45191647,-2.72626027,,,
imu,46.229506,-1.4792318744,-9.495675700000001,2.2143616656,-1.28592105,2.21265535,-2.41223005,,,
imu,46.237969,-1.495382,-9.517807353600002,2.2197450408,-0.95693701,1.98087114,-2.19539966,,,
imu,46.246431,-1.5187099592,-9.539939007200001,2.2317080968,-0.68029134,1.67431783,-2.17296893,,,
imu,46.254893,-1.5139247368,-9.5447242296,2.2412785416,-0.29896893,1.47244126,-1.97109236,,,
imu,46.263317,-1.5330656264,-9.533359326400001,2.2478582224,-0.19429219,1.19579559,-1.93370781,,,
imu,46.271779,-1.5444305296,-9.549509452,2.2687935704,-0.02980017,1.24813396,-2.01595382,,,
imu,46.280231,-1.5569917384,-9.553696521600001,2.261017584,0.28423005,1.2780416,-2.02343073,,,
imu,46.288683,-1.5605806552,-9.535153784800002,2.2604194312,0.3216146,1.53225654,-2.02343073,,,
imu,46.297136,-1.5689547944,-9.530966715200002,2.2604194312,0.49358353,1.8014253,-2.24026112,,,
imu,46.305588,-1.5653658776,-9.526181492800001,2.2502508336,0.53096808,1.96591732,-2.61410662,,,
imu,46.31404,-1.5569917384,-9.519003659200001,2.2412785416,0.5010604399999999,2.26499372,-2.83093701,,,
imu,46.322492,-1.5420379184,-9.5010590752,2.2179505824,0.57582954,2.5491163,-2.96552139,,,
imu,46.330944,-1.5378508488,-9.4729458936,2.201202304,0.83004448,2.68370068,-3.09262886,,,
imu,46.339396,-1.51033582,-9.460982837600001,2.2143616656,0.8375213899999999,2.68370068,-3.30198234,,,
imu,46.347848,-1.4882041664,-9.4944793944,2.204193068,1.01696723,2.70613141,-3.36927453,,,
imu,46.356301,-1.4852134024,-9.519003659200001,2.195220776,1.2936129,2.81080815,-3.33188998,,,
imu,46.364753,-1.4726521936,-9.551303910400001,2.2095764432,1.27118217,2.74351596,-3.24216706,,,
imu,46.373205,-1.4720540408,-9.571042952800001,2.216156124,1.27118217,2.65379304,-3.10758268,,,
imu,46.381657,-1.4690632768,-9.572239258400002,2.2065856792,1.18145925,2.51920866,-2.88327538,,,
imu,46.390109,-1.4750448048,-9.573435564,2.1910337064,1.0693056,2.48182411,-2.68139881,,,
imu,46.398561,-1.468465124,-9.572239258400002,2.1850521784,0.80761375,2.34723973,-2.65149117,,,
imu,46.407013,-1.4726521936,-9.557883591200001,2.1856503312,0.46367589,2.33976282,-2.59167589,,,
imu,46.415466,-1.4750448048,-9.555490980000002,2.19821154,0.12721494,2.33976282,-2.49447606,,,
imu,46.423918,-1.4690632768,-9.548313146400002,2.191631859200001,-0.14195382,2.20517844,-2.63653735,,,
imu,46.43237,-1.4678669712,-9.554294674400001,2.1940244704,-0.29149202,2.21265535,-2.748691,,,
imu,46.440822,-1.4738484992,-9.554294674400001,2.2000059984,-0.32887657,2.27247063,-2.66644499,,,
imu,46.449274,-1.4708577352,-9.556089132800002,2.2023986096,-0.51579932,2.22760917,-2.62158353,,,
imu,46.457726,-1.4702595824,-9.564463272000001,2.205389373600001,-0.63542988,2.36219355,-2.748691,,,
imu,46.466179,-1.4666706656,-9.5668558832,2.2263247216,-0.5307531400000001,2.48182411,-2.81598319,,,
imu,46.474631,-1.4612872904,-9.578818939200001,2.2269228744,-0.5980453299999999,2.54163939,-2.86084465,,,
imu,46.483083,-1.4517168456,-9.583604161600002,2.232306249600001,-0.6279529699999999,2.52668557,-2.86084465,,,
imu,46.491917,-1.4493242344,-9.5812115504,2.2352970136,-0.5307531400000001,2.51173175,-2.92065993,,,
imu,46.500751,-1.4379593312,-9.562668813600002,2.2329044024,-0.5756146,2.60893158,-3.07019813,,,
imu,46.509585,-1.4277907336,-9.539939007200001,2.249054528,-0.41859949,2.42948574,-3.0477674,,,
imu,46.51842,-1.4110424552,-9.5704448,2.2574286672,-0.15690764,2.48182411,-3.01785976,,,
imu,46.527254,-1.4014720104,-9.595567217600001,2.2454656112,-0.08213854000000001,2.29490136,-3.07019813,,,
imu,46.536088,-1.4014720104,-9.589585689600002,2.2484563752,-0.0522309,2.1752708,-3.13749032,,,
imu,46.544922,-1.40565908,-9.534555632000002,2.232306249600001,0.03749201999999999,2.00330187,-3.27955161,,,
imu,46.553756,-1.4062572328,-9.5004609224,2.2394840832,-0.007369440000000005,1.74908693,-3.61601256,,,
imu,46.56259,-1.399677552,-9.5291722568,2.249054528,0.11226112,1.4275798,-3.58610492,,,
imu,46.571425,-1.4140332192,-9.5740337168,2.237091472,0.41881443,1.23318014,-3.73564312,,,
imu,46.580259,-1.423603664,-9.588389384000001,2.2406803888,0.36647606,0.8967191899999998,-3.97490424,,,
imu,46.589093,-1.4409500952,-9.576426328,2.2472600696,0.25432241,0.6574580699999997,-4.31136519,,,
imu,46.597927,-1.4732503464,-9.577024480800002,2.253839750400001,0.47862971,0.5153967799999997,-4.19921154,,,
imu,46.606761,-1.5001672224,-9.592576453600001,2.2568305144,0.55339881,0.3957662200000001,-4.057150249999999,,,
imu,46.615595,-1.5157191952,-9.575828175200002,2.228717332800001,0.5982602699999999,0.52287369,-3.7954584,,,
imu,46.62443,-1.5366545432,-9.562668813600002,2.2317080968,0.71789083,0.6350273399999997,-3.61601256,,,
imu,46.633264,-1.5390471544,-9.554892827200002,2.2293154856,0.73284465,0.7696117199999999,-3.65339711,,,
imu,46.642098,-1.5318693208,-9.541135312800002,2.225128416,0.7104139199999999,0.8967191899999998,-3.86275059,,,
imu,46.650932,-1.5390471544,-9.536948243200001,2.2065856792,0.80013684,1.0537343,-4.18425772,,,
imu,46.659766,-1.543234224,-9.520798117600002,2.201202304,0.78518302,1.23318014,-4.318842099999999,,,
imu,46.668601,-1.534261932,-9.4962738528,2.195220776,0.7104139199999999,1.23318014,-4.363703559999999,,,
imu,46.677435,-1.5360563904,-9.492086783200001,2.1856503312,0.73284465,1.14345722,-4.40108811,,,
imu,46.686269,-1.5390471544,-9.514218436800002,2.2047912208,0.85995212,1.28551851,-4.25154991,,,
imu,46.694717,-1.534261932,-9.5213962704,2.189239248,0.97210577,1.38271834,-4.06462716,,,
imu,46.703165,-1.5258877928,-9.534555632000002,2.2065856792,0.8749059399999999,1.49487199,-3.66087402,,,
imu,46.711614,-1.5205044176,-9.5632669664,2.2197450408,0.71789083,1.39019525,-3.54872037,,,
imu,46.720062,-1.5139247368,-9.589585689600002,2.225128416,0.68050628,1.33785688,-3.4216129,,,
imu,46.72851,-1.5091395144,-9.592576453600001,2.222137652,0.56835263,1.43505671,-3.3468438,,,
imu,46.736959,-1.4995690696,-9.573435564,2.2388859304,0.26179932,1.27056469,-3.2720747,,,
imu,46.745407,-1.507345056,-9.571042952800001,2.2317080968,0.04496892999999999,1.09859576,-3.30198234,,,
imu,46.753855,-1.519308112,-9.576426328,2.2412785416,0.08983038999999998,0.9714882899999999,-3.26459779,,,
imu,46.762303,-1.519308112,-9.593772759200002,2.243073,0.08235347999999998,0.8294269999999999,-3.40665908,,,
imu,46.770752,-1.5390471544,-9.5949690648,2.2472600696,0.07487657,0.6350273399999997,-3.45152054,,,
imu,46.7792,-1.5468231408,-9.5776226336,2.2502508336,0.06739966,0.8219500899999996,-3.54124346,,,
imu,46.787648,-1.5629732664,-9.5638651192,2.2466619168,0.05992275,0.8742884599999998,-3.54124346,,,
imu,46.796097,-1.5707492528,-9.552500216,2.2514471392,0.26927623,1.15093413,-3.32441307,,,
imu,46.804545,-1.5707492528,-9.5423316184,2.2508489864,0.06739966,1.23318014,-3.36179762,,,
imu,45.365626,,,,,,,79.56651880000001,-43.81777480000002,141.2312152
imu,45.467707,,,,,,,79.44444680000001,-43.53700920000001,140.7795488
imu,45.568781,,,,,,,81.95912999999999,-44.34268440000002,140.1325672
imu,45.670313,,,,,,,79.39561799999998,-43.86660360000001,141.1823864
imu,45.771906,,,,,,,82.56949,-45.11173800000001,138.5578384
imu,45.873438,,,,,,,79.82287,-44.13516200000001,141.0725216
imu,45.975214,,,,,,,79.6031404,-43.74453160000002,139.1315768
imu,46.076563,,,,,,,79.73741960000001,-43.19520760000002,141.6340528
imu,46.812993,-1.5605806552,-9.533359326400001,2.2412785416,0.26927623,1.44253362,-3.30198234,,,
imu,46.821441,-1.5647677248,-9.5219944232,2.2472600696,0.620691,1.89862513,-3.1973056,,,
imu,46.82989,-1.5504120576,-9.5154147424,2.240082236,0.65059864,2.13040934,-3.20478251,,,
imu,46.838338,-1.546224988,-9.499862769600002,2.2293154856,0.68798319,2.19770153,-3.32441307,,,
imu,46.846786,-1.5246914872,-9.4669643656,2.2173524296,0.8674290299999999,2.33228591,-3.30198234,,,
imu,46.855235,-1.5031579864,-9.457992073600002,2.249054528,0.82256757,2.40705501,-3.40665908,,,
imu,46.863683,-1.4858115552,-9.498666464000001,2.2478582224,0.81509066,2.36219355,-3.7954584,,,
imu,46.872131,-1.4935875416,-9.519601812000001,2.2293154856,0.79265993,2.26499372,-4.04967334,,,
imu,46.880579,-1.4738484992,-9.5118258256,2.2436711528,0.80761375,2.14536316,-4.0197657,,,
imu,46.889028,-1.4750448048,-9.513620284000002,2.2454656112,0.6132140899999999,1.95844041,-4.034719519999999,,,
imu,46.897491,-1.483418944,-9.5291722568,2.2616157368,0.51601426,1.86124058,-3.88518132,,,
imu,46.905955,-1.4995690696,-9.553696521600001,2.2592231256,0.53096808,1.75656384,-3.55619728,,,
imu,46.914418,-1.5037561392,-9.553696521600001,2.2502508336,0.44124516,1.68927165,-3.31693616,,,
imu,46.922882,-1.513326584,-9.548313146400002,2.2652046536,0.29170696,1.63693328,-3.0477674,,,
imu,46.931345,-1.516317348,-9.556089132800002,2.261017584,0.23189168,1.56216418,-3.00290594,,,
imu,46.939809,-1.5157191952,-9.554294674400001,2.2646065008,0.15712258,1.66684092,-2.98047521,,,
imu,46.948272,-1.5181118064,-9.539939007200001,2.2658028064,0.13469185,1.66684092,-3.1225365,,,
imu,46.956736,-1.5205044176,-9.533957479200001,2.2681954176,0.12721494,1.59954873,-3.27955161,,,
imu,46.9652,-1.5234951816,-9.5219944232,2.2658028064,0.08235347999999998,1.53973345,-3.33188998,,,
imu,46.973663,-1.5294767096,-9.507638756,2.2556342088,0.11226112,1.59207182,-3.33188998,,,
imu,46.982127,-1.5336637792,-9.4831144912,2.2532415976,0.31413769,1.71170238,-3.22721324,,,
imu,46.99059,-1.5264859456,-9.487899713600001,2.253839750400001,0.620691,1.92853277,-3.07019813,,,
imu,46.999054,-1.5300748624,-9.496872005600002,2.2424748472,0.67302937,2.07059406,-2.98795212,,,
imu,47.007517,-1.5246914872,-9.510031367200002,2.237091472,0.91229049,2.13040934,-2.86832156,,,
imu,47.015981,-1.519308112,-9.516611048000001,2.2406803888,1.16650543,2.27994754,-2.60662971,,,
imu,47.024444,-1.5097376672,-9.533957479200001,2.2394840832,1.30856672,2.48182411,-2.50195297,,,
imu,47.032908,-1.5019616808,-9.552500216,2.2412785416,1.45062801,2.65379304,-2.42718387,,,
imu,47.041371,-1.4899986248,-9.557285438400001,2.2317080968,1.45062801,2.72856214,-2.44213769,,,
imu,47.049835,-1.4852134024,-9.5489112992,2.2233339576,1.45062801,2.89305416,-2.38232241,,,
imu,47.058298,-1.4846152496,-9.541733465600002,2.2113709016,1.45062801,2.78837742,-2.56924516,,,
imu,47.066762,-1.4720540408,-9.539939007200001,2.225128416,1.34595127,2.85566961,-2.64401426,,,
imu,47.075226,-1.4672688184,-9.5381445488,2.2173524296,1.39081273,2.9229618,-2.80102937,,,
imu,47.083689,-1.456502068,-9.559678049600002,2.2275210272,1.25622835,2.9229618,-2.96552139,,,
imu,47.092153,-1.4636799016,-9.5740337168,2.225128416,1.19641307,2.99025399,-3.01785976,,,
imu,46.178294,,,,,,,79.4810684,-43.14637880000001,141.8415752
imu,46.279734,,,,,,,79.4322396,-43.0487212,141.463152
imu,46.381297,,,,,,,78.93174439999999,-42.40173960000002,141.9636472
imu,46.482859,,,,,,,78.9927804,-42.38953240000001,141.2068008
imu,46.584422,,,,,,,79.3467892,-42.69471240000002,141.5486024
imu,46.685953,,,,,,,81.4586348,-43.42714440000002,139.3024776
imu,46.787547,,,,,,,79.49327559999999,-42.90223480000002,142.0490976
imu,46.889109,,,,,,,81.7027788,-43.17079320000001,139.4367568
imu,46.990702,,,,,,,78.846294,-42.1942172,141.1457648
imu,47.092234,,,,,,,79.3101676,-42.36511800000002,139.754144
