Type,Timestamp,Data Accelerometer X,Data Accelerometer Y,Data Accelerometer Z,Data Gyroscope X,Data Gyroscope Y,Data Gyroscope Z,Data Magnetometer X,Data Magnetometer Y,Data Magnetometer Z
imu,134.13643,0.1788476872,-9.6039413568,2.2394840832,-6.39265058,-0.8753084800000002,-4.976810179999999,,,
imu,134.144895,0.143556672,-9.630858232800001,2.2622138896,-6.377696759999999,-0.6883857300000003,-4.70016451,,,
imu,134.153724,0.1507345056,-9.603343204000002,2.2687935704,-6.32535839,-0.57623208,-4.70016451,,,
imu,134.162552,0.1603049504,-9.5668558832,2.2843455432,-6.310404569999999,-0.5538013500000001,-4.70764142,,,
imu,134.171381,0.113649032,-9.578818939200001,2.3034864328,-6.190774009999999,-0.43417079,-4.70764142,,,
imu,134.18021,0.1220231712,-9.581809703200001,2.3082716552,-5.80197469,-0.1425713000000002,-4.48333412,,,
imu,134.189039,0.1082656568,-9.5907819952,2.3399737536,-5.56271357,0.06678217999999969,-4.06462716,,,
imu,134.197868,0.0861340032,-9.6075302736,2.321431016800001,-5.338406269999999,0.4555814999999996,-3.76555076,,,
imu,134.206697,0.1070693512,-9.5668558832,2.3399737536,-5.20382189,0.72475026,-3.54872037,,,
imu,134.215526,0.1088638096,-9.522592576000001,2.348347892800001,-5.054283689999999,0.9939190199999999,-3.20478251,,,
imu,134.224354,0.1202287128,-9.5172092008,2.353731268,-4.80754566,1.09859576,-3.10758268,,,
imu,134.233183,0.1303973104,-9.5184055064,2.368685088,-4.28416196,1.33785688,-3.09262886,,,
imu,134.242012,0.1423603664,-9.530368562400001,2.3782555328,-3.85050118,1.46496435,-3.06272122,,,
imu,134.250841,0.1680809368,-9.533359326400001,2.386629672,-3.52151714,1.76404075,-3.06272122,,,
imu,134.25967,0.131593616,-9.4980683112,2.409957631200001,-3.08037945,1.94348659,-2.99542903,,,
imu,134.268499,0.1692772424,-9.509433214400001,2.3950038112,-2.72896468,2.13040934,-2.91318302,,,
imu,134.277328,0.1758569232,-9.495675700000001,2.416537312,-2.28035008,2.26499372,-2.92065993,,,
imu,134.286157,0.1997830352,-9.499862769600002,2.443454188,-1.8466893,2.43696265,-3.44404363,,,
imu,134.294985,0.2195220776,-9.5154147424,2.4189299232,-1.52518217,2.59397776,-3.48142818,,,
imu,134.303814,0.1902125904,-9.502255380800001,2.4518283272,-1.09152139,2.75099287,-3.51133582,,,
imu,134.312643,0.2290925224000001,-9.534555632000002,2.449435716,-0.70272207,2.90800798,-3.60853565,,,
imu,134.321472,0.2613927736,-9.594370912,2.4416597296,-0.39616876,3.01268472,-3.51881273,,,
imu,134.330301,0.2500278704,-9.591978300800001,2.4560153968,0.0001074699999999984,3.23699202,-3.16739796,,,
imu,134.33913,0.2835244272,-9.529770409600001,2.4530246328,0.26179932,3.41643786,-2.92065993,,,
imu,134.347959,0.3379563320000001,-9.5184055064,2.4362763544,0.68050628,3.22951511,-2.9729983,,,
imu,134.356425,0.3469286240000001,-9.526181492800001,2.404574256,0.8823828499999999,3.00520781,-3.18235178,,,
imu,134.364891,0.3576953744,-9.483712644000002,2.420126228800001,1.2188438,2.81828506,-3.39170526,,,
imu,134.373357,0.3559009160000001,-9.4346641144,2.413546548,1.70484295,2.65379304,-3.52628964,,,
imu,134.381823,0.3630787496,-9.507040603200002,2.3800499912,2.2656112,2.25751681,-3.73564312,,,
imu,134.390289,0.3876030144000001,-9.5237888816,2.3920130472,2.78151799,1.92105586,-3.77302767,,,
imu,134.398755,0.3630787496,-9.486703408,2.4051724088,3.20770186,1.69674856,-3.7954584,,,
imu,134.407221,0.3714528888,-9.510031367200002,2.3944056584,3.66379337,1.2032725,-3.90013514,,,
imu,134.415687,0.3367600264,-9.5740337168,2.3740684632,4.04511578,0.9041961000000001,-3.76555076,,,
imu,134.424153,0.331974804,-9.606932120800002,2.348347892800001,4.23951544,0.4854891399999999,-3.7954584,,,
imu,134.432619,0.3062542336,-9.575230022400001,2.362105407200001,4.44139201,0.2910894799999997,-3.72816621,,,
imu,134.441086,0.290104108,-9.5842023144,2.353731268,4.60588403,0.08173599999999981,-3.74312003,,,
imu,134.449552,0.2769447464000001,-9.610521037600002,2.3393756008,4.822714420000001,-0.1051867500000001,-3.5711511,,,
imu,134.458018,0.2428500368,-9.651195428000001,2.3202347112,4.94234498,-0.1051867500000001,-3.52628964,,,
imu,134.466484,0.2225128416,-9.669140012000002,2.3022901272,4.92739116,-0.05284837999999992,-3.59358183,,,
imu,134.47495,0.2105497856,-9.652989886400002,2.299897516,4.91991425,0.06678217999999969,-3.54124346,,,
imu,134.483416,0.218325772,-9.678112304,2.2945141408,4.8825297,0.19388965,-3.36927453,,,
imu,134.491882,0.2129423968,-9.671532623200001,2.2957104464,4.72551459,0.2686587499999997,-3.65339711,,,
imu,134.500348,0.1650901728,-9.671532623200001,2.2771677096,4.39653055,0.1714589200000001,-3.98985806,,,
imu,134.508814,0.1716698536,-9.652989886400002,2.246063764000001,4.29933072,0.4331507699999997,-3.98238115,,,
imu,134.51728,0.1848292152,-9.6799067624,2.2119690544,4.25446926,0.5901658799999998,-3.91508896,,,
imu,134.525746,0.2476352592,-9.769031529600001,2.2681954176,4.10493106,0.8518577299999999,-3.98985806,,,
imu,134.534212,0.1303973104,-9.654784344800001,2.1120775368,3.81333157,0.94905756,-3.87770441,,,
imu,134.542679,0.1543234224,-9.632054538400002,2.1826595672,3.67874719,1.18084177,-3.93751969,,,
imu,134.551145,0.1890162848,-9.633848996800001,2.1389944128,3.73856247,1.5023489,-3.9449966,,,
imu,134.559607,0.1967922712,-9.672130776000001,2.1485648576,4.00025432,1.75656384,-3.60853565,,,
imu,134.568069,0.1955959656,-9.6918698184,2.12344244,3.925485220000001,1.75656384,-3.61601256,,,
imu,134.576531,0.2075590216,-9.675719692800001,2.1078904672,3.79090084,1.89114822,-3.6459202,,,
imu,134.584994,0.2099516328,-9.703234721600001,2.1138719952,3.87314685,1.97339423,-3.75807385,,,
imu,134.593456,0.2237091472,-9.755274015200001,2.0702068408,3.61893191,1.92853277,-3.66835093,,,
imu,134.601918,0.2015774936,-9.591380148,2.0678142296,3.34976315,1.86124058,-3.63844329,,,
imu,134.610381,0.2147368552,-9.580613397600002,2.106694161600001,3.60397809,1.98087114,-3.70573548,,,
imu,134.618843,0.1949978128,-9.6876827488,2.075590216,3.95539286,1.98087114,-3.23469015,,,
imu,134.627305,0.212344244,-9.647606511200001,2.1001144808,3.85819303,2.00330187,-2.99542903,,,
imu,134.635767,0.2027737992,-9.626671163200001,2.0941329528,3.84323921,2.15284007,-2.95056757,,,
imu,134.64423,0.2135405496,-9.609324732000001,2.0941329528,3.86566994,2.19022462,-2.9729983,,,
imu,134.652692,0.1896144376,-9.605735815200001,2.0648234656,4.03763887,2.22760917,-3.13749032,,,
imu,134.661154,0.2189239248,-9.5949690648,2.0731976048,4.27689999,2.27994754,-3.11505959,,,
imu,134.669616,0.2314851336,-9.640428677600001,2.054654868000001,4.41148437,2.31733209,-3.4216129,,,
imu,134.678079,0.1830347568,-9.599156134400001,2.069608688,4.52363802,2.24256299,-3.78050458,,,
imu,134.686541,0.2057645632,-9.597361676,2.0522622568,4.68065313,2.22760917,-4.034719519999999,,,
imu,134.695003,0.1938015072,-9.565061424800001,2.0773846744,5.14422155,2.42948574,-3.88518132,,,
imu,134.703466,0.173464312,-9.565061424800001,2.0731976048,5.4806825,2.66126995,-3.98985806,,,
imu,134.711928,0.1920070488,-9.612913648800001,2.0534585624,5.76480508,2.75846978,-4.169303899999999,,,
imu,134.72039,0.2009793408,-9.632054538400002,2.0881514248,5.95920474,2.75099287,-4.22164227,,,
imu,134.728852,0.2087553272,-9.568650341600001,2.069608688,6.26575805,3.05754618,-4.04967334,,,
imu,134.737315,0.2045682576000001,-9.557285438400001,2.054654868000001,6.64708046,3.21456129,-4.04219643,,,
imu,134.745777,0.2524204816,-9.593174606400002,2.0474770344,7.23027944,3.28933039,-3.86275059,,,
imu,134.754239,0.2619909264,-9.592576453600001,2.0444862704,7.70132477,3.38653022,-3.63096638,,,
imu,134.762783,0.236270356,-9.620091482400001,2.0714031464,7.80600151,3.31176112,-3.75059694,,,
imu,134.771326,0.242251884,-9.7427128064,2.054654868000001,8.0228319,3.36409949,-3.62348947,,,
imu,134.77987,0.2595983152,-9.718188541600002,2.051664104,8.00040117,3.49868387,-3.39918217,,,
imu,134.788414,0.2829262744000001,-9.714001472000001,2.012784172,7.94058589,3.63326825,-3.5711511,,,
imu,134.796957,0.281131816,-9.6703363176,1.9792876152,8.037785719999999,3.69308353,-3.81788913,,,
imu,134.805501,0.2703650656,-9.6224840936,1.9751005456,8.05273954,3.5958837,-3.74312003,,,
imu,134.814045,0.2978800944000001,-9.689477207200001,1.9248557104,8.0228319,3.50616078,-3.70573548,,,
imu,134.822588,0.281131816,-9.709814402400001,1.9463892112,8.26956993,3.50616078,-3.90013514,,,
imu,134.831132,0.2907022608000001,-9.7540777096,1.961941184,7.99292426,3.28933039,-4.034719519999999,,,
imu,134.839676,0.3188154424,-9.800733628000001,1.9541651976,7.888247519999999,2.99025399,-4.13191935,,,
imu,134.848219,0.2883096496000001,-9.858754449600001,1.9751005456,7.85086297,2.93043871,-4.17678081,,,
imu,134.856763,0.3074505392,-9.934121702400002,1.985867296,7.5742173,2.83323888,-4.408565019999999,,,
imu,134.865241,0.3206099008000001,-9.906008520800002,1.985867296,7.26018708,2.74351596,-4.244073,,,
imu,134.873785,0.3068523864000001,-9.916177118400002,1.9840728376,6.88634158,2.60145467,-4.13191935,,,
imu,134.882329,0.2948893304,-9.901821451200002,1.9601467256,6.78914175,2.51173175,-4.00481188,,,
imu,134.890872,0.3002727056,-9.8820824088,1.9745023928,6.78166484,2.30985518,-3.90013514,,,
imu,134.899416,0.2859170384,-9.837819101600003,1.95895042,6.64708046,2.16031698,-3.84779677,,,
imu,134.90796,0.2996745528,-9.849184004800001,1.9398095304,6.66203428,2.05564024,-3.47395127,,,
imu,134.916503,0.281131816,-9.882680561600003,1.908107432,6.85643394,1.86871749,-3.27955161,,,
imu,134.925047,0.2554112456,-9.8132948368,1.908107432,6.69941883,1.59207182,-3.43656672,,,
imu,134.933591,0.2368685088,-9.7331423616,1.9057148208,6.57231136,1.44253362,-3.45152054,,,
imu,134.942134,0.236270356,-9.768433376800001,1.875209028,6.8265263,1.33785688,-3.31693616,,,
imu,134.950678,0.2266999112,-9.764246307200002,1.8644422776,6.96858759,1.34533379,-3.01785976,,,
imu,134.959222,0.2410555784,-9.631456385600002,1.88418132,6.79661866,1.16588795,-2.94309066,,,
imu,134.967679,0.2111479384,-9.605735815200001,1.8381235544,6.73680338,1.07616503,-3.02533667,,,
imu,134.976136,0.2009793408,-9.603343204000002,1.8016362336,6.96858759,1.10607267,-3.07767504,,,
imu,134.984593,0.2087553272,-9.583604161600002,1.8058233032,6.91624922,1.0537343,-3.09262886,,,
imu,134.99305,0.1848292152,-9.535153784800002,1.791467636,7.02840287,1.10607267,-2.95804448,,,
imu,135.001508,0.2051664104,-9.558481744000002,1.7633544544,7.07326433,1.14345722,-2.85336774,,,
imu,135.009965,0.1788476872,-9.594370912,1.7005484104,6.93120304,1.06121121,-2.84589083,,,
imu,135.018422,0.1351825328,-9.5842023144,1.6790149096,6.94615686,0.94905756,-2.5243837,,,
imu,135.026879,0.2111479384,-9.5842023144,1.6592758672,6.72932647,1.21074941,-2.12810747,,,
imu,135.035336,0.1393696024,-9.685290137600001,1.6503035752,6.60969591,1.52477963,-1.76173888,,,
imu,135.043793,0.167482784,-9.745703570400002,1.665855548,6.20594277,1.60702564,-1.47013939,,,
imu,135.052251,0.2243073,-9.8061170032,1.6257793104,5.54797469,1.60702564,-1.05890934,,,
imu,135.060708,0.1997830352,-9.806715156000001,1.6251811576,4.65074549,1.73413311,-1.22340136,,,
imu,135.069165,0.1949978128,-9.812696684000002,1.6066384208,3.85819303,1.86871749,-1.29817046,,,
imu,135.077622,0.2027737992,-9.861147060800002,1.5958716704,3.22265568,2.19770153,-1.04395552,,,
imu,135.086079,0.2793373576,-9.880886103200002,1.5868993784,2.3403803,2.324809,-0.9318018699999999,,,
imu,135.094537,0.2566075512,-9.918569729600001,1.6168070184,1.54035093,2.55659321,-0.6701100199999999,,,
imu,135.102994,0.2494297176,-9.9688145648,1.6317608384,0.7702292,2.72856214,-0.66263311,,,
imu,135.111451,0.3241988176,-9.993936982400001,1.6311626856,-0.20924601,2.86314652,-0.71497148,,,
imu,135.119908,0.2476352592,-10.016068636,1.6174051712,-0.9943215599999999,2.84071579,-0.7598329399999999,,,
imu,135.128365,0.320011748,-9.9586459672,1.612021796,-1.65976655,3.01268472,-0.62524856,,,
imu,135.136822,0.3469286240000001,-9.918569729600001,1.6514998808,-2.24296553,3.46129932,-0.3411259799999999,,,
imu,135.14528,0.3080486920000001,-9.947879216800002,1.6467146584,-2.60185721,3.73794499,-0.11681868,,,
imu,135.153737,0.3146283728000001,-9.996329593600002,1.6550887976,-2.99065653,3.98468302,0.2869344599999999,,,
imu,135.162194,0.3594898328000001,-9.931130938400003,1.6467146584,-3.40188658,4.33609779,0.7131183299999999,,,
imu,135.170641,0.4420349192,-9.855763685600001,1.6550887976,-3.70843989,4.8669584,0.87013344,,,
imu,135.179088,0.4127254320000001,-9.803126239200001,1.6532943392,-3.81311663,5.08378879,0.8252719800000001,,,
imu,135.187535,0.3959771536000001,-9.759461084800002,1.65987402,-3.99256247,5.263234629999999,0.5411494000000001,,,
imu,135.195982,0.4623721144,-9.798341016800002,1.6664537008,-3.89536264,5.352957549999999,0.2570268200000001,,,
imu,135.204429,0.4839056152000001,-9.758264779200001,1.6544906448,-3.87293191,5.36791137,-0.14672632,,,
imu,135.212876,0.4857000736000001,-9.6733270816,1.6772204512,-4.1645314,5.22585008,-0.8046943999999998,,,
imu,135.221323,0.5461135064000001,-9.612315496,1.6610703256,-4.05985466,5.09874261,-1.32060119,,,
imu,135.22977,0.5616654792000001,-9.593772759200002,1.6526961864,-3.58133242,4.99406587,-1.72435433,,,
imu,135.238217,0.5616654792000001,-9.636839760800001,1.6514998808,-3.17757928,4.73237402,-2.05333837,,,
imu,135.246664,0.5467116592000001,-9.6535880392,1.6832019792,-2.8934567,4.53797436,-2.21035348,,,
imu,135.255111,0.5981528,-9.630260080000001,1.7083243968,-2.69905704,4.16412886,-2.60662971,,,
imu,135.263558,0.5742266880000001,-9.636839760800001,1.7161003832,-2.67662631,3.820191,-2.93561375,,,
imu,134.136492,,,,,,,58.80207159999999,-11.04144280000001,30.7926768
imu,134.238726,,,,,,,58.24054039999999,-10.63860520000002,29.8649296
imu,134.339556,,,,,,,60.21810680000002,-11.480902,29.21794799999999
imu,134.441302,,,,,,,58.41144120000001,-10.37004680000002,30.1090736
imu,134.542742,,,,,,,61.07261080000001,-11.23675800000001,27.1915528
imu,135.272005,0.571235924,-9.5907819952,1.76455076,-2.50465738,3.43139168,-3.07019813,,,
imu,135.280452,0.5814045216000001,-9.658971414400002,1.7454098704,-2.46727283,3.05754618,-2.99542903,,,
imu,135.288899,0.5419264368000001,-9.675719692800001,1.74959694,-2.48970356,2.52668557,-2.92813684,,,
imu,135.297346,0.5317578392000001,-9.6075302736,1.7938602472,-2.56447266,2.13040934,-3.03281358,,,
imu,135.305793,0.517402172,-9.611119190400002,1.8106085256,-2.49718047,1.83133294,-3.15244414,,,
imu,135.31424,0.490485296,-9.694860582400002,1.8165900536,-2.5196112,1.49487199,-3.18982869,,,
imu,135.322687,0.4629702672000001,-9.696056888000001,1.8369272488,-2.49718047,1.43505671,-3.1973056,,,
imu,135.331134,0.4486146000000001,-9.672130776000001,1.8506847632,-2.60933412,1.33037997,-3.32441307,,,
imu,135.339581,0.4294737104000001,-9.680504915200002,1.8447032352,-2.52708811,1.34533379,-3.38422835,,,
imu,135.348028,0.391790084,-9.703832874400002,1.8680311944,-2.53456502,1.41262598,-3.23469015,,,
imu,135.356475,0.4468201416000001,-9.786976113600002,1.8793960976,-2.42988828,1.48739508,-3.10758268,,,
imu,135.364922,0.4210995712,-9.768433376800001,1.9093037376,-2.38502682,1.62945637,-3.1973056,,,
imu,135.373682,0.3977716120000001,-9.792957641600001,1.920070488,-2.370073,1.9509635,-3.15244414,,,
imu,135.382442,0.3780325696000001,-9.863539672000002,1.9302390856,-2.43736519,2.27994754,-2.96552139,,,
imu,135.391202,0.391790084,-9.837220948800002,1.9804839208,-2.8186876,2.54163939,-2.83841392,,,
imu,135.399962,0.4294737104000001,-9.768433376800001,1.9792876152,-3.11028709,2.86314652,-2.94309066,,,
imu,135.408722,0.3947808480000001,-9.810304072800001,1.961941184,-3.23739456,2.96034635,-3.05524431,,,
imu,135.417482,0.4300718632,-9.763050001600002,1.9631374896,-3.50656332,3.11736146,-3.48890509,,,
imu,135.426241,0.4085383624000001,-9.661364025600001,1.994839588,-3.66357843,3.32671494,-3.73564312,,,
imu,135.435001,0.4139217376000001,-9.662560331200002,2.004410032800001,-3.70843989,3.5211146,-3.98985806,,,
imu,135.443761,0.4360533912000001,-9.6458120528,1.9762968512,-3.6411477,3.7454219,-4.0945348,,,
imu,135.452521,0.4605776560000001,-9.645213900000002,1.9906525184,-3.476655679999999,3.81271409,-4.19921154,,,
imu,135.461281,0.3852104032000001,-9.651793580800001,1.9942414352,-3.15514855,3.86505246,-4.28145755,,,
imu,135.470041,0.3971734592000001,-9.682897526400001,1.9870636016,-2.8934567,4.02954448,-4.19921154,,,
imu,135.478801,0.4133235848,-9.744507264800001,1.9643337952,-2.6691494,4.26132869,-4.17678081,,,
imu,135.487561,0.4019586816,-9.680504915200002,2.0438881176,-2.6691494,4.51554363,-4.22164227,,,
imu,135.49632,0.3517138464,-9.752283251200002,2.0181675472,-2.57194957,4.63517419,-4.4683803,,,
imu,135.50508,0.3295821928000001,-9.7786019744,1.98885806,-2.5943803,4.89686604,-4.49081103,,,
imu,135.51384,0.3457323184,-9.696655040800001,2.0062044912,-2.8186876,5.30061918,-4.46090339,,,
imu,135.5226,0.3840140976,-9.7331423616,1.979885768,-2.87850288,5.7641876,-4.363703559999999,,,
imu,135.53136,0.3247969704000001,-9.725366375200002,1.9816802264,-2.95327198,5.988494899999999,-4.68521069,,,
imu,135.54012,0.3212080536,-9.706823638400001,1.9972321992,-2.87102597,6.36981731,-4.68521069,,,
imu,135.54888,0.2745521352,-9.746899876,1.9607448784,-2.84859524,6.87077028,-4.64034923,,,
imu,135.557639,0.2434481896,-9.748694334400001,1.9625393368,-2.9682258,7.528738359999999,-4.94690254,,,
imu,135.566399,0.2560093984,-9.724170069600001,1.979885768,-2.83364142,8.044645150000001,-5.25345585,,,
imu,135.574888,0.2356722032,-9.788770572,1.9816802264,-2.91588743,8.732520869999998,-5.18616366,,,
imu,135.583377,0.1638938672,-9.831837573600001,2.0056063384,-3.22991765,9.27085839,-5.41047096,,,
imu,135.591866,0.1507345056,-9.855763685600001,2.0121860192,-3.7159168,10.15313377,-5.761885729999999,,,
imu,135.600355,0.1453511304,-9.835426490400001,2.0480751872,-4.418746339999999,11.33448555,-5.79927028,,,
imu,135.608844,0.131593616,-9.878493492,2.0743939104,-5.18139116,12.35882222,-5.90394702,,,
imu,135.617333,0.07177833600000001,-9.925747563200002,2.0797772856,-6.123481819999999,13.43549726,-6.24040797,,,
imu,135.625822,-0.0592171272,-9.934121702400002,2.084562508,-7.394556519999999,14.82620252,-6.5619151,,,
imu,135.634311,-0.11963056,-9.946084758400001,2.1270313568,-8.71049268,16.56084564,-7.122683349999999,,,
imu,135.6428,-0.2338777448,-9.953860744800002,2.1306202736,-10.1460594,18.6244728,-7.541390310000001,,,
imu,135.651289,-0.3134320672,-9.9514681336,2.150359316,-11.73116432,21.18905293,-8.25917367,,,
imu,135.659778,-0.4318663216,-9.853371074400002,2.1342091904,-13.19663868,24.17234002,-9.1040645,,,
imu,135.668267,-0.4001642232,-9.8330338792,2.1551445384,-14.47519029,27.26778076,-10.09849353,,,
imu,135.676756,-0.3301803456000001,-9.852174768800001,2.1437796352,-15.43971168,30.58005189,-10.85366144,,,
imu,135.685245,-0.361882444,-9.7911631832,2.1569389968,-16.44909453,33.55586207,-11.62378317,,,
imu,135.693734,-0.242251884,-9.7074217912,2.1856503312,-17.12949334,36.35970331999999,-12.49110473,,,
imu,135.702223,-0.1333880744,-9.685290137600001,2.2107727488,-17.73512305,38.93176036,-13.02944225,,,
imu,135.710712,-0.0382817792,-9.700243957600001,2.2586249728,-17.96690726,41.12997189999999,-13.11916517,,,
imu,135.719201,0.0861340032,-9.6667474008,2.3004956688,-18.34075276,42.98424558,-13.12664208,,,
imu,135.72769,0.143556672,-9.599754287200001,2.3154494888,-18.51272169,44.21793572999999,-12.83504259,,,
imu,135.736179,0.2404574256,-9.578220786400001,2.3734703104,-18.46038332,44.943196,-12.6929813,,,
imu,135.744668,0.3822196392,-9.5501076048,2.3991908808,-18.05663018,45.71331773,-12.1695976,,,
imu,135.753157,0.4390441552000001,-9.453805004000001,2.3991908808,-17.63044631,45.95257884999999,-11.9452903,,,
imu,135.761646,0.5407301312,-9.3652783896,2.42251884,-17.01733969,45.51144116,-11.97519794,,,
imu,135.770135,0.6005454112,-9.2719665528,2.450632021600001,-15.96309538,44.71141179,-11.75836755,,,
imu,135.778587,0.7303445688000001,-9.245049676800003,2.4775488976,-14.73688214,43.46276782,-11.6462139,,,
imu,135.787039,0.7793930984000002,-9.250433052000002,2.483530425600001,-13.40599216,41.95990891,-11.29479913,,,
imu,135.795491,0.8332268504000001,-9.1894214664,2.4984842456,-12.03771763,40.17292741999999,-10.91347672,,,
imu,135.803943,0.8667234072000001,-9.152934145600002,2.5523179976,-10.55728945,38.11677717,-10.71160015,,,
imu,135.812395,0.8463862120000001,-9.1930103832,2.5654773592,-8.76283105,36.06062692,-10.21812409,,,
imu,135.820847,0.7859727792000001,-9.221721717600001,2.5577013728,-7.304833599999999,34.15401487,-9.35080253,,,
imu,135.829299,0.8104970440000001,-9.2103568144,2.5696644288,-6.07862036,32.38946411,-8.49843479,,,
imu,135.837751,0.8984255056000002,-9.216338342400002,2.581029332,-4.889791669999999,30.62491335,-8.00495873,,,
imu,135.846204,0.8104970440000001,-9.231890315200001,2.6007683744,-3.94770101,28.6435322,-7.870374350000001,,,
imu,135.854656,0.7955432240000001,-9.2617979552,2.5935905408,-3.18505619,26.50513594,-7.952620359999999,,,
imu,135.863108,0.8499751288000001,-9.2899111368,2.6187129584,-2.4448421,24.41160114,-7.735789969999999,,,
imu,135.87156,0.7578595976000001,-9.3006778872,2.624694486400001,-1.90650458,22.45265072,-7.578774859999999,,,
imu,135.880012,0.7279519576000001,-9.4077472384,2.606749902400001,-1.26349032,20.68809996,-7.6086825,,,
imu,135.888464,0.7369242496000001,-9.422701058400001,2.58701086,-0.73262971,19.08056431,-7.39185211,,,
imu,135.896916,0.6699311360000001,-9.398774946400001,2.5911979296,-0.26158438,17.62256686,-6.943237509999999,,,
imu,135.905368,0.7165870544000001,-9.4005694048,2.5792348736,0.35152224,16.18700014,-6.464715269999999,,,
imu,135.91382,0.6741182056000001,-9.475936657600002,2.58701086,1.02444414,15.02060218,-5.8889932,,,
imu,135.922272,0.6920627896000001,-9.551902063200002,2.580431179200001,1.43567419,13.81681967,-5.500193879999999,,,
imu,135.930725,0.6711274416,-9.527975951200002,2.5744496512,1.84690424,12.62051407,-5.11139456,,,
imu,135.939177,0.6388271904000001,-9.5219944232,2.5606921368,2.28804193,11.54383903,-4.79736434,,,
imu,135.947629,0.6896701784000001,-9.582407856000001,2.545738316800001,2.65441052,10.54941,-4.4683803,,,
imu,135.955989,0.7189796656000002,-9.595567217600001,2.536167872,2.81142563,9.577411699999999,-4.29641137,,,
imu,135.964441,0.6866794144,-9.585398620000001,2.5218122048,3.09554821,8.44839829,-4.3936112,,,
imu,135.972893,0.6914646368,-9.614109954400002,2.5098491488,3.13293276,7.22966196,-4.55810322,,,
imu,135.981356,0.6376308848000001,-9.595567217600001,2.491306412,3.26751714,6.32495585,-4.56558013,,,
imu,135.989818,0.6609588440000002,-9.594370912,2.491306412,3.26751714,5.4651112,-4.670256869999999,,,
imu,135.99828,0.6143029256000001,-9.630858232800001,2.4895119536,3.22265568,4.72489711,-4.647826139999999,,,
imu,136.006743,0.6501920936000001,-9.6817012208,2.473959980800001,3.2376095,4.07440594,-4.29641137,,,
imu,136.015205,0.5891805080000001,-9.693664276800002,2.4781470504,3.02825602,3.46129932,-3.8702275,,,
imu,136.023667,0.6023398696000001,-9.680504915200002,2.4691747584,2.96844074,2.94539253,-3.51133582,,,
imu,136.032129,0.5849934384000001,-9.6942624296,2.4566135496,2.93105619,2.60145467,-3.21973633,,,
imu,136.040592,0.5568802568000001,-9.671532623200001,2.449435716,2.65441052,2.27247063,-3.48142818,,,
imu,136.049054,0.5275707696,-9.640428677600001,2.4350800488,2.4899185,1.98834805,-3.77302767,,,
imu,136.057516,0.5227855472,-9.630260080000001,2.4153410064,2.34785721,1.74161002,-4.079580979999999,,,
imu,136.065978,0.4456238360000001,-9.655382497600002,2.4057705616,2.37776485,1.68179474,-4.43847266,,,
imu,136.074441,0.4432312248,-9.644615747200001,2.386629672,2.31047266,1.94348659,-4.759979789999999,,,
imu,136.082903,0.3935845424,-9.612913648800001,2.396798269600001,2.116073,2.36967046,-5.05157928,,,
imu,134.644258,,,,,,,58.0452252,-10.94378520000001,30.82929839999999
imu,134.745759,,,,,,,57.971982,-11.88373960000002,28.3512368
imu,134.847352,,,,,,,58.32599080000001,-11.40765880000001,29.6452
imu,134.948945,,,,,,,58.24054039999999,-10.90716360000001,31.14668559999999
imu,135.050477,,,,,,,58.97297240000001,-12.05464040000002,31.1955144
imu,135.151978,,,,,,,58.1917116,-12.20112680000001,31.5495232
imu,135.253602,,,,,,,58.52130600000001,-11.480902,30.7682624
imu,135.356385,,,,,,,58.7288284,-10.65081240000001,31.13447839999999
imu,136.091365,0.382817792,-9.591978300800001,2.4177336176,1.99644244,2.51920866,-5.283363489999999,,,
imu,136.099828,0.3457323184,-9.596165370400001,2.3962001168,1.98896553,2.84071579,-5.56000916,,,
imu,136.10829,0.3415452488,-9.595567217600001,2.4069668672,2.10859609,3.15474601,-5.634778259999999,,,
imu,136.116752,0.3505175408000001,-9.5704448,2.3920130472,2.30299575,3.5211146,-5.79179337,,,
imu,136.125214,0.3487230824000001,-9.562668813600002,2.4081631728,2.31794957,3.820191,-5.8889932,,,
imu,136.133677,0.3672658192000001,-9.5698466472,2.4033779504,2.5646876,4.06692903,-5.851608649999999,,,
imu,136.142139,0.385808556,-9.593174606400002,2.380648144,2.78151799,4.35105161,-5.634778259999999,,,
imu,136.150601,0.3995660704000001,-9.5501076048,2.4069668672,2.89367164,4.2688056,-5.477763149999999,,,
imu,136.159063,0.3887993200000001,-9.536350090400001,2.3979945752,2.9385331,4.15665195,-5.24597894,,,
imu,136.167526,0.3882011672000001,-9.554892827200002,2.3902185888,3.0880713,3.93982156,-4.931948719999999,,,
imu,136.175988,0.4354552384000001,-9.568052188800001,2.3914148944,3.02077911,3.65569898,-4.363703559999999,,,
imu,136.184834,0.3929863896,-9.536350090400001,2.4033779504,2.90862546,3.35662258,-4.06462716,,,
imu,136.19368,0.4085383624000001,-9.546518688,2.3902185888,2.93105619,3.11736146,-3.85527368,,,
imu,136.202526,0.4115291264,-9.546518688,2.4009853392,2.84881018,2.82576197,-3.58610492,,,
imu,136.211372,0.4300718632,-9.578220786400001,2.4033779504,2.97591765,2.6238854,-3.03281358,,,
imu,136.220219,0.4222958768,-9.5381445488,2.3920130472,2.99087147,2.19770153,-2.5243837,,,
imu,136.229065,0.4360533912000001,-9.5501076048,2.409957631200001,3.15536349,1.89114822,-2.27016876,,,
imu,136.237911,0.4569887392,-9.597361676,2.3938075056,3.3123786,1.67431783,-1.83650798,,,
imu,136.246757,0.4851019208000001,-9.559678049600002,2.4003871864,3.34228624,1.34533379,-1.50004703,,,
imu,136.255603,0.4868963792000001,-9.551303910400001,2.420126228800001,3.45443989,0.9191499199999997,-1.38041647,,,
imu,136.264449,0.4862982264000001,-9.594370912,2.4153410064,3.731085559999999,0.4630584099999999,-1.23835518,,,
imu,136.273295,0.5814045216000001,-9.617698871200002,2.419528076,3.9105314,0.08921290999999965,-1.17106299,,,
imu,136.282141,0.5993491056000001,-9.617100718400001,2.4356782016,4.24699235,-0.4266938800000002,-1.23087827,,,
imu,136.290987,0.6089195504,-9.5877912312,2.437472660000001,4.31428454,-1.15195415,-1.39537029,,,
imu,136.299834,0.6591643856000001,-9.593174606400002,2.434481896,4.55354566,-1.83982987,-1.37293956,,,
imu,136.30868,0.7554669864000001,-9.6015487456,2.4350800488,4.85262206,-2.67724379,-1.14863226,,,
imu,136.317526,0.7907580016000001,-9.562070660800002,2.4350800488,5.06197554,-3.70905737,-0.9841402399999999,,,
imu,136.326372,0.8015247520000001,-9.4980683112,2.4057705616,5.49563632,-5.032470440000001,-1.08134007,,,
imu,136.335218,0.8421991424,-9.481918185600001,2.3884241304,6.04892766,-6.40074497,-1.17106299,,,
imu,136.344064,0.8685178656000001,-9.5082369088,2.3561238792,6.74428029,-7.90360388,-0.85703277,,,
imu,136.35291,0.9211553120000001,-9.440645642400002,2.362105407200001,7.19289489,-9.65320082,-0.7598329399999999,,,
imu,136.361756,0.8756956992000001,-9.409541696800002,2.3459552816,7.85086297,-11.41775158,-0.8794635,,,
imu,136.370603,0.8894532136000001,-9.4490197816,2.2885326128,8.710707619999999,-13.24959453,-0.71497148,,,
imu,136.379449,0.9062014920000001,-9.440645642400002,2.266999112000001,9.376152609999998,-14.97676074,-0.4757103599999999,,,
imu,136.387901,0.8948365888000002,-9.415523224800001,2.2837473904,9.95187468,-16.74878841,-0.3635567099999999,,,
imu,136.396353,0.8350213088000001,-9.4526086984,2.2981030576,10.52011984,-18.52829299,-0.25887997,,,
imu,136.404805,0.76264482,-9.530966715200002,2.2915233768,11.06593427,-20.11339791,0.0177657,,,
imu,136.413257,0.7261574992000001,-9.569248494400002,2.2592231256,11.33510303,-21.45924171,0.6981645100000002,,,
imu,136.421709,0.7016332344,-9.5357519376,2.255036056,11.43230286,-22.43124001,1.2140713,,,
imu,136.430161,0.6232752176,-9.5082369088,2.2394840832,11.74633308,-23.41071522,1.52810152,,,
imu,136.438613,0.5855915912,-9.5566872856,2.2173524296,12.1351324,-24.07616021,1.96923921,,,
imu,136.447065,0.5287670752,-9.6009505928,2.2018004568,12.29962442,-24.63692846,2.29822325,,,
imu,136.455518,0.4886908376000001,-9.623082246400001,2.189239248,12.53888554,-24.89862031,2.44028454,,,
imu,136.46397,0.4528016696000001,-9.6039413568,2.174285428,12.67346992,-25.00329705,2.46271527,,,
imu,136.472422,0.4372496968000001,-9.606333968000001,2.1641168304,12.83048503,-24.73412829,2.485146,,,
imu,136.480874,0.3935845424,-9.612913648800001,2.1425833296,12.90525413,-24.4425288,2.21597724,,,
imu,136.489326,0.3564990688,-9.630858232800001,2.0989181752,12.86786958,-24.02382184,1.80474719,,,
imu,136.497778,0.3582935272000001,-9.672130776000001,2.0929366472,13.00993087,-23.5452996,1.43090169,,,
imu,136.50623,0.385808556,-9.672130776000001,2.0809735912,13.1071307,-22.87985461,1.15425602,,,
imu,136.514682,0.382817792,-9.680504915200002,2.0594400904,13.15946907,-22.1246867,0.6159185000000003,,,
imu,136.523134,0.3636769024000001,-9.6942624296,2.0492714928,13.06974615,-21.47419553,0.1673038999999998,,,
imu,136.531586,0.3816214864,-9.690673512800002,2.0642253128,13.13703834,-20.90595037,-0.04952648999999987,,,
imu,136.540038,0.3744436528,-9.731347903200001,2.0708049936,12.92020795,-20.41995122,-0.5654332799999999,,,
imu,136.548491,0.3786307224000001,-9.756470320800002,2.057645632,12.68842374,-19.85170606,-1.0290017,,,
imu,136.556943,0.3523119992,-9.743909112,2.0522622568,12.32953206,-19.16383034,-1.33555501,,,
imu,136.565395,0.3505175408000001,-9.717590388800001,2.0253453808,12.0603633,-18.58810827,-1.45518557,,,
imu,136.573847,0.3445360128,-9.734338667200001,1.9984285048,11.71642544,-18.00490929,-1.82155416,,,
imu,136.582299,0.3499193880000001,-9.779798280000001,1.9942414352,11.57436415,-17.29460284,-2.05333837,,,
imu,136.59076,0.2930948720000001,-9.748096181600001,2.0737957576,11.08088809,-16.82355751,-2.24026112,,,
imu,136.599221,0.3774344168000001,-9.716992236000001,1.8458995408,10.4902122,-16.38241982,-2.60662971,,,
imu,136.607682,0.3834159448,-9.776209363200001,1.8943499176,10.61731967,-15.82165157,-2.95804448,,,
imu,136.616143,0.3080486920000001,-9.752283251200002,1.9445947528,10.18365889,-15.44780607,-3.36927453,,,
imu,136.624604,0.3283858872000001,-9.720581152800001,1.842310624,10.17618198,-14.78236108,-3.71321239,,,
imu,136.633065,0.2889078024000001,-9.758264779200001,1.8793960976,9.936920859999999,-14.22159283,-3.81041222,,,
imu,136.641526,0.3864067088000001,-9.7911631832,1.7507932456,9.60045991,-13.65334767,-3.95247351,,,
imu,136.649987,0.3224043592,-9.8144911424,1.8237678872,9.57802918,-13.14491779,-4.102011709999999,,,
imu,136.658448,0.2883096496000001,-9.785779808000001,1.7872805664,9.151845309999999,-12.86079521,-4.21416536,,,
imu,136.666909,0.3726491944000001,-9.742114653600002,1.6951650352,9.03221475,-12.21778095,-4.02724261,,,
imu,136.67537,0.2763465936,-9.6799067624,1.7980473168,8.807907449999998,-12.01590438,-3.78798149,,,
imu,136.683831,0.3188154424,-9.766040765600001,1.7454098704,8.852768909999998,-11.5822436,-3.72816621,,,
imu,136.692292,0.3218062064,-9.832435726400002,1.6491072696,8.777999809999999,-10.9093217,-3.43656672,,,
imu,136.700753,0.3325729568,-9.800135475200001,1.6760241456,8.449015769999999,-10.49061474,-3.21973633,,,
imu,136.709214,0.3002727056,-9.798341016800002,1.6861927432,7.7985246,-10.34855345,-3.28702852,,,
imu,136.717675,0.311039456,-9.792957641600001,1.6203959352,7.67889404,-9.92984649,-3.41413599,,,
imu,136.726136,0.2667761488000001,-9.701440263200002,1.7089225496,7.61160185,-9.5634779,-3.30198234,,,
imu,136.734597,0.251224176,-9.4735440464,1.7400264952,7.24523326,-8.98027892,-3.28702852,,,
imu,136.743058,0.3158246784000001,-9.632054538400002,1.6108254904,8.060216449999999,-8.48680286,-3.26459779,,,
imu,136.751519,0.2853188856,-9.70502918,1.6186014768,8.516307959999999,-8.12043427,-3.18235178,,,
imu,136.75998,0.2667761488000001,-9.8168837536,1.5916846008,8.56864633,-7.88865006,-3.48142818,,,
imu,136.768441,0.251224176,-9.834828337600001,1.5474212936,8.277046839999999,-7.499850739999999,-3.84031986,,,
imu,136.776902,0.227298064,-9.6775141512,1.671837076,7.83590915,-7.07366687,-3.80293531,,,
imu,136.785363,0.2566075512,-9.718188541600002,1.609031032,7.75366314,-6.632529180000001,-3.82536604,,,
imu,136.793829,0.2524204816,-9.777405668800002,1.564169572,7.80600151,-6.281114410000001,-3.95995042,,,
imu,136.802295,0.2380648144,-9.838417254400001,1.5480194464,7.64150949,-5.85493054,-3.84031986,,,
imu,136.810761,0.2524204816,-9.7295534448,1.5976661288,7.60412494,-5.5259465,-3.62348947,,,
imu,136.819227,0.2619909264,-9.8982325344,1.5151210424,7.49197129,-5.294162289999999,-3.87770441,,,
imu,136.827693,0.2237091472,-9.83961356,1.576132628,7.17794107,-5.0025628,-4.0197657,,,
imu,136.836159,0.2165313136,-9.591978300800001,1.7005484104,6.3779117,-4.78573241,-4.16182699,,,
imu,136.844626,0.2350740504,-9.7504887928,1.6353497552,6.47511153,-4.46422528,-4.27398064,,,
imu,136.853092,0.2135405496,-9.9586459672,1.5498139048,6.43025007,-3.96327231,-4.08705789,,,
imu,136.861558,0.2404574256,-10.1602234608,1.4947838472,6.05640457,-3.51465771,-3.52628964,,,
imu,136.870024,0.2524204816,-9.953860744800002,1.5438323768,4.89748352,-3.0585662,-3.53376655,,,
imu,136.87849,0.2404574256,-9.834828337600001,1.638938672,3.947915950000001,-2.67724379,-3.71321239,,,
imu,136.886956,0.2308869808,-9.83961356,1.6281719216,3.75351629,-2.22115228,-3.32441307,,,
imu,136.895422,0.2673743016,-9.5357519376,1.6855945904,3.26004023,-1.54823038,-3.07767504,,,
imu,136.903888,0.2530186344000001,-9.867726741600002,1.4427445536,3.49182444,-0.9575544899999997,-3.13001341,,,
imu,135.456697,,,,,,,60.60873719999999,-12.15229800000002,29.7916864
imu,135.558259,,,,,,,57.9353604,-10.55315480000001,31.0368208
imu,135.66034,,,,,,,60.2425212,-11.27337960000001,27.72866959999999
imu,135.761659,,,,,,,56.5193252,-10.67522680000002,29.1813264
imu,135.862977,,,,,,,53.1013092,-9.491128400000015,25.21398639999999
imu,135.96454,,,,,,,52.68626440000001,-9.063876400000016,25.799932
imu,136.066102,,,,,,,52.905994,-9.56437160000001,25.3970944
imu,136.167603,,,,,,,53.08910200000001,-9.649822000000018,24.945428
imu,136.912354,0.3194135952000001,-10.0184612472,1.4343704144,3.74603938,-0.57623208,-3.01038285,,,
imu,136.92082,0.3307784984000001,-10.0076944968,1.4307814976,3.11050203,-0.03789456000000024,-3.05524431,,,
imu,136.929286,0.340947096,-9.850978463200002,1.4810263328,2.50487232,0.4256738599999998,-3.22721324,,,
imu,136.937752,0.3421434016,-9.7534795568,1.528280404,2.18336519,0.84438082,-3.53376655,,,
imu,136.946219,0.3834159448,-9.7953502528,1.5187099592,2.13850373,1.03878048,-3.8702275,,,
imu,136.954685,0.4133235848,-9.806715156000001,1.486409708,1.97401171,1.17336486,-4.32631901,,,
imu,136.963151,0.4205014184,-9.7636481544,1.4947838472,1.89924261,1.21074941,-4.78988743,,,
imu,136.971617,0.4372496968000001,-9.7403201952,1.5037561392,1.73475059,1.1285034,-5.11887147,,,
imu,136.980083,0.4629702672000001,-9.703234721600001,1.501363528,1.86933497,1.25561087,-5.22354821,,,
imu,136.988549,0.4707462536000001,-9.6846919848,1.4876060136,1.80204278,1.1285034,-5.41047096,,,
imu,136.997013,0.4617739616000001,-9.443636406400001,1.7609618432,1.83942733,0.9565344699999998,-5.500193879999999,,,
imu,137.005476,0.472540712,-9.600352440000002,1.3590031616,2.30299575,0.7696117199999999,-5.68711663,,,
imu,137.01394,0.5180003248000001,-9.8886620896,1.327899216,3.59650118,0.1714589200000001,-5.76936264,,,
imu,137.022403,0.5114206440000001,-9.711608860800002,1.4403519424,3.42453225,-0.2023865800000002,-5.784316459999999,,,
imu,137.030867,0.499457588,-9.5590798968,1.513326584,3.46939371,-0.5837089900000003,-6.14320814,,,
imu,137.03933,0.5185984776000001,-9.596763523200002,1.4971764584,4.17222325,-1.07718505,-6.21797724,,,
imu,137.047723,0.520392936,-9.633848996800001,1.477437416,4.94982189,-1.428599820000001,-5.99366994,,,
imu,137.056187,0.4880926848000001,-9.651195428000001,1.4780355688,5.45825177,-1.70524549,-5.95628539,,,
imu,137.06465,0.4827093096,-9.641026830400001,1.4905967776,5.90686637,-2.13142936,-5.9637623,,,
imu,137.073114,0.5018501992000001,-9.6284656216,1.5139247368,6.27323496,-2.65481306,-5.84413174,,,
imu,137.081577,0.4551942808000001,-9.651195428000001,1.623984852,6.602219,-3.23801204,-5.84413174,,,
imu,137.090041,0.4593813504000001,-9.697851346400002,1.4690632768,7.02092596,-3.76139574,-5.92637775,,,
imu,137.098504,0.4205014184,-9.824061587200001,1.4828207912,7.7985246,-4.49413292,-5.79179337,,,
imu,137.106968,0.4240903352000001,-9.838417254400001,1.5773289336,7.79104769,-4.99508589,-5.24597894,,,
imu,137.115432,0.3660695136000001,-9.855763685600001,1.4768392632,7.55178657,-5.21939319,-5.11887147,,,
imu,137.123895,0.3642750552,-9.860548908000002,1.5121302784,7.70132477,-5.488561949999999,-5.11139456,,,
imu,137.132359,0.34393786,-9.903615909600001,1.4242018168,7.46954056,-5.623146330000001,-5.01419473,,,
imu,137.140822,0.3391526376000001,-9.866530436000001,1.3763495928,7.2003718,-5.85493054,-4.65530305,,,
imu,137.149286,0.3116376088,-9.8647359776,1.3506290224,6.83400321,-6.09419166,-4.49828794,,,
imu,137.157749,0.2667761488000001,-9.797742864000002,1.3320862856,6.47511153,-6.17643767,-4.5431494,,,
imu,137.166213,0.2643835376,-9.7989391696,1.3111509376,6.37043479,-6.25120677,-4.70016451,,,
imu,137.174676,0.266177996,-9.8132948368,1.280046992,6.24332732,-6.034376379999999,-4.67773378,,,
imu,137.18314,0.2171294664,-9.864137824800002,1.259111644,6.0788353,-6.07176093,-4.68521069,,,
imu,137.191603,0.1979885768,-9.881484256,1.2597097968,5.84705109,-6.0493302,-5.08148692,,,
imu,137.200418,0.2081571744,-9.867128588800002,1.250139352,5.67508216,-5.780161440000001,-5.39551714,,,
imu,137.209232,0.1626975616,-9.892849159200003,1.232194768,5.36105194,-5.39136212,-5.37308641,,,
imu,137.218046,0.1303973104,-9.879689797600001,1.2166427952,4.8825297,-5.122193360000001,-5.40299405,,,
imu,137.226861,0.1297991576,-9.900625145600001,1.2369799904,4.55354566,-4.90536297,-5.47028624,,,
imu,137.235675,0.1369769912,-9.897036228800001,1.22621324,3.96286977,-4.56142511,-5.47028624,,,
imu,137.244489,0.1238176296,-9.847389546400002,1.202287128,3.58154736,-4.0305645,-5.38056332,,,
imu,137.253303,0.0980970592,-9.831239420800001,1.2363818376,3.06564057,-3.64924209,-5.216071299999999,,,
imu,137.262118,0.110658268,-9.8264541984,1.2339892264,2.49739541,-3.23801204,-5.03662546,,,
imu,137.270932,0.1303973104,-9.845595088000001,1.2333910736,2.08616536,-2.77444362,-4.66277996,,,
imu,137.279746,0.1058730456,-9.860548908000002,1.2603079496,1.5926893,-2.57256705,-4.49828794,,,
imu,137.28856,0.1040785872,-9.858754449600001,1.2842340616,1.12164397,-2.28096756,-4.55062631,,,
imu,137.297375,0.1549215752,-9.837220948800002,1.2932063536,0.58330645,-1.85478369,-4.30388828,,,
imu,137.306189,0.1549215752,-9.8264541984,1.2973934232,-0.05970781,-1.49589201,-3.87770441,,,
imu,137.315003,0.1549215752,-9.791761336000002,1.2926082008,-0.49336859,-1.15195415,-3.70573548,,,
imu,137.323818,0.143556672,-9.764246307200002,1.292010048,-0.7401066199999999,-1.01736977,-3.63096638,,,
imu,137.332632,0.1656883256,-9.751685098400001,1.2794488392,-0.94198319,-0.71829337,-3.28702852,,,
imu,137.341446,0.1926052016,-9.788770572,1.3027767984,-1.0242292,-0.4416477000000003,-2.90570611,,,
imu,137.35026,0.16449202,-9.798341016800002,1.3225158408,-1.0989983,-0.2248173100000002,-2.748691,,,
imu,137.359075,0.2009793408,-9.766638918400002,1.3404604248,-1.28592105,-0.02294074000000013,-2.79355246,,,
imu,137.367889,0.2368685088,-9.776209363200001,1.3326844384,-1.39059779,0.09668981999999993,-2.53933752,,,
imu,137.376703,0.19439966,-9.8013317808,1.3231139936,-1.44293616,0.35838167,-2.45709151,,,
imu,137.385517,0.2147368552,-9.802528086400002,1.3410585776,-1.44293616,0.5453044199999999,-2.38232241,,,
imu,137.394332,0.2380648144,-9.770825988000002,1.3584050088,-1.50275144,0.7172733499999997,-2.26269185,,,
imu,137.402837,0.23926112,-9.776209363200001,1.3733588288,-1.52518217,0.9565344699999998,-2.32998404,,,
imu,137.411343,0.2243073,-9.803126239200001,1.3613957728,-1.36069015,1.0537343,-2.26269185,,,
imu,137.419848,0.2775428992,-9.7636481544,1.3901071072,-1.48779762,1.03130357,-2.14306129,,,
imu,137.428354,0.2356722032,-9.719983000000001,1.3889108016,-1.44293616,0.9939190199999999,-2.34493786,,,
imu,137.436859,0.2009793408,-9.7911631832,1.342853036,-1.13638285,0.9939190199999999,-2.71130645,,,
imu,137.445365,0.2470371064,-9.751685098400001,1.3715643704,-0.9644139199999999,1.18831868,-2.66644499,,,
imu,137.45387,0.2087553272,-9.7122070136,1.3715643704,-0.68776825,1.18084177,-2.62158353,,,
imu,137.462376,0.1848292152,-9.755274015200001,1.3763495928,-0.55318387,1.19579559,-2.83093701,,,
imu,137.470881,0.2105497856,-9.766638918400002,1.3625920784,-0.16438455,1.26308778,-2.91318302,,,
imu,137.479387,0.2165313136,-9.8162856008,1.3590031616,0.19450713,1.33785688,-2.60662971,,,
imu,137.487892,0.1752587704,-9.869521200000003,1.3649846896,0.20198404,1.45001053,-2.47204533,,,
imu,137.496398,0.158510492,-9.8043225448,1.4188184416,-0.007369440000000005,1.74161002,-2.19539966,,,
imu,137.504903,0.1728661592,-9.800733628000001,1.4062572328,-0.17186146,1.96591732,-1.9262309,,,
imu,137.513409,0.191408896,-9.742114653600002,1.3859200376,-0.32139966,2.07059406,-1.49257012,,,
imu,137.521914,0.2255036056,-9.667943706400001,1.369769912,-0.29896893,2.11545552,-1.61967759,,,
imu,137.53042,0.2637853848,-9.682897526400001,1.411640608,-0.20924601,1.94348659,-1.91127708,,,
imu,137.538925,0.2913004136,-9.748096181600001,1.4122387608,0.18703022,1.8014253,-2.03838455,,,
imu,137.547431,0.2769447464000001,-9.762451848800001,1.4379593312,0.25432241,1.63693328,-1.98604618,,,
imu,137.555936,0.2607946208,-9.7744149048,1.4451371648,0.02253820000000001,1.54721036,-2.23278421,,,
imu,137.564442,0.2799355104,-9.847389546400002,1.4642780544,-0.13447691,1.46496435,-2.35241477,,,
imu,137.572947,0.334965568,-9.916177118400002,1.4756429576,-0.55318387,1.42010289,-2.27764567,,,
imu,137.581453,0.3241988176,-9.905410368000002,1.447529776,-1.00179847,1.60702564,-2.14306129,,,
imu,137.589958,0.2542149400000001,-9.827650504000003,1.4846152496,-1.57752054,1.43505671,-2.31503022,,,
imu,137.598464,0.3134320672,-9.8461932408,1.4995690696,-1.92893531,1.39767216,-2.44213769,,,
imu,137.606899,0.3774344168000001,-9.9066066736,1.4888023192,-2.28035008,1.50982581,-2.34493786,,,
imu,137.615335,0.3146283728000001,-9.911990048800002,1.4870078608,-2.91588743,1.53225654,-2.44213769,,,
imu,137.623771,0.2930948720000001,-9.921560493600001,1.4941856944,-3.58133242,1.52477963,-2.84589083,,,
imu,137.632206,0.2954874832,-9.887465784000002,1.5240933344,-3.96265483,1.66684092,-2.80850628,,,
imu,137.640642,0.2733558296,-9.864137824800002,1.5420379184,-4.441177069999999,1.76404075,-2.72626027,,,
imu,137.649077,0.3648732080000001,-9.893447312000001,1.591086448,-4.867360939999999,1.83880985,-2.78607555,,,
imu,137.657513,0.3929863896,-9.892251006400002,1.5384490016,-5.34588318,2.12293243,-3.01785976,,,
imu,137.665948,0.3570972216000001,-9.900625145600001,1.534261932,-5.764590139999999,2.11545552,-3.21973633,,,
imu,137.674384,0.3505175408000001,-9.9030177568,1.6042458096,-6.13095873,2.29490136,-3.54872037,,,
imu,137.682819,0.3816214864,-9.8778953392,1.656883256,-6.639388609999999,2.42200883,-3.91508896,,,
imu,137.691255,0.3864067088000001,-9.880287950400001,1.6610703256,-7.09548012,2.67622377,-4.20668845,,,
imu,137.699691,0.3535083048,-9.889260242400002,1.6562851032,-7.843171119999999,2.90800798,-4.73007215,,,
imu,137.708126,0.287113344,-9.818678212000002,1.665855548,-8.254401170000001,3.34914567,-5.44785551,,,
imu,137.716562,0.3241988176,-9.7911631832,1.6873890488,-8.560954480000001,3.71551426,-6.068439039999999,,,
imu,137.724997,0.3726491944000001,-9.794752100000002,1.6784167568,-8.78526178,4.14169813,-6.928283689999999,,,
imu,136.269169,,,,,,,52.844958,-9.56437160000001,25.2017792
imu,136.370701,,,,,,,52.75950760000001,-9.74747960000002,25.56799519999999
imu,136.472294,,,,,,,56.54373960000001,-10.94378520000001,26.44691359999999
imu,136.573857,,,,,,,55.16432600000001,-10.5287404,28.05826399999999
imu,136.675389,,,,,,,57.94756759999999,-11.92036120000002,26.63002159999999
imu,136.776951,,,,,,,55.7991004,-11.84711800000002,29.34002
imu,136.878666,,,,,,,57.2883788,-11.55414520000002,27.58218319999999
imu,136.980107,,,,,,,56.6169828,-12.48189240000002,30.3654248
imu,137.733433,0.34393786,-9.748096181600001,1.6449202,-8.83012324,4.567882,-7.75074379,,,
imu,137.741868,0.3511156936,-9.6709344704,1.6885853544,-8.867507790000001,4.90434295,-8.23674294,,,
imu,137.750304,0.3044597752,-9.685888290400001,1.7029410216,-8.64320049,5.41277283,-8.45357333,,,
imu,137.75874,0.2847207328,-9.669140012000002,1.68978166,-8.54600066,5.81652597,-8.49095788,,,
imu,137.767175,0.2524204816,-9.612315496,1.7005484104,-8.32917027,6.10064855,-8.15449693,,,
imu,137.775611,0.3373581792000001,-9.635045302400002,1.7507932456,-7.95532477,6.42963259,-7.63859014,,,
imu,137.784046,0.3158246784000001,-9.722973764,1.7579710792,-7.775878929999999,6.68384753,-7.556344129999999,,,
imu,137.792482,0.287113344,-9.745105417600001,1.8016362336,-7.67120219,6.37729422,-7.578774859999999,,,
imu,137.800917,0.2853188856,-9.687084596000002,1.7938602472,-7.992709319999999,6.14551001,-7.578774859999999,,,
imu,137.80938,0.352910152,-9.5740337168,1.7878787192,-7.9029864,5.88381816,-7.50400576,,,
imu,137.817842,0.3074505392,-9.573435564,1.8171882064,-7.491756349999999,5.34548064,-7.518959579999999,,,
imu,137.826304,0.2805336632,-9.61530626,1.7950565528,-6.998280289999999,4.814620029999999,-7.518959579999999,,,
imu,137.834766,0.2865151912,-9.5638651192,1.740624648,-6.53471187,4.39591307,-7.06286807,,,
imu,137.843229,0.2679724544000001,-9.489694172,1.7801027328,-5.644959579999999,3.9697292,-6.247884879999999,,,
imu,137.851691,0.2338777448,-9.4621791432,1.7657470656,-4.680438189999999,3.57345297,-5.67963972,,,
imu,137.860153,0.272159524,-9.5357519376,1.7561766208,-3.618716969999999,3.2968073,-5.25345585,,,
imu,137.868616,0.2518223288000001,-9.5004609224,1.7232782168,-2.57194957,2.97530017,-4.52819558,,,
imu,137.877078,0.2703650656,-9.4137287664,1.7172966888,-1.62985891,2.58650085,-3.95247351,,,
imu,137.88554,0.3421434016,-9.492086783200001,1.7250726752,-0.45598404,2.2500399,-3.69078166,,,
imu,137.894002,0.2877114968,-9.51062952,1.7370357312,0.55339881,1.95844041,-3.66087402,,,
imu,137.902465,0.2458408008,-9.517807353600002,1.7412228008,1.32352054,1.2780416,-3.82536604,,,
imu,137.910927,0.2554112456,-9.572239258400002,1.7292597448,2.14598064,0.7995193599999997,-4.034719519999999,,,
imu,137.919389,0.3074505392,-9.715795930400002,1.7005484104,2.72170271,0.6948426199999997,-4.20668845,,,
imu,137.927851,0.2518223288000001,-9.6733270816,1.6832019792,2.81890254,0.41819695,-4.00481188,,,
imu,137.936314,0.2243073,-9.604539509600002,1.7131096192,2.7889949,-0.03041764999999996,-4.3936112,,,
imu,137.944776,0.2147368552,-9.625474857600002,1.7274652864,3.15536349,-0.23229422,-4.85717962,,,
imu,137.953238,0.2518223288000001,-9.731946056000002,1.7484006344,3.51425517,-0.2771556799999999,-4.74502597,,,
imu,137.961701,0.2356722032,-9.838417254400001,1.7131096192,3.56659354,-0.2622018600000002,-4.37865738,,,
imu,137.970163,0.1573141864,-9.790565030400002,1.6682481592,3.37219388,-0.37435551,-4.15435008,,,
imu,137.978625,0.155519728,-9.7283571392,1.7023428688,3.2376095,-0.5687551700000002,-4.341272829999999,,,
imu,137.987087,0.1997830352,-9.701440263200002,1.7155022304,3.24508641,-0.6061397200000003,-4.37118047,,,
imu,137.99555,0.1632957144,-9.769031529600001,1.7531858568,3.33480933,-0.6360473600000001,-4.102011709999999,,,
imu,138.004012,0.1698753952,-9.868923047200001,1.7394283424,3.14788658,-0.7033395499999999,-4.04219643,,,
imu,138.012482,0.2524204816,-9.9783850096,1.7579710792,2.72170271,-0.5837089900000003,-3.61601256,,,
imu,138.020952,0.182436604,-9.925747563200002,1.7155022304,1.83942733,-0.71829337,-3.06272122,,,
imu,138.029422,0.1932033544,-9.883876867200001,1.773523052,1.08425942,-0.94260067,-2.76364482,,,
imu,138.037891,0.2009793408,-9.788172419200002,1.8147955952,0.47862971,-0.9500775800000003,-2.83093701,,,
imu,138.046361,0.1178361016,-9.716992236000001,1.7214837584,0.02253820000000001,-0.9575544899999997,-2.45709151,,,
imu,138.054831,0.1459492832,-9.739123889600002,1.7454098704,0.21693786,-0.76315483,-2.14306129,,,
imu,138.063301,0.131593616,-9.761853696000001,1.7340449672,-0.0522309,-0.5837089900000003,-2.00847691,,,
imu,138.071771,0.1955959656,-9.655980650400002,1.8267586512,-0.22419983,-0.2248173100000002,-1.58229304,,,
imu,138.080241,0.2261017584,-9.793555794400001,1.7364375784,-0.4260764,0.006966899999999665,-1.21592445,,,
imu,138.088711,0.2099516328,-9.8713156584,1.7244745224,-0.44850713,0.09668981999999993,-0.7074945699999999,,,
imu,138.097181,0.2087553272,-9.80970592,1.7334468144,-0.8672140899999999,0.1191205499999999,-0.60281783,,,
imu,138.105651,0.2488315648,-9.727160833600001,1.7890750248,-1.27844414,0.1864127399999997,-0.7000176599999999,,,
imu,138.114121,0.3194135952000001,-9.404756474400001,1.9404076832,-1.60742818,0.19388965,-0.52057182,,,
imu,138.12259,0.2679724544000001,-9.4843107968,1.7651489128,-0.91207555,0.04435144999999974,-0.40094126,,,
imu,138.13106,0.2823281216,-9.4729458936,1.8255623456,-0.02232326000000001,-0.2472480400000001,-0.71497148,,,
imu,138.139439,0.331974804,-9.569248494400002,1.758569232,0.56835263,-0.4117400600000001,-1.16358608,,,
imu,138.147909,0.3451341656,-9.512423978400001,1.7687378296,1.42819728,-0.6734319100000001,-1.28321664,,,
imu,138.156379,0.3289840400000001,-9.555490980000002,1.7430172592,1.88428879,-0.8977392100000001,-1.37293956,,,
imu,138.164848,0.3798270280000001,-9.6494009696,1.7418209536,2.59459524,-1.1145696,-1.44023175,,,
imu,138.173318,0.3541064576,-9.6159044128,1.7196893,2.97591765,-1.37626145,-1.73930815,,,
imu,138.181788,0.3463304712,-9.554294674400001,1.782495344,3.28994787,-1.65290712,-2.09072292,,,
imu,138.190258,0.3852104032000001,-9.593174606400002,1.773523052,3.67874719,-2.019275710000001,-2.43466078,,,
imu,138.198728,0.3265914288,-9.4980683112,1.7783082744,3.82828539,-2.26601374,-2.56176825,,,
imu,138.207198,0.3080486920000001,-9.513620284000002,1.7872805664,4.09745415,-2.58752087,-3.15992105,,,
imu,138.216014,0.3415452488,-9.5118258256,1.7818971912,4.46382274,-2.92398182,-3.77302767,,,
imu,138.224829,0.3804251808,-9.717590388800001,1.752587704,4.77037605,-2.99127401,-3.96742733,,,
imu,138.233645,0.3194135952000001,-9.786377960800001,1.737633884,4.69560695,-3.23053513,-3.75807385,,,
imu,138.24246,0.3086468448,-9.9012232984,1.773523052,4.2843769,-3.4324117,-3.46647436,,,
imu,138.251276,0.3146283728000001,-10.0142741776,1.6879872016,3.76847011,-3.33521187,-3.28702852,,,
imu,138.260092,0.2691687600000001,-9.9078029792,1.7053336328,3.17779422,-3.40998097,-2.93561375,,,
imu,138.268907,0.2284943696,-9.8647359776,1.7908694832,2.29551884,-3.47727316,-3.15992105,,,
imu,138.277723,0.2787392048,-9.8432024768,1.8219734288,1.61512003,-3.48475007,-3.67582784,,,
imu,138.286538,0.2458408008,-9.783387196800001,1.821375276,1.12164397,-3.45484243,-3.80293531,,,
imu,138.295354,0.1746606176,-9.737329431200001,1.7998417752,0.91229049,-3.29782732,-3.87770441,,,
imu,138.30417,0.1232194768,-9.7953502528,1.7878787192,1.07678251,-3.1333353,-3.60853565,,,
imu,138.312985,0.1620994088,-9.887465784000002,1.7484006344,1.17398234,-2.63238233,-2.93561375,,,
imu,138.321801,0.1770532288,-9.905410368000002,1.7304560504,0.8674290299999999,-2.0117988,-2.56176825,,,
imu,138.330616,0.1979885768,-9.878493492,1.7531858568,0.59078336,-1.66786094,-2.41970696,,,
imu,138.339432,0.1890162848,-9.886269478400003,1.743615412,0.09730729999999999,-1.35383072,-2.57672207,,,
imu,138.348248,0.155519728,-9.915578965600002,1.692772424,-0.14195382,-1.08466196,-3.03281358,,,
imu,138.357063,0.1579123392,-9.853371074400002,1.6963613408,-0.43355331,-0.7482010100000003,-3.44404363,,,
imu,138.365879,0.1441548248,-9.656578803200002,1.7962528584,-0.67281443,-0.2248173100000002,-3.53376655,,,
imu,138.374694,0.1471455888,-9.5842023144,1.8207771232,-0.62047606,0.1864127399999997,-3.25712088,,,
imu,138.38351,0.1758569232,-9.658373261600001,1.7836916496,-0.11204618,0.52287369,-2.85336774,,,
imu,138.392326,0.1836329096,-9.6876827488,1.791467636,0.23189168,0.8369039099999998,-2.95056757,,,
imu,138.401141,0.2219146888,-9.591380148,1.911098196,0.38142988,1.2032725,-3.46647436,,,
imu,138.409957,0.245242648,-9.5590798968,1.8165900536,0.65059864,1.55468727,-3.87770441,,,
imu,138.418432,0.1949978128,-9.926345716,1.6706407704,1.64502767,1.59954873,-3.63844329,,,
imu,138.426907,0.2195220776,-9.9048122152,1.701744716,1.25622835,1.6518871,-3.2720747,,,
imu,138.435382,0.2320832864,-9.741516500800001,1.7280634392,0.58330645,2.07059406,-3.32441307,,,
imu,138.443857,0.2195220776,-9.656578803200002,1.7531858568,0.29918387,2.60893158,-3.30945925,,,
imu,138.452332,0.2727576768,-9.692467971200001,1.7442135648,0.6281679099999999,2.74351596,-3.21225942,,,
imu,138.460807,0.311039456,-9.745703570400002,1.7501950928,0.97958268,2.90053107,-3.06272122,,,
imu,138.469282,0.2895059552,-9.7714241408,1.7771119688,1.03939796,2.9229618,-3.48890509,,,
imu,138.477757,0.2942911776,-9.760059237600002,1.7591673848,1.03939796,2.9977309,-3.63844329,,,
imu,138.486232,0.2889078024000001,-9.710412555200001,1.7161003832,1.02444414,2.96782326,-3.4216129,,,
imu,138.494707,0.272159524,-9.782789044000001,1.716698536,0.9048135799999999,2.90053107,-3.27955161,,,
imu,138.503182,0.3056560808,-9.8749045752,1.7448117176,0.8375213899999999,2.99025399,-3.39170526,,,
imu,138.511657,0.3092449976000001,-9.789966877600001,1.8016362336,0.50853735,3.17717674,-3.81788913,,,
imu,138.520132,0.3236006648,-9.594370912,1.7956547056,-0.02980017,3.10988455,-4.244073,,,
imu,138.528607,0.3074505392,-9.870119352800002,1.716698536,0.620691,2.82576197,-4.44594957,,,
imu,138.537081,0.3475267768,-9.836622796,1.7089225496,0.35899915,2.80333124,-4.386134289999999,,,
imu,138.545556,0.3206099008000001,-9.922756799200002,1.6849964376,0.03001510999999998,2.63136231,-4.80484125,,,
imu,137.081608,,,,,,,56.6536044,-12.48189240000002,30.6950192
imu,137.183201,,,,,,,56.89774840000001,-13.0922524,30.65839759999999
imu,137.284794,,,,,,,57.3738292,-13.20211720000002,31.07344239999999
imu,137.386326,,,,,,,57.92315320000001,-12.94576600000001,30.30438879999999
imu,137.487919,,,,,,,58.38702680000001,-12.97018040000002,31.5006944
imu,137.589451,,,,,,,60.21810680000002,-13.48288280000001,30.12128079999999
imu,137.691014,,,,,,,58.0452252,-12.27437000000002,30.9757848
imu,137.792607,,,,,,,59.98616999999999,-12.53072120000001,28.10709279999999
imu,138.554031,0.3451341656,-9.746301723200002,1.7172966888,-0.32139966,2.30237827,-5.021671639999999,,,
imu,138.562506,0.3337692624,-9.6745233872,1.7890750248,-0.69524516,1.96591732,-5.17868675,,,
imu,138.570981,0.3385544848000001,-9.708019944000002,1.7878787192,-0.7550604399999999,1.68179474,-5.15625602,,,
imu,138.579456,0.3158246784000001,-9.752283251200002,1.7519895512,-0.5980453299999999,1.43505671,-4.86465653,,,
imu,138.587931,0.3164228312,-9.802528086400002,1.7657470656,-0.62047606,1.09111885,-4.55810322,,,
imu,138.596406,0.3182172896000001,-9.725366375200002,1.7603636904,-0.81487572,0.9041961000000001,-4.602964679999999,,,
imu,138.604881,0.2530186344000001,-9.683495679200002,1.7513913984,-0.98684465,0.62007352,-4.58801086,,,
imu,138.613356,0.2266999112,-9.667345553600002,1.7663452184,-0.95693701,0.33595094,-4.31136519,,,
imu,138.621822,0.2255036056,-9.665551095200001,1.7507932456,-0.74758353,0.3957662200000001,-3.85527368,,,
imu,138.630289,0.1788476872,-9.444832712,1.8345346376,-0.53823005,0.62007352,-3.44404363,,,
imu,138.638755,0.2171294664,-9.502255380800001,1.8291512624,-0.17933837,0.7770886299999997,-3.70573548,,,
imu,138.647221,0.1949978128,-9.7534795568,1.7579710792,0.7403215599999999,0.7920424499999998,-3.84779677,,,
imu,138.655687,0.170473548,-9.88447502,1.743615412,0.7253677399999999,0.9041961000000001,-3.57862801,,,
imu,138.664153,0.16449202,-9.992740676800002,1.7454098704,0.29918387,1.30047233,-3.44404363,,,
imu,138.672619,0.1698753952,-9.8061170032,1.7836916496,-0.39616876,1.77151766,-3.36927453,,,
imu,138.681085,0.1782495344,-9.714001472000001,1.8488903048,-0.77749117,2.0257326,-3.54124346,,,
imu,138.689551,0.1698753952,-9.763050001600002,1.8141974424,-0.78496808,2.43696265,-3.80293531,,,
imu,138.698017,0.2009793408,-9.8264541984,1.782495344,-0.80739881,2.64631613,-3.80293531,,,
imu,138.706483,0.212344244,-9.666149248000002,1.7639526072,-1.12142903,2.86314652,-3.71321239,,,
imu,138.714949,0.2189239248,-9.7989391696,1.887172084,-1.03170611,3.13979219,-3.93751969,,,
imu,138.723415,0.2099516328,-9.9753942456,1.7573729264,-1.33078251,3.26689966,-4.22164227,,,
imu,138.731882,0.2655798432,-9.867726741600002,1.713707772,-1.8466893,3.2220382,-4.102011709999999,,,
imu,138.740348,0.2781410520000001,-9.786377960800001,1.7872805664,-2.21305789,3.25194584,-4.15435008,,,
imu,138.748814,0.2643835376,-9.724170069600001,1.8297494152,-2.34764227,3.10240764,-4.33379592,,,
imu,138.75728,0.2607946208,-9.734338667200001,1.8237678872,-2.46727283,2.95286944,-4.49828794,,,
imu,138.765746,0.2769447464000001,-9.802528086400002,1.8010380808,-2.46727283,2.89305416,-4.625395409999999,,,
imu,138.774212,0.3026653168,-9.818080059200001,1.818384512,-2.7439185,2.58650085,-4.66277996,,,
imu,138.782678,0.3068523864000001,-9.762451848800001,1.8518810688,-2.94579507,2.33976282,-4.59548777,,,
imu,138.791144,0.2799355104,-9.722973764,1.88418132,-3.24487147,2.35471664,-4.49081103,,,
imu,138.79961,0.2829262744000001,-9.739123889600002,1.8770034864,-3.28973293,2.01825569,-4.41604193,,,
imu,138.808076,0.2835244272,-9.7474980288,1.8626478192,-3.40936349,1.65936401,-4.66277996,,,
imu,138.816542,0.2566075512,-9.715795930400002,1.88418132,-3.63367079,1.52477963,-4.77493361,,,
imu,138.825002,0.2506260232,-9.7056273328,1.8907610008,-3.76825517,1.40514907,-4.692687599999999,,,
imu,138.833462,0.233279592,-9.688879054400001,1.8829850144,-3.67105534,1.42010289,-4.52071867,,,
imu,138.841922,0.2350740504,-9.683495679200002,1.8949480704,-3.63367079,1.31542615,-4.34874974,,,
imu,138.850381,0.2266999112,-9.7074217912,1.9087055848,-3.49908641,1.1285034,-4.19173463,,,
imu,138.858841,0.2075590216,-9.706823638400001,1.9218649464,-3.28973293,1.29299542,-3.81041222,,,
imu,138.867301,0.1985867296,-9.689477207200001,1.91408896,-2.90841052,1.47991817,-3.54124346,,,
imu,138.87576,0.2075590216,-9.6799067624,1.9128926544,-2.84859524,1.50982581,-3.42908981,,,
imu,138.88422,0.2105497856,-9.665551095200001,1.9093037376,-2.63176485,1.65936401,-3.31693616,,,
imu,138.89268,0.206362716,-9.633250844,1.9146871128,-2.31773463,1.89114822,-3.17487487,,,
imu,138.90114,0.212344244,-9.618895176800002,1.9326316968,-2.19810407,1.81637912,-3.23469015,,,
imu,138.909599,0.2201202304,-9.633848996800001,1.923061252,-1.85416621,1.98834805,-3.36927453,,,
imu,138.918059,0.2075590216,-9.623082246400001,1.9296409328,-1.59995127,2.0257326,-3.51881273,,,
imu,138.926519,0.206362716,-9.617100718400001,1.9493799752,-1.37564397,2.18274771,-3.69825857,,,
imu,138.934979,0.2051664104,-9.627269316000001,1.9547633504,-1.03918302,2.25751681,-3.7206893,,,
imu,138.943438,0.1985867296,-9.623082246400001,1.9577541144,-0.88964482,2.4743472,-3.58610492,,,
imu,138.951898,0.206362716,-9.621287788000002,1.9840728376,-0.7999219,2.60145467,-3.50385891,,,
imu,138.960358,0.2195220776,-9.638036066400002,1.9822783792,-0.61299915,2.69117759,-3.39918217,,,
imu,138.968817,0.236270356,-9.6326526912,1.9900543656,-0.38869185,2.78837742,-3.36179762,,,
imu,138.977277,0.2488315648,-9.638036066400002,2.0002229632,-0.36626112,2.72108523,-3.35432071,,,
imu,138.985737,0.2595983152,-9.652989886400002,1.9960358936,-0.28401511,2.67622377,-3.36179762,,,
imu,138.994197,0.2703650656,-9.6709344704,1.9966340464,-0.14195382,2.68370068,-3.40665908,,,
imu,139.002656,0.2643835376,-9.686486443200002,2.009793408,-0.127,2.60145467,-3.5711511,,,
imu,139.011116,0.2781410520000001,-9.6733270816,2.009793408,-0.2017691,2.46687029,-3.62348947,,,
imu,139.019576,0.2835244272,-9.689477207200001,2.0199620056,-0.02980017,2.42948574,-3.496382,,,
imu,139.028041,0.2984782472,-9.694860582400002,1.9996248104,0.06739966,2.36219355,-3.57862801,,,
imu,139.036505,0.2936930248,-9.6876827488,2.0133823248,0.04496892999999999,2.2500399,-3.56367419,,,
imu,139.04497,0.2948893304,-9.701440263200002,2.0169712416,-0.007369440000000005,2.11545552,-3.72816621,,,
imu,139.053435,0.3170209840000001,-9.683495679200002,2.021756464,0.18703022,1.92853277,-3.56367419,,,
imu,139.0619,0.3098431504,-9.711010708000002,2.0229527696,0.28423005,1.71917929,-3.38422835,,,
imu,139.070365,0.3056560808,-9.743310959200002,2.0253453808,0.28423005,1.58459491,-3.4216129,,,
imu,139.07883,0.2948893304,-9.7427128064,2.031326908800001,0.18703022,1.58459491,-3.32441307,,,
imu,139.087294,0.2877114968,-9.7361331256,2.0169712416,0.11226112,1.5023489,-3.07019813,,,
imu,139.095759,0.2913004136,-9.734338667200001,2.0229527696,0.19450713,1.48739508,-2.98795212,,,
imu,139.104224,0.2799355104,-9.692467971200001,2.0002229632,0.25432241,1.577118,-3.05524431,,,
imu,139.112689,0.2930948720000001,-9.6494009696,1.994839588,0.3889067899999999,1.74908693,-3.13749032,,,
imu,139.121154,0.3092449976000001,-9.641026830400001,1.979885768,0.64312173,1.62945637,-3.13749032,,,
imu,139.129618,0.3236006648,-9.6284656216,1.9631374896,0.91229049,1.53225654,-3.44404363,,,
imu,137.894064,,,,,,,57.16630680000001,-11.57855960000001,30.56074
imu,137.995627,,,,,,,57.2151356,-11.59076680000002,28.1681288
imu,138.097342,,,,,,,57.42265800000001,-11.93256840000001,30.73164079999999
imu,138.198752,,,,,,,57.7034236,-11.56635240000001,30.54853279999999
imu,138.300314,,,,,,,57.6790092,-11.59076680000002,30.40204639999999
imu,138.401877,,,,,,,58.2039188,-11.908154,29.7184432
imu,138.503439,,,,,,,58.2039188,-11.8104964,30.7926768
imu,138.605002,,,,,,,58.41144120000001,-11.89594680000001,30.5241184
imu,138.706564,,,,,,,60.7674308,-12.75045080000001,29.4865064
imu,138.808127,,,,,,,58.25274760000001,-11.87153240000001,30.27997439999999
imu,138.909689,,,,,,,57.75225240000002,-11.46869480000001,30.47528959999999
imu,139.011282,,,,,,,57.9353604,-11.51752360000002,28.2291648
imu,139.112814,,,,,,,58.17950440000001,-11.70063160000001,30.1701096
