Type,Timestamp,Data Accelerometer X,Data Accelerometer Y,Data Accelerometer Z,Data Gyroscope X,Data Gyroscope Y,Data Gyroscope Z,Data Magnetometer X,Data Magnetometer Y,Data Magnetometer Z
imu,187.73029,-0.49347606,-9.672130776000001,2.0528604096,-1.21115195,4.01459066,-3.14496723,,,
imu,187.738766,-0.49347606,-9.675719692800001,2.0582437848,-1.10647521,3.93982156,-3.18235178,,,
imu,187.747242,-0.4868963792000001,-9.641624983200002,2.0654216184,-1.21115195,4.03702139,-3.20478251,,,
imu,187.755719,-0.472540712,-9.6494009696,2.0947311056,-1.22610577,4.07440594,-3.24964397,,,
imu,187.764195,-0.4731388648000001,-9.6942624296,2.0929366472,-1.21115195,3.95477538,-3.1225365,,,
imu,187.772671,-0.46356842,-9.652989886400002,2.0791791328,-1.13638285,3.9697292,-2.95056757,,,
imu,187.781147,-0.4462219888000001,-9.6039413568,2.0678142296,-1.03918302,3.94729847,-2.89075229,,,
imu,187.789624,-0.4294737104000001,-9.577024480800002,2.0684123824,-1.14385976,3.83514482,-2.92065993,,,
imu,187.7981,-0.4342589328000001,-9.596165370400001,2.0594400904,-1.03918302,3.64822207,-2.76364482,,,
imu,187.806576,-0.4288755576000001,-9.6224840936,2.051664104,-0.76253735,3.57345297,-2.51690679,,,
imu,187.815053,-0.4210995712,-9.6248767048,2.0564493264,-0.74758353,3.43886859,-2.46456842,,,
imu,187.823529,-0.4097346680000001,-9.612315496,2.0558511736,-0.47841477,3.19213056,-2.45709151,,,
imu,187.832005,-0.4079402096,-9.641624983200002,2.0570474792,-0.18681528,3.12483837,-2.4496146,,,
imu,187.840481,-0.3977716120000001,-9.6745233872,2.0558511736,-0.13447691,3.05754618,-2.54681443,,,
imu,187.848958,-0.4127254320000001,-9.706823638400001,2.0642253128,-0.13447691,3.02763854,-2.68887572,,,
imu,187.857434,-0.4270810992000001,-9.718786694400002,2.0594400904,-0.17933837,2.91548489,-2.76364482,,,
imu,187.86591,-0.4252866408000001,-9.742114653600002,2.0570474792,-0.38121494,2.8481927,-2.93561375,,,
imu,187.874386,-0.4216977240000001,-9.725366375200002,2.0462807288,-0.83730645,2.69117759,-3.13001341,,,
imu,187.882863,-0.4360533912000001,-9.702636568800001,2.0349158256,-0.874691,2.5491163,-3.06272122,,,
imu,187.891339,-0.439642308,-9.682299373600001,2.024747228,-0.91207555,2.45191647,-2.9729983,,,
imu,187.899815,-0.4486146000000001,-9.6745233872,2.0295324504,-0.98684465,2.33228591,-2.92065993,,,
imu,187.908291,-0.4707462536000001,-9.6745233872,2.0349158256,-1.04665993,2.324809,-2.83093701,,,
imu,187.916755,-0.4791203928000001,-9.6667474008,2.030728756,-1.00179847,2.27994754,-2.59167589,,,
imu,187.925218,-0.5036446576000001,-9.6643547896,2.0402992008,-0.91207555,2.2500399,-2.44213769,,,
imu,187.933682,-0.5102243384,-9.644615747200001,2.0504677984,-0.77001426,2.41453192,-2.26269185,,,
imu,187.942146,-0.5150095608,-9.645213900000002,2.0534585624,-0.74758353,2.42948574,-2.21035348,,,
imu,187.950609,-0.5168040192000001,-9.630260080000001,2.0498696456,-0.69524516,2.6238854,-2.12810747,,,
imu,187.959073,-0.4952705184000001,-9.613511801600001,2.0594400904,-0.7401066199999999,2.87810034,-2.32250713,,,
imu,187.967536,-0.5102243384,-9.633250844,2.0558511736,-0.36626112,2.98277708,-2.42718387,,,
imu,187.976,-0.5048409632,-9.633250844,2.0618327016,-0.47841477,3.16969983,-2.5243837,,,
imu,187.984463,-0.4809148512,-9.6523917336,2.0648234656,-0.30644584,3.2968073,-2.71878336,,,
imu,187.992927,-0.4797185456,-9.6745233872,2.066617924,-0.14943073,3.5211146,-2.62906044,,,
imu,188.00139,-0.4599795032,-9.683495679200002,2.066617924,-0.31392275,3.56597606,-2.78607555,,,
imu,188.009854,-0.4504090584,-9.685290137600001,2.0797772856,-0.34383039,3.60336061,-2.83093701,,,
imu,188.018317,-0.4294737104000001,-9.6745233872,2.0737957576,-0.26906129,3.6706528,-2.75616791,,,
imu,188.026781,-0.424688488,-9.676915998400002,2.0737957576,-0.29896893,3.63326825,-2.68139881,,,
imu,188.035244,-0.3989679176000001,-9.655980650400002,2.0690105352,-0.44103022,3.46877623,-2.68887572,,,
imu,188.043708,-0.3935845424,-9.6637566368,2.0767865216,-0.51579932,3.2220382,-2.66644499,,,
imu,188.052172,-0.3852104032000001,-9.639232372,2.0827680496,-0.41859949,2.99025399,-2.54681443,,,
imu,188.060635,-0.3762381112000001,-9.6434194416,2.0821698968,-0.35878421,2.98277708,-2.47952224,,,
imu,188.069099,-0.3852104032000001,-9.642223136000002,2.0797772856,-0.32139966,2.74351596,-2.61410662,,,
imu,188.077562,-0.3977716120000001,-9.647606511200001,2.089347730400001,-0.29149202,2.45939338,-2.76364482,,,
imu,188.086026,-0.4175106544000001,-9.6499991224,2.0923384944,-0.14943073,2.34723973,-2.68139881,,,
imu,188.094489,-0.4312681688,-9.658971414400002,2.096525564,0.05244583999999999,2.34723973,-2.77112173,,,
imu,188.102953,-0.4408386136,-9.6703363176,2.0989181752,-0.007369440000000005,2.324809,-2.78607555,,,
imu,188.111416,-0.4210995712,-9.6703363176,2.1072923144,-0.14195382,2.33228591,-2.72626027,,,
imu,188.119877,-0.4234921824,-9.672130776000001,2.099516328,-0.04475399000000001,2.33228591,-2.61410662,,,
imu,188.128338,-0.4210995712,-9.6709344704,2.1037033976,-0.127,2.2500399,-2.41970696,,,
imu,188.136799,-0.4055475984,-9.6876827488,2.0923384944,-0.39616876,2.05564024,-2.39727623,,,
imu,188.14526,-0.3965753064,-9.685888290400001,2.081571744,-0.36626112,1.95844041,-2.34493786,,,
imu,188.153721,-0.4169125016,-9.676915998400002,2.0917403416,-0.35878421,1.82385603,-2.21035348,,,
imu,188.162182,-0.4193051128000001,-9.675719692800001,2.0594400904,-0.7401066199999999,1.71170238,-2.30755331,,,
imu,188.170643,-0.430670016,-9.668541859200001,2.0594400904,-0.66533752,1.65936401,-2.21783039,,,
imu,188.179104,-0.4474182944000001,-9.662560331200002,2.0558511736,-0.79244499,1.73413311,-2.31503022,,,
imu,188.187565,-0.4605776560000001,-9.648204664000001,2.06362716,-0.68029134,1.71170238,-2.4496146,,,
imu,188.196026,-0.4779240872000001,-9.6505972752,2.0462807288,-0.68776825,1.77151766,-2.65896808,,,
imu,188.204487,-0.4892889904,-9.641624983200002,2.0504677984,-0.50832241,2.0257326,-2.60662971,,,
imu,188.212948,-0.5126169496,-9.648802816800002,2.0510659512,-0.41112258,2.22013226,-2.72626027,,,
imu,188.221409,-0.5108224912,-9.652989886400002,2.0552530208,-0.21672292,2.60145467,-2.77112173,,,
imu,188.22987,-0.4928779072000001,-9.661962178400001,2.0612345488,-0.04475399000000001,2.94539253,-2.81598319,,,
imu,188.238331,-0.4833074624000001,-9.648802816800002,2.0600382432,-0.11204618,3.17717674,-2.83841392,,,
imu,188.246792,-0.4731388648000001,-9.651793580800001,2.072001299200001,0.0001074699999999984,3.46129932,-2.72626027,,,
imu,188.255253,-0.4486146000000001,-9.6535880392,2.0588419376,-0.007369440000000005,3.67812971,-2.76364482,,,
imu,188.263714,-0.4127254320000001,-9.644017594400001,2.072599452,-0.17933837,3.75289881,-2.68887572,,,
imu,188.272175,-0.3840140976,-9.6709344704,2.0887495776,-0.007369440000000005,3.96225229,-2.48699915,,,
imu,188.280636,-0.3535083048,-9.6876827488,2.0929366472,-0.16438455,3.90991392,-2.44213769,,,
imu,188.289097,-0.3355637208,-9.662560331200002,2.1096849256,-0.29149202,3.75289881,-2.38232241,,,
imu,188.297558,-0.3116376088,-9.644017594400001,2.1306202736,-0.35878421,3.71551426,-2.748691,,,
imu,188.306019,-0.3122357616,-9.655382497600002,2.1491630104,-0.39616876,3.53606842,-2.99542903,,,
imu,188.31448,-0.3367600264,-9.678112304,2.1545463856,-0.55318387,3.32671494,-3.18235178,,,
imu,188.322946,-0.3433397072,-9.666149248000002,2.132414732,-0.5980453299999999,3.10988455,-3.14496723,,,
imu,188.331412,-0.3523119992,-9.590183842400002,2.1282276624,-0.60552224,2.94539253,-3.13749032,,,
imu,188.339879,-0.3630787496,-9.545322382400002,2.1156664536,-0.43355331,2.75846978,-3.0477674,,,
imu,188.348345,-0.3792288752000001,-9.5501076048,2.1037033976,0.03749201999999999,2.73603905,-2.74121409,,,
imu,188.356811,-0.3870048616000001,-9.574631869600001,2.1013107864,0.38142988,2.63136231,-2.45709151,,,
imu,188.365277,-0.3852104032000001,-9.597361676,2.090544036,0.8375213899999999,2.65379304,-2.30755331,,,
imu,188.373743,-0.3852104032000001,-9.6159044128,2.081571744,1.10669015,2.68370068,-2.32250713,,,
imu,188.382209,-0.3935845424,-9.638036066400002,2.0791791328,1.28613599,2.57902394,-2.35241477,,,
imu,188.390675,-0.3989679176000001,-9.685888290400001,2.0749920632,1.22632071,2.45939338,-2.57672207,,,
imu,188.399141,-0.3983697648000001,-9.709814402400001,2.072599452,1.17398234,2.52668557,-2.65149117,,,
imu,188.407607,-0.4073420568000001,-9.7193848472,2.0618327016,0.97958268,2.60893158,-2.73373718,,,
imu,188.416073,-0.4091365152000001,-9.6912716656,2.0570474792,0.9646288599999999,2.7734236,-2.75616791,,,
imu,188.424539,-0.3911919312,-9.668541859200001,2.0552530208,0.94967504,2.93791562,-2.71130645,,,
imu,188.433005,-0.3756399584,-9.651793580800001,2.0510659512,0.8375213899999999,2.96782326,-2.65149117,,,
imu,188.441472,-0.3630787496,-9.638634219200002,2.0301306032,0.68050628,2.8481927,-2.8234601,,,
imu,188.449938,-0.3624805968,-9.6428212888,2.0355139784,0.65059864,2.81080815,-2.85336774,,,
imu,188.458404,-0.3463304712,-9.6494009696,2.045682576,0.5459219,2.79585433,-3.00290594,,,
imu,188.466766,-0.3457323184,-9.651793580800001,2.0522622568,0.5982602699999999,2.72108523,-2.88327538,,,
imu,188.475233,-0.3445360128,-9.667943706400001,2.0474770344,0.6132140899999999,2.54163939,-2.80850628,,,
imu,188.483699,-0.3487230824000001,-9.6799067624,2.0594400904,0.65059864,2.43696265,-2.81598319,,,
imu,188.492165,-0.361882444,-9.696655040800001,2.072001299200001,0.42629134,2.11545552,-2.95804448,,,
imu,188.500631,-0.3648732080000001,-9.701440263200002,2.0767865216,0.3963837,2.12293243,-2.88327538,,,
imu,188.509097,-0.3798270280000001,-9.702038416,2.0869551192,0.32909151,2.00330187,-2.8234601,,,
imu,188.517563,-0.3983697648000001,-9.7086180968,2.0881514248,0.14964567,1.92105586,-2.89075229,,,
imu,188.526379,-0.4097346680000001,-9.6942624296,2.081571744,0.0001074699999999984,1.77151766,-2.71878336,,,
imu,188.535194,-0.4151180432000001,-9.6954587352,2.0761883688,-0.08213854000000001,1.83133294,-2.62158353,,,
imu,188.54401,-0.4258847936,-9.678710456800001,2.0672160768,-0.127,1.85376367,-2.75616791,,,
imu,188.552825,-0.4360533912000001,-9.675719692800001,2.062430854400001,-0.15690764,2.08554788,-2.75616791,,,
imu,188.561641,-0.43366078,-9.6667474008,2.0540567152,-0.01484635000000001,2.33228591,-2.65149117,,,
imu,188.570457,-0.4228940296000001,-9.648204664000001,2.0708049936,-0.0522309,2.48182411,-2.74121409,,,
imu,188.579272,-0.4175106544000001,-9.631456385600002,2.0630290072,-0.07466163,2.57902394,-2.90570611,,,
imu,188.588088,-0.3989679176000001,-9.6434194416,2.0935348,-0.17186146,2.78090051,-3.02533667,,,
imu,188.596903,-0.3893974728000001,-9.693066124000001,2.102507092,-0.15690764,2.83323888,-3.24964397,,,
imu,187.798567,,,,,,,-89.9548676,171.077774,124.4219008
imu,187.900191,,,,,,,-89.46657959999999,170.8092156,124.617216
imu,188.001723,,,,,,,-90.27225480000001,171.1510172,124.3852792
imu,188.605719,-0.3810233336,-9.6709344704,2.0731976048,-0.02980017,3.05006927,-3.24964397,,,
imu,188.614535,-0.3523119992,-9.593772759200002,2.0779828272,0.0001074699999999984,2.99025399,-3.30945925,,,
imu,188.62335,-0.334965568,-9.580613397600002,2.081571744,0.26927623,2.99025399,-3.39918217,,,
imu,188.632166,-0.3337692624,-9.595567217600001,2.06362716,0.34404533,2.88557725,-3.33936689,,,
imu,188.640981,-0.3247969704000001,-9.6296619272,2.0791791328,0.44124516,2.76594669,-3.25712088,,,
imu,188.649797,-0.3152265256,-9.6296619272,2.0702068408,0.8749059399999999,2.7734236,-3.01785976,,,
imu,188.658613,-0.3176191368,-9.632054538400002,2.0702068408,0.97958268,2.70613141,-2.95056757,,,
imu,188.667428,-0.3224043592,-9.651793580800001,2.0708049936,1.00949032,2.6238854,-2.90570611,,,
imu,188.676244,-0.3337692624,-9.6643547896,2.0558511736,1.0693056,2.41453192,-3.02533667,,,
imu,188.685059,-0.3541064576,-9.675121540000001,2.0522622568,1.13659779,2.25751681,-3.10010577,,,
imu,188.693875,-0.3684621248000001,-9.685290137600001,2.0432899648,1.00949032,2.22013226,-3.25712088,,,
imu,188.702691,-0.3816214864,-9.703832874400002,2.0283361448,0.81509066,2.20517844,-3.33936689,,,
imu,188.711506,-0.4019586816,-9.7056273328,2.0295324504,0.8449983,2.21265535,-3.48890509,,,
imu,188.720322,-0.4151180432000001,-9.692467971200001,2.0115878664,0.65059864,2.16779389,-3.48890509,,,
imu,188.728798,-0.4216977240000001,-9.709216249600003,2.0085971024,0.66555246,2.324809,-3.39918217,,,
imu,188.737274,-0.4300718632,-9.697851346400002,2.012784172,0.32909151,2.19770153,-3.40665908,,,
imu,188.745751,-0.4205014184,-9.7008421104,2.0205601584,0.3216146,2.3995781,-3.18982869,,,
imu,188.754227,-0.3923882368,-9.690673512800002,2.0163730888,0.35899915,2.51920866,-3.04029049,,,
imu,188.762703,-0.3959771536000001,-9.6745233872,2.0241490752,0.22441477,2.49677793,-3.03281358,,,
imu,188.771179,-0.3935845424,-9.660765872800003,2.0271398392,0.03001510999999998,2.43696265,-2.99542903,,,
imu,188.779656,-0.3792288752000001,-9.658373261600001,2.027737992,0.01506129,2.53416248,-2.92065993,,,
imu,188.788132,-0.3720510416,-9.6535880392,2.0265416864,-0.01484635000000001,2.63883922,-2.88327538,,,
imu,188.796608,-0.391790084,-9.645213900000002,2.0259435336,0.17955331,2.49677793,-2.91318302,,,
imu,188.805084,-0.3798270280000001,-9.657176956,2.027737992,0.20946095,2.57154703,-3.06272122,,,
imu,188.813561,-0.3684621248000001,-9.651195428000001,2.03371952,0.11973803,2.55659321,-3.22721324,,,
imu,188.822037,-0.3714528888,-9.654186192000001,2.030728756,0.2468455,2.59397776,-3.35432071,,,
imu,188.830513,-0.382817792,-9.665551095200001,2.039701048,0.35152224,2.72108523,-3.36927453,,,
imu,188.838989,-0.3887993200000001,-9.669738164800002,2.027737992,0.6132140899999999,2.79585433,-3.39170526,,,
imu,188.847466,-0.3834159448,-9.678112304,2.0349158256,0.3889067899999999,2.69117759,-3.50385891,,,
imu,188.855942,-0.3822196392,-9.684093832000002,2.0349158256,0.35899915,2.69117759,-3.4216129,,,
imu,188.864418,-0.3792288752000001,-9.689477207200001,2.0271398392,0.4711528,2.71360832,-3.33188998,,,
imu,188.872894,-0.3714528888,-9.699047652,2.027737992,0.25432241,2.7734236,-3.40665908,,,
imu,188.881371,-0.3714528888,-9.681103068,2.0253453808,0.33656842,2.72108523,-3.30198234,,,
imu,188.889847,-0.3732473472,-9.685888290400001,2.0211583112,0.41881443,2.74351596,-3.24216706,,,
imu,188.898323,-0.3738455000000001,-9.683495679200002,2.0211583112,0.23936859,2.67622377,-3.15244414,,,
imu,188.906799,-0.3732473472,-9.681103068,2.0253453808,0.44872207,2.56407012,-3.26459779,,,
imu,188.915276,-0.3852104032000001,-9.683495679200002,2.0229527696,0.29918387,2.36967046,-3.33936689,,,
imu,188.923752,-0.400762376,-9.680504915200002,2.0193638528,0.16459949,2.45939338,-3.43656672,,,
imu,188.932217,-0.3929863896,-9.672728928800002,2.0163730888,0.31413769,2.53416248,-3.40665908,,,
imu,188.940682,-0.3947808480000001,-9.66016772,2.0079989496,0.56835263,2.49677793,-3.21973633,,,
imu,188.949146,-0.3911919312,-9.6745233872,2.0133823248,0.31413769,2.42200883,-3.36927453,,,
imu,188.957611,-0.3977716120000001,-9.6703363176,2.0193638528,0.3216146,2.33228591,-3.40665908,,,
imu,188.966076,-0.3840140976,-9.675121540000001,2.006802644,0.42629134,2.27994754,-3.39170526,,,
imu,188.974541,-0.3929863896,-9.686486443200002,2.015774936,0.4861066199999999,2.29490136,-3.27955161,,,
imu,188.983006,-0.4079402096,-9.6733270816,2.0115878664,0.44124516,2.27994754,-3.18982869,,,
imu,188.99147,-0.4049494456000001,-9.680504915200002,2.0074007968,0.33656842,2.24256299,-3.16739796,,,
imu,188.999935,-0.4121272792,-9.672728928800002,2.000821116,0.41881443,2.26499372,-3.13001341,,,
imu,189.0084,-0.4205014184,-9.673925234400002,1.9900543656,0.25432241,2.34723973,-3.14496723,,,
imu,189.016865,-0.424688488,-9.678112304,1.9864654488,0.35899915,2.41453192,-3.21225942,,,
imu,189.02533,-0.4240903352000001,-9.6817012208,1.9900543656,0.28423005,2.42200883,-3.18982869,,,
imu,189.033795,-0.4366515440000001,-9.6667474008,1.9882599072,0.23936859,2.58650085,-3.13001341,,,
imu,189.042259,-0.442633072,-9.669738164800002,1.985867296,0.03001510999999998,2.55659321,-3.13001341,,,
imu,189.050724,-0.4504090584,-9.676317845600002,1.9834746848,0.11973803,2.57902394,-2.92813684,,,
imu,189.059189,-0.4468201416000001,-9.701440263200002,1.9822783792,0.26927623,2.66874686,-2.94309066,,,
imu,189.067654,-0.4528016696000001,-9.710412555200001,1.9906525184,0.20946095,2.80333124,-2.98795212,,,
imu,189.076119,-0.4480164472000001,-9.724768222400002,2.0026155744,0.0001074699999999984,2.93043871,-2.92065993,,,
imu,189.084583,-0.4444275304,-9.731946056000002,1.9954377408,-0.09709236,3.08745382,-2.77112173,,,
imu,189.093048,-0.4420349192,-9.728955292000002,1.9990266576,-0.41859949,3.13979219,-2.72626027,,,
imu,189.101513,-0.4330626272,-9.723571916800001,2.0020174216,-0.4260764,3.31923803,-2.80102937,,,
imu,189.109978,-0.4109309736,-9.724170069600001,1.9852691432,-0.35878421,3.5958837,-2.8234601,,,
imu,189.118443,-0.3947808480000001,-9.741516500800001,2.0032137272,-0.53823005,3.76785263,-2.63653735,,,
imu,189.126907,-0.3720510416,-9.743909112,2.0002229632,-0.71019898,3.67812971,-2.4496146,,,
imu,189.135367,-0.3427415544,-9.714001472000001,2.0145786304,-0.8821679099999999,3.70056044,-2.60662971,,,
imu,189.143827,-0.3259932760000001,-9.704431027200002,2.0373084368,-1.15133667,3.7454219,-2.68887572,,,
imu,189.152287,-0.3259932760000001,-9.731347903200001,2.060636396,-1.3980747,3.64074516,-3.04029049,,,
imu,189.160746,-0.3343674152,-9.749890640000002,2.0630290072,-1.49527453,3.46129932,-3.32441307,,,
imu,189.169206,-0.3212080536,-9.703832874400002,2.051664104,-1.64481273,3.38653022,-3.42908981,,,
imu,189.177666,-0.3056560808,-9.630260080000001,2.0480751872,-1.5476129,3.28185348,-3.36927453,,,
imu,189.186126,-0.3068523864000001,-9.578818939200001,2.0408973536,-1.59247436,3.19960747,-3.5711511,,,
imu,189.194585,-0.3307784984000001,-9.568650341600001,2.039701048,-1.33825942,2.9977309,-3.496382,,,
imu,189.203045,-0.3487230824000001,-9.593174606400002,2.0391028952,-1.09152139,2.64631613,-3.36179762,,,
imu,189.211505,-0.3684621248000001,-9.614109954400002,2.036710284,-0.66533752,2.57154703,-3.0477674,,,
imu,189.219964,-0.3846122504,-9.619493329600001,2.0402992008,-0.41859949,2.64631613,-2.86084465,,,
imu,189.228424,-0.4037531400000001,-9.6326526912,2.0414955064,-0.44103022,2.49677793,-3.00290594,,,
imu,189.236884,-0.4031549872,-9.6535880392,2.0492714928,-0.29896893,2.45939338,-3.11505959,,,
imu,189.245344,-0.4199032656,-9.680504915200002,2.0462807288,-0.13447691,2.67622377,-3.10758268,,,
imu,189.253803,-0.4103328208,-9.7128051664,2.0564493264,-0.21672292,2.57902394,-3.24216706,,,
imu,189.262263,-0.4073420568000001,-9.7086180968,2.0361121312,-0.2765382,2.81828506,-3.10758268,,,
imu,189.270723,-0.400762376,-9.689477207200001,2.0325232144,-0.29149202,3.10240764,-2.98795212,,,
imu,189.279183,-0.3971734592000001,-9.675121540000001,2.0181675472,-0.29896893,3.28185348,-2.86084465,,,
imu,189.287642,-0.3786307224000001,-9.667345553600002,2.013980477600001,-0.69524516,3.33419185,-2.80850628,,,
imu,189.296102,-0.3541064576,-9.672728928800002,2.0211583112,-0.7251528,3.28933039,-2.84589083,,,
imu,189.304562,-0.3397507904000001,-9.672728928800002,2.012784172,-0.7251528,3.2220382,-2.95804448,,,
imu,189.313021,-0.3445360128,-9.6637566368,2.0193638528,-0.69524516,3.32671494,-2.92065993,,,
imu,189.321481,-0.3391526376000001,-9.657176956,2.0349158256,-0.82235263,3.26689966,-3.02533667,,,
imu,189.329941,-0.3523119992,-9.668541859200001,2.0289342976,-1.03918302,3.00520781,-3.11505959,,,
imu,189.338408,-0.3630787496,-9.664952942400001,2.0438881176,-0.98684465,2.86314652,-3.23469015,,,
imu,189.346876,-0.367863972,-9.6643547896,2.0504677984,-1.03170611,2.90800798,-3.17487487,,,
imu,189.355343,-0.3899956256000001,-9.6643547896,2.0564493264,-1.0242292,2.80333124,-3.26459779,,,
imu,189.36381,-0.4043512928,-9.676317845600002,2.0684123824,-1.06161375,2.79585433,-3.2720747,,,
imu,189.372278,-0.4264829464000001,-9.682299373600001,2.0779828272,-1.18872122,2.7734236,-3.25712088,,,
imu,189.380745,-0.4264829464000001,-9.6745233872,2.0929366472,-1.19619813,2.78090051,-3.24964397,,,
imu,189.389212,-0.4324644744,-9.661364025600001,2.0971237168,-1.18124431,2.86314652,-3.05524431,,,
imu,189.39768,-0.439642308,-9.647606511200001,2.105497856,-1.06909066,2.97530017,-2.87579847,,,
imu,189.406147,-0.4354552384000001,-9.648802816800002,2.1007126336,-1.10647521,3.04259236,-2.69635263,,,
imu,189.414614,-0.4294737104000001,-9.631456385600002,2.0923384944,-0.9644139199999999,3.08745382,-2.5991528,,,
imu,188.103153,,,,,,,-88.63649,171.3463324,123.4819464
imu,188.204685,,,,,,,-89.40554359999999,171.0411524,123.6528472
imu,188.306247,,,,,,,-87.3791484,170.2598916,121.9438392
imu,188.407962,,,,,,,-90.1501828,171.5172332,123.762712
imu,188.509372,,,,,,,-87.29369799999999,170.52845,122.1025328
imu,188.610935,,,,,,,-89.77175960000001,170.955702,124.3364504
imu,188.712497,,,,,,,-90.40653400000001,170.9923236,125.105504
imu,188.814151,,,,,,,-90.2600476,170.8702516,124.495144
imu,189.423082,-0.4163143488000001,-9.618297024,2.087553272,-0.6503837,3.23699202,-2.54681443,,,
imu,189.431549,-0.4193051128000001,-9.620091482400001,2.0929366472,-0.53823005,3.28185348,-2.70382954,,,
imu,189.440017,-0.4181088072000001,-9.611119190400002,2.1043015504,-0.38869185,3.50616078,-2.77859864,,,
imu,189.448484,-0.4216977240000001,-9.6505972752,2.1210498288,-0.32887657,3.46877623,-2.92065993,,,
imu,189.456951,-0.4210995712,-9.681103068,2.114470148,-0.2017691,3.58840679,-3.07767504,,,
imu,189.465419,-0.4019586816,-9.633250844,2.0977218696,0.03001510999999998,3.7454219,-3.07019813,,,
imu,189.473886,-0.385808556,-9.588389384000001,2.096525564,-0.01484635000000001,3.93234465,-3.01038285,,,
imu,189.482353,-0.3762381112000001,-9.590183842400002,2.0947311056,0.16459949,3.71551426,-2.98047521,,,
imu,189.490821,-0.35889168,-9.618895176800002,2.0941329528,0.35899915,3.70056044,-2.92065993,,,
imu,189.499288,-0.3451341656,-9.623082246400001,2.087553272,0.22441477,3.65569898,-2.95056757,,,
imu,189.507755,-0.3325729568,-9.608128426400002,2.0851606608,0.30666078,3.43139168,-2.63653735,,,
imu,189.516223,-0.3176191368,-9.616502565600001,2.087553272,0.3739529699999999,3.28185348,-2.39727623,,,
imu,189.52469,-0.3008708584000001,-9.633848996800001,2.0797772856,0.53844499,3.17717674,-2.34493786,,,
imu,189.533157,-0.3098431504,-9.642223136000002,2.0708049936,0.60573718,2.97530017,-2.41970696,,,
imu,189.54203,-0.3128339144,-9.657775108800001,2.0749920632,0.55339881,2.79585433,-2.55429134,,,
imu,189.550903,-0.3397507904000001,-9.675719692800001,2.0630290072,0.53844499,2.59397776,-2.57672207,,,
imu,189.559628,-0.3403489432000001,-9.672130776000001,2.0594400904,0.68050628,2.63136231,-2.57672207,,,
imu,189.5685,-0.3636769024000001,-9.675121540000001,2.0534585624,0.56087572,2.4743472,-2.68139881,,,
imu,189.577373,-0.391790084,-9.683495679200002,2.048673340000001,0.67302937,2.60145467,-2.69635263,,,
imu,189.586246,-0.4097346680000001,-9.687084596000002,2.0325232144,0.620691,2.60893158,-2.73373718,,,
imu,189.595118,-0.4025568344,-9.690075360000002,2.0295324504,0.46367589,2.76594669,-2.83093701,,,
imu,189.603991,-0.3989679176000001,-9.692467971200001,2.0325232144,0.30666078,2.96782326,-2.88327538,,,
imu,189.612864,-0.3977716120000001,-9.687084596000002,2.027737992,0.28423005,3.08745382,-2.8234601,,,
imu,189.621736,-0.3947808480000001,-9.680504915200002,2.0319250616,0.20198404,3.32671494,-2.68887572,,,
imu,189.630609,-0.3887993200000001,-9.682897526400001,2.031326908800001,0.09730729999999999,3.36409949,-2.62158353,,,
imu,189.639482,-0.3840140976,-9.686486443200002,2.0271398392,0.13469185,3.46129932,-2.53933752,,,
imu,189.648354,-0.3499193880000001,-9.687084596000002,2.0295324504,0.20946095,3.53606842,-2.41970696,,,
imu,189.657227,-0.3427415544,-9.690075360000002,2.021756464,0.22441477,3.55849915,-2.53186061,,,
imu,189.6661,-0.3457323184,-9.684093832000002,2.0241490752,-0.04475399000000001,3.60336061,-2.58419898,,,
imu,189.674972,-0.3397507904000001,-9.644017594400001,2.0408973536,0.02253820000000001,3.58840679,-2.41970696,,,
imu,189.683845,-0.31403022,-9.688879054400001,2.0301306032,0.11226112,3.70056044,-2.47204533,,,
imu,189.692718,-0.3194135952000001,-9.7074217912,2.0319250616,0.20198404,3.68560662,-2.5243837,,,
imu,189.70159,-0.3170209840000001,-9.692467971200001,2.0379065896,0.25432241,3.65569898,-2.48699915,,,
imu,189.710463,-0.3122357616,-9.704431027200002,2.0253453808,-0.06718472,3.67812971,-2.61410662,,,
imu,189.719336,-0.3104413032000001,-9.714001472000001,2.0163730888,-0.14943073,3.75289881,-2.50195297,,,
imu,189.728208,-0.3032634696000001,-9.6984494992,2.031326908800001,-0.38121494,3.6706528,-2.5991528,,,
imu,189.737081,-0.3170209840000001,-9.701440263200002,2.0379065896,-0.51579932,3.65569898,-2.748691,,,
imu,189.745504,-0.3253951232,-9.70502918,2.0301306032,-0.48589168,3.73046808,-2.80102937,,,
imu,189.753927,-0.320011748,-9.678112304,2.0253453808,-0.36626112,3.75289881,-2.68139881,,,
imu,189.762349,-0.3247969704000001,-9.666149248000002,2.0229527696,-0.31392275,3.78280645,-2.65896808,,,
imu,189.770772,-0.3289840400000001,-9.6733270816,2.0229527696,-0.4260764,3.75289881,-2.77112173,,,
imu,189.779195,-0.3463304712,-9.6799067624,2.0325232144,-0.65786061,3.80523718,-2.8982292,,,
imu,189.787618,-0.3493212352000001,-9.680504915200002,2.039701048,-0.65786061,4.05197521,-2.89075229,,,
imu,189.796041,-0.3642750552,-9.675121540000001,2.0361121312,-0.82235263,3.9697292,-2.9729983,,,
imu,189.804464,-0.3636769024000001,-9.690075360000002,2.039701048,-0.7550604399999999,4.126744309999999,-2.92813684,,,
imu,189.812887,-0.3642750552,-9.709216249600003,2.0480751872,-0.5307531400000001,4.47068217,-2.8234601,,,
imu,189.821309,-0.3744436528,-9.7265626808,2.0468788816,-0.76253735,4.59778964,-2.9729983,,,
imu,189.829732,-0.3696584304000001,-9.7265626808,2.0468788816,-0.8522602699999999,4.814620029999999,-3.03281358,,,
imu,189.838155,-0.3487230824000001,-9.723571916800001,2.0432899648,-0.9793677399999999,5.2408039,-2.95804448,,,
imu,189.846578,-0.3259932760000001,-9.766638918400002,2.0301306032,-1.13638285,5.375388279999999,-3.06272122,,,
imu,189.855001,-0.3098431504,-9.779200127200001,2.0319250616,-1.49527453,5.34548064,-3.11505959,,,
imu,189.863424,-0.2793373576,-9.731347903200001,2.051664104,-1.80182784,5.397819009999999,-2.99542903,,,
imu,189.871846,-0.2308869808,-9.675121540000001,2.0570474792,-1.94388913,5.47258811,-2.94309066,,,
imu,189.880269,-0.1920070488,-9.6284656216,2.0600382432,-2.24296553,5.29314227,-3.01785976,,,
imu,189.888692,-0.1722680064,-9.575828175200002,2.057645632,-2.11585806,4.88191222,-2.95056757,,,
imu,189.897115,-0.158510492,-9.561472508000001,2.057645632,-1.89902767,4.500589809999999,-3.03281358,,,
imu,189.905538,-0.1579123392,-9.562668813600002,2.0642253128,-1.68219728,3.84262173,-3.08515195,,,
imu,189.913961,-0.1609031032,-9.5489112992,2.084562508,-1.20367504,3.32671494,-3.08515195,,,
imu,189.922384,-0.1770532288,-9.552500216,2.096525564,-0.8672140899999999,2.78837742,-3.04029049,,,
imu,189.930806,-0.215335008,-9.568650341600001,2.0911421888,-0.5008455,2.36967046,-2.93561375,,,
imu,189.939229,-0.2637853848,-9.5907819952,2.112675689600001,-0.11204618,1.98834805,-2.87579847,,,
imu,189.947805,-0.2907022608000001,-9.6260730104,2.120451676000001,0.3216146,1.76404075,-2.81598319,,,
imu,189.95638,-0.31403022,-9.6296619272,2.1168627592,0.52349117,1.76404075,-2.75616791,,,
imu,189.964956,-0.340947096,-9.654784344800001,2.1186572176,0.55339881,1.76404075,-2.76364482,,,
imu,189.973531,-0.3559009160000001,-9.672728928800002,2.1120775368,0.38142988,1.83880985,-2.83093701,,,
imu,189.982106,-0.3511156936,-9.675719692800001,2.1048997032,0.20198404,1.97339423,-2.93561375,,,
imu,189.990682,-0.3463304712,-9.706823638400001,2.1096849256,0.32909151,2.27994754,-2.89075229,,,
imu,189.999257,-0.3391526376000001,-9.727758986400001,2.1037033976,0.27675314,2.57154703,-2.8234601,,,
imu,190.007833,-0.3313766512,-9.704431027200002,2.1186572176,-0.02980017,2.52668557,-2.99542903,,,
imu,190.016408,-0.3158246784000001,-9.701440263200002,2.1252368984,-0.28401511,2.66126995,-3.15992105,,,
imu,190.024984,-0.3026653168,-9.7056273328,2.1539482328,-0.5681376899999999,2.65379304,-3.23469015,,,
imu,190.033559,-0.296085636,-9.710412555200001,2.159331608,-0.70272207,2.58650085,-3.4216129,,,
imu,190.042135,-0.3122357616,-9.682299373600001,2.1587334552,-0.77001426,2.36219355,-3.36179762,,,
imu,190.05071,-0.3062542336,-9.612913648800001,2.1629205248,-0.83730645,2.22760917,-3.22721324,,,
imu,190.059285,-0.3002727056,-9.526779645600001,2.150957468800001,-0.9793677399999999,1.97339423,-3.11505959,,,
imu,190.067861,-0.3164228312,-9.5172092008,2.1491630104,-0.71767589,1.71917929,-2.99542903,,,
imu,190.076436,-0.3247969704000001,-9.553098368800002,2.129423968,-0.23915365,1.51730272,-2.65149117,,,
imu,190.085012,-0.3313766512,-9.545322382400002,2.1192553704,0.29918387,1.59954873,-2.32250713,,,
imu,190.093587,-0.305057928,-9.571641105600001,2.1246387456,0.70293701,1.54721036,-2.16549202,,,
imu,190.102163,-0.3164228312,-9.5776226336,2.1019089392,1.06182869,1.62197946,-2.21783039,,,
imu,190.110738,-0.3289840400000001,-9.604539509600002,2.0929366472,1.33099745,1.64441019,-2.38232241,,,
imu,190.119314,-0.3295821928000001,-9.6667474008,2.0749920632,1.55530475,1.79394839,-2.62906044,,,
imu,190.127889,-0.3253951232,-9.672130776000001,2.054654868000001,1.58521239,1.89114822,-2.80850628,,,
imu,190.136464,-0.3134320672,-9.667943706400001,2.060636396,1.65998149,2.07807097,-2.92065993,,,
imu,190.14504,-0.296085636,-9.693066124000001,2.0343176728,1.63755076,2.28742445,-3.00290594,,,
imu,190.15339,-0.2757484408,-9.669738164800002,2.0301306032,1.50296638,2.48182411,-3.10758268,,,
imu,190.161741,-0.2817299688000001,-9.6218859408,2.057645632,1.15902852,2.64631613,-3.27955161,,,
imu,190.170091,-0.2847207328,-9.638634219200002,2.0361121312,1.09921324,2.82576197,-3.32441307,,,
imu,190.178441,-0.2440463424,-9.714001472000001,2.012784172,1.15902852,2.86314652,-3.36179762,,,
imu,190.186792,-0.2398592728,-9.70502918,2.0211583112,1.0693056,2.85566961,-3.51133582,,,
imu,190.195142,-0.2595983152,-9.699047652,2.0235509224,0.9870595899999999,2.72108523,-3.69078166,,,
imu,190.203492,-0.2338777448,-9.711010708000002,2.015774936,0.8674290299999999,2.66126995,-3.86275059,,,
imu,190.211843,-0.2249054528,-9.693066124000001,2.027737992,0.6954601,2.51173175,-3.99733497,,,
imu,190.220193,-0.23926112,-9.702038416,2.045084423200001,0.53844499,2.324809,-4.057150249999999,,,
imu,190.228544,-0.2685706072,-9.723571916800001,2.0558511736,0.38142988,2.12293243,-4.04219643,,,
imu,190.236894,-0.2913004136,-9.713403319200001,2.066617924,0.3739529699999999,1.96591732,-3.9449966,,,
imu,188.915622,,,,,,,-89.57644440000001,170.83363,123.9336128
imu,189.017185,,,,,,,-89.490994,170.4918284,124.3974864
imu,189.118778,,,,,,,-89.6618948,170.5406572,124.6416304
imu,189.22031,,,,,,,-87.843022,170.8824588,123.7382976
imu,189.321842,,,,,,,-89.50320119999999,170.6749364,124.5073512
imu,189.423435,,,,,,,-87.72095,170.1134052,121.7607312
imu,189.524997,,,,,,,-89.50320119999999,171.566062,124.3852792
imu,189.626682,,,,,,,-89.50320119999999,170.5040356,121.5776232
imu,190.245244,-0.2966837888,-9.7008421104,2.0600382432,0.2468455,1.94348659,-3.95995042,,,
imu,190.253595,-0.3265914288,-9.7056273328,2.0821698968,0.12721494,1.83880985,-3.91508896,,,
imu,190.261945,-0.3391526376000001,-9.693066124000001,2.0863569664,-0.03727708,1.89862513,-3.81788913,,,
imu,190.270295,-0.3463304712,-9.701440263200002,2.0881514248,-0.0522309,2.05564024,-3.82536604,,,
imu,190.278646,-0.3606861384,-9.6733270816,2.0851606608,-0.09709236,2.1005017,-3.70573548,,,
imu,190.286996,-0.3576953744,-9.647606511200001,2.0803754384,-0.18681528,2.33976282,-3.68330475,,,
imu,190.295347,-0.3564990688,-9.632054538400002,2.06362716,-0.21672292,2.53416248,-3.60853565,,,
imu,190.303697,-0.3606861384,-9.646410205600002,2.0570474792,0.02253820000000001,2.78090051,-3.65339711,,,
imu,190.312047,-0.3487230824000001,-9.637437913600001,2.0612345488,0.17955331,2.99025399,-3.69825857,,,
imu,190.320398,-0.3385544848000001,-9.652989886400002,2.084562508,0.09730729999999999,3.13979219,-3.69078166,,,
imu,190.328748,-0.3271895816000001,-9.702038416,2.0887495776,0.04496892999999999,3.28933039,-3.76555076,,,
imu,190.337098,-0.3080486920000001,-9.679308609600001,2.075590216,0.05992275,3.23699202,-3.75807385,,,
imu,190.345449,-0.296085636,-9.61530626,2.072599452,0.01506129,3.10988455,-3.72816621,,,
imu,190.353915,-0.2799355104,-9.603343204000002,2.0690105352,0.08983038999999998,3.11736146,-3.84031986,,,
imu,190.362381,-0.287113344,-9.632054538400002,2.0678142296,0.09730729999999999,2.96034635,-3.86275059,,,
imu,190.370847,-0.2966837888,-9.630858232800001,2.0684123824,0.09730729999999999,2.73603905,-3.76555076,,,
imu,190.379313,-0.3068523864000001,-9.6458120528,2.060636396,0.25432241,2.60145467,-3.54124346,,,
imu,190.387779,-0.3104413032000001,-9.6523917336,2.0708049936,0.25432241,2.41453192,-3.52628964,,,
imu,190.396245,-0.3194135952000001,-9.655382497600002,2.0678142296,0.23936859,2.29490136,-3.40665908,,,
imu,190.404711,-0.3391526376000001,-9.662560331200002,2.0534585624,0.42629134,2.16031698,-3.3468438,,,
imu,190.413177,-0.3541064576,-9.669738164800002,2.060636396,0.42629134,2.19770153,-3.36179762,,,
imu,190.421644,-0.3541064576,-9.6703363176,2.042691812,0.47862971,2.37714737,-3.31693616,,,
imu,190.43011,-0.361882444,-9.673925234400002,2.0468788816,0.41881443,2.39210119,-3.47395127,,,
imu,190.438576,-0.3594898328000001,-9.6703363176,2.0379065896,0.46367589,2.49677793,-3.43656672,,,
imu,190.447042,-0.3541064576,-9.6733270816,2.0211583112,0.35899915,2.5491163,-3.67582784,,,
imu,190.455508,-0.3559009160000001,-9.6817012208,2.0181675472,0.51601426,2.6238854,-3.71321239,,,
imu,190.463974,-0.34393786,-9.703234721600001,2.0115878664,0.35899915,2.7734236,-3.67582784,,,
imu,190.47244,-0.3385544848000001,-9.709216249600003,2.009793408,0.41133752,2.8481927,-3.73564312,,,
imu,190.480906,-0.3325729568,-9.7151977776,2.0121860192,0.44124516,2.78837742,-3.91508896,,,
imu,190.489372,-0.3277877344,-9.701440263200002,2.0014192688,0.44124516,2.76594669,-3.93004278,,,
imu,190.497838,-0.3373581792000001,-9.692467971200001,1.9936432824,0.20946095,2.69117759,-4.057150249999999,,,
imu,190.506304,-0.3253951232,-9.6912716656,1.997830352,0.44872207,2.72856214,-4.15435008,,,
imu,190.51477,-0.323002512,-9.680504915200002,1.9912506712,0.66555246,2.60893158,-4.22164227,,,
imu,190.523237,-0.3176191368,-9.672728928800002,2.0014192688,0.51601426,2.57902394,-4.47585721,,,
imu,190.531703,-0.3277877344,-9.6637566368,1.9882599072,0.68050628,2.37714737,-4.67773378,,,
imu,190.540169,-0.323002512,-9.635643455200002,2.000821116,0.68798319,2.26499372,-4.93942563,,,
imu,190.548635,-0.340947096,-9.630858232800001,1.9882599072,0.8823828499999999,2.14536316,-5.16373293,,,
imu,190.557464,-0.3553027632,-9.614109954400002,1.9685208648,1.21136689,2.04816333,-5.53010152,,,
imu,190.566293,-0.3499193880000001,-9.591380148,1.9416039888,1.50296638,1.90610204,-6.075915950000001,,,
imu,190.575121,-0.3636769024000001,-9.513022131200001,1.926052016,1.87681188,1.86124058,-6.666591840000001,,,
imu,190.58395,-0.3720510416,-9.4621791432,1.9039203624,2.62450288,1.92853277,-7.10772953,,,
imu,190.592779,-0.3660695136000001,-9.446627170400001,1.8758071808,3.60397809,1.98087114,-7.384375199999999,,,
imu,190.601608,-0.3654713608,-9.4591883792,1.8369272488,4.81523751,1.80890221,-8.02738946,,,
imu,190.610437,-0.3989679176000001,-9.452010545600002,1.8249641928,6.25828114,1.68927165,-8.67040372,,,
imu,190.619266,-0.4193051128000001,-9.416121377600001,1.803430692,7.77609387,1.58459491,-9.29846416,,,
imu,190.628095,-0.4360533912000001,-9.4071490856,1.7741212048,9.5182139,1.53225654,-10.03867825,,,
imu,190.636923,-0.4797185456,-9.453805004000001,1.7352412728,11.3126723,1.49487199,-10.79384616,,,
imu,190.645752,-0.5209910888,-9.495675700000001,1.6921742712,12.99497705,1.51730272,-11.40695278,,,
imu,190.654557,-0.5754229936,-9.543527924000001,1.6580795616,14.49035905,1.59207182,-11.8705212,,,
imu,190.663386,-0.6053306336000001,-9.6218859408,1.6245830048,15.67918774,1.94348659,-12.27427434,,,
imu,190.672215,-0.6286585928,-9.7325442088,1.6036476568,16.32967891,2.25751681,-12.47615091,,,
imu,190.681044,-0.6950535536000001,-9.801929933600002,1.5809178504,16.92783171,2.73603905,-12.40885872,,,
imu,190.689872,-0.7177833600000001,-9.886867631200001,1.5767307808,17.04746227,3.32671494,-12.58082765,,,
imu,190.698701,-0.6609588440000002,-9.919167882400002,1.5510102104,16.89044716,3.94729847,-12.85747332,,,
imu,190.70753,-0.6107140088,-9.9030177568,1.5211025704,16.21752526,4.54545127,-13.19393427,,,
imu,190.716359,-0.5634599376000001,-9.8581562968,1.5001672224,15.36515752,4.784712389999999,-13.29861101,,,
imu,190.725188,-0.4964668240000001,-9.8563618384,1.4971764584,14.81186618,4.77723548,-13.45562612,,,
imu,190.734017,-0.4755314760000001,-9.849184004800001,1.447529776,14.28100557,4.6426511,-13.37338011,,,
imu,190.742846,-0.4324644744,-9.8653341304,1.4511186928,13.7052835,4.29871324,-12.82756568,,,
imu,190.751675,-0.4031549872,-9.861147060800002,1.4397537896,13.33891491,3.90991392,-11.75089064,,,
imu,190.760144,-0.4181088072000001,-9.85456738,1.4098461496,12.92020795,3.13231528,-10.92843054,,,
imu,190.768614,-0.4222958768,-9.856959991200002,1.3763495928,12.57627009,2.38462428,-10.29289319,,,
imu,190.777084,-0.4276792520000001,-9.856959991200002,1.3596013144,12.26223987,1.48739508,-9.552679099999999,,,
imu,190.785554,-0.4288755576000001,-9.8330338792,1.3649846896,12.01550184,0.4929660499999997,-8.82741883,,,
imu,190.794024,-0.4498109056,-9.8432024768,1.381732968,11.75380999,-0.4416477000000003,-8.04982019,,,
imu,190.802494,-0.4827093096,-9.880287950400001,1.3859200376,11.20799556,-1.34635381,-7.34699065,,,
imu,190.810964,-0.5329541448,-9.883876867200001,1.4008738576,10.37058164,-2.40059812,-6.61425347,,,
imu,190.819434,-0.5574784096000001,-9.858754449600001,1.4469316232,9.45092171,-3.06604311,-5.86656247,,,
imu,190.827904,-0.5646562432000001,-9.901821451200002,1.4899986248,8.434061949999998,-3.51465771,-5.193640569999999,,,
imu,190.836374,-0.5873860496000001,-9.950869980800002,1.5276822512,7.47701747,-4.12028742,-4.55810322,,,
imu,190.844843,-0.6388271904000001,-9.9933388296,1.5659640304,6.35548097,-4.62124039,-3.90013514,,,
imu,190.853313,-0.6854831088000001,-10.0136760248,1.5988624344,4.87505279,-4.99508589,-3.45152054,,,
imu,190.861783,-0.7213722768,-10.0274335392,1.6335552968,3.23013259,-5.152101,-2.92813684,,,
imu,190.870253,-0.7973376824000001,-10.0316206088,1.6706407704,1.65250458,-4.95022443,-2.35989168,,,
imu,190.878723,-0.8433954480000001,-10.0214520112,1.6742296872,0.08235347999999998,-4.74834786,-1.86641562,,,
imu,190.887193,-0.8661252544000001,-9.970010870400001,1.65987402,-1.74201256,-4.32216399,-1.5523854,,,
imu,190.895663,-0.8846679912000001,-9.924551257600003,1.6730333816,-3.13271782,-3.68662664,-1.37293956,,,
imu,190.904133,-0.8942384360000002,-9.9012232984,1.668846312,-4.02247011,-2.87912036,-1.14115535,,,
imu,190.912603,-0.9091922560000001,-9.870717505600002,1.680809368,-5.129052789999999,-2.17629082,-1.0290017,,,
imu,190.921073,-0.8870606024000001,-9.8228652816,1.6963613408,-6.20572783,-1.4884151,-1.34303192,,,
imu,190.929542,-0.8798827688,-9.802528086400002,1.7292597448,-6.65434243,-0.8080162900000003,-1.67949287,,,
imu,190.938012,-0.8523677400000002,-9.7702278352,1.7071280912,-7.207633769999999,-0.1051867500000001,-2.18792275,,,
imu,190.946482,-0.8416009896000001,-9.700243957600001,1.6873890488,-7.31231051,0.4854891399999999,-2.59167589,,,
imu,190.954952,-0.7955432240000001,-9.590183842400002,1.6694444648,-7.117910849999999,0.9640113799999996,-2.83841392,,,
imu,190.963412,-0.771617112,-9.481320032800001,1.6676500064,-6.62443479,1.34533379,-3.10758268,,,
imu,190.971872,-0.7578595976000001,-9.4526086984,1.6730333816,-6.05618963,1.62945637,-3.25712088,,,
imu,190.980331,-0.7231667352000001,-9.451412392800002,1.6215922408,-4.71782274,1.79394839,-3.08515195,,,
imu,190.988791,-0.6681366776000001,-9.435860420000001,1.5863012256,-3.32711748,1.8761944,-2.78607555,,,
imu,190.997251,-0.6442105656,-9.414326919200002,1.582114156,-2.15324261,1.71917929,-2.72626027,,,
imu,191.00571,-0.6238733704,-9.3963823352,1.5665621832,-0.82982954,1.39019525,-2.62906044,,,
imu,191.01417,-0.6107140088,-9.416719530400002,1.5545991272,0.66555246,1.06868812,-2.5243837,,,
imu,191.02263,-0.6101158560000001,-9.4735440464,1.5408416128,2.06373463,0.5453044199999999,-2.34493786,,,
imu,191.03109,-0.6274622872000001,-9.537546396000002,1.522298876,3.10302512,0.19388965,-2.32998404,,,
imu,191.039549,-0.6495939408000001,-9.5949690648,1.5175136536,3.94043904,0.01444380999999995,-2.24773803,,,
imu,191.048009,-0.6483976352,-9.648204664000001,1.5288785568,4.52363802,-0.2995864100000003,-2.18792275,,,
imu,191.056469,-0.6759126640000002,-9.694860582400002,1.5205044176,4.89000661,-0.4715553400000001,-2.1505382,,,
imu,189.728267,,,,,,,-89.64968760000001,171.688134,124.8125312
imu,189.829646,,,,,,,-89.5276156,171.2242604,125.0810896
imu,189.931178,,,,,,,-90.22342599999999,171.4684044,124.5317656
imu,190.032771,,,,,,,-90.0769396,171.382954,124.312036
imu,190.134792,,,,,,,-89.9670748,171.1632244,124.3852792
imu,190.235896,,,,,,,-87.64770680000001,171.1143956,123.1157304
imu,190.337459,,,,,,,-90.17459720000001,171.8468276,124.7026664
imu,190.439021,,,,,,,-87.52563479999999,170.4918284,122.1879832
imu,191.064929,-0.7147925960000001,-9.767237071200002,1.5324674736,4.80028369,-0.4266938800000002,-2.41970696,,,
imu,191.073388,-0.7668318896,-9.8049206976,1.5438323768,4.4339151,-0.2472480400000001,-2.62906044,,,
imu,191.081848,-0.8188711832000002,-9.830641268,1.537252696,3.589024269999999,-0.01546383000000029,-2.98047521,,,
imu,191.090308,-0.8523677400000002,-9.850978463200002,1.5545991272,2.55721069,0.5752120599999997,-3.30198234,,,
imu,191.098767,-0.8810790744000001,-9.872511964000001,1.552206516,1.64502767,1.19579559,-3.48142818,,,
imu,191.107227,-0.8924439776000002,-9.876699033600001,1.5504120576,0.7253677399999999,1.92853277,-3.63844329,,,
imu,191.115687,-0.8750975464000001,-9.900625145600001,1.5510102104,-0.23915365,2.53416248,-3.72816621,,,
imu,191.124147,-0.8565548096000002,-9.900625145600001,1.55519728,-1.18872122,3.13979219,-3.61601256,,,
imu,191.132606,-0.8284416280000001,-9.872511964000001,1.55519728,-2.16819643,3.64074516,-3.54124346,,,
imu,191.141066,-0.7686263480000001,-9.852174768800001,1.5534028216,-2.93084125,4.149175039999999,-3.38422835,,,
imu,191.149526,-0.7518780696000001,-9.818678212000002,1.5617769608,-3.51404023,4.17908268,-3.17487487,,,
imu,191.157986,-0.7016332344,-9.783387196800001,1.579123392,-3.81311663,4.22394414,-3.10010577,,,
imu,191.166449,-0.6795015808000001,-9.7325442088,1.6078347264,-4.0149932,4.16412886,-2.95804448,,,
imu,191.174913,-0.6806978864000002,-9.722973764,1.6221903936,-4.19443904,3.90991392,-2.83841392,,,
imu,191.183376,-0.6448087184,-9.6799067624,1.6305645328,-4.09723921,3.5211146,-2.71878336,,,
imu,191.19184,-0.6364345792000001,-9.611119190400002,1.6341534496,-3.96265483,3.13979219,-2.63653735,,,
imu,191.200303,-0.6424161072,-9.5656595776,1.6461165056,-3.36450203,2.81828506,-2.50942988,,,
imu,191.208767,-0.6472013296000001,-9.531564868,1.6473128112,-2.66167249,2.68370068,-2.49447606,,,
imu,191.21723,-0.6687348304,-9.536350090400001,1.6694444648,-2.13828879,2.40705501,-2.6739219,,,
imu,191.225694,-0.6812960392000001,-9.5776226336,1.6832019792,-1.45788998,2.16779389,-2.86084465,,,
imu,191.234157,-0.7309427216000001,-9.6117173432,1.6580795616,-0.54570696,1.84628676,-3.09262886,,,
imu,191.242621,-0.7435039304000001,-9.617698871200002,1.6263774632,-0.01484635000000001,1.81637912,-3.17487487,,,
imu,191.251085,-0.7650374312,-9.5842023144,1.6233866992,0.59078336,1.70422547,-3.35432071,,,
imu,191.259548,-0.7949450712000001,-9.6051376624,1.6132181016,1.12912088,1.86871749,-3.43656672,,,
imu,191.268012,-0.8039173632000001,-9.6817012208,1.573141864,1.77213514,1.96591732,-3.40665908,,,
imu,191.276475,-0.8164785720000002,-9.770825988000002,1.5623751136,2.22822665,2.26499372,-3.07019813,,,
imu,191.284939,-0.8015247520000001,-9.825856045600002,1.5456268352,2.13850373,2.60893158,-2.96552139,,,
imu,191.293402,-0.7883653904000001,-9.877297186400002,1.5181118064,1.77213514,2.7734236,-3.04029049,,,
imu,191.301866,-0.7752060288000001,-9.914980812800001,1.507345056,1.23379762,2.9229618,-3.08515195,,,
imu,191.310329,-0.7441020832,-9.914980812800001,1.4672688184,0.51601426,2.9229618,-3.13001341,,,
imu,191.318793,-0.7112036792,-9.886269478400003,1.4481279288,0.03749201999999999,2.85566961,-3.15244414,,,
imu,191.327256,-0.6842868032,-9.828846809600002,1.4277907336,-0.5756146,2.57154703,-3.07767504,,,
imu,191.33572,-0.6615569968000001,-9.803126239200001,1.4152295248,-0.88964482,2.33976282,-3.07019813,,,
imu,191.344183,-0.6298548984000001,-9.758862932000001,1.3823311208,-1.40555161,2.03320951,-3.06272122,,,
imu,191.352647,-0.6214807592000001,-9.744507264800001,1.369769912,-1.86164312,1.55468727,-2.98795212,,,
imu,191.361111,-0.6531828576,-9.703832874400002,1.3799385096,-1.8466893,1.14345722,-2.62158353,,,
imu,191.369927,-0.70282954,-9.6846919848,1.3942941768,-1.77939711,0.78456554,-2.47952224,,,
imu,191.378744,-0.7327371800000001,-9.6876827488,1.4188184416,-1.71958183,0.62007352,-2.29259949,,,
imu,191.387561,-0.741709472,-9.699047652,1.4194165944,-1.70462801,0.5453044199999999,-2.19539966,,,
imu,191.396378,-0.7542706808000001,-9.710412555200001,1.4391556368,-1.74201256,0.5303505999999998,-2.17296893,,,
imu,191.405195,-0.7423076248,-9.7265626808,1.4433427064,-1.42798234,0.8144731799999998,-2.0757691,,,
imu,191.414012,-0.7530743752000001,-9.7301515976,1.4582965264,-1.53265908,1.08364194,-2.21783039,,,
imu,191.422829,-0.7937487656000001,-9.770825988000002,1.5115321256,-1.46536689,1.36028761,-2.27016876,,,
imu,191.431646,-0.8840698384000001,-9.841408018400001,1.534261932,-1.58499745,1.84628676,-2.41970696,,,
imu,191.440463,-0.9749890640000002,-9.923354952,1.5683566416,-1.93641222,2.60893158,-2.69635263,,,
imu,191.44928,-1.127518028,-10.0441818176,1.6341534496,-2.72148777,3.61831443,-2.83841392,,,
imu,191.458097,-1.4786337216,-10.2140572128,1.731652356,-3.82059354,5.36043446,-2.98047521,,,
imu,191.466914,-2.0438881176,-10.34804344,1.7573729264,-5.66739031,8.485782839999999,-3.24964397,,,
imu,191.475731,-2.6336667784,-10.4323829848,1.8082159144,-8.47123156,13.32334361,-4.04219643,,,
imu,191.484548,-3.1588449368,-10.4832259728,1.8429087768,-11.40218028,20.06003952,-5.806747189999999,,,
imu,191.493364,-3.652919149600001,-10.5526116976,1.8608533608,-14.52005175,28.92765478,-8.565726979999999,,,
imu,191.502181,-3.97771612,-10.6237918808,1.8470958464,-18.1463531,39.23831367,-11.84061356,,,
imu,191.510998,-4.0243720384,-10.5627802952,1.8590589024,-21.80256209,50.34152502,-15.76599131,,,
imu,191.519815,-3.9035451728,-10.5460320168,1.8799942504,-25.60830928,61.67652057999999,-20.22222967,,,
imu,191.528632,-3.63377826,-10.4341774432,1.7968510112,-29.10002625,72.8320703,-24.11022287,,,
imu,191.537449,-3.250960468,-10.1841495728,1.7041373272,-32.07583643,83.55395924,-27.09350996,,,
imu,191.546266,-2.8119163128,-9.9658238008,1.6670518536,-34.04226376,93.13188095,-28.64870724,,,
imu,191.555083,-2.386629672,-9.725964528,1.6293682272,-35.05164661,101.01254409,-29.0674142,,,
imu,191.5639,-1.9577541144,-9.404756474400001,1.588095684,-35.05164661,107.27071776,-28.10289281,,,
imu,191.572376,-1.4158276776,-8.999208876,1.4750448048,-33.94506393,111.67461775,-26.47292643,,,
imu,191.580852,-0.7955432240000001,-8.4644602728,1.384723732,-31.96368278,113.82049092,-24.89529842,,,
imu,191.589329,-0.1788476872,-8.185122915200001,1.5904882952,-28.17288941,113.79806019,-22.68213306,,,
imu,191.597805,0.2715613712,-8.2072545688,1.8494884576,-23.24560572,111.56994101,-19.93063018,,,
imu,191.606281,0.601143564,-8.3675595192,1.9523707392,-18.12392237,107.65204017,-16.90248163,,,
imu,191.614757,0.8643307960000001,-8.505732816000002,2.0193638528,-13.54057654,102.20884969,-13.76965634,,,
imu,191.623234,1.1400792368,-8.6271578344,2.1455740936,-9.413322220000001,95.89086074000001,-10.72655397,,,
imu,191.63171,1.3476382584,-8.768321895200001,2.2765695568,-5.929082159999999,88.51862748,-8.11711238,,,
imu,191.640186,1.4571002208,-8.9980125704,2.3680869352,-3.16262546,80.39122631000001,-5.92637775,,,
imu,191.648662,1.4870078608,-9.325800304800001,2.423715145600001,-1.27096723,71.90493346000001,-3.8702275,,,
imu,191.657139,1.4792318744,-9.639830524800002,2.4338837432,-0.41859949,63.35134841999999,-2.18792275,,,
imu,191.665615,1.444539012,-9.8210708232,2.4207243816,-0.23915365,55.09683978,-0.7000176599999999,,,
imu,191.674091,1.3590031616,-9.935318008000001,2.395601964,-0.90459864,47.06663844,0.4215188400000001,,,
imu,191.682567,1.2525319632,-9.952664439200001,2.3405719064,-1.67472037,39.45514405999999,0.83274889,,,
imu,191.691044,1.1101715968,-9.927542021600003,2.2717843344,-2.71401086,32.27731046,0.6533030499999999,,,
imu,191.69952,0.9702038416000002,-9.883876867200001,2.2418766944,-3.57385551,25.8770755,0.3168421000000001,,,
imu,191.707996,0.8128896552000001,-9.8198745176,2.2065856792,-4.18696213,20.06003952,0.3317959200000002,,,
imu,191.716472,0.6561736216000001,-9.716992236000001,2.150359316,-4.40379252,14.99817145,0.6383492300000002,,,
imu,191.724949,0.535346756,-9.6499991224,2.1641168304,-4.34397724,10.41482562,0.58601086,,,
imu,191.733425,0.424688488,-9.6326526912,2.19821154,-3.74582444,6.37729422,0.5934877699999999,,,
imu,191.741901,0.2087553272,-9.6523917336,2.2299136384,-3.52151714,2.97530017,0.5411494000000001,,,
imu,191.75027,-0.0107667504,-9.693066124000001,2.2442693056,-3.22991765,0.1639820099999998,0.7654567000000001,,,
imu,191.758747,-0.1716698536,-9.665551095200001,2.1826595672,-3.06542563,-1.87721442,0.6607799600000002,,,
imu,191.767223,-0.260196468,-9.7337405144,2.2963085992,-2.80373378,-3.38007333,0.3542266500000002,,,
imu,191.775688,-0.3983697648000001,-9.669140012000002,2.2795603208,-2.95327198,-4.31468708,0.1448731699999999,,,
imu,191.784153,-0.5090280328000001,-9.7056273328,2.3286088504,-3.35702512,-4.97265516,-0.1990646899999999,,,
imu,191.792617,-0.6101158560000001,-9.7492924872,2.338777448000001,-3.57385551,-5.19696246,-0.18411087,,,
imu,191.801082,-0.6663422192,-9.682299373600001,2.331001461600001,-3.95517792,-4.86050151,-0.34860289,,,
imu,191.809547,-0.6836886504,-9.583006008800002,2.3633017128,-4.3888387,-4.2548718,-0.4981410899999998,,,
imu,191.818012,-0.6735200528,-9.5590798968,2.389620436,-4.47108471,-3.75391883,-0.74487912,,,
imu,191.826477,-0.7183815128000002,-9.588987536800001,2.413546548,-4.48603853,-3.17071985,-1.12620153,,,
imu,191.834941,-0.7441020832,-9.554892827200002,2.4081631728,-4.2393005,-2.56509014,-1.30564737,,,
imu,191.843406,-0.7458965416000001,-9.444832712,2.3854333664,-4.02994702,-1.89964515,-1.53743158,,,
imu,191.851871,-0.7189796656000002,-9.316229860000002,2.3962001168,-3.45422495,-1.24915398,-1.58229304,,,
imu,191.860336,-0.7106055264000001,-9.272564705600002,2.4416597296,-2.55699575,-0.5911859000000002,-1.79164652,,,
imu,191.868801,-0.7201759712000001,-9.328791068800001,2.458408008,-1.5476129,0.2237972899999998,-1.79912343,,,
imu,191.877265,-0.7123999848000001,-9.434065961600002,2.4596043136,-0.38121494,1.08364194,-1.34303192,,,
imu,190.540584,,,,,,,-89.94266040000001,171.7125484,125.349648
imu,190.642116,,,,,,,-90.16238999999999,170.9190804,122.1269472
imu,190.743709,,,,,,,-89.97928200000001,170.101198,124.8247384
imu,190.845393,,,,,,,-89.8450028,170.4429996,125.2641976
imu,190.946834,,,,,,,-89.97928200000001,171.2486748,125.3618552
imu,191.048396,,,,,,,-89.307886,171.3707468,125.837936
imu,191.149959,,,,,,,-88.64869719999999,171.199846,124.9712248
imu,191.251521,,,,,,,-89.063742,171.566062,125.8257288
imu,191.88573,-0.6765108168000001,-9.4938812416,2.4637913832,0.08235347999999998,1.83880985,-1.12620153,,,
imu,191.894195,-0.6160973840000001,-9.5154147424,2.481137814400001,0.7104139199999999,2.53416248,-1.16358608,,,
imu,191.90266,-0.5861897440000001,-9.562668813600002,2.4954934816,1.26370526,3.09493073,-1.29817046,,,
imu,191.911125,-0.5473098120000001,-9.616502565600001,2.497287940000001,1.2936129,3.50616078,-1.56733922,,,
imu,191.91959,-0.481513004,-9.669140012000002,2.494895328800001,1.30856672,4.08188285,-1.73183124,,,
imu,191.928054,-0.430670016,-9.6775141512,2.4817359672,1.13659779,4.30619015,-1.95613854,,,
imu,191.936519,-0.406743904,-9.673925234400002,2.499082398400001,0.8749059399999999,4.4183438,-2.21783039,,,
imu,191.944984,-0.3660695136000001,-9.6817012208,2.5008768568,0.26927623,4.48563599,-2.57672207,,,
imu,191.953449,-0.3206099008000001,-9.683495679200002,2.494895328800001,0.007584380000000002,4.47068217,-2.87579847,,,
imu,191.961914,-0.2966837888,-9.6535880392,2.5104473016,-0.38121494,4.46320526,-3.16739796,,,
imu,191.970378,-0.272159524,-9.623680399200001,2.5104473016,-0.7251528,4.11179049,-3.46647436,,,
imu,191.978856,-0.23926112,-9.591380148,2.5230085104,-0.874691,3.72299117,-3.59358183,,,
imu,191.987333,-0.2428500368,-9.594370912,2.536167872,-0.77001426,3.35662258,-3.60105874,,,
imu,191.995811,-0.2607946208,-9.610521037600002,2.541551247200001,-0.50832241,2.81828506,-3.496382,,,
imu,192.004289,-0.2643835376,-9.627269316000001,2.548130928,-0.73262971,2.30985518,-3.62348947,,,
imu,192.012766,-0.2817299688000001,-9.603343204000002,2.545738316800001,-0.98684465,1.77899457,-3.71321239,,,
imu,192.021244,-0.3008708584000001,-9.6009505928,2.560093984,-0.91207555,1.2780416,-3.66835093,,,
imu,192.029721,-0.3337692624,-9.5949690648,2.557103220000001,-0.88964482,0.9191499199999997,-3.72816621,,,
imu,192.038199,-0.3714528888,-9.579417092000002,2.5559069144,-1.00179847,0.41819695,-3.66087402,,,
imu,192.046676,-0.4169125016,-9.585398620000001,2.5499253864,-0.9943215599999999,-0.02294074000000013,-3.67582784,,,
imu,192.055154,-0.4629702672000001,-9.605735815200001,2.5475327752,-0.82982954,-0.2248173100000002,-3.62348947,,,
imu,192.063631,-0.5168040192000001,-9.5907819952,2.5325789552,-0.9793677399999999,-0.2921095,-3.63096638,,,
imu,192.072109,-0.5526931872,-9.589585689600002,2.5188214408,-0.9943215599999999,-0.23229422,-3.51133582,,,
imu,192.080586,-0.5820026744000001,-9.529770409600001,2.499082398400001,-0.88964482,0.006966899999999665,-3.47395127,,,
imu,192.089064,-0.5891805080000001,-9.5082369088,2.5164288296,-0.91207555,0.3658585799999998,-3.57862801,,,
imu,192.097541,-0.5933675776,-9.547714993600001,2.52719558,-0.81487572,0.6051196999999999,-3.70573548,,,
imu,192.106019,-0.5778156048000002,-9.560874355200001,2.5074565376,-0.44850713,0.98644211,-3.60105874,,,
imu,192.114496,-0.5473098120000001,-9.516611048000001,2.4799415088,-0.14943073,1.24813396,-3.48890509,,,
imu,192.122974,-0.5263744640000001,-9.4699551296,2.485324884000001,0.0001074699999999984,1.18084177,-3.69078166,,,
imu,192.131451,-0.5281689224000001,-9.4729458936,2.4919045648,0.5459219,1.24813396,-3.61601256,,,
imu,192.139929,-0.5467116592000001,-9.533957479200001,2.4895119536,0.85995212,1.22570323,-3.6459202,,,
imu,192.148407,-0.5461135064000001,-9.594370912,2.4966897872,0.9272443100000001,1.19579559,-3.39170526,,,
imu,192.156884,-0.5479079648000001,-9.627867468800002,2.506858384800001,1.00201341,1.16588795,-3.15244414,,,
imu,192.165362,-0.5365430616000001,-9.6326526912,2.5158306768,0.82256757,1.06868812,-3.15244414,,,
imu,192.173839,-0.5371412144000001,-9.633848996800001,2.512839912800001,0.56087572,1.0537343,-3.10010577,,,
imu,192.182305,-0.5461135064000001,-9.6428212888,2.5080546904,0.44872207,0.9565344699999998,-3.22721324,,,
imu,192.190771,-0.5377393672000002,-9.637437913600001,2.5056620792,0.20198404,0.9041961000000001,-3.30945925,,,
imu,192.199237,-0.5479079648000001,-9.609324732000001,2.5176251352,0.16459949,0.8817653699999997,-3.30198234,,,
imu,192.207703,-0.5491042704000001,-9.599156134400001,2.5146343712,0.02253820000000001,0.8369039099999998,-3.2720747,,,
imu,192.21617,-0.5526931872,-9.5949690648,2.5038676208,-0.0522309,0.7920424499999998,-3.1973056,,,
imu,192.224636,-0.5520950344000001,-9.5656595776,2.506260232,-0.34383039,0.6724118899999998,-3.13749032,,,
imu,192.233102,-0.5544876456000001,-9.562070660800002,2.5194195936,-0.38121494,0.6798887999999996,-3.1225365,,,
imu,192.241568,-0.5784137576,-9.559678049600002,2.5230085104,-0.20924601,0.72475026,-2.99542903,,,
imu,192.250034,-0.5754229936,-9.5638651192,2.5194195936,-0.19429219,0.7920424499999998,-2.92065993,,,
imu,192.2585,-0.5861897440000001,-9.585398620000001,2.5343734136,-0.06718472,0.8294269999999999,-2.81598319,,,
imu,192.266966,-0.5891805080000001,-9.595567217600001,2.5349715664,-0.21672292,0.8742884599999998,-2.76364482,,,
imu,192.275432,-0.601143564,-9.606932120800002,2.5517198448,-0.44103022,0.98644211,-2.84589083,,,
imu,192.283898,-0.6125084672000001,-9.585398620000001,2.5445420112,-0.54570696,1.15093413,-2.95804448,,,
imu,192.292364,-0.6125084672000001,-9.564463272000001,2.5325789552,-0.6279529699999999,1.2780416,-2.90570611,,,
imu,192.30083,-0.5987509528,-9.5566872856,2.52719558,-0.54570696,1.62945637,-2.8982292,,,
imu,192.309296,-0.5957601888000001,-9.530966715200002,2.5307844968,-0.79244499,1.79394839,-3.07767504,,,
imu,192.317763,-0.5981528,-9.526779645600001,2.5313826496,-0.69524516,2.15284007,-3.01785976,,,
imu,192.326229,-0.5724322296000001,-9.524387034400002,2.5385604832,-0.38869185,2.51173175,-2.748691,,,
imu,192.334695,-0.5760211464000001,-9.510031367200002,2.5373641776,-0.34383039,2.58650085,-2.84589083,,,
imu,192.343161,-0.5616654792000001,-9.509433214400001,2.5499253864,-0.03727708,2.64631613,-2.91318302,,,
imu,192.351627,-0.5616654792000001,-9.538742701600002,2.5493272336,-0.02232326000000001,2.84071579,-2.98795212,,,
imu,192.360093,-0.5449172008000001,-9.546518688,2.5499253864,0.03749201999999999,2.95286944,-3.07019813,,,
imu,192.368559,-0.5395338256000001,-9.556089132800002,2.560093984,0.01506129,3.16969983,-3.09262886,,,
imu,192.377025,-0.5221873944000001,-9.571042952800001,2.5612902896,0.05244583999999999,3.35662258,-2.99542903,,,
imu,192.385824,-0.5000557408,-9.5800152448,2.555308761600001,-0.007369440000000005,3.45382241,-3.0477674,,,
imu,192.394622,-0.4689517952000001,-9.575230022400001,2.545738316800001,-0.14195382,3.54354533,-3.16739796,,,
imu,192.40342,-0.4522035168,-9.577024480800002,2.5654773592,0.03001510999999998,3.64074516,-3.26459779,,,
imu,192.412219,-0.4450256832000001,-9.594370912,2.570860734400001,-0.0522309,3.33419185,-3.30198234,,,
imu,192.421017,-0.4456238360000001,-9.589585689600002,2.5517198448,-0.11952309,3.19960747,-3.3468438,,,
imu,192.429815,-0.4384460024000001,-9.5638651192,2.5565050672,-0.127,3.17717674,-3.45899745,,,
imu,192.438614,-0.4378478496000001,-9.5501076048,2.562486595200001,-0.21672292,2.79585433,-3.46647436,,,
imu,192.447412,-0.4480164472000001,-9.530966715200002,2.5696644288,-0.09709236,2.64631613,-3.39918217,,,
imu,192.45621,-0.4510072112,-9.519003659200001,2.5582995256,-0.0522309,2.27247063,-3.33188998,,,
imu,192.465009,-0.4731388648000001,-9.520199964800002,2.5612902896,0.13469185,2.09302479,-3.15244414,,,
imu,192.473807,-0.5012520464000001,-9.519003659200001,2.5547106088,0.41881443,2.15284007,-3.09262886,,,
imu,192.482605,-0.5239818528000001,-9.5082369088,2.5523179976,0.60573718,1.98834805,-3.1225365,,,
imu,192.491404,-0.5293652280000001,-9.526181492800001,2.5535143032,0.80761375,1.83133294,-3.08515195,,,
imu,192.500202,-0.5383375200000001,-9.531564868,2.5499253864,0.82256757,1.90610204,-3.26459779,,,
imu,192.509,-0.5341504504000001,-9.552500216,2.5373641776,0.8749059399999999,1.90610204,-3.24964397,,,
imu,192.517799,-0.5395338256000001,-9.533957479200001,2.5248029688,0.88985976,2.01825569,-3.3468438,,,
imu,192.526597,-0.5287670752,-9.538742701600002,2.5116436072,1.18145925,2.2500399,-3.24964397,,,
imu,192.535395,-0.5305615336,-9.562070660800002,2.5158306768,1.26370526,2.19770153,-3.15244414,,,
imu,192.544194,-0.5347486032000001,-9.5877912312,2.5116436072,1.15155161,2.24256299,-3.24964397,,,
imu,192.552992,-0.5180003248000001,-9.6009505928,2.5134380656,1.07678251,2.20517844,-3.36927453,,,
imu,192.561791,-0.5329541448,-9.593174606400002,2.5050639264,1.03192105,2.19770153,-3.32441307,,,
imu,192.570589,-0.5227855472,-9.583006008800002,2.5098491488,1.03939796,2.40705501,-3.26459779,,,
imu,192.579387,-0.5078317272000001,-9.597361676,2.497287940000001,0.81509066,2.4743472,-3.18982869,,,
imu,192.587863,-0.5066354216000001,-9.5907819952,2.4871193424,0.8823828499999999,2.59397776,-3.07019813,,,
imu,192.59634,-0.4952705184000001,-9.606333968000001,2.481137814400001,0.80761375,2.64631613,-3.02533667,,,
imu,192.604816,-0.4976631296000001,-9.632054538400002,2.4721655224,0.8524752099999999,2.68370068,-2.96552139,,,
imu,192.613292,-0.4988594352000001,-9.658971414400002,2.5074565376,0.4711528,2.72856214,-3.05524431,,,
imu,192.621769,-0.4970649768000001,-9.6523917336,2.506260232,0.05244583999999999,2.73603905,-3.36179762,,,
imu,192.630245,-0.5126169496,-9.651195428000001,2.5265974272,-0.03727708,2.78837742,-3.8702275,,,
imu,192.638721,-0.5275707696,-9.660765872800003,2.5463364696,-0.58309151,2.66126995,-4.19173463,,,
imu,192.647197,-0.5287670752,-9.667943706400001,2.5373641776,-0.7550604399999999,2.63136231,-4.17678081,,,
imu,192.655674,-0.5251781584,-9.588987536800001,2.515232524,-0.91955246,2.66126995,-4.26650373,,,
imu,192.66415,-0.5084298800000001,-9.492684936000002,2.494895328800001,-1.20367504,2.59397776,-4.13939626,,,
imu,192.672626,-0.5060372688000001,-9.4621791432,2.48233412,-0.88964482,2.51173175,-3.92256587,,,
imu,192.681102,-0.5144114080000001,-9.4753385048,2.4721655224,-0.25410747,2.324809,-3.60853565,,,
imu,192.689579,-0.5317578392000001,-9.528574104,2.4901101064,0.36647606,2.08554788,-3.33936689,,,
imu,192.698055,-0.5646562432000001,-9.574631869600001,2.485324884000001,0.64312173,1.89114822,-3.23469015,,,
imu,191.353112,,,,,,,-86.3049148,170.406378,124.128928
imu,191.454643,,,,,,,-88.63649,172.237458,125.3862696
imu,191.556267,,,,,,,-87.64770680000001,171.7369628,122.6884784
imu,191.657799,,,,,,,-96.1683324,174.7155196,119.0141112
imu,191.759362,,,,,,,-97.75526839999999,175.350294,114.1922672
imu,191.860955,,,,,,,-98.19472760000001,175.960654,115.6083024
imu,191.962517,,,,,,,-96.9129716,175.533402,115.583888
imu,192.064202,,,,,,,-97.425674,175.2160148,114.7171768
imu,192.706531,-0.5790119104,-9.591380148,2.479343356,0.97210577,1.75656384,-3.07767504,,,
imu,192.715007,-0.5921712720000001,-9.604539509600002,2.4745581336,0.71789083,1.77151766,-3.2720747,,,
imu,192.723484,-0.6035361752000001,-9.608128426400002,2.4679784528,0.73284465,1.94348659,-3.41413599,,,
imu,192.165978,,,,,,,-97.3158092,175.5089876,115.339744
imu,192.267205,,,,,,,-97.4500884,175.0084924,114.3265464
imu,192.368706,,,,,,,-98.0116196,174.9596636,115.8524464
imu,192.470299,,,,,,,-94.9354052,174.4591684,113.0081688
imu,192.571862,,,,,,,-97.23035879999999,174.923042,115.5106448
imu,192.673455,,,,,,,-94.97202680000001,174.0563308,112.9105112
