Type,Timestamp,Data Accelerometer X,Data Accelerometer Y,Data Accelerometer Z,Data Gyroscope X,Data Gyroscope Y,Data Gyroscope Z,Data Magnetometer X,Data Magnetometer Y,Data Magnetometer Z
imu,482.517437,-1.2513356576,-9.655980650400002,2.2992993632,3.70117792,4.20151341,-3.98238115,,,
imu,482.526242,-1.2393726016,-9.721179305600002,2.3178421,3.84323921,4.62769728,-4.10948862,,,
imu,482.535047,-1.2190354064,-9.767835224,2.331001461600001,3.80585466,4.99406587,-4.23659609,,,
imu,482.543852,-1.1939129888,-9.7780038216,2.3393756008,3.56659354,5.263234629999999,-4.22164227,,,
imu,482.552657,-1.1819499328,-9.782789044000001,2.3633017128,3.06564057,5.36791137,-3.99733497,,,
imu,482.561462,-1.1669961128,-9.783387196800001,2.3698813936,2.57216451,5.58474176,-3.82536604,,,
imu,482.570267,-1.1562293624,-9.7923594888,2.3650961712,1.98148862,5.52492648,-3.60853565,,,
imu,482.579072,-1.1490515288,-9.766638918400002,2.344758976,1.65998149,5.71184923,-3.38422835,,,
imu,482.587877,-1.109573444,-9.737329431200001,2.350740504,1.17398234,5.77166451,-3.15992105,,,
imu,482.596682,-1.1161531248,-9.697851346400002,2.335786684,0.66555246,5.42772665,-3.30945925,,,
imu,482.605487,-1.1113679024,-9.669738164800002,2.3256180864,0.35899915,5.27071154,-3.47395127,,,
imu,482.614292,-1.1023956104,-9.6499991224,2.3082716552,0.07487657,5.0164966,-3.73564312,,,
imu,482.623097,-1.0952177768,-9.6117173432,2.2801584736,0.12721494,4.82957385,-3.91508896,,,
imu,482.631902,-1.1221346528,-9.578220786400001,2.281952932,0.31413769,4.65760492,-3.95995042,,,
imu,482.640707,-1.1233309584,-9.5632669664,2.2735787928,0.4861066199999999,4.44825144,-4.28893446,,,
imu,482.649512,-1.1149568192,-9.5632669664,2.2687935704,0.6954601,4.14169813,-4.46090339,,,
imu,482.658317,-1.1149568192,-9.561472508000001,2.2675972648,1.05435178,3.9697292,-4.66277996,,,
imu,482.667122,-1.1376866256,-9.554892827200002,2.2825510848,1.30856672,3.93982156,-4.82727198,,,
imu,482.675927,-1.163407196,-9.560874355200001,2.2777658624,1.34595127,3.76785263,-4.931948719999999,,,
imu,482.684397,-1.2004926696,-9.554294674400001,2.269989876,1.6674584,3.65569898,-4.79736434,,,
imu,482.692867,-1.217240948,-9.5602762024,2.2622138896,1.80204278,3.93234465,-4.715118329999999,,,
imu,482.701336,-1.229204004,-9.582407856000001,2.2646065008,2.01139626,4.17908268,-4.55810322,,,
imu,482.709806,-1.2268113928,-9.585398620000001,2.2687935704,2.03382699,4.38095925,-4.47585721,,,
imu,482.718276,-1.247148588,-9.585996772800002,2.2681954176,2.10111918,4.77723548,-4.23659609,,,
imu,482.726746,-1.2250169344,-9.627269316000001,2.2861400016,2.37028794,5.12117334,-4.034719519999999,,,
imu,482.735216,-1.2136520312,-9.710412555200001,2.305879044,2.47496468,5.45763429,-4.057150249999999,,,
imu,482.743686,-1.223222476,-9.748694334400001,2.3178421,2.44505704,5.65203395,-3.90761205,,,
imu,482.752156,-1.2004926696,-9.7056273328,2.2717843344,2.16093446,5.95858726,-3.77302767,,,
imu,482.760626,-1.214250184,-9.675121540000001,2.290327071200001,2.01139626,6.14551001,-3.71321239,,,
imu,482.769096,-1.2280076984,-9.686486443200002,2.3321977672,1.83942733,6.30252512,-3.71321239,,,
imu,482.777566,-1.1975019056,-9.7163940832,2.329805156,1.68988913,6.63150916,-3.83284295,,,
imu,482.786035,-1.1657998072,-9.706823638400001,2.3184402528,1.45810492,6.72123208,-3.98985806,,,
imu,482.794505,-1.1795573216,-9.668541859200001,2.3262162392,1.12164397,6.75861663,-4.169303899999999,,,
imu,482.802975,-1.1550330568,-9.6703363176,2.325019933600001,0.83004448,6.5866477,-4.647826139999999,,,
imu,482.811445,-1.139481084,-9.676915998400002,2.2987012104,0.65807555,6.54926315,-4.8422258,,,
imu,482.819915,-1.1681924184,-9.664952942400001,2.2915233768,0.55339881,6.63150916,-4.78241052,,,
imu,482.828385,-1.2190354064,-9.635045302400002,2.2831492376,0.5459219,6.5866477,-4.59548777,,,
imu,482.836855,-1.235185532,-9.5907819952,2.2622138896,0.70293701,6.840862639999999,-4.602964679999999,,,
imu,482.845325,-1.2238206288,-9.594370912,2.2723824872,0.9571519499999999,6.97544702,-5.021671639999999,,,
imu,482.853795,-1.2507375048,-9.5949690648,2.2526434448,1.26370526,7.19227741,-5.477763149999999,,,
imu,482.862264,-1.2854303672,-9.596165370400001,2.2628120424,1.42819728,7.43153853,-5.90394702,,,
imu,482.870734,-1.2824396032,-9.595567217600001,2.2825510848,1.48053565,7.80538403,-6.19554651,,,
imu,482.879204,-1.2812432976,-9.597361676,2.2885326128,1.60016621,8.31381391,-6.12825432,,,
imu,482.887701,-1.2812432976,-9.588389384000001,2.2981030576,1.63755076,9.01664345,-5.9637623,,,
imu,482.896198,-1.2603079496,-9.591978300800001,2.296906752,1.368382,9.48768878,-5.74693191,,,
imu,482.904694,-1.2399707544,-9.5842023144,2.3082716552,1.35342818,9.97368793,-5.57496298,,,
imu,482.913191,-1.268083936,-9.605735815200001,2.3262162392,1.36090509,10.24285669,-5.567486069999999,,,
imu,482.921687,-1.2985897288,-9.623082246400001,2.314851336,1.32352054,10.6989482,-5.6646859,,,
imu,482.930184,-1.4140332192,-9.593772759200002,2.2963085992,1.39081273,11.45411611,-5.522624609999999,,,
imu,482.938681,-1.6072365736,-9.5740337168,2.2855418488,1.43567419,12.792483,-5.216071299999999,,,
imu,482.947177,-1.7687378296,-9.5668558832,2.2652046536,1.71231986,14.93087926,-5.044102369999999,,,
imu,482.955674,-1.7950565528,-9.597959828800002,2.25802682,2.04878081,17.90668944,-5.22354821,,,
imu,482.96417,-1.7513913984,-9.610521037600002,2.2544379032,2.27308811,21.03951473,-5.761885729999999,,,
imu,482.972667,-1.707726244,-9.6434194416,2.2646065008,2.54973378,23.8583098,-6.38994617,,,
imu,482.981164,-1.6544906448,-9.634447149600001,2.2436711528,2.7889949,26.27335173,-7.09277571,,,
imu,482.98966,-1.5743381696,-9.612315496,2.2658028064,3.0133022,28.26220979,-8.27412749,,,
imu,482.998157,-1.4421464008,-9.627269316000001,2.2813547792,3.03573293,29.88469926,-9.6274482,,,
imu,483.006653,-1.3512271752,-9.654186192000001,2.308869808,3.02077911,31.16325087,-10.49476976,,,
imu,483.01515,-1.2848322144,-9.700243957600001,2.3286088504,2.97591765,31.99318788,-10.87609217,,,
imu,483.023647,-1.223222476,-9.725366375200002,2.3274125448,2.73665653,32.36703338,-11.24993767,,,
imu,483.032143,-1.1089752912,-9.713403319200001,2.3274125448,2.40019558,32.12777226,-11.67612154,,,
imu,483.04064,-1.037795108,-9.706823638400001,2.3489460456,1.8917657,31.46232727,-12.46119709,,,
imu,483.049136,-1.0060930096,-9.702636568800001,2.353731268,1.39828964,30.57257498,-12.8425195,,,
imu,483.057633,-0.9893447312000001,-9.7074217912,2.3369829896,1.07678251,29.48094612,-12.97710388,,,
imu,483.06613,-0.963026008,-9.728955292000002,2.3429645176,0.6954601,28.47904018,-12.79765804,,,
imu,483.074626,-0.9157719368000001,-9.710412555200001,2.3339922256,0.22441477,27.43227278,-12.49110473,,,
imu,483.083123,-0.900219964,-9.672130776000001,2.3274125448,0.08235347999999998,25.92193696,-12.30418198,,,
imu,483.091558,-0.8840698384000001,-9.6667474008,2.3561238792,-0.17186146,24.41160114,-12.22193597,,,
imu,483.099994,-0.8541621984000002,-9.672130776000001,2.3423663648,-0.10456927,22.65452729,-12.04996704,,,
imu,483.108429,-0.8302360864000001,-9.6709344704,2.3555257264,-0.23915365,20.86006889,-11.83313665,,,
imu,483.116865,-0.8248527112,-9.6523917336,2.3615072544,-0.45598404,18.85625701,-11.59387553,,,
imu,483.125301,-0.8087025856000001,-9.632054538400002,2.359712796,-0.4260764,16.68795311,-11.30227604,,,
imu,483.133736,-0.8093007384,-9.602745051200001,2.3555257264,-0.5008455,14.63927977,-10.80132307,,,
imu,483.142172,-0.8272453224,-9.595567217600001,2.3531331152,-0.30644584,12.70276008,-10.0012937,,,
imu,483.150607,-0.8368157672000002,-9.600352440000002,2.3459552816,-0.23167674,10.75876348,-9.223695059999999,,,
imu,483.159043,-0.8679197128000001,-9.5698466472,2.3375811424,-0.03727708,8.941874349999999,-8.326465859999999,,,
imu,483.167478,-0.9091922560000001,-9.5381445488,2.34774974,0.26927623,7.244615779999999,-6.995575880000001,,,
imu,483.175914,-0.9151737840000002,-9.553098368800002,2.3453571288,0.56835263,5.45763429,-5.95628539,,,
imu,483.18435,-0.9091922560000001,-9.5566872856,2.3423663648,0.80761375,3.81271409,-5.11139456,,,
imu,483.192785,-0.9522592576000002,-9.530966715200002,2.3375811424,1.0693056,2.08554788,-4.244073,,,
imu,483.201221,-1.0025040928,-9.5327611736,2.3172439472,1.49548947,0.4705353199999998,-3.43656672,,,
imu,483.209656,-1.0395895664,-9.552500216,2.3280106976,1.79456587,-1.06223123,-2.84589083,,,
imu,483.218092,-1.0533470808,-9.5907819952,2.3292070032,2.09364227,-2.32582902,-2.3748455,,,
imu,483.226527,-1.0653101368,-9.627269316000001,2.3262162392,2.37028794,-3.48475007,-1.97109236,,,
imu,483.234963,-1.1131623608,-9.641026830400001,2.331001461600001,2.46001086,-4.65114803,-1.68696978,,,
imu,483.243399,-1.1436681536,-9.642223136000002,2.3459552816,2.33290339,-5.69791543,-1.53743158,,,
imu,483.251834,-1.1538367512,-9.657176956,2.34774974,1.99644244,-6.610098450000001,-1.29069355,,,
imu,483.26027,-1.178361016,-9.675719692800001,2.3435626704,1.87681188,-7.3204049,-1.12620153,,,
imu,483.268705,-1.2058760448,-9.665551095200001,2.3525349624,1.57773548,-7.90360388,-1.00657097,,,
imu,483.277141,-1.2339892264,-9.632054538400002,2.3453571288,1.26370526,-8.19520337,-0.8645096799999998,,,
imu,483.285576,-1.2423633656,-9.6326526912,2.362105407200001,0.9646288599999999,-8.531664319999999,-0.71497148,,,
imu,483.294037,-1.2513356576,-9.642223136000002,2.3549275736,0.7403215599999999,-8.84569454,-0.7299252999999999,,,
imu,483.302498,-1.259111644,-9.668541859200001,2.3585164904,0.43376825,-8.95784819,-0.6701100199999999,,,
imu,483.310959,-1.2656913248,-9.666149248000002,2.3471515872,0.14964567,-9.13729403,-0.7224483899999998,,,
imu,483.31942,-1.2686820888,-9.630260080000001,2.350740504,-0.0522309,-9.21206313,-0.68506384,,,
imu,483.327881,-1.265093172,-9.590183842400002,2.341768212,-0.08213854000000001,-9.15224785,-0.8121713099999999,,,
imu,483.336342,-1.2483448936,-9.5698466472,2.3453571288,-0.02232326000000001,-9.15972476,-0.79721749,,,
imu,483.344803,-1.2393726016,-9.5842023144,2.3369829896,0.1720764,-9.17467858,-0.7897405799999999,,,
imu,483.353264,-1.2423633656,-9.575230022400001,2.3280106976,0.3963837,-9.07000184,-0.68506384,,,
imu,483.361725,-1.244157824,-9.554294674400001,2.3292070032,0.55339881,-9.1148633,-0.5654332799999999,,,
imu,483.370186,-1.2357836848,-9.541135312800002,2.3321977672,1.00949032,-9.18215549,-0.5803870999999998,,,
imu,483.378647,-1.2483448936,-9.541135312800002,2.338777448000001,1.31604363,-9.22701695,-0.7224483899999998,,,
imu,483.387108,-1.274065464,-9.552500216,2.34774974,1.71231986,-9.2644015,-0.79721749,,,
imu,483.395569,-1.2752617696,-9.544126076800001,2.3369829896,2.00391935,-9.2644015,-0.8719865899999999,,,
imu,483.40403,-1.2674857832,-9.566257730400002,2.341768212,2.54973378,-8.93541746,-0.9018942299999999,,,
imu,483.412491,-1.280046992,-9.592576453600001,2.362105407200001,2.79647181,-8.90550982,-0.99161715,,,
imu,483.420952,-1.2842340616,-9.6248767048,2.3848352136,2.96844074,-8.73354089,-0.96918642,,,
imu,483.429413,-1.289019284,-9.6218859408,2.3878259776,2.83385636,-8.64381797,-0.9617095099999999,,,
imu,483.437874,-1.295000812,-9.588389384000001,2.3800499912,2.59459524,-8.44941831,-0.9542325999999999,,,
imu,483.446335,-1.3027767984,-9.583006008800002,2.3938075056,2.50487232,-8.18024955,-1.0290017,,,
imu,483.454796,-1.3111509376,-9.624278552000002,2.3938075056,2.36281103,-7.93351152,-1.06638625,,,
imu,483.463257,-1.2997860344,-9.658971414400002,2.3854333664,2.31047266,-7.791450230000001,-0.9617095099999999,,,
imu,483.471623,-1.2698783944,-9.6733270816,2.3585164904,2.0413039,-7.41012782,-0.9243249599999999,,,
imu,483.480084,-1.2794488392,-9.632054538400002,2.3082716552,2.01139626,-7.05123614,-0.6102947399999998,,,
imu,483.488545,-1.2615042552,-9.6159044128,2.3232254752,1.97401171,-6.939082490000001,-0.4831872699999999,,,
imu,483.49738,-1.2423633656,-9.644615747200001,2.320832864,2.06373463,-6.83440575,-0.6102947399999998,,,
imu,483.506216,-1.2435596712,-9.6494009696,2.2992993632,2.30299575,-6.74468283,-0.76730985,,,
imu,483.515051,-1.238176296,-9.6326526912,2.278962168,2.38524176,-6.886744119999999,-1.08881698,,,
imu,483.523887,-1.235185532,-9.591978300800001,2.2747750984,2.49739541,-6.976467039999999,-1.27573973,,,
imu,483.532722,-1.229204004,-9.566257730400002,2.2574286672,2.80394872,-6.886744119999999,-1.41032411,,,
imu,483.541558,-1.2387744488,-9.554294674400001,2.25802682,3.07311748,-6.961513220000001,-1.60472377,,,
imu,483.550393,-1.2417652128,-9.5489112992,2.246063764000001,3.21517877,-6.782067379999999,-1.50752394,,,
imu,483.559229,-1.2507375048,-9.553696521600001,2.240082236,3.40957843,-6.70729828,-1.4776163,,,
imu,483.568064,-1.250139352,-9.568650341600001,2.2466619168,3.42453225,-6.692344459999999,-1.41780102,,,
imu,483.5769,-1.2459522824,-9.5776226336,2.246063764000001,3.47687062,-6.602621539999999,-1.33555501,,,
imu,483.585735,-1.2543264216,-9.618895176800002,2.234100708,3.70865483,-6.587667720000001,-1.5523854,,,
imu,483.594571,-1.2579153384,-9.682897526400001,2.2173524296,3.87314685,-6.587667720000001,-1.75426197,,,
imu,483.603406,-1.2597097968,-9.6954587352,2.2137635128,3.78342393,-6.61757536,-2.15801511,,,
imu,483.612242,-1.2656913248,-9.6817012208,2.2035949152,3.54416281,-6.70729828,-2.34493786,,,
imu,483.621077,-1.292010048,-9.636241608,2.1964170816,3.48434753,-6.69982137,-2.47952224,,,
imu,483.629913,-1.3051694096,-9.6296619272,2.189239248,3.46939371,-6.59514463,-2.70382954,,,
imu,483.638748,-1.318926924,-9.6799067624,2.1928281648,3.62640882,-6.55028317,-2.77859864,,,
imu,483.647584,-1.3225158408,-9.714599624800002,2.1814632616,3.49182444,-6.281114410000001,-2.77859864,,,
imu,483.656419,-1.3147398544,-9.7074217912,2.1808651088,3.3123786,-6.041853290000001,-2.62906044,,,
imu,483.665255,-1.312945396,-9.6876827488,2.1748835808,3.05068675,-5.68296161,-2.53186061,,,
imu,483.67409,-1.3344788968,-9.686486443200002,2.1748835808,2.90114855,-5.294162289999999,-2.59167589,,,
imu,483.682926,-1.3290955216,-9.708019944000002,2.1599297608,2.81142563,-5.054901170000001,-2.56924516,,,
imu,483.691761,-1.327899216,-9.7086180968,2.1629205248,2.57964142,-4.86797842,-2.63653735,,,
imu,483.700222,-1.3296936744,-9.704431027200002,2.1539482328,2.43010322,-4.62124039,-2.63653735,,,
imu,483.708683,-1.3296936744,-9.702636568800001,2.1461722464,2.17588828,-4.53151747,-2.84589083,,,
imu,483.717144,-1.3213195352,-9.699047652,2.12344244,2.17588828,-4.21748725,-2.94309066,,,
imu,483.725605,-1.33088998,-9.6912716656,2.1348073432,2.14598064,-3.94831849,-3.10758268,,,
imu,483.734066,-1.3350770496,-9.689477207200001,2.1186572176,1.91419643,-3.93336467,-2.9729983,,,
imu,483.742527,-1.339862272,-9.669738164800002,2.102507092,1.68988913,-3.55951917,-2.87579847,,,
imu,483.750988,-1.3302918272,-9.662560331200002,2.1096849256,1.65998149,-3.25296586,-2.60662971,,,
imu,483.759449,-1.318926924,-9.651793580800001,2.1060960088,1.51044329,-2.99127401,-2.39727623,,,
imu,483.76791,-1.3117490904,-9.644615747200001,2.105497856,1.40576655,-2.82678199,-2.48699915,,,
imu,483.776371,-1.309954632,-9.646410205600002,2.102507092,1.45810492,-2.69967452,-2.41970696,,,
imu,483.784832,-1.309954632,-9.647606511200001,2.099516328,1.24127453,-2.61742851,-2.56924516,,,
imu,483.793293,-1.3153380072,-9.662560331200002,2.099516328,1.18145925,-2.6099516,-2.6739219,,,
imu,483.801754,-1.3284973688,-9.6637566368,2.0911421888,1.23379762,-2.52770559,-2.748691,,,
imu,483.810215,-1.3207213824,-9.639232372,2.0833662024,1.17398234,-2.46789031,-2.91318302,,,
imu,483.818676,-1.3027767984,-9.637437913600001,2.0959274112,1.27865908,-2.41555194,-3.1225365,,,
imu,483.827137,-1.3075620208,-9.654186192000001,2.1150683008,1.42072037,-2.31835211,-3.10758268,,,
imu,483.835598,-1.2985897288,-9.675121540000001,2.111479384,1.47305874,-2.28844447,-2.95056757,,,
imu,483.844059,-1.2854303672,-9.719983000000001,2.1156664536,1.63007385,-2.12395245,-2.95056757,,,
imu,483.85252,-1.280046992,-9.7283571392,2.1150683008,1.41324346,-2.25105992,-2.94309066,,,
imu,483.860981,-1.2698783944,-9.714001472000001,2.1330128848,1.2936129,-2.11647554,-2.80102937,,,
imu,483.869442,-1.265093172,-9.7074217912,2.1318165792,1.10669015,-2.13142936,-2.77859864,,,
imu,483.877903,-1.277056228,-9.704431027200002,2.12344244,0.8674290299999999,-2.34078284,-2.84589083,,,
imu,483.886364,-1.2818414504,-9.701440263200002,2.129423968,0.63564482,-2.19872155,-2.75616791,,,
imu,483.894825,-1.2926082008,-9.675121540000001,2.1240405928,0.63564482,-2.28096756,-2.70382954,,,
imu,483.903285,-1.2991878816,-9.661364025600001,2.132414732,0.66555246,-2.0865679,-2.70382954,,,
imu,483.911745,-1.30098234,-9.652989886400002,2.1342091904,0.70293701,-1.99684498,-2.62906044,,,
imu,483.920205,-1.2997860344,-9.646410205600002,2.1342091904,0.64312173,-1.95198352,-2.64401426,,,
imu,483.928664,-1.295000812,-9.614109954400002,2.141387024,0.44872207,-1.80992223,-2.76364482,,,
imu,483.937124,-1.2794488392,-9.616502565600001,2.1449759408,0.40386061,-1.79496841,-2.77112173,,,
imu,483.945584,-1.2627005608,-9.635045302400002,2.1461722464,0.6954601,-1.55570729,-2.56176825,,,
imu,483.954043,-1.2549245744,-9.630260080000001,2.1366018016,0.58330645,-1.570661110000001,-2.65896808,,,
imu,483.962503,-1.2549245744,-9.617100718400001,2.1401907184,0.5982602699999999,-1.59309184,-2.55429134,,,
imu,483.970963,-1.2513356576,-9.596165370400001,2.1485648576,0.620691,-1.45850746,-2.28512258,,,
imu,483.979423,-1.259111644,-9.616502565600001,2.1461722464,0.65807555,-1.45103055,-2.26269185,,,
imu,483.987882,-1.2519338104,-9.635045302400002,2.1431814824,0.78518302,-1.51832274,-2.25521494,,,
imu,483.996342,-1.2722710056,-9.652989886400002,2.1276295096,0.76275229,-1.51832274,-2.24773803,,,
imu,484.004802,-1.2734673112,-9.652989886400002,2.129423968,0.8449983,-1.43607673,-2.35241477,,,
imu,484.013262,-1.2507375048,-9.647606511200001,2.1342091904,1.02444414,-1.42112291,-2.38232241,,,
imu,482.566868,,,,,,,70.8994068,-2.520817200000014,1.751747999999997
imu,482.668339,,,,,,,71.0581004,-2.508610000000022,1.519811199999999
imu,482.770115,,,,,,,73.07228839999999,-2.850411600000013,1.422153599999998
imu,482.871494,,,,,,,70.61864120000001,-2.923654800000008,1.324495999999997
imu,482.973087,,,,,,,72.2788204,-3.704915600000014,-1.214601600000009
imu,483.07465,,,,,,,69.1293628,-2.64288920000002,0.4089559999999937
imu,483.177402,,,,,,,70.2280108,-3.192213200000005,-2.667258400000005
imu,483.277775,,,,,,,68.10395799999999,-2.630682000000006,-0.201404000000005
imu,484.021721,-1.2399707544,-9.648802816800002,2.1467703992,1.07678251,-1.45103055,-2.35241477,,,
imu,484.030181,-1.2465504352,-9.6709344704,2.1389944128,1.16650543,-1.31644617,-2.21783039,,,
imu,484.038641,-1.2298021568,-9.688280901600002,2.1371999544,1.20388998,-1.21176943,-1.96361545,,,
imu,484.0471,-1.2208298648,-9.706225485600001,2.1724909696,1.18145925,-1.20429252,-1.80660034,,,
imu,484.05556,-1.1969037528,-9.7163940832,2.1874447896,1.09921324,-1.286538530000001,-1.65706214,,,
imu,484.06402,-1.1652016544,-9.727758986400001,2.1796688032,0.9272443100000001,-1.36130763,-1.63463141,,,
imu,484.07248,-1.1071808328,-9.696056888000001,2.1766780392,0.5459219,-1.60804566,-1.50752394,,,
imu,484.080939,-1.0354024968,-9.6494009696,2.174285428,0.17955331,-2.26601374,-1.56733922,,,
imu,484.089399,-0.9109867144000001,-9.6667474008,2.1695002056,0.03749201999999999,-3.23053513,-1.4776163,,,
imu,484.097859,-0.7500836112000001,-9.7122070136,2.1689020528,0.06739966,-4.90536297,-1.253309,,,
imu,484.106325,-0.6824923448,-9.735534972800002,2.1736872752,-0.007369440000000005,-7.088620690000001,-0.68506384,,,
imu,484.114791,-0.7040258456,-9.694860582400002,2.1395925656,-0.04475399000000001,-9.76535447,0.242073,,,
imu,484.123257,-0.6944554008000001,-9.6296619272,2.0971237168,0.09730729999999999,-12.24768859,1.37856332,,,
imu,484.131723,-0.7339334856000002,-9.581809703200001,2.099516328,0.31413769,-14.67020743,2.46271527,,,
imu,484.140189,-0.8344231560000002,-9.593772759200002,2.1180590648,0.51601426,-16.80860369,3.91323581,,,
imu,484.148655,-0.9414925072000001,-9.641026830400001,2.090544036,0.9197674,-18.42361625,5.16187978,,,
imu,484.157121,-1.0186542184,-9.667345553600002,2.084562508,1.17398234,-19.78441387,5.692740389999999,,,
imu,484.165587,-1.0671045952,-9.667345553600002,2.0929366472,1.23379762,-20.82370436,5.715171119999999,,,
imu,484.174054,-1.1586219736,-9.6458120528,2.089347730400001,1.01696723,-21.48167244,5.65535584,,,
imu,484.18252,-1.2393726016,-9.633250844,2.0959274112,0.8749059399999999,-21.55644154,5.954432239999999,,,
imu,484.190986,-1.2758599224,-9.667345553600002,2.1150683008,0.88985976,-21.27231896,6.148831900000001,,,
imu,484.199452,-1.2794488392,-9.701440263200002,2.111479384,0.80761375,-20.93585801,6.081539709999999,,,
imu,484.207918,-1.2896174368,-9.724768222400002,2.0959274112,0.58330645,-20.54705869,5.73012494,,,
imu,484.216384,-1.3201232296,-9.711608860800002,2.0737957576,0.26179932,-20.05358263,5.50581764,,,
imu,484.22485,-1.3237121464,-9.6918698184,2.0731976048,0.1720764,-19.37318382,5.386187079999999,,,
imu,484.233316,-1.318926924,-9.678710456800001,2.0708049936,0.01506129,-18.44604698,5.363756349999999,,,
imu,484.241782,-1.3267029104,-9.690673512800002,2.0648234656,0.06739966,-17.63106379,5.431048539999999,,,
imu,484.250248,-1.3422548832,-9.693664276800002,2.0678142296,0.10478421,-16.61420403,5.50581764,,,
imu,484.258714,-1.3063657152,-9.709814402400001,2.0869551192,0.1720764,-15.44032916,5.57310983,,,
imu,484.26718,-1.2836359088,-9.717590388800001,2.0917403416,0.05992275,-14.18420828,5.61797129,,,
imu,484.275647,-1.2734673112,-9.731946056000002,2.096525564,-0.08961545,-13.15987161,5.50581764,,,
imu,484.284113,-1.2333910736,-9.743310959200002,2.0947311056,-0.10456927,-12.13553494,5.386187079999999,,,
imu,484.292579,-1.187333308,-9.736731278400002,2.0953292584,-0.29896893,-11.34298248,5.251602699999999,,,
imu,484.301045,-1.1502478344,-9.7128051664,2.089347730400001,-0.48589168,-10.64015294,4.967480119999999,,,
imu,484.30951,-1.1466589176,-9.689477207200001,2.0935348,-0.41859949,-9.9373234,4.660926809999999,,,
imu,484.317974,-1.133499556,-9.685888290400001,2.0929366472,-0.44850713,-9.28683223,4.43661951,,,
imu,484.326439,-1.112564208,-9.678112304,2.0761883688,-0.36626112,-8.65129488,4.30951204,,,
imu,484.334904,-1.1047882216,-9.686486443200002,2.0857588136,-0.30644584,-8.12791118,4.100158560000001,,,
imu,484.343369,-1.1041900688,-9.6637566368,2.0714031464,0.03001510999999998,-7.55218911,3.77117452,,,
imu,484.351834,-1.0958159296,-9.638036066400002,2.0594400904,0.02253820000000001,-7.088620690000001,3.28517537,,,
imu,484.360299,-1.0898344016,-9.631456385600002,2.0821698968,0.11226112,-6.408221879999999,2.82908386,,,
imu,484.368763,-1.0892362488,-9.613511801600001,2.0809735912,0.19450713,-5.8250229,2.19354651,,,
imu,484.377228,-1.1179475832,-9.636241608,2.0851606608,0.29918387,-5.144624090000001,1.67016281,,,
imu,484.385693,-1.1329014032,-9.6703363176,2.0791791328,0.44872207,-4.51656365,1.04210237,,,
imu,484.394158,-1.1149568192,-9.702038416,2.0887495776,0.44124516,-3.59690372,0.6159185000000003,,,
imu,484.402623,-1.1023956104,-9.719983000000001,2.0899458832,0.55339881,-2.58752087,0.2271191799999999,,,
imu,484.411087,-1.0970122352,-9.735534972800002,2.0953292584,0.5459219,-1.69029167,-0.05700339999999993,,,
imu,484.419552,-1.094619624,-9.730749750400001,2.081571744,0.23936859,-1.00241595,-0.3635567099999999,,,
imu,484.428017,-1.0635156784,-9.742114653600002,2.0941329528,0.3216146,-0.09770984000000027,-0.4233719899999999,,,
imu,484.436482,-1.034804344,-9.740918348000001,2.0857588136,0.30666078,0.62007352,-0.5579563699999999,,,
imu,484.444947,-1.0240375936,-9.7151977776,2.0821698968,0.20946095,1.17336486,-0.6551562,,,
imu,484.453411,-1.0234394408,-9.694860582400002,2.0714031464,0.23936859,1.6518871,-0.7224483899999998,,,
imu,484.461876,-1.0162616072,-9.6846919848,2.0761883688,0.22441477,2.01077878,-0.90937114,,,
imu,484.470341,-1.0054948568,-9.686486443200002,2.0773846744,0.29170696,2.57902394,-0.9766633299999998,,,
imu,484.478806,-0.9971207176000002,-9.6733270816,2.0702068408,0.36647606,3.09493073,-1.05143243,,,
imu,484.487271,-0.9815687448000001,-9.641026830400001,2.0714031464,0.43376825,3.51363769,-1.11872462,,,
imu,484.495736,-0.9648204664000001,-9.637437913600001,2.0803754384,0.55339881,3.96225229,-1.29069355,,,
imu,484.5042,-0.9373054376000002,-9.6326526912,2.089347730400001,0.60573718,4.32862088,-1.57481613,,,
imu,484.513017,-0.8756956992000001,-9.6458120528,2.0887495776,0.50853735,4.56040509,-1.85893871,,,
imu,484.521834,-0.8433954480000001,-9.671532623200001,2.1007126336,0.44124516,4.65012801,-2.001,,,
imu,484.530651,-0.8128896552000001,-9.671532623200001,2.1108812312,0.27675314,4.48563599,-1.96361545,,,
imu,484.539468,-0.7835801680000001,-9.671532623200001,2.1108812312,0.32909151,4.44077453,-1.73930815,,,
imu,484.548285,-0.7399150136000001,-9.667345553600002,2.10848862,0.14964567,4.08935976,-1.57481613,,,
imu,484.557102,-0.7231667352000001,-9.687084596000002,2.1240405928,0.03749201999999999,3.76785263,-1.38789338,,,
imu,484.565881,-0.7225685824,-9.689477207200001,2.120451676000001,-0.01484635000000001,3.19960747,-1.253309,,,
imu,484.574698,-0.7165870544000001,-9.700243957600001,2.1186572176,0.13469185,2.63883922,-1.08134007,,,
imu,484.583515,-0.7345316384000001,-9.706823638400001,2.1180590648,0.15712258,2.00330187,-0.9318018699999999,,,
imu,484.592332,-0.7494854584000001,-9.704431027200002,2.1330128848,0.01506129,1.48739508,-0.9318018699999999,,,
imu,484.601149,-0.7698226536000001,-9.706225485600001,2.1342091904,0.11226112,1.10607267,-0.8645096799999998,,,
imu,484.609966,-0.8093007384,-9.688280901600002,2.1401907184,0.16459949,0.9116730099999999,-0.8121713099999999,,,
imu,484.618782,-0.8798827688,-9.710412555200001,2.1449759408,0.19450713,0.8892422799999999,-0.93927878,,,
imu,484.627599,-0.9235479232000001,-9.728955292000002,2.1437796352,0.38142988,1.37524143,-1.13367844,,,
imu,484.636416,-0.9420906600000001,-9.754675862400001,2.1425833296,0.26179932,2.00330187,-1.29817046,,,
imu,484.645233,-0.9355109792000001,-9.748694334400001,2.1348073432,0.13469185,2.75099287,-1.52247776,,,
imu,484.65405,-0.9271368400000001,-9.727160833600001,2.1461722464,-0.127,3.33419185,-1.88136944,,,
imu,484.662867,-0.8942384360000002,-9.697851346400002,2.1401907184,-0.19429219,3.97720611,-2.43466078,,,
imu,484.671684,-0.8768920048000002,-9.688879054400001,2.1288258152,-0.11952309,4.455728349999999,-2.96552139,,,
imu,484.680501,-0.8451899064,-9.683495679200002,2.1389944128,-0.20924601,4.85948149,-3.23469015,,,
imu,484.689318,-0.8194693360000002,-9.672130776000001,2.1449759408,-0.20924601,5.03145042,-3.58610492,,,
imu,484.698135,-0.7895616960000001,-9.667943706400001,2.1371999544,-0.20924601,5.09874261,-3.70573548,,,
imu,484.706952,-0.7680281952000001,-9.637437913600001,2.129423968,-0.14943073,5.091265699999999,-3.63844329,,,
imu,484.715433,-0.7482891528000001,-9.602146898400001,2.1437796352,-0.11204618,5.00901969,-3.38422835,,,
imu,484.723914,-0.723764888,-9.6051376624,2.1611260664,-0.01484635000000001,4.739850929999999,-3.13749032,,,
imu,484.732396,-0.6896701784000001,-9.651195428000001,2.1485648576,0.31413769,4.552928179999999,-2.96552139,,,
imu,484.740877,-0.6914646368,-9.6709344704,2.1581353024,0.3739529699999999,4.27628251,-2.84589083,,,
imu,484.749358,-0.7153907488000001,-9.682299373600001,2.1557426912,0.36647606,3.87252937,-2.50195297,,,
imu,484.75784,-0.7429057776,-9.667345553600002,2.1407888712,0.56087572,3.70056044,-2.11315365,,,
imu,484.766321,-0.7476910000000001,-9.6775141512,2.144377788,0.83004448,3.55102224,-1.93370781,,,
imu,484.774802,-0.7482891528000001,-9.694860582400002,2.1252368984,0.94219813,3.34166876,-2.21035348,,,
imu,484.783284,-0.7506817640000001,-9.673925234400002,2.1348073432,1.12164397,3.04259236,-2.71130645,,,
imu,484.791765,-0.7614485144,-9.690673512800002,2.1461722464,1.33847436,2.83323888,-3.07767504,,,
imu,484.800246,-0.7596540560000001,-9.697253193600002,2.15335008,1.42072037,2.71360832,-3.36179762,,,
imu,484.808728,-0.76264482,-9.696655040800001,2.1641168304,1.39081273,2.4743472,-3.58610492,,,
imu,484.817209,-0.7656355840000001,-9.685290137600001,2.178472497600001,1.07678251,2.42200883,-3.6459202,,,
imu,484.825691,-0.76264482,-9.692467971200001,2.1850521784,1.06182869,2.42200883,-3.43656672,,,
imu,484.834172,-0.7512799168000001,-9.690673512800002,2.1599297608,0.82256757,2.33976282,-3.30198234,,,
imu,483.37927,,,,,,,68.93404759999999,-2.154601200000017,0.5798567999999893
imu,483.480832,,,,,,,69.3735068,-2.874826000000019,0.7141359999999985
imu,483.582364,,,,,,,69.73972280000001,-2.423159600000013,1.116973599999993
imu,483.683957,,,,,,,69.9106236,-2.716132400000015,1.654090399999997
imu,483.785489,,,,,,,70.25242519999999,-2.703925200000024,1.715126399999989
imu,483.887082,,,,,,,71.9126044,-2.533024400000006,1.495396799999993
imu,483.988736,,,,,,,70.52098360000001,-2.264466000000009,1.641883199999994
imu,484.090177,,,,,,,73.2065676,-3.082348400000012,-0.05491760000000401
imu,484.842653,-0.7548688336000001,-9.6745233872,2.1659112888,0.66555246,2.24256299,-3.21225942,,,
imu,484.851135,-0.7770004872000001,-9.676915998400002,2.1754817336,0.59078336,2.14536316,-3.15992105,,,
imu,484.859616,-0.7728134176000001,-9.688879054400001,2.1581353024,0.64312173,2.22760917,-3.03281358,,,
imu,484.868097,-0.7787949456000002,-9.690075360000002,2.1641168304,0.76275229,2.12293243,-3.07019813,,,
imu,484.876579,-0.7853746264000001,-9.6709344704,2.164714983200001,0.8375213899999999,2.1752708,-3.14496723,,,
imu,484.88506,-0.8009265992000001,-9.661364025600001,2.1605279136,0.8674290299999999,2.1752708,-3.29450543,,,
imu,484.893541,-0.8146841136000001,-9.658373261600001,2.164714983200001,1.00949032,2.36219355,-3.45152054,,,
imu,484.902023,-0.8182730304000002,-9.660765872800003,2.1605279136,1.2936129,2.52668557,-3.45152054,,,
imu,484.910504,-0.8128896552000001,-9.661962178400001,2.1521537744,1.47305874,2.94539253,-3.40665908,,,
imu,484.918961,-0.8116933496000001,-9.657775108800001,2.156340844,1.52539711,3.01268472,-3.5711511,,,
imu,484.927418,-0.804515516,-9.639232372,2.1605279136,1.60764312,3.16969983,-3.74312003,,,
imu,484.935875,-0.7817857096,-9.614708107200002,2.1635186776,1.84690424,3.27437657,-3.72816621,,,
imu,484.944333,-0.7722152648000001,-9.639830524800002,2.171294664,1.98148862,3.42391477,-3.84779677,,,
imu,484.95279,-0.7375224024000001,-9.6942624296,2.1617242192,2.10111918,3.31923803,-4.012288789999999,,,
imu,484.961247,-0.7231667352000001,-9.6775141512,2.1455740936,2.04878081,3.21456129,-3.98985806,,,
imu,484.969704,-0.7195778184000001,-9.665551095200001,2.1665094416,2.14598064,3.10240764,-3.7954584,,,
imu,484.978161,-0.6968480120000001,-9.686486443200002,2.1539482328,2.21327283,2.7734236,-3.7954584,,,
imu,484.986619,-0.6902683312000001,-9.689477207200001,2.1467703992,2.33290339,2.33976282,-3.8702275,,,
imu,484.995076,-0.7219704296,-9.6876827488,2.1611260664,2.40019558,2.00330187,-3.78050458,,,
imu,485.003533,-0.7590559032000002,-9.699645804800001,2.135405496,2.53477996,1.75656384,-3.66087402,,,
imu,485.01199,-0.7752060288000001,-9.706225485600001,2.1419851768,2.7889949,1.75656384,-3.41413599,,,
imu,485.020447,-0.7650374312,-9.723571916800001,2.1521537744,2.63197979,1.74908693,-3.48890509,,,
imu,485.028905,-0.7752060288000001,-9.711010708000002,2.1425833296,2.52730305,1.7266562,-3.74312003,,,
imu,485.037362,-0.7949450712000001,-9.696056888000001,2.1437796352,2.44505704,1.58459491,-4.124442439999999,,,
imu,485.045819,-0.8015247520000001,-9.694860582400002,2.12344244,2.35533412,1.56216418,-4.42351884,,,
imu,485.054276,-0.8027210576,-9.6912716656,2.114470148,2.23570356,1.43505671,-4.67773378,,,
imu,485.062733,-0.8146841136000001,-9.681103068,2.1013107864,2.36281103,1.62945637,-4.6179185,,,
imu,485.07119,-0.8158804192000001,-9.669738164800002,2.0983200224,2.2656112,1.73413311,-4.55062631,,,
imu,485.079648,-0.8057118216000001,-9.669140012000002,2.0851606608,2.16841137,1.73413311,-4.49081103,,,
imu,485.088105,-0.804515516,-9.654784344800001,2.0749920632,2.20579592,2.00330187,-4.20668845,,,
imu,485.096562,-0.8057118216000001,-9.635045302400002,2.0767865216,2.49739541,2.19022462,-3.97490424,,,
imu,485.105019,-0.8093007384,-9.651793580800001,2.0791791328,2.62450288,2.31733209,-3.81788913,,,
imu,485.113476,-0.8021229048,-9.6817012208,2.07858098,2.64693361,2.50425484,-3.78798149,,,
imu,485.121946,-0.7985339880000002,-9.7295534448,2.0773846744,2.74413344,2.67622377,-3.81041222,,,
imu,485.130416,-0.8057118216000001,-9.746301723200002,2.0767865216,2.66188743,2.78837742,-3.92256587,,,
imu,485.138886,-0.780589404,-9.7474980288,2.0887495776,2.57216451,2.81080815,-3.99733497,,,
imu,485.147356,-0.7722152648000001,-9.734936820000001,2.0869551192,2.35533412,2.80333124,-4.30388828,,,
imu,485.155826,-0.7590559032000002,-9.746301723200002,2.087553272,2.24318047,2.76594669,-4.3936112,,,
imu,485.164296,-0.7566632920000002,-9.748096181600001,2.0821698968,2.12354991,2.71360832,-4.47585721,,,
imu,485.172766,-0.7435039304000001,-9.724768222400002,2.07858098,1.93662716,2.54163939,-4.63287232,,,
imu,485.181236,-0.7441020832,-9.722973764,2.084562508,1.80204278,2.33228591,-4.61044159,,,
imu,485.189705,-0.7518780696000001,-9.738525736800002,2.0809735912,1.73475059,2.19022462,-4.49081103,,,
imu,485.198175,-0.7458965416000001,-9.727758986400001,2.0899458832,1.72727368,2.06311715,-4.363703559999999,,,
imu,485.206645,-0.7435039304000001,-9.724170069600001,2.0887495776,1.71979677,1.85376367,-4.16182699,,,
imu,485.215115,-0.7524762224000001,-9.713403319200001,2.0959274112,1.56278166,1.53973345,-4.29641137,,,
imu,485.223585,-0.7554669864000001,-9.7295534448,2.0983200224,1.57773548,1.33037997,-4.244073,,,
imu,485.232055,-0.7692245008,-9.7283571392,2.0977218696,1.31604363,1.1285034,-4.244073,,,
imu,485.240525,-0.7889635432000001,-9.706225485600001,2.081571744,1.20388998,1.03878048,-4.079580979999999,,,
imu,485.248995,-0.7973376824000001,-9.672130776000001,2.07858098,1.32352054,0.98644211,-3.87770441,,,
imu,485.257465,-0.8134878080000001,-9.678710456800001,2.0749920632,1.2936129,0.9714882899999999,-3.81041222,,,
imu,485.265935,-0.8218619472,-9.669140012000002,2.0684123824,1.43567419,1.1285034,-3.78050458,,,
imu,485.274404,-0.8439936008000001,-9.669738164800002,2.048673340000001,1.61512003,1.23318014,-3.75059694,,,
imu,485.282874,-0.8499751288000001,-9.672130776000001,2.0432899648,1.64502767,1.36776452,-3.83284295,,,
imu,485.291344,-0.8427972952,-9.70502918,2.0534585624,1.63755076,1.47991817,-4.04967334,,,
imu,485.299814,-0.8421991424,-9.706823638400001,2.06362716,1.71231986,1.55468727,-4.034719519999999,,,
imu,485.308284,-0.8469843648000001,-9.702636568800001,2.0498696456,1.78708896,1.78647148,-3.96742733,,,
imu,485.316754,-0.8392083784000002,-9.6984494992,2.0522622568,1.71231986,1.98087114,-3.95247351,,,
imu,485.325214,-0.8248527112,-9.721179305600002,2.0702068408,1.65250458,2.04816333,-4.06462716,,,
imu,485.333673,-0.7937487656000001,-9.7301515976,2.087553272,1.54035093,2.19022462,-4.04967334,,,
imu,485.342133,-0.7913561544000001,-9.706225485600001,2.0809735912,1.24875144,1.91357895,-4.25154991,,,
imu,485.350593,-0.7925524600000001,-9.688280901600002,2.0923384944,1.09173633,1.74161002,-4.28893446,,,
imu,485.359053,-0.7889635432000001,-9.718188541600002,2.102507092,0.83004448,1.47244126,-4.28145755,,,
imu,485.367512,-0.7853746264000001,-9.770825988000002,2.069608688,0.7253677399999999,1.18831868,-4.41604193,,,
imu,485.375972,-0.8075062800000001,-9.765442612800001,2.0498696456,0.66555246,1.09859576,-4.28893446,,,
imu,485.384432,-0.8218619472,-9.734338667200001,2.0522622568,0.68798319,1.06868812,-3.95247351,,,
imu,485.392891,-0.8242545584000001,-9.6954587352,2.045084423200001,0.8674290299999999,1.17336486,-3.55619728,,,
imu,485.401351,-0.8098988912000001,-9.6876827488,2.0115878664,1.19641307,1.1285034,-3.45899745,,,
imu,485.409811,-0.8296379336000002,-9.675121540000001,2.012784172,1.5926893,0.9191499199999997,-3.66087402,,,
imu,485.418271,-0.8416009896000001,-9.687084596000002,2.0408973536,1.79456587,0.8294269999999999,-3.84779677,,,
imu,485.42673,-0.8493769760000001,-9.7128051664,2.051664104,1.87681188,0.76213481,-3.83284295,,,
imu,485.43519,-0.8589474208000002,-9.711010708000002,2.0510659512,2.07121154,0.8892422799999999,-3.74312003,,,
imu,485.44365,-0.8685178656000001,-9.708019944000002,2.069608688,1.69736604,0.9714882899999999,-3.5711511,,,
imu,485.45211,-0.8756956992000001,-9.708019944000002,2.0690105352,1.35342818,1.04625739,-3.54124346,,,
imu,485.460569,-0.8559566568000001,-9.7122070136,2.062430854400001,1.18145925,1.17336486,-3.47395127,,,
imu,485.469029,-0.8571529624000002,-9.715795930400002,2.062430854400001,1.06182869,1.27056469,-3.45152054,,,
imu,485.477489,-0.86732156,-9.725964528,2.062430854400001,0.67302937,1.38271834,-3.73564312,,,
imu,485.485948,-0.88227538,-9.7283571392,2.0498696456,0.53096808,1.46496435,-3.87770441,,,
imu,485.494408,-0.8882569080000001,-9.714599624800002,2.0349158256,0.46367589,1.71170238,-3.93004278,,,
imu,485.502868,-0.8828735328,-9.714599624800002,2.0618327016,0.41133752,1.84628676,-3.93751969,,,
imu,485.511328,-0.8649289488,-9.739123889600002,2.0570474792,0.56087572,2.16031698,-4.00481188,,,
imu,485.519787,-0.8577511152000001,-9.740918348000001,2.0504677984,0.58330645,2.1752708,-4.012288789999999,,,
imu,485.528611,-0.8278434752000001,-9.724768222400002,2.0468788816,0.59078336,2.30985518,-3.99733497,,,
imu,485.537435,-0.8104970440000001,-9.722375611200002,2.0391028952,0.7552753799999999,2.27994754,-3.87770441,,,
imu,485.546258,-0.7793930984000002,-9.724170069600001,2.039701048,1.02444414,2.22013226,-3.69825857,,,
imu,485.555082,-0.7620466672,-9.711010708000002,2.0444862704,1.09173633,2.00330187,-3.54872037,,,
imu,485.563905,-0.7153907488000001,-9.737329431200001,2.0672160768,1.02444414,1.53973345,-3.47395127,,,
imu,485.572729,-0.6501920936000001,-9.769629682400002,2.0684123824,0.9048135799999999,1.02382666,-3.21225942,,,
imu,485.581552,-0.601143564,-9.769629682400002,2.0552530208,0.97958268,0.2686587499999997,-2.96552139,,,
imu,485.590376,-0.5066354216000001,-9.752881404000002,2.084562508,0.85995212,-0.7482010100000003,-2.65149117,,,
imu,485.599199,-0.3786307224000001,-9.782789044000001,2.1276295096,0.68050628,-2.34825975,-2.23278421,,,
imu,485.608023,-0.1184342544,-9.832435726400002,2.162322372,0.35152224,-4.93527061,-1.86641562,,,
imu,485.616847,0.2625890792,-9.8593526024,2.1108812312,-0.11204618,-8.80830999,-1.81407725,,,
imu,485.62567,0.4940742128000001,-9.7845835024,2.045084423200001,-0.62047606,-14.23654665,-1.49257012,,,
imu,485.634494,0.5335522976000001,-9.657775108800001,2.045682576,-0.9943215599999999,-20.35265903,0.03271952000000011,,,
imu,485.643317,0.5808063688,-9.655382497600002,2.0684123824,-0.88964482,-26.72298635,2.32813089,,,
imu,485.652141,0.6214807592000001,-9.711010708000002,2.027737992,-1.08404448,-33.3400517,4.122589290000001,,,
imu,484.191678,,,,,,,71.094722,-2.54523160000002,2.557423199999997
imu,484.293302,,,,,,,74.58598119999999,-3.167798800000021,0.7995863999999964
imu,484.394956,,,,,,,72.55958600000001,-2.142394000000003,3.90021519999999
imu,484.496457,,,,,,,72.80373,-2.032529200000011,3.924629599999996
imu,484.597989,,,,,,,73.0356668,-2.410952400000022,3.643863999999997
imu,484.699521,,,,,,,73.658234,-1.324511600000022,3.241026399999991
imu,484.801175,,,,,,,73.13332439999999,-2.130186800000011,3.692692799999997
imu,484.902677,,,,,,,72.84035159999999,-2.008114800000005,3.314269599999997
imu,485.660856,0.481513004,-9.755872168000002,1.9721097816,-1.30835178,-39.83748649,5.535725279999999,,,
imu,485.669679,0.2195220776,-9.7331423616,1.9362206136,-1.58499745,-45.6769532,7.09839947,,,
imu,485.678503,0.0317020984,-9.6505972752,1.9218649464,-1.83173548,-50.94069784,8.204982150000001,,,
imu,485.687326,-0.1262102408,-9.620091482400001,1.9182760296,-1.76444329,-54.92589087,8.6162122,,,
imu,485.69615,-0.2930948720000001,-9.667943706400001,1.911098196,-1.51022835,-57.91665487,9.16202663,,,
imu,485.704973,-0.4964668240000001,-9.714599624800002,1.8997332928,-1.33078251,-60.20458933,9.62559505,,,
imu,485.713797,-0.684884956,-9.749890640000002,1.893153612,-1.24105959,-61.52052549,9.84990235,,,
imu,485.722621,-0.8655271016000001,-9.758264779200001,1.9158834184,-1.24105959,-61.90932480999999,10.09664038,,,
imu,485.731089,-1.0371969552,-9.745105417600001,1.92904278,-1.31582869,-61.18406454,10.44805515,,,
imu,485.739558,-1.1963056,-9.7337405144,1.9284446272,-1.36816706,-59.64382108,10.86676211,,,
imu,485.748026,-1.333880744,-9.764246307200002,1.9595485728,-1.52518217,-57.32597898,11.27799216,,,
imu,485.756495,-1.4313796504,-9.7821908912,1.976895004,-1.6971511,-54.30530734,11.49482255,,,
imu,485.764964,-1.4929893888,-9.7845835024,1.997830352,-1.75696638,-50.75377509,11.86866805,,,
imu,485.773432,-1.4888023192,-9.789966877600001,2.0050081856,-1.94388913,-46.97793554,11.81632968,,,
imu,485.781901,-1.4870078608,-9.770825988000002,2.0026155744,-2.04856587,-43.04508088,11.46491491,,,
imu,485.79037,-1.4738484992,-9.746899876,2.0121860192,-2.37754991,-39.45616408,11.04620795,,,
imu,485.798838,-1.4403519424,-9.7361331256,2.0169712416,-2.45231901,-35.84481655,10.45553206,,,
imu,485.807307,-1.4002757048,-9.7283571392,2.0355139784,-2.34764227,-32.28580739,9.79008707,,,
imu,485.815775,-1.3643865368,-9.7128051664,2.045682576,-2.57194957,-28.95110553,8.66107366,,,
imu,485.824244,-1.3284973688,-9.6912716656,2.045682576,-2.25044244,-25.75098805,7.614306260000001,,,
imu,485.832713,-1.2662894776,-9.651195428000001,2.051664104,-2.21305789,-22.95462371,6.36566229,,,
imu,485.841181,-1.2309984624,-9.644017594400001,2.0540567152,-2.05604278,-20.30032066,5.0272954,,,
imu,485.84965,-1.1969037528,-9.612315496,2.039701048,-1.75696638,-17.65349452,3.74874379,,,
imu,485.858119,-1.1526404456,-9.604539509600002,2.0444862704,-1.44293616,-15.29079096,2.69449948,,,
imu,485.866587,-1.0880399432,-9.612913648800001,2.0420936592,-0.93450628,-13.10005633,1.67763972,,,
imu,485.875056,-0.9815687448000001,-9.630858232800001,2.0480751872,-0.37373803,-10.91679861,0.7953643399999999,,,
imu,485.883524,-0.8756956992000001,-9.6709344704,2.0373084368,0.13469185,-9.02514038,0.1149655300000001,,,
imu,485.891993,-0.7710189592000001,-9.690075360000002,2.0379065896,0.64312173,-7.57461984,-0.5355256399999999,,,
imu,485.900462,-0.7094092208000001,-9.699645804800001,2.0265416864,0.9347212199999999,-6.340929689999999,-1.01404788,,,
imu,485.90893,-0.6753145112000001,-9.6876827488,2.0205601584,1.28613599,-5.43622358,-1.6271545,,,
imu,485.917399,-0.648995788,-9.686486443200002,2.0193638528,1.83195042,-4.43431764,-2.21783039,,,
imu,485.925868,-0.6418179544000001,-9.706823638400001,2.0379065896,2.19831901,-3.69410355,-2.91318302,,,
imu,485.934332,-0.6382290376000002,-9.713403319200001,2.0283361448,2.13850373,-3.03613547,-3.54124346,,,
imu,485.942797,-0.6406216488000002,-9.713403319200001,2.0319250616,2.16093446,-2.31835211,-4.16182699,,,
imu,485.951262,-0.6579680800000002,-9.7122070136,2.0391028952,2.05625772,-1.712722400000001,-4.72259524,,,
imu,485.959727,-0.6812960392000001,-9.7474980288,2.045682576,1.9665348,-1.24915398,-5.31327113,,,
imu,485.968192,-0.6806978864000002,-9.773816752000002,2.054654868000001,1.72727368,-0.4790322499999999,-5.73197809,,,
imu,485.976657,-0.6705292888000001,-9.7570684736,2.0498696456,1.52539711,0.2013665599999999,-5.8889932,,,
imu,485.985121,-0.6836886504,-9.749890640000002,2.0588419376,1.12164397,0.7322271699999998,-6.1880696,,,
imu,485.993586,-0.6932590952000001,-9.746899876,2.0702068408,0.8524752099999999,1.31542615,-6.27779252,,,
imu,486.002051,-0.6896701784000001,-9.759461084800002,2.0851606608,0.3963837,1.77899457,-6.43480763,,,
imu,486.010516,-0.6800997336000001,-9.769031529600001,2.0827680496,-0.007369440000000005,2.19770153,-6.77874549,,,
imu,486.018981,-0.6998387760000001,-9.734338667200001,2.0743939104,-0.35878421,2.51173175,-7.07034498,,,
imu,486.027445,-0.7375224024000001,-9.7301515976,2.0899458832,-0.54570696,2.60145467,-7.249790819999999,,,
imu,486.03591,-0.7781967928000002,-9.731946056000002,2.0881514248,-0.61299915,2.93791562,-7.39932902,,,
imu,486.044375,-0.8224601,-9.724170069600001,2.0803754384,-0.70272207,3.2968073,-7.65354396,,,
imu,486.05284,-0.8697141712000002,-9.680504915200002,2.072001299200001,-0.56066078,3.76785263,-7.72083615,,,
imu,486.061305,-0.9199590064000001,-9.639232372,2.0851606608,-0.56066078,4.23889796,-7.90028199,,,
imu,486.069769,-0.9558481744000001,-9.661364025600001,2.0983200224,-0.38869185,4.84452767,-8.087204739999999,,,
imu,486.078234,-0.9636241608000001,-9.706225485600001,2.0917403416,-0.02980017,5.749233779999999,-8.15449693,,,
imu,486.086699,-0.9851576616000001,-9.7128051664,2.0917403416,0.3216146,6.534309329999999,-8.25169676,,,
imu,486.095164,-1.034804344,-9.6918698184,2.102507092,0.3963837,7.58855364,-7.96757418,,,
imu,486.103629,-1.0880399432,-9.660765872800003,2.0809735912,0.5982602699999999,8.81476688,-7.735789969999999,,,
imu,486.112094,-1.1227328056,-9.659569567200002,2.0767865216,0.94967504,10.03350321,-7.39932902,,,
imu,486.120558,-1.133499556,-9.660765872800003,2.0684123824,1.05435178,11.36439319,-7.37689829,,,
imu,486.129023,-1.1532385984,-9.638634219200002,2.0618327016,1.18145925,12.75509845,-7.578774859999999,,,
imu,486.137824,-1.1795573216,-9.627867468800002,2.0480751872,1.35342818,14.1383268,-7.818035979999999,,,
imu,486.146626,-1.1592201264,-9.638634219200002,2.054654868000001,1.49548947,15.49164751,-8.25169676,,,
imu,486.155427,-1.1388829312,-9.636241608,2.0731976048,1.53287402,16.93469114,-8.55077316,,,
imu,486.164228,-1.1143586664,-9.641026830400001,2.0881514248,1.56278166,18.13099674,-8.76760355,,,
imu,486.17303,-1.0635156784,-9.6918698184,2.0863569664,1.5926893,19.21514869,-8.917141749999999,,,
imu,486.181831,-1.028822816,-9.711010708000002,2.0869551192,1.4431511,20.18714699,-8.73769591,,,
imu,486.190632,-1.0096819264,-9.711608860800002,2.0899458832,1.33847436,21.10680692,-8.76760355,,,
imu,486.199433,-0.9636241608000001,-9.710412555200001,2.0899458832,1.11416706,21.72739045,-8.72274209,,,
imu,486.208235,-0.9414925072000001,-9.722973764,2.0797772856,1.11416706,22.3629278,-8.5059117,,,
imu,486.217036,-0.9355109792000001,-9.7283571392,2.0731976048,1.13659779,22.95360369,-8.26665058,,,
imu,486.225837,-0.9157719368000001,-9.744507264800001,2.0767865216,1.06182869,23.42464902,-8.087204739999999,,,
imu,486.234638,-0.8930421304000001,-9.7283571392,2.075590216,1.03939796,23.97794036,-7.803082159999999,,,
imu,486.24344,-0.8439936008000001,-9.728955292000002,2.0797772856,0.9945364999999999,24.25458603,-7.72083615,,,
imu,486.252241,-0.8128896552000001,-9.724768222400002,2.0767865216,1.09173633,24.29197058,-7.67597469,,,
imu,486.261042,-0.7728134176000001,-9.718786694400002,2.089347730400001,1.15155161,24.37421659,-7.63111323,,,
imu,486.269843,-0.7345316384000001,-9.6954587352,2.0935348,1.03939796,24.26206294,-7.61615941,,,
imu,486.278645,-0.6980443176000002,-9.6954587352,2.1013107864,1.05435178,23.92560199,-7.48157503,,,
imu,486.287446,-0.6573699272000001,-9.701440263200002,2.10848862,1.18145925,23.50689503,-7.272221549999999,,,
imu,486.296247,-0.6412198016000001,-9.686486443200002,2.1120775368,1.34595127,23.00594206,-7.249790819999999,,,
imu,486.305049,-0.6256678288,-9.6799067624,2.1120775368,1.27865908,22.31806634,-7.04043734,,,
imu,486.31385,-0.6065269392000001,-9.675719692800001,2.1102830784,1.17398234,21.66009826,-6.80117622,,,
imu,486.322651,-0.5933675776,-9.662560331200002,2.10848862,1.26370526,21.00960709,-6.60677656,,,
imu,486.331452,-0.6095177032000001,-9.667943706400001,2.1258350512,1.50296638,20.45631575,-6.2628387,,,
imu,486.340254,-0.6035361752000001,-9.669140012000002,2.1078904672,1.65250458,19.7460093,-6.113300499999999,,,
imu,486.349055,-0.5993491056000001,-9.651793580800001,2.1096849256,1.73475059,19.02822594,-6.12825432,,,
imu,486.357551,-0.5909749664,-9.630260080000001,2.1228442872,1.80951969,18.42259623,-6.0385314,,,
imu,486.366047,-0.5754229936,-9.630260080000001,2.133611037600001,1.83195042,17.6524745,-5.94133157,,,
imu,486.374542,-0.5628617848,-9.6434194416,2.1246387456,2.12354991,16.87487586,-5.784316459999999,,,
imu,486.383038,-0.5664507016000001,-9.6494009696,2.1186572176,2.22822665,16.20195396,-5.65720899,,,
imu,486.391534,-0.5694414656000001,-9.652989886400002,2.1228442872,2.27308811,15.49164751,-5.56000916,,,
imu,486.40003,-0.5616654792000001,-9.664952942400001,2.1288258152,2.116073,14.57946449,-5.500193879999999,,,
imu,486.408526,-0.5742266880000001,-9.678710456800001,2.133611037600001,2.37776485,13.88411186,-5.37308641,,,
imu,486.417022,-0.5951620360000001,-9.703234721600001,2.1521537744,2.57216451,13.21866687,-5.24597894,,,
imu,486.425517,-0.6143029256000001,-9.741516500800001,2.1617242192,2.69927198,12.50836042,-5.10391765,,,
imu,486.434013,-0.6370327320000001,-9.783387196800001,2.1778743448,2.72170271,12.00740745,-4.73007215,,,
imu,486.442509,-0.6543791632000001,-9.7809945856,2.1718928168,2.72170271,11.61860813,-4.48333412,,,
imu,486.451005,-0.6884738728,-9.734338667200001,2.162322372,2.44505704,11.297101,-4.169303899999999,,,
imu,486.459501,-0.7052221512000001,-9.689477207200001,2.1730891224,2.22074974,11.13260898,-4.034719519999999,,,
imu,486.467997,-0.7123999848000001,-9.676317845600002,2.1659112888,2.03382699,11.01297842,-3.84031986,,,
imu,486.476492,-0.7261574992000001,-9.6775141512,2.1599297608,2.02635008,10.96811696,-3.71321239,,,
imu,485.004164,,,,,,,74.4883236,-2.325502000000013,2.789359999999996
imu,485.105665,,,,,,,72.95021639999999,-1.751763600000023,2.789359999999996
imu,485.207563,,,,,,,75.8433228,-3.289870800000005,0.5432351999999918
imu,485.30879,,,,,,,73.30422519999999,-2.154601200000017,3.057918399999993
imu,485.410353,,,,,,,75.64800760000001,-3.11897000000001,0.9949015999999977
imu,485.511946,,,,,,,73.02345960000001,-2.594060400000009,3.924629599999996
imu,485.613539,,,,,,,73.3896756,-2.032529200000011,3.546206399999996
imu,485.715071,,,,,,,76.0264308,-2.64288920000002,4.571611199999992
imu,486.484988,-0.7058203040000001,-9.672728928800002,2.1425833296,1.92915025,10.88587095,-3.6459202,,,
imu,486.493484,-0.6986424704000002,-9.665551095200001,2.1348073432,1.76465823,10.73633275,-3.87770441,,,
imu,486.50198,-0.6860812616,-9.648802816800002,2.126433204,1.78708896,10.48959472,-3.83284295,,,
imu,486.510476,-0.6627533024,-9.651793580800001,2.1216479816,2.08616536,10.41482562,-3.60105874,,,
imu,486.518971,-0.6525847048000001,-9.6535880392,2.1013107864,2.31794957,10.13070304,-3.60853565,,,
imu,486.527467,-0.6454068712000001,-9.657775108800001,2.1031052448,2.57964142,9.76433445,-3.5711511,,,
imu,486.535963,-0.6543791632000001,-9.661364025600001,2.0917403416,2.79647181,9.3531044,-3.496382,,,
imu,486.544459,-0.6591643856000001,-9.6523917336,2.0953292584,2.92357928,8.91196671,-3.60853565,,,
imu,486.552865,-0.6603606912000002,-9.638036066400002,2.0791791328,3.09554821,8.53812121,-3.75059694,,,
imu,486.561272,-0.6681366776000001,-9.636241608,2.0737957576,3.14788658,7.977352959999999,-4.04967334,,,
imu,486.569678,-0.6866794144,-9.659569567200002,2.0648234656,3.57407045,7.73061493,-4.124442439999999,,,
imu,486.578084,-0.6902683312000001,-9.688879054400001,2.0594400904,3.6862241,7.409107799999999,-4.30388828,,,
imu,486.586491,-0.6824923448,-9.694860582400002,2.048673340000001,3.73856247,7.080123759999999,-4.55810322,,,
imu,486.594897,-0.684884956,-9.709814402400001,2.0379065896,3.90305449,6.76609354,-4.647826139999999,,,
imu,486.603303,-0.6777071224000001,-9.716992236000001,2.0402992008,3.7609932,6.39224804,-4.73007215,,,
imu,486.61171,-0.6621551496,-9.717590388800001,2.0402992008,3.65631646,6.00344872,-4.58053395,,,
imu,486.620116,-0.6687348304,-9.727758986400001,2.0241490752,3.64136264,5.84643361,-4.22164227,,,
imu,486.628522,-0.6621551496,-9.7193848472,2.0133823248,3.63388573,5.51744957,-3.98238115,,,
imu,486.636928,-0.6555754688000001,-9.717590388800001,2.0211583112,3.51425517,5.14360407,-3.76555076,,,
imu,486.645335,-0.6430142600000001,-9.734936820000001,2.0283361448,3.4619168,4.72489711,-3.40665908,,,
imu,486.653741,-0.6143029256000001,-9.736731278400002,2.0133823248,3.40210152,4.2688056,-3.05524431,,,
imu,486.662147,-0.5616654792000001,-9.749890640000002,2.0014192688,3.19274804,3.55849915,-2.92065993,,,
imu,486.670554,-0.451605364,-9.7534795568,1.9834746848,2.99087147,2.58650085,-2.72626027,,,
imu,486.67896,-0.3313766512,-9.7492924872,1.9816802264,2.99087147,1.21074941,-2.41970696,,,
imu,486.687366,-0.1991848824,-9.752283251200002,1.9906525184,2.79647181,-1.06970814,-2.32250713,,,
imu,486.695773,-0.0634041968,-9.768433376800001,1.9960358936,2.7889949,-3.91841085,-2.18792275,,,
imu,486.704179,-0.03887993200000001,-9.783387196800001,1.997830352,2.6394567,-7.283020349999999,-2.001,,,
imu,486.712585,-0.06220789120000001,-9.796546558400001,1.9780913096,2.51234923,-10.56538384,-1.1785399,,,
imu,486.720992,-0.08374139200000001,-9.802528086400002,1.9715116288,2.25065738,-13.6757784,-0.03457266999999997,,,
imu,486.729398,-0.08314323920000001,-9.803126239200001,1.9930451296,2.01139626,-16.75626532,0.97481018,,,
imu,486.737804,-0.1519308112,-9.794153947200002,1.9996248104,1.80204278,-19.50029129,1.96923921,,,
imu,486.746211,-0.2476352592,-9.779798280000001,1.9900543656,1.57773548,-21.74336429,2.81413004,,,
imu,486.754665,-0.3517138464,-9.772620446400001,1.9780913096,1.23379762,-23.82942218,3.25526773,,,
imu,486.76313,-0.4378478496000001,-9.755872168000002,1.9673245592,0.88985976,-25.75098805,3.44219048,,,
imu,486.771595,-0.5209910888,-9.724768222400002,1.9667264064,0.53096808,-27.06692421,3.27022155,,,
imu,486.78006,-0.6143029256000001,-9.7193848472,1.9667264064,0.26927623,-27.88938431,2.94871442,,,
imu,486.788524,-0.6986424704000002,-9.727160833600001,1.9667264064,-0.01484635000000001,-28.30061436,2.75431476,,,
imu,486.796989,-0.7746078760000001,-9.763050001600002,1.9685208648,-0.14943073,-28.09873779,2.64216111,,,
imu,486.805454,-0.8433954480000001,-9.7845835024,1.9481836696,-0.39616876,-27.59030791,2.67954566,,,
imu,486.813919,-0.9097904088000002,-9.7959484056,1.9625393368,-0.5756146,-26.60335579,2.72440712,,,
imu,486.822384,-0.9444832712000001,-9.797742864000002,1.9667264064,-0.81487572,-25.51172693,2.51505364,,,
imu,486.830848,-0.9779798280000002,-9.762451848800001,1.9541651976,-0.91207555,-23.94905274,2.65711493,,,
imu,486.839313,-1.0330098856,-9.731347903200001,1.9691190176,-1.06161375,-22.29665563,2.64963802,,,
imu,486.847778,-1.0443747888,-9.7606573904,1.982876532,-1.15133667,-20.65173543,2.47019218,,,
imu,486.856243,-1.0330098856,-9.8013317808,1.9762968512,-1.24105959,-18.96943068,2.05896213,,,
imu,486.864708,-1.0306172744,-9.803126239200001,1.9882599072,-1.00179847,-16.99552644,1.97671612,,,
imu,486.873172,-1.022841288,-9.8043225448,2.0085971024,-1.24105959,-15.20106804,1.65520899,,,
imu,486.881637,-1.0126726904,-9.8013317808,2.0026155744,-1.24105959,-13.20473307,1.38604023,,,
imu,486.890102,-1.019850524,-9.777405668800002,2.0032137272,-1.15881358,-11.18596737,1.43090169,,,
imu,486.898567,-1.0054948568,-9.746899876,1.9984285048,-1.42798234,-9.36160133,1.28136349,,,
imu,486.907032,-0.9851576616000001,-9.709814402400001,1.991848824,-1.38312088,-7.4699431,0.9449025400000002,,,
imu,486.915497,-0.9570444800000002,-9.6799067624,1.979885768,-1.35321324,-5.780161440000001,0.3093651899999998,,,
imu,486.923961,-0.9456795768000001,-9.644615747200001,1.982876532,-1.09152139,-4.23244107,-0.23644924,,,
imu,486.932426,-0.9211553120000001,-9.599754287200001,1.9804839208,-0.92702937,-2.70715143,-0.9542325999999999,,,
imu,486.940891,-0.8840698384000001,-9.596763523200002,2.006802644,-0.60552224,-1.24167707,-1.5523854,,,
imu,486.949356,-0.8260490168000001,-9.603343204000002,2.0133823248,-0.37373803,-0.03041764999999996,-2.23278421,,,
imu,486.957822,-0.7901598488000001,-9.6296619272,2.015774936,-0.13447691,1.06121121,-2.84589083,,,
imu,486.966288,-0.7279519576000001,-9.630858232800001,2.0181675472,-0.08961545,1.86871749,-3.38422835,,,
imu,486.974754,-0.6412198016000001,-9.639830524800002,2.0187657,0.11226112,2.48930102,-3.70573548,,,
imu,486.98322,-0.5365430616000001,-9.668541859200001,2.031326908800001,0.11226112,2.57154703,-4.079580979999999,,,
imu,486.991686,-0.4689517952000001,-9.6846919848,2.0432899648,0.09730729999999999,2.21265535,-4.124442439999999,,,
imu,487.000152,-0.4689517952000001,-9.718188541600002,2.0648234656,0.20198404,1.55468727,-3.99733497,,,
imu,487.008618,-0.4737370176,-9.7570684736,2.06362716,0.42629134,0.9041961000000001,-3.60853565,,,
imu,487.017084,-0.4839056152000001,-9.783985349600002,2.0702068408,0.26927623,0.1864127399999997,-3.28702852,,,
imu,487.025551,-0.517402172,-9.772022293600001,2.0917403416,0.20198404,-0.1201405700000002,-2.73373718,,,
imu,487.034017,-0.5616654792000001,-9.766638918400002,2.1102830784,0.14964567,-0.6136166300000001,-2.45709151,,,
imu,487.042483,-0.5921712720000001,-9.767237071200002,2.1048997032,-0.02980017,-0.86035466,-2.25521494,,,
imu,487.050949,-0.6352382736000001,-9.746301723200002,2.112675689600001,-0.21672292,-1.09213887,-2.43466078,,,
imu,487.059415,-0.6914646368,-9.744507264800001,2.106694161600001,-0.19429219,-1.12952342,-2.62906044,,,
imu,487.067881,-0.7441020832,-9.706225485600001,2.0851606608,-0.28401511,-1.00989286,-2.98795212,,,
imu,487.076347,-0.7877672376000001,-9.6799067624,2.072001299200001,-0.20924601,-0.45660152,-3.31693616,,,
imu,487.084813,-0.8266471696000001,-9.6709344704,2.0761883688,-0.03727708,0.2312741999999997,-3.52628964,,,
imu,487.093279,-0.8380120728000001,-9.6523917336,2.0654216184,0.20198404,1.09859576,-3.80293531,,,
imu,487.101745,-0.8517695872000001,-9.6284656216,2.0642253128,0.3216146,2.14536316,-3.95995042,,,
imu,487.110211,-0.8625363376,-9.613511801600001,2.0702068408,0.620691,3.25942275,-4.244073,,,
imu,487.118677,-0.8625363376,-9.595567217600001,2.0552530208,0.9571519499999999,4.28375942,-4.58801086,,,
imu,487.127144,-0.8649289488,-9.627867468800002,2.0702068408,1.12164397,5.23332699,-4.931948719999999,,,
imu,487.13561,-0.8960328944000001,-9.6505972752,2.0743939104,1.43567419,6.26514057,-5.1413022,,,
imu,487.144076,-0.9121830200000002,-9.641026830400001,2.0660197712,1.54035093,7.45396926,-5.31327113,,,
imu,487.152542,-0.9211553120000001,-9.6458120528,2.0600382432,1.6674584,8.72504396,-5.477763149999999,,,
imu,487.161,-0.9187627008000002,-9.664952942400001,2.0588419376,1.90671952,10.04098012,-5.55253225,,,
imu,487.169459,-0.9187627008000002,-9.692467971200001,2.0504677984,2.19831901,11.43916229,-5.67216281,,,
imu,487.177917,-0.9145756312000002,-9.7074217912,2.036710284,2.34785721,12.70276008,-5.8889932,,,
imu,487.186376,-0.8900513664000002,-9.709814402400001,2.0193638528,2.57216451,14.02617315,-6.068439039999999,,,
imu,487.194834,-0.885266144,-9.7056273328,2.0241490752,2.62450288,14.99817145,-6.636684199999999,,,
imu,487.203293,-0.8565548096000002,-9.693664276800002,2.0223546168,2.62450288,15.82810846,-6.89089914,,,
imu,487.211751,-0.8392083784000002,-9.7128051664,2.0193638528,2.7889949,16.6804762,-6.9357606,,,
imu,487.220209,-0.8314323920000001,-9.7331423616,2.0301306032,2.83385636,17.49545939,-6.7862224,,,
imu,487.228668,-0.8027210576,-9.7427128064,2.0163730888,2.80394872,18.4001655,-6.53948437,,,
imu,487.237126,-0.7883653904000001,-9.758264779200001,2.0014192688,2.76656417,19.11047195,-6.315177069999999,,,
imu,487.245585,-0.7907580016000001,-9.748096181600001,2.0169712416,2.47496468,19.65628638,-6.397423079999999,,,
imu,487.254043,-0.7464946944,-9.7403201952,2.009793408,2.19831901,20.21705463,-6.36751544,,,
imu,487.262502,-0.6866794144,-9.7403201952,1.991848824,2.21327283,20.62080777,-6.292746339999999,,,
imu,487.27096,-0.6531828576,-9.7540777096,1.9996248104,2.10111918,20.77782288,-6.17311578,,,
imu,487.279419,-0.6035361752000001,-9.7492924872,1.98885806,2.01139626,20.81520743,-6.068439039999999,,,
imu,487.287877,-0.5455153536,-9.734936820000001,1.9816802264,1.99644244,20.55351558,-5.97871612,,,
imu,485.816725,,,,,,,78.419042,-2.984690800000012,4.974448799999998
imu,485.918165,,,,,,,78.6143572,-2.984690800000012,5.059899199999995
imu,486.019728,,,,,,,79.52989720000001,-2.581853200000017,5.13314239999999
imu,486.12129,,,,,,,78.724222,-2.655096400000012,5.36507919999999
imu,486.230665,,,,,,,79.883906,-3.82698760000002,3.326476799999989
imu,486.33238,,,,,,,76.954178,-2.423159600000013,4.669268799999992
imu,486.43379,,,,,,,78.62656439999999,-3.534014800000018,1.715126399999989
imu,486.535383,,,,,,,75.5991788,-2.533024400000006,4.742511999999999
imu,487.296336,-0.4952705184000001,-9.740918348000001,1.9894562128,1.78708896,19.86563986,-6.02357758,,,
imu,487.304794,-0.4845037680000001,-9.7492924872,1.9924469768,1.68988913,19.02074903,-5.95628539,,,
imu,487.313252,-0.502448352,-9.779200127200001,2.0026155744,1.74970441,18.20576584,-5.79179337,,,
imu,487.321711,-0.5102243384,-9.797144711200001,1.991848824,1.64502767,17.55527467,-5.5151477,,,
imu,487.330169,-0.5108224912,-9.769629682400002,1.9972321992,1.48053565,16.92721423,-5.216071299999999,,,
imu,487.338628,-0.5287670752,-9.741516500800001,2.00381188,1.18893616,16.26924615,-4.991764,,,
imu,487.347086,-0.5383375200000001,-9.718786694400002,1.9966340464,1.12164397,15.82063155,-4.94690254,,,
imu,487.355545,-0.5461135064000001,-9.7217774584,2.0181675472,1.00949032,15.44678605,-4.93942563,,,
imu,487.364375,-0.5419264368000001,-9.719983000000001,2.0151767832,0.9870595899999999,15.05798673,-4.96185636,,,
imu,487.373205,-0.5676470072,-9.713403319200001,1.9966340464,0.9197674,14.66918741,-5.18616366,,,
imu,487.382035,-0.5724322296000001,-9.704431027200002,2.0151767832,0.7403215599999999,14.30281882,-5.45533242,,,
imu,487.390866,-0.5646562432000001,-9.690075360000002,2.0062044912,0.73284465,13.89906568,-5.79179337,,,
imu,487.399696,-0.5610673264,-9.702038416,2.021756464,0.66555246,13.70466602,-5.99366994,,,
imu,487.408526,-0.5562821040000001,-9.7086180968,2.0223546168,0.73284465,13.41306653,-6.046008309999999,,,
imu,487.417356,-0.5574784096000001,-9.727160833600001,2.0331213672,0.70293701,13.08408249,-6.1880696,,,
imu,487.426186,-0.5389356728,-9.737329431200001,2.0414955064,0.8524752099999999,12.84482137,-6.1880696,,,
imu,487.435016,-0.517402172,-9.739722042400002,2.0618327016,0.8375213899999999,12.55322188,-6.090869769999999,,,
imu,487.443847,-0.5239818528000001,-9.739722042400002,2.0684123824,0.77770611,12.17189947,-5.874039379999999,,,
imu,487.452677,-0.5150095608,-9.734936820000001,2.0690105352,0.9048135799999999,11.8952538,-5.55253225,,,
imu,487.461507,-0.5209910888,-9.722973764,2.0779828272,0.74779847,11.4466392,-5.45533242,,,
imu,487.470337,-0.5305615336,-9.727160833600001,2.0773846744,0.5459219,11.01297842,-5.38056332,,,
imu,487.479167,-0.5395338256000001,-9.7151977776,2.072001299200001,0.41133752,10.63165601,-5.20111748,,,
imu,487.487998,-0.5520950344000001,-9.6954587352,2.0809735912,0.33656842,10.46716399,-5.03662546,,,
imu,487.496828,-0.5843952856000001,-9.6846919848,2.0791791328,0.46367589,10.27276433,-4.96185636,,,
imu,487.505658,-0.5855915912,-9.687084596000002,2.0749920632,0.56835263,10.13070304,-4.77493361,,,
imu,486.637178,,,,,,,75.5991788,-3.192213200000005,4.498367999999997
imu,486.738344,,,,,,,75.22075560000002,-2.862618800000005,4.315259999999999
imu,486.840029,,,,,,,76.893142,-2.606267600000023,4.791340799999999
imu,486.941469,,,,,,,77.7110244,-2.606267600000023,5.36507919999999
imu,487.043062,,,,,,,78.33359159999999,-2.764961200000005,5.194178399999993
imu,487.144655,,,,,,,78.5899428,-2.069150800000008,4.986655999999989
imu,487.246157,,,,,,,77.5523308,-2.471988400000003,5.072106399999998
imu,487.34775,,,,,,,79.16368119999998,-3.314285200000011,2.264450399999995
imu,487.449312,,,,,,,76.50251159999999,-2.459781200000011,4.303052799999996
