Type,Timestamp,Data Accelerometer X,Data Accelerometer Y,Data Accelerometer Z,Data Gyroscope X,Data Gyroscope Y,Data Gyroscope Z,Data Magnetometer X,Data Magnetometer Y,Data Magnetometer Z
imu,203.249915,-1.2926082008,-9.718188541600002,1.7968510112,-3.67853225,8.18670644,-1.64958523,,,
imu,203.258379,-1.3506290224,-9.694860582400002,1.8130011368,-3.74582444,7.767999479999999,-1.31312428,,,
imu,203.266842,-1.3452456472,-9.690673512800002,1.7968510112,-3.52899405,7.2595696,-1.41032411,,,
imu,203.275306,-1.289019284,-9.665551095200001,1.8189826648,-3.30468675,6.885724099999999,-1.44770866,,,
imu,203.283769,-1.24116706,-9.5447242296,1.836329096,-3.21496383,6.34738658,-1.30564737,,,
imu,203.292233,-1.2166427952,-9.453805004000001,1.8201789704,-2.72896468,5.69689541,-1.28321664,,,
imu,203.300696,-1.238176296,-9.435860420000001,1.7908694832,-1.90650458,5.22585008,-0.8121713099999999,,,
imu,203.30916,-1.214250184,-9.411934308000001,1.8040288448,-1.03918302,4.92677368,-0.3635567099999999,,,
imu,203.317623,-1.199296364,-9.402962016000002,1.830347568,-0.14943073,4.58283582,-0.1317724999999998,,,
imu,203.326087,-1.2298021568,-9.429878892000001,1.8309457208,0.97210577,4.2688056,0.32431901,,,
imu,203.33455,-1.2585134912,-9.481320032800001,1.83931986,1.90671952,4.09683667,0.4065650199999999,,,
imu,203.343014,-1.2567190328,-9.562070660800002,1.878199792,2.51234923,3.98468302,0.2271191799999999,,,
imu,203.351477,-1.2507375048,-9.657775108800001,1.9093037376,3.02077911,3.86505246,0.07758098000000002,,,
imu,203.359941,-1.2298021568,-9.711010708000002,1.9045185152,3.14788658,3.91739083,0.05515025000000007,,,
imu,203.368405,-1.2256150872,-9.775611210400001,1.872218264,2.99087147,3.69308353,-0.2514030599999999,,,
imu,203.376868,-1.25612088,-9.839015407200002,1.8770034864,2.72170271,3.51363769,-0.4532796299999999,,,
imu,203.385332,-1.2632987136,-9.8198745176,1.887172084,2.25813429,3.28933039,-0.85703277,,,
imu,203.393795,-1.2417652128,-9.7295534448,1.8710219584,1.80951969,3.19960747,-1.20097063,,,
imu,203.402259,-1.2136520312,-9.713403319200001,1.8464976936,1.72727368,2.76594669,-1.58229304,,,
imu,203.410722,-1.2339892264,-9.776209363200001,1.8100103728,1.69736604,2.38462428,-1.93370781,,,
imu,203.419186,-1.265093172,-9.788172419200002,1.7789064272,1.65998149,1.8761944,-2.21035348,,,
imu,203.427649,-1.2483448936,-9.7576666264,1.73464312,1.58521239,1.4275798,-2.54681443,,,
imu,203.436113,-1.2537282688,-9.7744149048,1.731652356,1.82447351,1.33037997,-2.64401426,,,
imu,203.444576,-1.2728691584,-9.794153947200002,1.7507932456,1.92915025,1.06121121,-2.64401426,,,
imu,203.45304,-1.2585134912,-9.762451848800001,1.752587704,1.98896553,0.8593346399999997,-2.4496146,,,
imu,203.4615,-1.2734673112,-9.708019944000002,1.7723267464,1.9665348,0.78456554,-2.35241477,,,
imu,203.469959,-1.277056228,-9.688280901600002,1.782495344,2.02635008,0.5976427899999996,-2.4496146,,,
imu,203.478419,-1.2483448936,-9.681103068,1.7573729264,2.07868845,0.56025824,-2.23278421,,,
imu,203.486879,-1.2686820888,-9.682299373600001,1.740624648,2.10111918,0.66493498,-1.82155416,,,
imu,203.495339,-1.2938045064,-9.702038416,1.7478024816,2.01139626,0.92662683,-1.60472377,,,
imu,203.503798,-1.268083936,-9.6984494992,1.7478024816,1.95158098,1.11354958,-1.48509321,,,
imu,203.512258,-1.2489430464,-9.6637566368,1.7304560504,1.93662716,1.30047233,-1.39537029,,,
imu,203.520718,-1.2674857832,-9.6290637744,1.7328486616,1.86933497,1.30047233,-1.52247776,,,
imu,203.529178,-1.2854303672,-9.6494009696,1.7220819112,2.116073,1.32290306,-1.55986231,,,
imu,203.537637,-1.2627005608,-9.680504915200002,1.7155022304,2.05625772,1.36028761,-1.67201596,,,
imu,203.546097,-1.250139352,-9.644017594400001,1.6873890488,2.116073,1.30047233,-1.98604618,,,
imu,203.554557,-1.253130116,-9.593772759200002,1.7059317856,2.03382699,1.02382666,-2.58419898,,,
imu,203.563016,-1.265093172,-9.6523917336,1.7220819112,2.17588828,0.86681155,-2.95056757,,,
imu,203.571476,-1.2435596712,-9.76484446,1.7071280912,2.33290339,0.8593346399999997,-3.15992105,,,
imu,203.579936,-1.2758599224,-9.831837573600001,1.7232782168,2.05625772,1.06121121,-3.18982869,,,
imu,203.588396,-1.3045712568,-9.926345716,1.7262689808,1.86933497,1.29299542,-3.06272122,,,
imu,203.596855,-1.2728691584,-9.975992398400003,1.7454098704,1.1440747,1.74161002,-2.87579847,,,
imu,203.605315,-1.2447559768,-9.9466829112,1.7663452184,0.45619898,2.1752708,-2.68139881,,,
imu,203.613775,-1.3027767984,-9.9335235496,1.7741212048,-0.11204618,2.60145467,-2.54681443,,,
imu,203.622234,-1.2955989648,-9.883278714400001,1.7603636904,-0.8821679099999999,2.93791562,-2.48699915,,,
imu,203.630694,-1.247148588,-9.862343366400001,1.7609618432,-1.50275144,3.25194584,-2.46456842,,,
imu,203.639154,-1.2298021568,-9.850978463200002,1.7711304408,-1.77939711,3.55102224,-2.44213769,,,
imu,203.647614,-1.25612088,-9.8162856008,1.7627563016,-2.18315025,3.60336061,-2.63653735,,,
imu,203.656073,-1.2483448936,-9.791761336000002,1.7663452184,-2.79625687,3.60336061,-2.99542903,,,
imu,203.664545,-1.2304003096,-9.766040765600001,1.7783082744,-3.23739456,3.58840679,-3.30945925,,,
imu,203.673016,-1.223222476,-9.7612555432,1.7777101216,-3.57385551,3.40896095,-3.81788913,,,
imu,203.681487,-1.2453541296,-9.7217774584,1.7920657888,-3.96265483,3.05754618,-4.17678081,,,
imu,203.689958,-1.2304003096,-9.744507264800001,1.821375276,-4.373884879999999,2.65379304,-4.44594957,,,
imu,203.698429,-1.2220261704,-9.785779808000001,1.830347568,-4.65053055,2.31733209,-4.52071867,,,
imu,203.7069,-1.2226243232,-9.690075360000002,1.7848879552,-4.919699309999999,1.91357895,-4.55062631,,,
imu,203.715372,-1.2070723504,-9.6428212888,1.7896731776,-5.11409897,1.43505671,-4.602964679999999,,,
imu,203.723843,-1.2489430464,-9.667943706400001,1.803430692,-4.986991499999999,1.09859576,-4.46090339,,,
imu,203.732314,-1.268083936,-9.633848996800001,1.7657470656,-5.054283689999999,0.7770886299999997,-4.19921154,,,
imu,203.740785,-1.2938045064,-9.558481744000002,1.7567747736,-4.635576729999999,0.6499811599999998,-3.90013514,,,
imu,203.749256,-1.2967952704,-9.4974701584,1.7872805664,-4.14957758,0.5976427899999996,-3.35432071,,,
imu,203.757727,-1.309954632,-9.456197615200002,1.8231697344,-3.60376315,0.78456554,-2.71878336,,,
imu,203.766199,-1.3302918272,-9.4753385048,1.8375254016,-2.64671867,0.8817653699999997,-2.28512258,,,
imu,203.774598,-1.3613957728,-9.514218436800002,1.8381235544,-1.622382,1.03130357,-1.93370781,,,
imu,203.783069,-1.3793403568,-9.5429297712,1.8369272488,-0.78496808,1.30794924,-1.85893871,,,
imu,203.79154,-1.3619939256,-9.565061424800001,1.8548718328,-0.29149202,1.5023489,-1.94118472,,,
imu,203.800012,-1.351825328,-9.573435564,1.8835831672,0.3739529699999999,1.6518871,-2.33746095,,,
imu,203.808483,-1.3410585776,-9.575230022400001,1.8967425288,0.8449983,1.76404075,-2.8234601,,,
imu,203.816954,-1.3344788968,-9.605735815200001,1.9063129736,1.33847436,1.9509635,-3.32441307,,,
imu,203.825425,-1.3123472432,-9.640428677600001,1.8907610008,1.67493531,2.19022462,-3.54872037,,,
imu,203.833896,-1.2818414504,-9.704431027200002,1.9075092792,1.86185806,2.53416248,-3.59358183,,,
imu,203.842367,-1.2393726016,-9.745703570400002,1.8979388344,1.78708896,2.93791562,-3.496382,,,
imu,203.850839,-1.229204004,-9.746899876,1.9152852656,1.83195042,3.25194584,-3.13749032,,,
imu,203.85931,-1.2399707544,-9.765442612800001,1.9272483216,1.67493531,3.49120696,-3.1225365,,,
imu,203.867775,-1.2423633656,-9.773218599200002,1.9314353912,1.41324346,3.68560662,-3.33936689,,,
imu,203.876239,-1.1747720992,-9.7911631832,1.9248557104,1.31604363,4.06692903,-3.36927453,,,
imu,203.884704,-1.13649032,-9.803126239200001,1.9428002944,1.15155161,4.17908268,-3.1973056,,,
imu,203.893169,-1.1287143336,-9.8013317808,1.9116963488,0.91229049,4.26132869,-3.02533667,,,
imu,203.901634,-1.1329014032,-9.6817012208,1.8554699856,0.66555246,4.28375942,-2.79355246,,,
imu,203.910099,-1.133499556,-9.591978300800001,1.8464976936,0.4711528,4.28375942,-2.66644499,,,
imu,203.918564,-1.0952177768,-9.590183842400002,1.827356804,0.94967504,4.22394414,-2.73373718,,,
imu,203.927028,-1.1011993048,-9.623680399200001,1.8165900536,1.37585891,3.98468302,-3.41413599,,,
imu,203.935493,-1.1532385984,-9.612315496,1.791467636,1.54035093,3.54354533,-3.96742733,,,
imu,203.943958,-1.15144414,-9.593772759200002,1.785486108,1.86185806,3.13231528,-4.37865738,,,
imu,203.952423,-1.1472570704,-9.597361676,1.7573729264,2.47496468,2.93791562,-4.78988743,,,
imu,203.960888,-1.18135178,-9.599156134400001,1.7603636904,2.98339456,2.68370068,-4.887087259999999,,,
imu,203.969352,-1.223222476,-9.724768222400002,1.8016362336,3.20022495,2.30237827,-5.1413022,,,
imu,203.977817,-1.2274095456,-9.8294449624,1.7807008856,3.2376095,2.10797861,-5.53010152,,,
imu,203.986282,-1.2567190328,-9.7492924872,1.7663452184,2.62450288,1.8761944,-5.806747189999999,,,
imu,203.994747,-1.2902155896,-9.608128426400002,1.77950458,2.28056502,1.82385603,-5.67963972,,,
imu,204.003212,-1.306963868,-9.627867468800002,1.8028325392,2.58711833,1.79394839,-5.98619303,,,
imu,204.011676,-1.3177306184,-9.807313308800001,1.827356804,2.76656417,2.01077878,-5.97123921,,,
imu,204.020141,-1.3380678136,-9.843800629600002,1.77950458,2.46001086,2.14536316,-5.896470109999999,,,
imu,204.028606,-1.342853036,-9.746899876,1.788476872,1.91419643,2.38462428,-5.739455,,,
imu,204.037071,-1.3087583264,-9.693066124000001,1.8327401792,1.65250458,2.8481927,-5.38056332,,,
imu,204.045536,-1.2914118952,-9.709216249600003,1.791467636,1.39828964,3.23699202,-5.16373293,,,
imu,204.054001,-1.2902155896,-9.743310959200002,1.7872805664,1.33099745,3.63326825,-4.96185636,,,
imu,204.062465,-1.2704765472,-9.764246307200002,1.7932620944,1.03939796,3.83514482,-4.94690254,,,
imu,204.071281,-1.2405689072,-9.746899876,1.7717285936,0.76275229,3.94729847,-4.84970271,,,
imu,204.080097,-1.2286058512,-9.723571916800001,1.7848879552,0.63564482,4.05945212,-4.77493361,,,
imu,204.088912,-1.1939129888,-9.7193848472,1.788476872,0.58330645,3.85757555,-4.96185636,,,
imu,204.097728,-1.1986982112,-9.7361331256,1.7848879552,0.56087572,3.47625314,-5.044102369999999,,,
imu,204.106543,-1.1951092944,-9.739722042400002,1.8285531096,0.27675314,3.04259236,-5.31327113,,,
imu,204.115359,-1.1951092944,-9.770825988000002,1.8644422776,0.03001510999999998,2.50425484,-5.73197809,,,
imu,204.124175,-1.2196335592,-9.801929933600002,1.8381235544,-0.21672292,1.94348659,-6.090869769999999,,,
imu,204.13299,-1.2854303672,-9.755274015200001,1.8387217072,-0.68029134,1.46496435,-6.33013089,,,
imu,204.141806,-1.318926924,-9.780396432800002,1.896144376,-0.91955246,1.23318014,-6.270315609999999,,,
imu,204.150621,-1.2872248256,-9.817481906400001,1.8859757784,-1.14385976,1.09859576,-6.008623759999999,,,
imu,204.159437,-1.309954632,-9.8061170032,1.8734145696,-1.33078251,1.07616503,-5.64225517,,,
imu,204.168253,-1.3781440512,-9.794153947200002,1.8865739312,-1.68219728,1.13598031,-5.216071299999999,,,
imu,204.177068,-1.3895089544,-9.706823638400001,1.8853776256,-1.95136604,1.33785688,-5.16373293,,,
imu,204.185884,-1.3889108016,-9.662560331200002,1.8620496664,-1.81678166,1.56216418,-5.10391765,,,
imu,204.194699,-1.4158276776,-9.675719692800001,1.8644422776,-1.5476129,1.63693328,-5.2908404,,,
imu,204.203515,-1.414631372,-9.680504915200002,1.8799942504,-1.40555161,1.70422547,-5.4403786,,,
imu,204.212331,-1.4140332192,-9.642223136000002,1.8776016392,-1.29339796,1.97339423,-5.545055339999999,,,
imu,204.221146,-1.4080516912,-9.6039413568,1.8895646952,-1.24105959,2.2500399,-5.41047096,,,
imu,204.229962,-1.417622136,-9.6224840936,1.8823868616,-0.94198319,2.40705501,-5.11139456,,,
imu,204.238777,-1.4379593312,-9.636241608,1.8680311944,-0.8672140899999999,2.71360832,-4.93942563,,,
imu,204.247593,-1.4194165944,-9.656578803200002,1.8626478192,-0.8522602699999999,3.07997691,-4.47585721,,,
imu,204.256409,-1.3901071072,-9.6494009696,1.8620496664,-1.00179847,3.42391477,-3.8702275,,,
imu,204.265224,-1.3781440512,-9.626671163200001,1.8776016392,-1.10647521,3.61831443,-3.6459202,,,
imu,204.273733,-1.3883126488,-9.632054538400002,1.866236736,-0.91955246,3.76785263,-3.22721324,,,
imu,204.282243,-1.3661809952,-9.5907819952,1.8566662912,-1.00179847,3.76785263,-2.94309066,,,
imu,204.290752,-1.3715643704,-9.5949690648,1.8919573064,-1.00179847,3.88748319,-2.87579847,,,
imu,204.299261,-1.3590031616,-9.655980650400002,1.9075092792,-0.8672140899999999,3.90243701,-2.84589083,,,
imu,204.307771,-1.3374696608,-9.745105417600001,1.9045185152,-0.97189083,4.0444983,-2.80850628,,,
imu,204.31628,-1.3482364112,-9.7780038216,1.9099018904,-1.19619813,4.16412886,-2.748691,,,
imu,204.324789,-1.333880744,-9.764246307200002,1.9481836696,-1.54013599,4.37348234,-2.75616791,,,
imu,204.333299,-1.3057675624,-9.7606573904,1.9212667936,-1.80182784,4.523020539999999,-2.68887572,,,
imu,204.341808,-1.295000812,-9.725366375200002,1.902125904,-2.07847351,4.523020539999999,-2.76364482,,,
imu,204.350317,-1.2728691584,-9.662560331200002,1.9422021416,-2.13828879,4.53797436,-2.9729983,,,
imu,204.358827,-1.2866266728,-9.647606511200001,1.92904278,-1.98127368,4.37348234,-3.16739796,,,
imu,204.367336,-1.2686820888,-9.630260080000001,1.9344261552,-1.71958183,4.35105161,-3.26459779,,,
imu,204.375845,-1.2298021568,-9.639830524800002,1.9505762808,-1.75696638,4.28375942,-3.21225942,,,
imu,204.384355,-1.2477467408,-9.688879054400001,1.935024308,-1.68219728,4.03702139,-3.28702852,,,
imu,204.392864,-1.2662894776,-9.672728928800002,1.9571559616,-1.75696638,3.75289881,-3.46647436,,,
imu,204.401373,-1.2585134912,-9.672728928800002,2.0014192688,-1.70462801,3.66317589,-3.53376655,,,
imu,204.409883,-1.2537282688,-9.701440263200002,2.0193638528,-1.7719202,3.70056044,-3.496382,,,
imu,204.418392,-1.2692802416,-9.7636481544,2.0385047424,-1.68219728,3.64822207,-3.51133582,,,
imu,204.426901,-1.2459522824,-9.8043225448,2.0444862704,-1.65228964,3.53606842,-3.45152054,,,
imu,204.43541,-1.2333910736,-9.7492924872,2.0199620056,-2.01865823,3.4463455,-3.62348947,,,
imu,204.44392,-1.2525319632,-9.6876827488,2.0438881176,-2.20558098,3.43886859,-3.46647436,,,
imu,204.452429,-1.259111644,-9.682299373600001,2.0672160768,-2.17567334,3.45382241,-3.45899745,,,
imu,203.343217,,,,,,,76.46588999999999,-4.827978000000011,1.043730399999998
imu,203.444993,,,,,,,74.02445,-4.486176400000019,3.375305599999989
imu,203.546373,,,,,,,76.0874668,-4.876806800000022,0.164811999999992
imu,203.647935,,,,,,,74.02445,-4.15658200000002,3.338683999999992
imu,204.460938,-1.262102408,-9.702636568800001,2.051664104,-2.19062716,3.52859151,-3.23469015,,,
imu,204.469448,-1.253130116,-9.676915998400002,2.0648234656,-2.45979592,3.64822207,-3.39170526,,,
imu,204.477876,-1.25612088,-9.708019944000002,2.1216479816,-2.48222665,3.71551426,-3.42908981,,,
imu,204.486304,-1.2704765472,-9.724768222400002,2.1078904672,-2.75139541,3.70803735,-3.35432071,,,
imu,204.494732,-1.2597097968,-9.627269316000001,2.069608688,-3.17010237,3.85757555,-3.4216129,,,
imu,204.503159,-1.268083936,-9.48072188,2.0917403416,-3.49908641,3.95477538,-3.56367419,,,
imu,204.511587,-1.2662894776,-9.448421628800002,2.0911421888,-3.31216366,3.70803735,-3.89265823,,,
imu,204.520015,-1.3051694096,-9.491488630400001,2.1007126336,-2.93831816,3.54354533,-4.169303899999999,,,
imu,204.528443,-1.3081601736,-9.583006008800002,2.1078904672,-2.49718047,3.32671494,-4.28893446,,,
imu,204.536871,-1.2896174368,-9.6499991224,2.102507092,-2.16819643,3.18465365,-4.55062631,,,
imu,204.545299,-1.2609061024,-9.635045302400002,2.0869551192,-2.08595042,3.16969983,-4.43847266,,,
imu,204.553727,-1.2722710056,-9.6159044128,2.0917403416,-1.70462801,3.15474601,-3.92256587,,,
imu,204.562155,-1.2722710056,-9.610521037600002,2.0851606608,-1.28592105,3.01268472,-3.13001341,,,
imu,204.570583,-1.2674857832,-9.589585689600002,2.0355139784,-0.68776825,2.90800798,-2.8234601,,,
imu,204.579011,-1.2752617696,-9.562070660800002,2.0283361448,-0.25410747,2.63136231,-2.86832156,,,
imu,204.587439,-1.3057675624,-9.538742701600002,2.057645632,0.3963837,2.13788625,-3.06272122,,,
imu,204.595867,-1.2932063536,-9.5501076048,2.089347730400001,1.00949032,1.90610204,-3.0477674,,,
imu,204.604295,-1.2812432976,-9.561472508000001,2.0971237168,1.45810492,1.82385603,-2.84589083,,,
imu,204.612723,-1.289019284,-9.596165370400001,2.0917403416,1.72727368,1.73413311,-2.76364482,,,
imu,204.621151,-1.2997860344,-9.616502565600001,2.106694161600001,1.83195042,1.82385603,-2.58419898,,,
imu,204.629579,-1.3207213824,-9.638634219200002,2.0941329528,1.86185806,1.94348659,-2.15801511,,,
imu,204.638006,-1.3213195352,-9.641026830400001,2.0929366472,1.5926893,2.06311715,-2.12810747,,,
imu,204.646434,-1.3087583264,-9.620689635200002,2.10848862,1.38333582,2.21265535,-2.25521494,,,
imu,204.654862,-1.2818414504,-9.605735815200001,2.120451676000001,1.49548947,2.44443956,-2.13558438,,,
imu,204.66329,-1.2555227272,-9.657775108800001,2.1156664536,1.42072037,2.48182411,-2.06829219,,,
imu,204.671718,-1.2429615184,-9.657176956,2.0797772856,1.42819728,2.54163939,-2.1505382,,,
imu,204.680184,-1.2214280176,-9.6535880392,2.07858098,1.46558183,2.79585433,-1.94866163,,,
imu,204.68865,-1.2040815864,-9.684093832000002,2.0558511736,1.6674584,2.86314652,-2.02343073,,,
imu,204.697117,-1.1897259192,-9.711010708000002,2.0235509224,1.75718132,2.84071579,-2.35989168,,,
imu,204.705583,-1.1640053488,-9.714599624800002,2.0678142296,1.85438115,2.81828506,-2.38979932,,,
imu,204.714049,-1.1346958616,-9.654186192000001,2.0570474792,1.65250458,2.81080815,-2.5991528,,,
imu,204.722515,-1.1287143336,-9.6434194416,2.066617924,1.73475059,2.6986545,-2.81598319,,,
imu,204.730981,-1.1526404456,-9.749890640000002,2.0761883688,1.93662716,2.38462428,-3.01038285,,,
imu,204.739447,-1.1646035016,-9.802528086400002,2.0899458832,1.74970441,2.06311715,-3.25712088,,,
imu,204.747913,-1.1568275152,-9.765442612800001,2.0959274112,1.30856672,1.95844041,-3.24964397,,,
imu,204.756379,-1.1586219736,-9.6942624296,2.0540567152,0.80013684,1.76404075,-3.48142818,,,
imu,204.764845,-1.1592201264,-9.687084596000002,2.0355139784,0.68798319,1.29299542,-3.82536604,,,
imu,204.773311,-1.148453376,-9.70502918,2.039701048,0.71789083,0.8742884599999998,-4.19173463,,,
imu,204.781777,-1.1669961128,-9.701440263200002,2.0211583112,0.79265993,0.7322271699999998,-4.02724261,,,
imu,204.790243,-1.1939129888,-9.636839760800001,1.9846709904,1.11416706,0.7995193599999997,-3.56367419,,,
imu,204.79871,-1.2160446424,-9.562668813600002,1.9547633504,1.41324346,0.70231953,-3.39918217,,,
imu,204.807176,-1.2315966152,-9.5949690648,2.0265416864,1.86185806,0.5752120599999997,-3.50385891,,,
imu,204.815642,-1.2597097968,-9.661364025600001,2.0271398392,2.23570356,0.6499811599999998,-3.57862801,,,
imu,204.824108,-1.2489430464,-9.590183842400002,1.9774931568,2.21327283,0.64250425,-3.61601256,,,
imu,204.832574,-1.2656913248,-9.6218859408,2.0869551192,2.20579592,0.7322271699999998,-3.95247351,,,
imu,204.84104,-1.2794488392,-9.706225485600001,2.0391028952,2.22822665,0.9116730099999999,-4.19921154,,,
imu,204.849506,-1.2513356576,-9.635643455200002,2.0145786304,2.08616536,1.00887284,-4.10948862,,,
imu,204.857972,-1.2393726016,-9.743310959200002,2.1252368984,2.07868845,1.13598031,-4.04967334,,,
imu,204.866315,-1.250139352,-9.803126239200001,2.0379065896,1.83942733,1.00139593,-3.95995042,,,
imu,204.874781,-1.2656913248,-9.797742864000002,2.0085971024,1.37585891,0.8742884599999998,-3.73564312,,,
imu,204.883249,-1.2627005608,-9.654784344800001,1.9451929056,0.94219813,0.9041961000000001,-3.77302767,,,
imu,204.891718,-1.2250169344,-9.574631869600001,2.0331213672,0.8674290299999999,0.9939190199999999,-3.40665908,,,
imu,204.900187,-1.2256150872,-9.614708107200002,2.030728756,1.15155161,0.9116730099999999,-3.1973056,,,
imu,204.908655,-1.2615042552,-9.534555632000002,1.9493799752,1.30856672,0.8369039099999998,-2.86832156,,,
imu,204.917124,-1.2848322144,-9.5291722568,1.9792876152,1.64502767,0.5527813299999997,-2.83093701,,,
imu,204.925593,-1.2812432976,-9.673925234400002,2.0020174216,2.28056502,0.5378275100000001,-2.95804448,,,
imu,204.934061,-1.3380678136,-9.710412555200001,1.9691190176,2.33290339,0.5527813299999997,-2.92065993,,,
imu,204.94253,-1.4050609272,-9.6667474008,1.9416039888,2.31794957,0.6574580699999997,-3.05524431,,,
imu,204.950998,-1.4032664688,-9.672130776000001,1.9727079344,2.43010322,0.8369039099999998,-3.53376655,,,
imu,204.959467,-1.3446474944,-9.7128051664,1.9451929056,2.48244159,0.8892422799999999,-3.80293531,,,
imu,204.967936,-1.3314881328,-9.746899876,1.920070488,2.47496468,0.9415806499999997,-3.85527368,,,
imu,204.976404,-1.357806856,-9.808509614400002,1.938015072,2.30299575,1.03130357,-3.93751969,,,
imu,204.984873,-1.3596013144,-9.858754449600001,1.9445947528,1.94410407,1.15093413,-3.9449966,,,
imu,204.993342,-1.3231139936,-9.860548908000002,1.9505762808,1.40576655,1.03878048,-3.9449966,,,
imu,205.00181,-1.309954632,-9.721179305600002,1.9505762808,0.7702292,1.25561087,-3.81041222,,,
imu,205.010279,-1.2926082008,-9.638036066400002,1.9547633504,0.53844499,1.21074941,-3.57862801,,,
imu,205.018747,-1.2656913248,-9.734338667200001,1.979885768,0.47862971,1.0537343,-3.52628964,,,
imu,205.027216,-1.2615042552,-9.7989391696,2.0014192688,0.25432241,1.12102649,-3.33936689,,,
imu,205.035685,-1.2345873792,-9.752881404000002,1.9840728376,-0.16438455,1.01634975,-2.98047521,,,
imu,205.044153,-1.2435596712,-9.645213900000002,2.015774936,-0.64290679,0.8892422799999999,-2.96552139,,,
imu,205.052622,-1.24116706,-9.5949690648,2.0193638528,-0.73262971,0.6499811599999998,-2.78607555,,,
imu,205.061091,-1.247148588,-9.639232372,2.0079989496,-0.59056842,0.4481045899999998,-2.64401426,,,
imu,205.069559,-1.2555227272,-9.669140012000002,2.00381188,-0.5307531400000001,0.33595094,-2.62158353,,,
imu,205.078028,-1.2555227272,-9.688280901600002,2.0229527696,-0.26906129,0.44062768,-2.56176825,,,
imu,205.086846,-1.2537282688,-9.697851346400002,2.0223546168,-0.14195382,0.4256738599999998,-2.56176825,,,
imu,205.095664,-1.250139352,-9.693664276800002,2.03371952,-0.08213854000000001,0.4929660499999997,-2.56176825,,,
imu,205.104483,-1.2764580752,-9.669140012000002,2.0438881176,-0.08961545,0.50044296,-2.18792275,,,
imu,205.113301,-1.2339892264,-9.635643455200002,2.0444862704,-0.14195382,0.5677351499999999,-2.12810747,,,
imu,205.122119,-1.2345873792,-9.672130776000001,2.062430854400001,-0.007369440000000005,0.6724118899999998,-2.02343073,,,
imu,205.130937,-1.2674857832,-9.7008421104,2.045084423200001,-0.2017691,0.6275504299999999,-1.91127708,,,
imu,205.139756,-1.2776543808,-9.667943706400001,2.057645632,-0.21672292,0.6873657099999999,-2.11315365,,,
imu,205.148574,-1.2884211312,-9.702636568800001,2.1168627592,-0.17186146,0.8369039099999998,-2.33746095,,,
imu,205.157392,-1.268083936,-9.7265626808,2.129423968,-0.16438455,0.98644211,-2.50195297,,,
imu,205.16621,-1.2573171856,-9.711608860800002,2.1043015504,-0.22419983,1.21822632,-2.5243837,,,
imu,205.175029,-1.250139352,-9.6709344704,2.0851606608,-0.44103022,1.36776452,-2.3748455,,,
imu,205.183847,-1.265093172,-9.652989886400002,2.0821698968,-0.25410747,1.71170238,-2.38979932,,,
imu,205.192665,-1.2776543808,-9.701440263200002,2.069608688,0.14216876,1.83133294,-2.44213769,,,
imu,205.201483,-1.229204004,-9.666149248000002,2.0283361448,0.11973803,1.90610204,-2.71130645,,,
imu,205.210302,-1.1879314608,-9.5907819952,2.0079989496,0.20198404,1.99582496,-2.72626027,,,
imu,205.21912,-1.1945111416,-9.539939007200001,2.0325232144,0.53096808,2.16779389,-2.65896808,,,
imu,205.227938,-1.1891277664,-9.536948243200001,2.0408973536,0.9945364999999999,2.30237827,-2.48699915,,,
imu,205.236756,-1.1759684048,-9.548313146400002,2.0522622568,1.33847436,2.27247063,-2.21035348,,,
imu,205.245575,-1.1687905712,-9.578818939200001,2.0181675472,1.65250458,2.42200883,-2.18044584,,,
imu,205.254393,-1.1628090432,-9.635045302400002,2.0091952552,1.74970441,2.44443956,-2.34493786,,,
imu,205.263211,-1.1478552232,-9.620091482400001,2.0295324504,1.92167334,2.36219355,-2.42718387,,,
imu,205.272029,-1.142471848,-9.599156134400001,2.0522622568,1.8917657,2.34723973,-2.72626027,,,
imu,203.74934,,,,,,,74.01224280000001,-3.472978800000015,3.009089599999992
imu,203.850933,,,,,,,74.4028732,-3.570636400000016,3.118954399999996
imu,203.952465,,,,,,,74.35404439999999,-3.448564400000009,3.228819199999988
imu,204.054028,,,,,,,73.93899960000002,-3.888023600000023,2.960260799999992
imu,204.15559,,,,,,,73.84134200000001,-4.132167600000014,2.923639199999994
imu,204.257275,,,,,,,76.33161079999999,-3.997888400000016,3.009089599999992
imu,204.358746,,,,,,,73.95120680000001,-3.631672400000019,2.252243199999993
imu,204.461132,,,,,,,76.17291719999999,-4.40072600000001,0.1526047999999891
imu,205.280848,-1.1759684048,-9.638036066400002,2.0295324504,1.94410407,2.10797861,-3.05524431,,,
imu,205.289385,-1.223222476,-9.6709344704,2.039701048,2.13102682,1.78647148,-3.47395127,,,
imu,205.297922,-1.2238206288,-9.6499991224,2.042691812,2.20579592,1.89114822,-3.74312003,,,
imu,205.30646,-1.208268656,-9.640428677600001,2.0391028952,2.24318047,2.00330187,-3.66087402,,,
imu,205.314997,-1.22621324,-9.711010708000002,2.0660197712,2.4151494,2.1005017,-3.62348947,,,
imu,205.323534,-1.229204004,-9.681103068,2.0600382432,2.39271867,2.25751681,-3.78050458,,,
imu,205.332071,-1.2208298648,-9.6703363176,2.0289342976,2.40019558,2.30985518,-3.70573548,,,
imu,205.340609,-1.2094649616,-9.655980650400002,2.024747228,2.60954906,2.57902394,-3.6459202,,,
imu,205.349146,-1.235185532,-9.7295534448,2.0343176728,2.863764,2.60145467,-3.57862801,,,
imu,205.357683,-1.2369799904,-9.803126239200001,2.0253453808,2.70674889,2.26499372,-3.84779677,,,
imu,205.366221,-1.247148588,-9.7504887928,2.0223546168,2.3403803,2.36219355,-3.93751969,,,
imu,205.374758,-1.2453541296,-9.690075360000002,2.00381188,2.29551884,2.48930102,-3.78050458,,,
imu,205.383295,-1.2333910736,-9.605735815200001,1.985867296,2.22822665,2.49677793,-3.81788913,,,
imu,205.391833,-1.2345873792,-9.604539509600002,1.9894562128,2.2656112,2.45939338,-3.71321239,,,
imu,205.40037,-1.2339892264,-9.626671163200001,1.976895004,2.58711833,2.37714737,-3.84031986,,,
imu,205.408907,-1.2286058512,-9.632054538400002,1.9882599072,2.69179507,2.30985518,-3.9449966,,,
imu,205.417444,-1.2399707544,-9.662560331200002,2.0121860192,2.72170271,2.35471664,-3.59358183,,,
imu,205.425982,-1.2226243232,-9.638634219200002,1.9930451296,2.74413344,2.57902394,-3.1973056,,,
imu,205.434519,-1.2286058512,-9.620091482400001,1.9924469768,2.85628709,2.73603905,-2.80850628,,,
imu,205.443056,-1.220231712,-9.642223136000002,1.9745023928,2.94601001,2.67622377,-2.5243837,,,
imu,205.451594,-1.2106612672,-9.642223136000002,1.935024308,3.09554821,2.66126995,-2.8234601,,,
imu,205.460131,-1.2028852808,-9.614109954400002,1.9284446272,3.140409669999999,2.51173175,-3.17487487,,,
imu,205.468668,-1.1909222248,-9.6248767048,1.9248557104,3.29742478,2.30237827,-3.47395127,,,
imu,205.477205,-1.187333308,-9.609324732000001,1.9009295984,3.82828539,2.21265535,-3.57862801,,,
imu,205.485743,-1.2028852808,-9.6224840936,1.8955462232,4.22456162,2.09302479,-3.72816621,,,
imu,205.494143,-1.2100631144,-9.676915998400002,1.8937517648,4.44886892,2.04068642,-3.82536604,,,
imu,205.502543,-1.1897259192,-9.7056273328,1.9087055848,4.54606875,1.97339423,-3.75059694,,,
imu,205.510943,-1.1831462384,-9.688879054400001,1.9176778768,4.39653055,2.01077878,-3.67582784,,,
imu,205.519343,-1.1945111416,-9.722375611200002,1.9386132248,4.26942308,1.98087114,-3.54872037,,,
imu,205.527743,-1.2184372536,-9.8079114616,1.9547633504,4.15726943,2.01077878,-3.38422835,,,
imu,205.536143,-1.2208298648,-9.8402117128,1.9493799752,4.11240797,2.19022462,-3.20478251,,,
imu,205.544542,-1.2010908224,-9.8013317808,1.9416039888,3.56659354,2.16779389,-3.23469015,,,
imu,205.552942,-1.1819499328,-9.727160833600001,1.9439966,3.11050203,2.04068642,-3.2720747,,,
imu,205.561342,-1.1777628632,-9.699645804800001,1.9176778768,3.04320984,2.09302479,-3.25712088,,,
imu,205.569742,-1.1747720992,-9.700243957600001,1.8853776256,3.0880713,2.12293243,-3.21973633,,,
imu,205.578142,-1.190324072,-9.7361331256,1.8889665424,3.06564057,2.04068642,-3.13749032,,,
imu,205.586542,-1.205277892,-9.7786019744,1.8919573064,3.03573293,2.18274771,-3.1225365,,,
imu,205.594942,-1.1897259192,-9.7265626808,1.8865739312,2.7889949,2.13040934,-3.24216706,,,
imu,205.603342,-1.1765665576,-9.642223136000002,1.8877702368,2.54973378,2.06311715,-3.33188998,,,
imu,205.611742,-1.205277892,-9.578818939200001,1.8776016392,2.48244159,2.22760917,-3.40665908,,,
imu,205.620142,-1.1986982112,-9.597959828800002,1.8704238056,2.63197979,2.36967046,-3.69078166,,,
imu,205.628542,-1.1855388496,-9.652989886400002,1.8716201112,2.97591765,2.42200883,-3.8702275,,,
imu,205.636942,-1.190324072,-9.6846919848,1.8686293472,3.140409669999999,2.43696265,-4.04219643,,,
imu,205.645342,-1.175370252,-9.689477207200001,1.8536755272,3.07311748,2.5491163,-4.08705789,,,
imu,205.653742,-1.1640053488,-9.678112304,1.866236736,3.03573293,2.70613141,-4.124442439999999,,,
imu,205.662142,-1.1460607648,-9.659569567200002,1.8381235544,3.28994787,2.65379304,-4.19921154,,,
imu,205.670542,-1.1460607648,-9.657176956,1.8387217072,3.36471697,2.50425484,-4.408565019999999,,,
imu,205.678942,-1.1628090432,-9.690075360000002,1.8387217072,3.67127028,2.31733209,-4.363703559999999,,,
imu,205.687342,-1.1789591688,-9.748694334400001,1.8249641928,3.80585466,2.09302479,-4.52819558,,,
imu,205.695803,-1.1885296136,-9.796546558400001,1.8261604984,3.84323921,1.99582496,-4.759979789999999,,,
imu,205.704264,-1.1711831824,-9.779200127200001,1.8231697344,3.6862241,1.91357895,-4.70016451,,,
imu,205.712725,-1.1562293624,-9.754675862400001,1.8279549568,3.23013259,1.59207182,-4.87213344,,,
imu,205.721186,-1.1735757936,-9.752283251200002,1.8399180128,3.23013259,1.39767216,-4.87961035,,,
imu,205.729647,-1.1771647104,-9.7923594888,1.8297494152,3.03573293,1.15093413,-4.78988743,,,
imu,205.738108,-1.1777628632,-9.7923594888,1.8309457208,2.81890254,1.06868812,-4.68521069,,,
imu,205.746569,-1.1986982112,-9.763050001600002,1.821375276,2.50487232,0.78456554,-4.61044159,,,
imu,205.75503,-1.2130538784,-9.7504887928,1.8219734288,2.34785721,0.5976427899999996,-4.715118329999999,,,
imu,205.763491,-1.2632987136,-9.763050001600002,1.821375276,2.17588828,0.4032431299999999,-5.044102369999999,,,
imu,205.771952,-1.2585134912,-9.7576666264,1.827356804,2.05625772,0.2462280199999998,-5.22354821,,,
imu,205.780413,-1.259111644,-9.745105417600001,1.827356804,1.89924261,0.1565051,-5.26840967,,,
imu,205.788874,-1.2896174368,-9.777405668800002,1.848292152,1.7422275,0.4705353199999998,-4.75250288,,,
imu,205.797335,-1.3111509376,-9.803126239200001,1.8237678872,1.5926893,0.6125966099999998,-4.13939626,,,
imu,205.805796,-1.3045712568,-9.7821908912,1.8076177616,1.32352054,0.9565344699999998,-3.85527368,,,
imu,205.814257,-1.28602852,-9.7128051664,1.7992436224,1.03192105,1.24813396,-3.65339711,,,
imu,205.822718,-1.2776543808,-9.704431027200002,1.7980473168,0.8749059399999999,1.2780416,-3.78050458,,,
imu,205.831179,-1.2776543808,-9.710412555200001,1.7944584,0.8823828499999999,1.33037997,-3.95247351,,,
imu,205.83964,-1.2656913248,-9.666149248000002,1.7657470656,0.88985976,1.47991817,-4.04219643,,,
imu,205.848101,-1.2603079496,-9.636839760800001,1.7591673848,0.9870595899999999,1.52477963,-3.93751969,,,
imu,205.856562,-1.2632987136,-9.638634219200002,1.7759156632,1.27118217,1.51730272,-3.8702275,,,
imu,205.865023,-1.2573171856,-9.633848996800001,1.767541524,1.47305874,1.47244126,-3.92256587,,,
imu,205.873484,-1.2537282688,-9.6643547896,1.7723267464,1.7422275,1.37524143,-3.7206893,,,
imu,205.881945,-1.2866266728,-9.702636568800001,1.7783082744,1.99644244,1.12102649,-3.68330475,,,
imu,205.890406,-1.3003841872,-9.742114653600002,1.7789064272,2.09364227,1.06121121,-3.7206893,,,
imu,205.898867,-1.2842340616,-9.751685098400001,1.7992436224,2.07121154,1.14345722,-3.47395127,,,
imu,205.907328,-1.274065464,-9.7576666264,1.7860842608,1.88428879,1.14345722,-3.39918217,,,
imu,205.915789,-1.2644950192,-9.731347903200001,1.7890750248,1.67493531,1.29299542,-3.28702852,,,
imu,205.92425,-1.2627005608,-9.675121540000001,1.7519895512,1.5179202,1.39019525,-3.0477674,,,
imu,205.932711,-1.2710747,-9.597959828800002,1.7567747736,1.27118217,1.71917929,-2.5991528,,,
imu,205.941172,-1.2632987136,-9.5877912312,1.7962528584,1.26370526,1.83880985,-2.50195297,,,
imu,205.949633,-1.2692802416,-9.681103068,1.7866824136,1.46558183,1.97339423,-2.53933752,,,
imu,205.958344,-1.2609061024,-9.7786019744,1.791467636,1.34595127,2.36219355,-2.56176825,,,
imu,205.966805,-1.2238206288,-9.805518850400002,1.80941222,1.15155161,2.63883922,-2.51690679,,,
imu,205.975266,-1.2106612672,-9.7606573904,1.7812990384,0.80013684,2.72856214,-2.5991528,,,
imu,205.983727,-1.21125942,-9.76484446,1.7830934968,0.7253677399999999,2.85566961,-2.55429134,,,
imu,205.992188,-1.1861370024,-9.767835224,1.785486108,0.7552753799999999,3.01268472,-2.75616791,,,
imu,206.000649,-1.1735757936,-9.755872168000002,1.7860842608,0.91229049,3.24446893,-2.8982292,,,
imu,206.00911,-1.1460607648,-9.7714241408,1.7842898024,1.1440747,3.19213056,-2.72626027,,,
imu,206.017571,-1.1436681536,-9.786377960800001,1.8088140672,1.33099745,3.16222292,-2.95804448,,,
imu,206.026032,-1.1352940144,-9.803126239200001,1.80941222,1.15902852,2.83323888,-3.52628964,,,
imu,206.034493,-1.1442663064,-9.765442612800001,1.8177863592,0.8823828499999999,2.60145467,-3.91508896,,,
imu,206.042954,-1.16639796,-9.7750130576,1.851282916,0.57582954,2.57154703,-3.83284295,,,
imu,206.051415,-1.1508459872,-9.769031529600001,1.8387217072,0.60573718,2.56407012,-3.53376655,,,
imu,206.059876,-1.1293124864,-9.728955292000002,1.7890750248,0.20198404,2.49677793,-3.496382,,,
imu,206.068337,-1.1221346528,-9.703234721600001,1.7848879552,-0.10456927,2.16779389,-3.55619728,,,
imu,206.076798,-1.1376866256,-9.720581152800001,1.7657470656,-0.18681528,1.98087114,-3.43656672,,,
imu,206.085259,-1.133499556,-9.6428212888,1.7214837584,-0.43355331,1.61450255,-3.55619728,,,
imu,204.561962,,,,,,,73.53616199999999,-3.448564400000009,3.057918399999993
imu,204.663403,,,,,,,76.0630524,-4.473969200000005,0.311298399999993
imu,204.765118,,,,,,,74.03665720000001,-3.521807600000004,1.617468799999988
imu,204.866558,,,,,,,73.8657564,-3.485186000000007,2.508594399999997
imu,204.96809,,,,,,,73.3286396,-3.534014800000018,2.215621599999995
imu,205.069653,,,,,,,73.7314772,-3.350906800000009,2.520801599999989
imu,205.171215,,,,,,,73.59719799999999,-3.277663600000014,2.215621599999995
imu,205.272778,,,,,,,75.794494,-3.21662760000001,1.886027199999996
imu,206.09372,-1.142471848,-9.5656595776,1.73464312,-0.3513073,1.42010289,-3.54872037,,,
imu,206.102549,-1.1717813352,-9.5447242296,1.7382320368,-0.07466163,1.08364194,-3.57862801,,,
imu,206.111378,-1.1855388496,-9.603343204000002,1.7304560504,0.3739529699999999,0.84438082,-3.77302767,,,
imu,206.120207,-1.172379488,-9.684093832000002,1.746606176,0.7552753799999999,0.6275504299999999,-3.93751969,,,
imu,206.129036,-1.1891277664,-9.7283571392,1.7537840096,1.01696723,0.4630584099999999,-3.89265823,,,
imu,206.137864,-1.2220261704,-9.709216249600003,1.7627563016,0.97210577,0.2910894799999997,-3.87770441,,,
imu,206.146693,-1.2184372536,-9.66016772,1.767541524,1.05435178,0.1265974599999997,-3.87770441,,,
imu,206.155522,-1.2244187816,-9.690673512800002,1.7753175104,1.40576655,0.01444380999999995,-4.00481188,,,
imu,206.164351,-1.2632987136,-9.762451848800001,1.7920657888,1.60016621,0.0368745399999999,-4.0945348,,,
imu,206.17318,-1.2716728528,-9.8061170032,1.7848879552,1.5179202,0.08921290999999965,-4.02724261,,,
imu,206.182009,-1.2674857832,-9.762451848800001,1.7878787192,1.19641307,0.2910894799999997,-3.87770441,,,
imu,206.190838,-1.274065464,-9.7636481544,1.8028325392,1.15902852,0.44062768,-3.81788913,,,
imu,206.199666,-1.292010048,-9.8013317808,1.8082159144,1.08425942,0.4705353199999998,-3.98238115,,,
imu,206.208495,-1.2812432976,-9.800135475200001,1.803430692,0.67302937,0.6873657099999999,-3.84779677,,,
imu,206.217324,-1.2513356576,-9.776209363200001,1.8201789704,0.47862971,0.8593346399999997,-3.78798149,,,
imu,206.226153,-1.2483448936,-9.782789044000001,1.8052251504,0.15712258,0.9041961000000001,-4.0945348,,,
imu,206.234982,-1.259111644,-9.7750130576,1.7920657888,-0.02980017,0.72475026,-4.341272829999999,,,
imu,206.243811,-1.2477467408,-9.724768222400002,1.8010380808,-0.22419983,0.7397040799999997,-4.430995749999999,,,
imu,206.25264,-1.2513356576,-9.713403319200001,1.8076177616,-0.53823005,0.78456554,-4.47585721,,,
imu,206.261469,-1.2686820888,-9.6954587352,1.8088140672,-0.5980453299999999,0.8518577299999999,-4.49081103,,,
imu,206.270297,-1.2627005608,-9.696655040800001,1.8225715816,-0.7550604399999999,0.80699627,-4.46090339,,,
imu,206.279126,-1.2722710056,-9.6954587352,1.8016362336,-0.79244499,0.8892422799999999,-4.27398064,,,
imu,206.287955,-1.265093172,-9.616502565600001,1.7902713304,-0.7999219,1.03130357,-4.16182699,,,
imu,206.296784,-1.2908137424,-9.5907819952,1.8207771232,-0.46346095,1.21074941,-3.63096638,,,
imu,206.305246,-1.2794488392,-9.593772759200002,1.815393748,-0.02980017,1.24813396,-3.51881273,,,
imu,206.313709,-1.2866266728,-9.5907819952,1.800439928,0.1720764,1.39767216,-3.496382,,,
imu,206.322171,-1.3027767984,-9.5489112992,1.8141974424,0.5459219,1.50982581,-3.33936689,,,
imu,206.330633,-1.277056228,-9.5148165896,1.8237678872,0.8674290299999999,1.68927165,-3.28702852,,,
imu,206.339095,-1.265093172,-9.5357519376,1.815393748,1.28613599,1.92105586,-3.28702852,,,
imu,206.347558,-1.2579153384,-9.596763523200002,1.8070196088,1.88428879,1.86124058,-3.4216129,,,
imu,206.35602,-1.2345873792,-9.7193848472,1.7783082744,2.15345755,1.77899457,-3.75059694,,,
imu,206.364482,-1.220231712,-9.812696684000002,1.7980473168,2.01139626,1.70422547,-3.61601256,,,
imu,206.372944,-1.1927166832,-9.822267128800002,1.8171882064,1.86933497,1.66684092,-3.3468438,,,
imu,206.381407,-1.202287128,-9.836622796,1.7986454696,1.53287402,1.53225654,-3.51133582,,,
imu,206.389869,-1.2160446424,-9.830641268,1.8040288448,1.09173633,1.2780416,-3.496382,,,
imu,206.398331,-1.1981000584,-9.837819101600003,1.812402984,0.8375213899999999,1.07616503,-3.56367419,,,
imu,206.406794,-1.2070723504,-9.845595088000001,1.7956547056,0.45619898,0.78456554,-3.48142818,,,
imu,206.415256,-1.2304003096,-9.8432024768,1.8070196088,0.05244583999999999,0.7995193599999997,-3.33188998,,,
imu,206.423718,-1.2423633656,-9.8013317808,1.812402984,-0.26906129,0.9116730099999999,-2.98795212,,,
imu,206.43218,-1.265093172,-9.755274015200001,1.8040288448,-0.4260764,1.04625739,-2.54681443,,,
imu,206.440643,-1.28602852,-9.735534972800002,1.8357309432,-0.44103022,1.2032725,-2.28512258,,,
imu,206.449105,-1.280046992,-9.657176956,1.776513816,-0.73262971,1.4275798,-2.23278421,,,
imu,206.457567,-1.2537282688,-9.633848996800001,1.7579710792,-0.74758353,1.45748744,-2.47952224,,,
imu,206.466029,-1.2698783944,-9.641026830400001,1.7579710792,-0.55318387,1.51730272,-2.73373718,,,
imu,206.474492,-1.2878229784,-9.614708107200002,1.7531858568,-0.5008455,1.76404075,-2.88327538,,,
imu,206.482954,-1.2776543808,-9.5985579816,1.7777101216,-0.28401511,2.04068642,-2.81598319,,,
imu,206.491416,-1.268083936,-9.594370912,1.797449164,0.02253820000000001,2.38462428,-2.65149117,,,
imu,206.499879,-1.2537282688,-9.597361676,1.7968510112,0.21693786,2.75846978,-2.62158353,,,
imu,206.508342,-1.2579153384,-9.6458120528,1.8040288448,0.5010604399999999,2.82576197,-2.56176825,,,
imu,206.516806,-1.2280076984,-9.7122070136,1.7986454696,0.53096808,2.90800798,-2.85336774,,,
imu,206.525269,-1.2136520312,-9.742114653600002,1.7932620944,0.49358353,2.98277708,-3.07767504,,,
imu,206.533733,-1.2208298648,-9.727758986400001,1.803430692,0.3739529699999999,3.00520781,-3.32441307,,,
imu,206.542196,-1.1765665576,-9.706225485600001,1.8058233032,0.25432241,3.07997691,-3.36927453,,,
imu,206.55066,-1.1765665576,-9.675121540000001,1.8195808176,0.41881443,3.04259236,-3.37675144,,,
imu,206.559123,-1.1975019056,-9.680504915200002,1.8500866104,0.6954601,2.87810034,-3.3468438,,,
imu,206.567587,-1.2088668088,-9.728955292000002,1.8710219584,0.7104139199999999,2.81828506,-3.45899745,,,
imu,206.57605,-1.1927166832,-9.7809945856,1.8740127224,0.71789083,2.9229618,-3.41413599,,,
imu,206.584514,-1.1460607648,-9.7534795568,1.8608533608,0.51601426,2.98277708,-3.44404363,,,
imu,206.592977,-1.1460607648,-9.687084596000002,1.8686293472,0.14216876,2.78837742,-3.53376655,,,
imu,206.601441,-1.1616127376,-9.657775108800001,1.8716201112,0.05992275,2.46687029,-3.69078166,,,
imu,206.609905,-1.190324072,-9.6799067624,1.8554699856,0.21693786,2.324809,-3.90013514,,,
imu,206.618368,-1.1568275152,-9.725366375200002,1.8291512624,0.5010604399999999,2.00330187,-4.10948862,,,
imu,206.626832,-1.1628090432,-9.708019944000002,1.8195808176,0.52349117,2.03320951,-3.96742733,,,
imu,206.635295,-1.1969037528,-9.641026830400001,1.8279549568,0.53096808,1.86124058,-3.86275059,,,
imu,206.643759,-1.2435596712,-9.6494009696,1.866236736,0.71789083,1.58459491,-4.02724261,,,
imu,206.652222,-1.2124557256,-9.688280901600002,1.8596570552,1.03939796,1.54721036,-4.15435008,,,
imu,206.660686,-1.1915203776,-9.722375611200002,1.8608533608,1.25622835,1.55468727,-4.079580979999999,,,
imu,206.669149,-1.208268656,-9.7427128064,1.8710219584,1.39828964,1.54721036,-3.75059694,,,
imu,206.677613,-1.2256150872,-9.711010708000002,1.860255208,1.28613599,1.577118,-3.60853565,,,
imu,206.686076,-1.253130116,-9.680504915200002,1.845301388,1.27865908,1.64441019,-3.4216129,,,
imu,206.69454,-1.2656913248,-9.682897526400001,1.8447032352,1.33099745,1.77899457,-3.54124346,,,
imu,206.703003,-1.2638968664,-9.676915998400002,1.8716201112,1.19641307,1.78647148,-3.81041222,,,
imu,206.711482,-1.2244187816,-9.6703363176,1.8823868616,0.9197674,1.89862513,-4.341272829999999,,,
imu,206.719961,-1.2028852808,-9.6505972752,1.8578625968,0.9048135799999999,1.89862513,-4.58053395,,,
imu,206.72844,-1.2166427952,-9.6505972752,1.872218264,1.01696723,1.8014253,-4.78988743,,,
imu,206.736919,-1.2393726016,-9.6799067624,1.887172084,1.0693056,1.74908693,-5.17868675,,,
imu,206.745398,-1.2304003096,-9.669738164800002,1.878199792,0.9646288599999999,1.62945637,-5.260932759999999,,,
imu,206.753876,-1.2304003096,-9.655382497600002,1.8710219584,1.15155161,1.53973345,-5.12634838,,,
imu,206.762355,-1.2375781432,-9.683495679200002,1.8524792216,1.35342818,1.53225654,-5.05157928,,,
imu,206.770834,-1.2549245744,-9.7086180968,1.8470958464,1.51044329,1.45001053,-4.82727198,,,
imu,205.374618,,,,,,,73.76809879999999,-3.021312400000009,2.142378399999989
imu,205.476181,,,,,,,76.53913320000001,-4.107753200000008,-0.1281608000000101
imu,205.577713,,,,,,,73.7925132,-4.107753200000008,2.044720799999988
imu,205.679428,,,,,,,76.282782,-4.815770800000019,-0.01829600000000653
imu,205.780868,,,,,,,73.60940520000001,-4.022302800000022,2.764945599999991
imu,205.8824,,,,,,,74.390666,-3.778158800000009,2.960260799999992
imu,205.983963,,,,,,,73.71927000000001,-4.278654000000004,2.496387199999994
imu,206.085586,,,,,,,73.9878284,-3.985681200000002,2.276657599999998
imu,206.779313,-1.2447559768,-9.679308609600001,1.8309457208,1.23379762,1.33785688,-4.49081103,,,
imu,206.787792,-1.2327929208,-9.578220786400001,1.818384512,1.26370526,1.38271834,-3.98985806,,,
imu,206.79627,-1.247148588,-9.489096019200002,1.8052251504,1.68241222,1.47244126,-3.53376655,,,
imu,206.804749,-1.2579153384,-9.5184055064,1.818384512,2.33290339,1.47244126,-3.33188998,,,
imu,206.813228,-1.2698783944,-9.639232372,1.8231697344,3.04320984,1.4275798,-3.21225942,,,
imu,206.821707,-1.2836359088,-9.675719692800001,1.82436604,3.26751714,1.65936401,-2.93561375,,,
imu,206.830186,-1.2884211312,-9.7128051664,1.830347568,3.5366859,2.07059406,-2.44213769,,,
imu,206.838664,-1.2866266728,-9.7474980288,1.8387217072,3.47687062,2.26499372,-2.4496146,,,
imu,206.847143,-1.2902155896,-9.749890640000002,1.8231697344,3.44696298,2.48930102,-2.53933752,,,
imu,206.855622,-1.2836359088,-9.772022293600001,1.8106085256,3.41705534,2.78837742,-2.74121409,,,
imu,206.864101,-1.262102408,-9.766040765600001,1.7920657888,3.140409669999999,3.04259236,-2.95056757,,,
imu,206.87258,-1.2046797392,-9.6912716656,1.7442135648,2.90862546,3.24446893,-3.21225942,,,
imu,206.881058,-1.1867351552,-9.6637566368,1.713707772,2.95348692,3.38653022,-3.63844329,,,
imu,206.889537,-1.1849406968,-9.682897526400001,1.7023428688,3.0133022,3.19213056,-4.04967334,,,
imu,206.898016,-1.1975019056,-9.766040765600001,1.7131096192,3.2376095,2.97530017,-4.30388828,,,
imu,206.906495,-1.1777628632,-9.821668976000002,1.7334468144,3.06564057,2.9977309,-4.58801086,,,
imu,206.914943,-1.154434904,-9.820472670400001,1.740624648,2.89367164,2.81828506,-4.6179185,,,
imu,206.923391,-1.1556312096,-9.7953502528,1.7184929944,2.36281103,2.58650085,-4.52819558,,,
imu,206.93184,-1.1717813352,-9.772620446400001,1.725670828,2.10111918,2.4743472,-4.56558013,,,
imu,206.940288,-1.1915203776,-9.8043225448,1.7388301896,2.00391935,2.09302479,-4.602964679999999,,,
imu,206.948736,-1.1969037528,-9.8294449624,1.746606176,1.56278166,1.92105586,-4.52071867,,,
imu,206.957184,-1.202287128,-9.807313308800001,1.7693359824,1.08425942,1.73413311,-4.44594957,,,
imu,206.965633,-1.2280076984,-9.746301723200002,1.7543821624,0.66555246,1.73413311,-4.23659609,,,
imu,206.974081,-1.2238206288,-9.748096181600001,1.7394283424,0.57582954,1.70422547,-4.08705789,,,
imu,206.982529,-1.22621324,-9.789966877600001,1.7513913984,0.33656842,1.68927165,-4.034719519999999,,,
imu,206.990978,-1.259111644,-9.803724392000001,1.7531858568,-0.10456927,1.60702564,-3.92256587,,,
imu,206.999426,-1.2609061024,-9.766040765600001,1.7268671336,-0.52327623,1.60702564,-3.88518132,,,
imu,207.007874,-1.2465504352,-9.641026830400001,1.7178948416,-0.874691,1.45748744,-3.95247351,,,
imu,207.016322,-1.2567190328,-9.565061424800001,1.7992436224,-0.80739881,1.34533379,-3.97490424,,,
imu,207.024771,-1.2764580752,-9.748694334400001,1.8225715816,-0.18681528,1.29299542,-3.90761205,,,
imu,207.033219,-1.289019284,-9.8049206976,1.7244745224,-0.05970781,1.61450255,-3.44404363,,,
imu,207.041667,-1.2662894776,-9.7151977776,1.7507932456,-0.26158438,1.95844041,-2.8234601,,,
imu,207.049993,-1.2938045064,-9.630858232800001,1.7687378296,-0.14943073,2.25751681,-2.45709151,,,
imu,207.058441,-1.2926082008,-9.617698871200002,1.7579710792,0.26179932,2.40705501,-2.65896808,,,
imu,207.06689,-1.2465504352,-9.704431027200002,1.7789064272,0.7552753799999999,2.51173175,-2.8982292,,,
imu,207.075338,-1.2453541296,-9.731347903200001,1.776513816,1.15155161,2.53416248,-3.17487487,,,
imu,207.083786,-1.2722710056,-9.6326526912,1.8070196088,0.9197674,2.6238854,-3.81041222,,,
imu,207.092235,-1.2848322144,-9.5985579816,1.8458995408,1.13659779,2.64631613,-3.97490424,,,
imu,207.100683,-1.253130116,-9.639232372,1.8381235544,1.33099745,2.69117759,-3.77302767,,,
imu,207.109131,-1.1945111416,-9.6733270816,1.8417124712,1.45810492,2.94539253,-3.45899745,,,
imu,207.117955,-1.2058760448,-9.642223136000002,1.8375254016,1.25622835,3.05754618,-3.29450543,,,
imu,207.126778,-1.2375781432,-9.6326526912,1.8476939992,1.21136689,3.02016163,-3.33188998,,,
imu,207.135602,-1.2220261704,-9.666149248000002,1.8261604984,1.28613599,2.93791562,-3.32441307,,,
imu,207.144425,-1.2016889752,-9.727160833600001,1.8046269976,1.45810492,2.71360832,-3.496382,,,
imu,207.153249,-1.2196335592,-9.711608860800002,1.7950565528,1.42072037,2.60145467,-3.6459202,,,
imu,207.162072,-1.244157824,-9.7074217912,1.8070196088,1.37585891,2.52668557,-3.51881273,,,
imu,207.170896,-1.2423633656,-9.708019944000002,1.8201789704,1.38333582,2.59397776,-3.46647436,,,
imu,207.17972,-1.2423633656,-9.662560331200002,1.7902713304,1.41324346,2.60145467,-3.69825857,,,
imu,207.188543,-1.2435596712,-9.618297024,1.791467636,1.49548947,2.56407012,-3.97490424,,,
imu,207.197367,-1.232194768,-9.5704448,1.7818971912,1.76465823,2.56407012,-3.91508896,,,
imu,207.20619,-1.2327929208,-9.551902063200002,1.7956547056,2.39271867,2.56407012,-3.74312003,,,
imu,207.215014,-1.2573171856,-9.557285438400001,1.8171882064,3.02077911,2.73603905,-3.40665908,,,
imu,207.223837,-1.2495411992,-9.645213900000002,1.7848879552,3.50677826,2.73603905,-3.24216706,,,
imu,207.232661,-1.2668876304,-9.70502918,1.7699341352,4.03016196,2.96782326,-3.02533667,,,
imu,207.241485,-1.2884211312,-9.6942624296,1.7729248992,4.02268505,3.26689966,-3.09262886,,,
imu,207.250308,-1.2985897288,-9.684093832000002,1.7699341352,4.10493106,3.24446893,-3.23469015,,,
imu,207.259132,-1.2309984624,-9.690673512800002,1.7011465632,4.30680763,3.28185348,-3.63096638,,,
imu,207.267955,-1.1263217224,-9.724768222400002,1.6156107128,4.63579167,3.28185348,-3.62348947,,,
imu,207.276779,-1.1400792368,-9.849184004800001,1.5934790592,5.00963717,2.97530017,-3.46647436,,,
imu,207.285602,-1.1538367512,-9.905410368000002,1.5982642816,4.69560695,2.75099287,-3.42908981,,,
imu,207.294426,-1.1657998072,-9.825257892800002,1.6431257416,4.17222325,2.51920866,-3.13749032,,,
imu,207.303249,-1.1562293624,-9.803126239200001,1.6939687296,3.81333157,2.42200883,-3.07019813,,,
imu,207.312073,-1.1622108904,-9.837819101600003,1.6766222984,3.589024269999999,2.22760917,-3.41413599,,,
imu,207.320543,-1.1819499328,-9.917373424,1.698753952,3.11050203,1.98834805,-3.76555076,,,
imu,207.329013,-1.1981000584,-9.964627495200002,1.7011465632,2.2656112,1.68179474,-4.25902682,,,
imu,207.337483,-1.22621324,-9.927542021600003,1.7101188552,1.2936129,1.39767216,-4.737549059999999,,,
imu,207.345953,-1.2435596712,-9.824659740000001,1.7155022304,0.50853735,1.3528107,-4.82727198,,,
imu,207.354423,-1.244157824,-9.7427128064,1.7023428688,-0.14195382,1.5023489,-4.92447181,,,
imu,207.362892,-1.2495411992,-9.7534795568,1.7328486616,-0.43355331,1.2780416,-5.01419473,,,
imu,207.371362,-1.2656913248,-9.83961356,1.7089225496,-0.5681376899999999,1.22570323,-4.94690254,,,
imu,207.379832,-1.2902155896,-9.839015407200002,1.653892492,-0.95693701,1.37524143,-4.55810322,,,
imu,207.388302,-1.2896174368,-9.745105417600001,1.6742296872,-1.48779762,1.47244126,-4.15435008,,,
imu,207.396772,-1.306963868,-9.6667474008,1.677818604,-1.80182784,1.55468727,-3.93751969,,,
imu,207.405242,-1.3123472432,-9.631456385600002,1.6556869504,-1.59995127,1.577118,-3.78050458,,,
imu,207.413712,-1.3093564792,-9.564463272000001,1.6610703256,-1.19619813,1.73413311,-3.54872037,,,
imu,207.422182,-1.2955989648,-9.492684936000002,1.6574814088,-0.71767589,2.03320951,-3.1225365,,,
imu,207.430652,-1.3117490904,-9.485507102400002,1.6814075208,-0.007369440000000005,2.24256299,-2.87579847,,,
imu,207.439121,-1.3093564792,-9.604539509600002,1.7005484104,0.85995212,2.35471664,-2.85336774,,,
imu,207.447591,-1.295000812,-9.672130776000001,1.6814075208,1.32352054,2.66126995,-2.70382954,,,
imu,207.456061,-1.2567190328,-9.609922884800001,1.7095207024,1.49548947,2.85566961,-2.65149117,,,
imu,207.464531,-1.2327929208,-9.572239258400002,1.7071280912,1.77213514,3.10988455,-2.71878336,,,
imu,207.473001,-1.2244187816,-9.554892827200002,1.707726244,2.31047266,3.28185348,-2.61410662,,,
imu,207.481471,-1.235185532,-9.6326526912,1.7591673848,2.77404108,3.39400713,-2.71130645,,,
imu,207.489941,-1.2656913248,-9.788172419200002,1.7567747736,2.89367164,3.39400713,-3.14496723,,,
imu,207.498411,-1.2357836848,-9.8581562968,1.731652356,2.81890254,3.46877623,-3.40665908,,,
imu,207.506881,-1.1861370024,-9.8013317808,1.7161003832,2.49739541,3.55849915,-3.52628964,,,
imu,207.515351,-1.160416432,-9.743909112,1.680809368,2.16093446,3.43886859,-3.48142818,,,
imu,207.523818,-1.1699868768,-9.723571916800001,1.6162088656,2.17588828,3.30428421,-3.69078166,,,
imu,207.532285,-1.1765665576,-9.7714241408,1.623984852,2.24318047,2.7734236,-3.93751969,,,
imu,207.540753,-1.1885296136,-9.861147060800002,1.6796130624,2.25813429,2.63136231,-3.97490424,,,
imu,207.54922,-1.1538367512,-9.8653341304,1.7244745224,1.83942733,2.43696265,-4.0945348,,,
imu,207.557687,-1.1616127376,-9.773816752000002,1.7298578976,1.17398234,2.22760917,-4.012288789999999,,,
imu,207.566155,-1.1867351552,-9.738525736800002,1.7364375784,0.83004448,1.78647148,-3.84779677,,,
imu,207.574622,-1.2028852808,-9.796546558400001,1.7364375784,0.77770611,1.70422547,-3.82536604,,,
imu,207.583089,-1.1986982112,-9.833632032,1.7501950928,0.57582954,1.71170238,-3.5711511,,,
imu,207.591557,-1.2136520312,-9.818080059200001,1.725670828,-0.0522309,1.577118,-3.44404363,,,
imu,206.187118,,,,,,,73.53616199999999,-4.034510000000013,2.594044799999995
imu,206.288742,,,,,,,73.4507116,-4.071131600000011,2.435351199999991
imu,206.390213,,,,,,,75.306206,-4.022302800000022,2.28886479999999
imu,206.491775,,,,,,,74.30521560000001,-4.058924400000019,3.289855199999991
imu,206.593368,,,,,,,76.99079959999999,-4.620455600000017,0.4333703999999883
imu,206.694931,,,,,,,73.9145852,-3.82698760000002,3.14336879999999
imu,206.796798,,,,,,,76.6001692,-4.742527600000002,1.043730399999998
imu,206.89833,,,,,,,74.06107159999999,-3.888023600000023,2.984675199999998
imu,207.600024,-1.2124557256,-9.758862932000001,1.6975576464,-0.7401066199999999,1.40514907,-3.61601256,,,
imu,207.608492,-1.2304003096,-9.7163940832,1.7155022304,-0.91955246,1.2032725,-3.84031986,,,
imu,207.616959,-1.2298021568,-9.749890640000002,1.7567747736,-0.79244499,0.9939190199999999,-4.04967334,,,
imu,207.625426,-1.2136520312,-9.782789044000001,1.6915761184,-0.74758353,1.06868812,-4.034719519999999,,,
imu,207.633894,-1.2184372536,-9.7474980288,1.6903798128,-0.50832241,1.31542615,-3.42908981,,,
imu,207.642361,-1.2525319632,-9.6876827488,1.7083243968,-0.22419983,1.43505671,-3.10758268,,,
imu,207.650828,-1.2399707544,-9.6703363176,1.7101188552,0.28423005,1.70422547,-3.16739796,,,
imu,207.659296,-1.2226243232,-9.6434194416,1.6784167568,0.83004448,1.53225654,-3.4216129,,,
imu,207.667763,-1.1998945168,-9.627269316000001,1.6694444648,1.24875144,1.45748744,-3.68330475,,,
imu,207.67623,-1.1885296136,-9.593772759200002,1.6760241456,1.73475059,1.21822632,-4.11696553,,,
imu,207.684698,-1.2220261704,-9.564463272000001,1.6921742712,2.08616536,1.06121121,-4.057150249999999,,,
imu,207.693165,-1.2585134912,-9.585398620000001,1.6969594936,2.52730305,1.08364194,-4.00481188,,,
imu,207.701632,-1.2405689072,-9.633848996800001,1.656883256,2.75908726,1.15093413,-4.04967334,,,
imu,207.7101,-1.22621324,-9.6733270816,1.6604721728,2.84133327,1.34533379,-3.69825857,,,
imu,207.718567,-1.223222476,-9.648802816800002,1.6467146584,2.78151799,1.36776452,-3.55619728,,,
imu,207.727031,-1.2489430464,-9.679308609600001,1.6413312832,2.72170271,1.37524143,-3.69078166,,,
imu,207.735494,-1.2244187816,-9.7612555432,1.6449202,2.7889949,1.36028761,-3.78798149,,,
imu,207.743958,-1.2399707544,-9.773816752000002,1.6144144072,2.69927198,1.30794924,-3.8702275,,,
imu,207.752421,-1.2357836848,-9.730749750400001,1.618003324,2.59459524,1.25561087,-3.81788913,,,
imu,207.760885,-1.2519338104,-9.7510869456,1.653892492,2.63197979,1.41262598,-3.92256587,,,
imu,207.769348,-1.253130116,-9.8043225448,1.6700426176,2.73665653,1.31542615,-4.08705789,,,
imu,207.777812,-1.2519338104,-9.819276364800002,1.6933705768,2.407672489999999,1.23318014,-4.057150249999999,,,
imu,207.786275,-1.235185532,-9.803126239200001,1.7184929944,2.12354991,1.36776452,-3.89265823,,,
imu,207.794739,-1.2369799904,-9.802528086400002,1.7059317856,1.71231986,1.40514907,-3.80293531,,,
imu,207.803203,-1.2662894776,-9.830641268,1.7131096192,1.55530475,1.45748744,-3.50385891,,,
imu,207.811666,-1.2309984624,-9.8713156584,1.7268671336,1.18893616,1.60702564,-3.39170526,,,
imu,207.82013,-1.2058760448,-9.8617452136,1.7262689808,0.76275229,1.69674856,-3.33936689,,,
imu,207.828593,-1.2226243232,-9.783985349600002,1.7196893,0.05244583999999999,1.59207182,-3.51881273,,,
imu,207.837057,-1.2280076984,-9.718188541600002,1.707726244,-0.32887657,1.38271834,-3.87770441,,,
imu,207.84552,-1.2268113928,-9.744507264800001,1.7011465632,-0.38121494,1.15841104,-4.16182699,,,
imu,207.853984,-1.2166427952,-9.731946056000002,1.6891835072,-0.52327623,1.00139593,-4.49828794,,,
imu,207.862447,-1.2298021568,-9.699645804800001,1.671837076,-0.58309151,0.8593346399999997,-4.715118329999999,,,
imu,207.870911,-1.2387744488,-9.672130776000001,1.641929436,-0.33635348,0.7097964399999999,-4.61044159,,,
imu,207.879374,-1.2615042552,-9.669738164800002,1.6437238944,0.08983038999999998,0.5303505999999998,-4.4683803,,,
imu,207.887838,-1.2914118952,-9.727758986400001,1.6700426176,0.46367589,0.5303505999999998,-4.430995749999999,,,
imu,207.896302,-1.2782525336,-9.7504887928,1.6646592424,0.5982602699999999,0.6051196999999999,-4.386134289999999,,,
imu,207.904765,-1.2465504352,-9.6817012208,1.6730333816,0.5010604399999999,0.6125966099999998,-4.34874974,,,
imu,207.913229,-1.2507375048,-9.6667474008,1.6820056736,0.56087572,0.4929660499999997,-4.26650373,,,
imu,207.921692,-1.262102408,-9.727758986400001,1.6610703256,0.68050628,0.44062768,-4.29641137,,,
imu,207.930176,-1.2465504352,-9.716992236000001,1.7214837584,0.7552753799999999,0.62007352,-3.96742733,,,
imu,207.93866,-1.2447559768,-9.663158484000002,1.7178948416,0.50853735,0.5677351499999999,-3.69825857,,,
imu,207.947144,-1.2854303672,-9.6326526912,1.728661592,0.53844499,0.6051196999999999,-3.63844329,,,
imu,207.955628,-1.3171324656,-9.702636568800001,1.740624648,0.74779847,0.7097964399999999,-3.83284295,,,
imu,207.964112,-1.2967952704,-9.8049206976,1.7184929944,0.71789083,0.7770886299999997,-3.68330475,,,
imu,207.972595,-1.2818414504,-9.802528086400002,1.7005484104,0.47862971,0.7696117199999999,-3.84031986,,,
imu,207.981079,-1.3051694096,-9.699047652,1.6855945904,0.26927623,0.8369039099999998,-4.124442439999999,,,
imu,207.989563,-1.2896174368,-9.610521037600002,1.656883256,0.47862971,0.9640113799999996,-4.37118047,,,
imu,207.998047,-1.2477467408,-9.5423316184,1.6467146584,0.9272443100000001,1.04625739,-4.3936112,,,
imu,208.006531,-1.2549245744,-9.5357519376,1.6425275888,1.68988913,1.0537343,-4.16182699,,,
imu,208.015015,-1.2603079496,-9.587193078400002,1.62996638,2.63197979,1.00139593,-4.0945348,,,
imu,208.023499,-1.2585134912,-9.621287788000002,1.6347516024,3.49182444,1.16588795,-3.83284295,,,
imu,208.031983,-1.259111644,-9.597959828800002,1.6353497552,3.91800831,1.24813396,-3.7206893,,,
imu,208.040467,-1.2872248256,-9.594370912,1.6670518536,4.39653055,1.39767216,-3.76555076,,,
imu,208.04895,-1.2656913248,-9.648204664000001,1.6622666312,4.90496043,1.44253362,-4.0945348,,,
imu,208.057434,-1.2034834336,-9.725366375200002,1.6335552968,5.00216026,1.47991817,-4.034719519999999,,,
imu,208.065918,-1.2220261704,-9.800733628000001,1.6227885464,4.86009897,1.3528107,-4.02724261,,,
imu,208.074402,-1.2339892264,-9.803126239200001,1.626975616,4.62831476,1.36028761,-4.25154991,,,
imu,208.082886,-1.2280076984,-9.808509614400002,1.5994605872,4.29933072,1.34533379,-4.341272829999999,,,
imu,208.09137,-1.220231712,-9.849184004800001,1.5737400168,4.21708471,1.31542615,-4.146873169999999,,,
imu,208.099854,-1.2190354064,-9.836622796,1.5647677248,3.89557758,1.09859576,-4.17678081,,,
imu,208.108338,-1.2716728528,-9.859950755200002,1.5958716704,3.60397809,0.76213481,-4.6179185,,,
imu,208.116822,-1.2878229784,-9.837220948800002,1.6048439624,3.1628404,0.7770886299999997,-4.991764,,,
imu,208.125305,-1.277056228,-9.875502728,1.6138162544,2.51982614,0.9789651999999998,-5.10391765,,,
imu,208.134125,-1.2692802416,-9.938308772000001,1.6215922408,2.02635008,1.08364194,-5.15625602,,,
imu,208.142854,-1.3231139936,-9.9137845072,1.6215922408,1.15902852,1.23318014,-5.22354821,,,
imu,208.151674,-1.3392641192,-9.855763685600001,1.6401349776,0.3963837,1.51730272,-5.08896383,,,
imu,208.160493,-1.3476382584,-9.824659740000001,1.653892492,-0.21672292,1.98087114,-4.80484125,,,
imu,208.169313,-1.357806856,-9.844996935200001,1.635947908,-0.8522602699999999,2.44443956,-4.759979789999999,,,
imu,208.178133,-1.3512271752,-9.8820824088,1.6377423664,-1.49527453,2.8481927,-4.7674567,,,
imu,208.186952,-1.3661809952,-9.860548908000002,1.626975616,-2.21305789,3.28185348,-4.70764142,,,
imu,208.195772,-1.3829292736,-9.839015407200002,1.62996638,-3.0429949,3.62579134,-4.909517989999999,,,
imu,208.204591,-1.3643865368,-9.8647359776,1.6425275888,-3.46917877,3.82766791,-5.021671639999999,,,
imu,208.213411,-1.3267029104,-9.9197660352,1.5928809064,-3.70843989,4.08935976,-4.82727198,,,
imu,208.222231,-1.2944026592,-9.867726741600002,1.549215752,-3.72339371,4.46320526,-4.55062631,,,
imu,208.23105,-1.3015804928,-9.7606573904,1.5743381696,-3.760778259999999,4.530497449999999,-4.244073,,,
imu,208.23987,-1.2698783944,-9.603343204000002,1.612021796,-3.75330135,4.39591307,-4.35622665,,,
imu,206.999487,,,,,,,74.69584600000002,-4.034510000000013,3.082332799999998
imu,207.101049,,,,,,,74.02445,-4.034510000000013,2.398729599999994
imu,207.202703,,,,,,,74.12210759999999,-4.242032400000006,2.728323999999993
imu,207.304266,,,,,,,73.54836920000001,-3.97347400000001,2.813774399999991
imu,207.405737,,,,,,,74.35404439999999,-4.339690000000007,3.09453999999999
imu,207.507299,,,,,,,74.9033684,-4.388518800000019,3.021296799999995
imu,207.608862,,,,,,,73.6338196,-4.290861200000018,3.04571119999999
imu,207.710424,,,,,,,76.30719640000001,-4.852392400000016,0.4211631999999965
imu,207.811987,,,,,,,73.76809879999999,-4.119960400000022,3.155575999999993
imu,207.913549,,,,,,,74.23197239999999,-4.535005200000009,2.813774399999991
imu,208.015142,,,,,,,74.7446748,-4.095546000000017,3.228819199999988
imu,208.117132,,,,,,,74.24417960000001,-4.180996400000003,3.692692799999997
imu,208.218267,,,,,,,74.2563868,-4.083338800000003,2.923639199999994
