Type,Timestamp,Data Accelerometer X,Data Accelerometer Y,Data Accelerometer Z,Data Gyroscope X,Data Gyroscope Y,Data Gyroscope Z,Data Magnetometer X,Data Magnetometer Y,Data Magnetometer Z
imu,274.641634,0.7919543072000002,-8.903504428000002,4.6392731168,-0.67281443,7.057693029999999,-2.55429134,,,
imu,274.650137,0.8182730304000002,-8.910084108800001,4.629702672000001,-0.81487572,6.69880135,-2.35241477,,,
imu,274.658534,0.8380120728000001,-8.905897039200001,4.656021395200001,-0.88964482,6.31000203,-2.18792275,,,
imu,274.666931,0.8535640456000001,-8.887354302400002,4.662002923200001,-1.12890594,5.78661833,-2.32998404,,,
imu,274.675329,0.8374139200000001,-8.899915511200001,4.6847327296,-1.25601341,5.21837317,-2.39727623,,,
imu,274.683726,0.8272453224,-8.915467484,4.6931068688,-1.59995127,4.8669584,-2.47952224,,,
imu,274.692124,0.8039173632000001,-8.905897039200001,4.714640369600001,-1.86164312,4.46320526,-2.35989168,,,
imu,274.700521,0.7770004872000001,-8.9226453176,4.731986800800001,-2.28035008,4.149175039999999,-2.53933752,,,
imu,274.708919,0.744700236,-8.9220471648,4.739164634400001,-2.99065653,3.96225229,-2.72626027,,,
imu,274.717316,0.7315408744,-8.91247672,4.7678759688,-3.52151714,3.87252937,-2.75616791,,,
imu,274.725713,0.7357279440000001,-8.906495192000001,4.797783608800001,-3.91779337,3.91739083,-2.83841392,,,
imu,274.734111,0.7159889016000002,-8.8969247472,4.788213164,-4.47856162,3.88000628,-3.1973056,,,
imu,274.742508,0.7004369288000002,-8.881970927200001,4.7816334832,-4.889791669999999,3.8949601,-3.24964397,,,
imu,274.750906,0.7034276928000001,-8.866418954400002,4.7900076224,-5.390744639999999,3.98468302,-3.28702852,,,
imu,274.759303,0.6902683312000001,-8.828735328,4.7953909976,-5.7346825,4.02206757,-3.40665908,,,
imu,274.767701,0.7076147624000001,-8.784472020800001,4.8115411232,-6.05618963,4.27628251,-3.38422835,,,
imu,274.776098,0.7225685824,-8.7772941872,4.8438413744,-6.2580662,4.47068217,-3.32441307,,,
imu,274.784495,0.7494854584000001,-8.7934443128,4.865374875200001,-6.43751204,4.53797436,-3.04029049,,,
imu,274.792893,0.7775986400000001,-8.762340367200002,4.869561944800001,-6.40012749,4.7921893,-2.73373718,,,
imu,274.80129,0.804515516,-8.7551625336,4.9114326408,-6.45994277,4.76975857,-2.62906044,,,
imu,274.809688,0.8290397808000001,-8.786266479200002,4.946723656000001,-6.39265058,4.65012801,-2.65896808,,,
imu,274.818085,0.8314323920000001,-8.7725089648,4.9634719344,-6.549665689999999,4.48563599,-2.70382954,,,
imu,274.826482,0.8427972952,-8.740806866400002,4.970649768000001,-6.878649729999999,4.246374869999999,-2.76364482,,,
imu,274.83488,0.8493769760000001,-8.722264129600001,4.985603588000001,-7.14781849,4.05945212,-2.69635263,,,
imu,274.843277,0.8733030880000001,-8.6660377664,4.976631296000001,-7.469325619999999,3.84262173,-2.62158353,,,
imu,274.851675,0.8942384360000002,-8.5966520416,4.9790239072,-7.566525449999999,3.68560662,-2.32998404,,,
imu,274.860489,0.9044070336000001,-8.576912999200001,4.982612824,-7.536617809999999,3.43886859,-2.33746095,,,
imu,274.869303,0.9103885616000001,-8.577511152000001,4.999361102400001,-7.559048539999999,3.11736146,-2.41223005,,,
imu,274.878118,0.9187627008000002,-8.513508802400002,5.0208946032,-7.48427944,2.89305416,-2.49447606,,,
imu,274.886932,0.9331183680000001,-8.480012245600001,5.0609708408,-7.20015686,2.54163939,-2.61410662,,,
imu,274.895746,0.9313239096000001,-8.496760524,5.071737591200002,-6.781449899999999,2.18274771,-2.93561375,,,
imu,274.90456,0.9067996448000001,-8.473432564800001,5.084896952800001,-6.377696759999999,1.59954873,-3.04029049,,,
imu,274.913375,0.9223516176000001,-8.4327581744,5.1034396896,-5.906651429999999,1.17336486,-3.2720747,,,
imu,274.922189,0.8900513664000002,-8.366363213600001,5.120187968000001,-5.03932987,0.6724118899999998,-3.54124346,,,
imu,274.931003,0.8643307960000001,-8.3544001576,5.1327491768,-4.1645314,0.1415512799999998,-3.67582784,,,
imu,274.939817,0.8170767248000002,-8.3645687552,5.136338093600001,-3.21496383,-0.4416477000000003,-3.78798149,,,
imu,274.948632,0.7817857096,-8.3956727008,5.153086372000001,-2.34764227,-0.8753084800000002,-4.124442439999999,,,
imu,274.957446,0.7423076248,-8.410626520800001,5.155478983200001,-1.36069015,-1.24915398,-4.19173463,,,
imu,274.96626,0.7303445688000001,-8.392083784,5.156077136,-0.59056842,-1.51084583,-4.10948862,,,
imu,274.975075,0.6914646368,-8.4201969656,5.182395859200001,0.23936859,-1.54823038,-3.89265823,,,
imu,274.983889,0.6956517064000001,-8.454889828,5.182994012000001,0.8449983,-1.64543021,-3.56367419,,,
imu,274.992703,0.6878757200000001,-8.405841298400002,5.129160260000001,1.43567419,-1.45103055,-3.22721324,,,
imu,275.001517,0.6717255944000001,-8.415411743200002,5.151291913600001,1.88428879,-1.21176943,-2.69635263,,,
imu,275.010332,0.6567717744000001,-8.564351790400002,5.2440055976,2.31047266,-0.7407241,-1.78416961,,,
imu,275.019146,0.6800997336000001,-8.709702920800002,5.261950181600001,2.17588828,-0.15004821,-0.8420789499999999,,,
imu,275.02796,0.723764888,-8.678000822400001,5.188377387200001,1.68241222,0.2910894799999997,-0.2439261499999998,,,
imu,275.036774,0.7518780696000001,-8.584688985600001,5.181797706400001,1.368382,0.6574580699999997,-0.17663396,,,
imu,275.045495,0.7423076248,-8.606222486400002,5.224266555200001,1.24127453,0.6574580699999997,-0.5579563699999999,,,
imu,275.054309,0.7303445688000001,-8.616391084,5.1973496792,1.12912088,0.5303505999999998,-1.05143243,,,
imu,275.062789,0.7309427216000001,-8.597848347200001,5.160862358400001,0.97210577,0.6499811599999998,-1.59724686,,,
imu,275.07127,0.6830904976000001,-8.595455736,5.157273441600001,0.9347212199999999,0.6499811599999998,-2.18792275,,,
imu,275.07975,0.6334438152,-8.5822963744,5.156077136,1.16650543,0.5677351499999999,-2.91318302,,,
imu,275.08823,0.5951620360000001,-8.595455736,5.147104844,1.19641307,0.7097964399999999,-3.50385891,,,
imu,275.09671,0.5443190480000001,-8.6002409584,5.1213842736,1.49548947,1.10607267,-3.75059694,,,
imu,275.10519,0.5377393672000002,-8.559566568000001,5.090280328,1.61512003,1.49487199,-4.00481188,,,
imu,275.11367,0.5616654792000001,-8.529658928000002,5.1034396896,1.79456587,1.94348659,-4.13939626,,,
imu,275.12215,0.5520950344000001,-8.552388734400001,5.1100193704,2.24318047,2.26499372,-4.20668845,,,
imu,275.13063,0.5658525488000001,-8.578707457600002,5.099850772800001,2.35533412,2.65379304,-4.034719519999999,,,
imu,275.13911,0.5778156048000002,-8.5763148464,5.0825043416,2.46748777,2.89305416,-3.78798149,,,
imu,275.14759,0.5861897440000001,-8.555977651200001,5.071737591200002,2.5646876,3.28185348,-3.55619728,,,
imu,275.15607,0.6352382736000001,-8.539229372800001,5.051400396000001,2.7142258,3.48373005,-3.21973633,,,
imu,275.16455,0.6830904976000001,-8.539827525600002,5.030465048000001,2.98339456,3.50616078,-2.88327538,,,
imu,275.17303,0.7123999848000001,-8.541023831200002,5.033455812000001,3.24508641,3.34914567,-2.5991528,,,
imu,275.18151,0.7500836112000001,-8.532051539200001,5.040633645600001,3.48434753,3.07997691,-2.28512258,,,
imu,275.189991,0.7758041816000001,-8.536238608800002,5.026876131200001,3.79090084,2.68370068,-2.24773803,,,
imu,275.198471,0.7967395296000002,-8.520686636,5.023885367200001,4.05259269,2.35471664,-1.97109236,,,
imu,275.206951,0.8140859608000002,-8.5170977192,5.0280724368,4.47877656,1.79394839,-1.72435433,,,
imu,275.215431,0.8882569080000001,-8.502742052000002,5.0083333944,4.68065313,1.33037997,-1.49257012,,,
imu,275.223911,1.0688990536,-8.4536935224,4.9760331432,5.12179082,0.8144731799999998,-1.08881698,,,
imu,275.232391,1.2662894776,-8.370550283200002,4.9652663928,5.65265143,-0.3294940500000001,-0.8719865899999999,,,
imu,275.240871,1.4319778032,-8.2909959608,4.9664626984,6.81157248,-2.24358301,-0.9318018699999999,,,
imu,275.249351,1.552206516,-8.285612585600001,4.971846073600001,8.239662289999998,-4.88293224,-1.22340136,,,
imu,275.257831,1.5976661288,-8.237162208800001,4.958686712,9.959351589999999,-7.918557699999999,-1.21592445,,,
imu,275.266356,1.5857030728,-8.213236096800001,4.943732892000001,11.79119454,-11.26073647,-0.9542325999999999,,,
imu,275.27488,1.561178808,-8.212637944,4.925190155200001,13.82491406,-14.26645429,-0.37103362,,,
imu,275.283405,1.5019616808,-8.223404694400001,4.914423404800001,15.97826414,-17.00300335,0.4962879400000002,,,
imu,275.291929,1.4158276776,-8.234769597600001,4.9030585016,18.03441439,-19.59001421,1.53557843,,,
imu,275.300454,1.3111509376,-8.2778365992,4.90485296,19.86625734,-21.72093356,2.82908386,,,
imu,275.308979,1.2010908224,-8.3884948672,4.937751364,21.556039,-23.56025342,4.36932732,,,
imu,275.317503,1.1071808328,-8.4710399536,4.918610474400001,22.86449825,-25.04815851,5.670309659999999,,,
imu,275.326028,1.0060930096,-8.5649499432,4.9216012384,23.799112,-26.20707956,6.8217538,,,
imu,275.334552,0.8948365888000002,-8.682187892000002,4.931769836000001,24.2477266,-27.02206275,7.80122901,,,
imu,275.343077,0.8290397808000001,-8.725853046400001,4.8599915,24.49446463,-27.47815426,8.33956653,,,
imu,275.351601,0.7674300424000001,-8.768920048000002,4.83008386,24.59914137,-27.6576001,8.63864293,,,
imu,275.360126,0.6824923448,-8.834716856000002,4.809148512,24.29258806,-27.56040027,8.59378147,,,
imu,275.368651,0.6172936896000001,-8.893933983200002,4.760099982400001,23.92621947,-27.27627769,8.64611984,,,
imu,275.377175,0.5646562432000001,-8.9047007336,4.703275466400001,23.61966616,-26.63326343,8.66107366,,,
imu,275.3857,0.4958686712000001,-8.937599137600001,4.6572177008,22.8271137,-25.87061861,8.28722816,,,
imu,275.394224,0.4539979752000001,-8.982460597600001,4.612356240800001,22.25139163,-24.86123576,7.97319794,,,
imu,275.402749,0.400762376,-9.065603836800001,4.586635670400001,21.66819265,-23.75465308,7.62178317,,,
imu,275.411273,0.3541064576,-9.173271340800001,4.578261531200001,20.95040929,-22.4985322,7.090922560000001,,,
imu,275.419798,0.3188154424,-9.226506940000002,4.535194529600001,19.9858879,-21.18259604,6.53015431,,,
imu,275.428323,0.2853188856,-9.221721717600001,4.505885042400001,18.51293663,-19.73955241,5.782463310000001,,,
imu,275.436847,0.2613927736,-9.246245982400001,4.5094739592,17.33906176,-18.16940131,5.04224922,,,
imu,275.445372,0.2314851336,-9.2851259144,4.471192180000001,16.00069487,-16.33008145,4.511388609999999,,,
imu,275.453896,0.2141387024,-9.285724067200002,4.4347048592,14.65485107,-14.39356176,3.980528,,,
imu,275.462421,0.1782495344,-9.263592413600001,4.4209473448,13.22676126,-12.32245769,3.58425177,,,
imu,275.47082,0.1668846312,-9.273162858400001,4.389245246400001,11.90334819,-10.30369199,3.03096043,,,
imu,275.479218,0.1632957144,-9.295294512000002,4.339000411200001,10.77433478,-8.10548045,2.41785381,,,
imu,275.487617,0.176455076,-9.276751775200001,4.301316784800001,9.27147587,-5.72034616,1.9617623,,,
imu,275.496016,0.221316536,-9.219329106400002,4.282175895200001,8.22470847,-3.64176518,1.47576315,,,
imu,275.504414,0.2709632184,-9.1965993,4.266623922400001,7.22280253,-1.68281476,0.78788743,,,
imu,275.512813,0.3116376088,-9.228301398400001,4.2606423944,6.33305024,0.1565051,0.1972115400000001,,,
imu,275.521212,0.3690602776000001,-9.201982675200002,4.2301366016,5.7797589,1.60702564,-0.66263311,,,
imu,275.529611,0.4210995712,-9.131998797600001,4.212790170400001,5.15917537,2.74351596,-1.61220068,,,
imu,275.538009,0.4719425592000001,-9.131400644800001,4.2343236712,4.55354566,3.56597606,-2.58419898,,,
imu,275.546408,0.4982612824000001,-9.174467646400002,4.2450904216,4.26194617,4.42582071,-3.45899745,,,
imu,275.554807,0.5335522976000001,-9.225908787200002,4.261240547200001,3.925485220000001,5.113696429999999,-4.057150249999999,,,
imu,275.563205,0.5479079648000001,-9.2312921624,4.264829464000001,3.49930135,5.51744957,-4.44594957,,,
imu,275.571604,0.5867878968000001,-9.195402994400002,4.264829464000001,3.02077911,6.05578709,-4.70016451,,,
imu,275.580003,0.6083213976,-9.134391408800001,4.2618387,2.60207215,6.47449405,-4.79736434,,,
imu,275.588401,0.6400234960000001,-9.102091157600002,4.2743999088,2.25065738,6.579170789999999,-4.81231816,,,
imu,275.5968,0.6836886504,-9.134989561600001,4.27679252,2.24318047,6.69880135,-4.55810322,,,
imu,275.605199,0.7327371800000001,-9.1409710896,4.267222075200001,2.10111918,6.624032249999999,-4.453426479999999,,,
imu,275.613597,0.7560651392000002,-9.097305935200001,4.2516701024,2.05625772,6.31000203,-4.4683803,,,
imu,275.621996,0.7722152648000001,-9.042874030400002,4.252268255200001,2.02635008,5.614649399999999,-4.51324176,,,
imu,275.630395,0.7734115704000001,-9.0303128216,4.247483032800001,2.01139626,4.82957385,-4.66277996,,,
imu,275.638793,0.76264482,-9.008181168000002,4.2325292128,2.0413039,4.09683667,-4.61044159,,,
imu,275.647192,0.7494854584000001,-8.969899388800002,4.2223606152,2.03382699,3.28185348,-4.44594957,,,
imu,275.655591,0.7375224024000001,-8.985451361600001,4.236716282400001,2.13850373,2.79585433,-4.11696553,,,
imu,275.66399,0.7147925960000001,-9.006386709600001,4.2426978104,2.29551884,2.26499372,-3.78050458,,,
imu,275.672458,0.6980443176000002,-9.026125752000002,4.258847936,2.15345755,1.79394839,-3.52628964,,,
imu,275.680927,0.6657440664000001,-9.0303128216,4.264231311200001,1.86185806,1.26308778,-3.26459779,,,
imu,275.689395,0.6501920936000001,-9.0255275992,4.249875644,1.50296638,1.0537343,-3.01785976,,,
imu,275.697864,0.6328456624000001,-8.985451361600001,4.2301366016,1.39081273,0.8294269999999999,-2.89075229,,,
imu,275.706333,0.6137047728000001,-8.984255056000002,4.225351379200001,1.43567419,0.7097964399999999,-2.85336774,,,
imu,275.714801,0.62806044,-8.9878439728,4.228342143200001,1.30856672,0.72475026,-2.84589083,,,
imu,275.72327,0.62806044,-8.979469833600001,4.231931060000001,1.73475059,0.6873657099999999,-2.84589083,,,
imu,275.731739,0.6244715232,-8.954347416000001,4.2450904216,1.91419643,0.5527813299999997,-3.03281358,,,
imu,275.740207,0.6304530512000001,-8.9836569032,4.246286727200001,2.116073,0.5527813299999997,-3.13749032,,,
imu,275.748676,0.6035361752000001,-8.9836569032,4.240305199200001,2.46001086,0.4032431299999999,-3.27955161,,,
imu,275.757144,0.5933675776,-8.972890152800002,4.2552590192,2.85628709,0.5677351499999999,-3.15244414,,,
imu,275.765613,0.5939657304000001,-9.001003334400002,4.2564553248,2.99087147,0.6275504299999999,-3.01785976,,,
imu,275.774082,0.5909749664,-9.047061100000002,4.254660866400001,3.24508641,0.8593346399999997,-2.95804448,,,
imu,275.78255,0.5915731192000001,-9.062613072800001,4.2480811856,3.24508641,1.16588795,-2.78607555,,,
imu,275.791019,0.6005454112,-9.051846322400001,4.2450904216,3.18527113,1.53225654,-2.53933752,,,
imu,275.799488,0.6256678288,-9.059024156000001,4.2630350056,3.08059439,1.81637912,-2.35989168,,,
imu,275.807956,0.6322475096000001,-9.117643130400001,4.2773906728,3.02825602,2.13040934,-2.09072292,,,
imu,275.816425,0.6579680800000002,-9.114652366400001,4.261240547200001,2.92357928,2.36219355,-1.89632326,,,
imu,275.824893,0.6902683312000001,-9.0751742816,4.252866408000001,2.77404108,2.51920866,-1.67949287,,,
imu,275.833362,0.7243630408,-9.0853428792,4.2432959632,2.52730305,2.58650085,-1.79912343,,,
imu,275.841831,0.7118018320000001,-9.103885616000001,4.2444922688,2.407672489999999,2.6986545,-2.02343073,,,
imu,275.850299,0.744700236,-9.0823521152,4.247483032800001,2.35533412,2.84071579,-2.00847691,,,
imu,275.858768,0.7536725280000001,-9.035696196800002,4.2480811856,2.13102682,2.93791562,-2.09072292,,,
imu,275.867237,0.7423076248,-9.0093774736,4.2552590192,1.92915025,2.89305416,-2.32250713,,,
imu,275.876055,0.7369242496000001,-9.029116516000002,4.2516701024,1.90671952,2.98277708,-2.33746095,,,
imu,275.884873,0.7393168608000001,-9.0608186144,4.237912588,1.83195042,3.2220382,-2.40475314,,,
imu,275.893691,0.7309427216000001,-9.060220461600002,4.219968004000001,1.83195042,3.48373005,-2.57672207,,,
imu,275.90251,0.7183815128000002,-9.040481419200002,4.2187716984,1.77213514,3.55849915,-2.87579847,,,
imu,275.911328,0.7141944432000001,-9.038088808000001,4.199032656000001,1.71979677,3.82766791,-3.17487487,,,
imu,275.920146,0.6860812616,-9.049453711200002,4.193649280800001,1.73475059,4.08188285,-3.41413599,,,
imu,275.928964,0.6065269392000001,-9.093118865600001,4.199630808800001,1.6674584,4.42582071,-3.67582784,,,
imu,275.937783,0.49347606,-9.171476882400002,4.1816862248,1.39828964,5.046404239999999,-4.034719519999999,,,
imu,275.946601,0.3104413032000001,-9.211553120000001,4.152376737600001,0.9048135799999999,5.898771979999999,-4.59548777,,,
imu,275.955419,0.1453511304,-9.295294512000002,4.133235848,0.51601426,7.53621527,-5.10391765,,,
imu,275.964237,0.03349655680000001,-9.425691822400001,4.098542985600001,-0.41112258,9.88396501,-5.95628539,,,
imu,275.973056,-0.008972292000000002,-9.510031367200002,4.0746168736,-1.68967419,12.9420212,-6.91332987,,,
imu,275.981874,-0.002990764,-9.536948243200001,4.075813179200001,-3.20748692,16.05241576,-8.02738946,,,
imu,275.990692,0.0011963056,-9.512423978400001,4.084785471200001,-4.87483785,19.08056431,-9.27603343,,,
imu,274.642386,,,,,,,-96.0340532,172.1275932,100.6056536
imu,274.742637,,,,,,,-96.24157559999999,172.4449804,99.3727264
imu,274.843986,,,,,,,-95.3260356,172.7623676,97.8956552
imu,274.945914,,,,,,,-96.4002692,173.1041692,99.287276
imu,275.047111,,,,,,,-93.82455,172.0421428,96.0035392
imu,275.148643,,,,,,,-96.54675560000001,173.1896196,98.1397992
imu,275.250205,,,,,,,-93.6048204,172.298494,95.991332
imu,275.351829,,,,,,,-96.510134,173.1407908,99.3727264
imu,275.99951,0.0203371952,-9.471151435200001,4.102131902400001,-6.691726979999999,21.77972882,-10.43495448,,,
imu,276.008329,0.08015247520000002,-9.459786532,4.091365152000001,-8.4263701,24.44898569,-11.41442969,,,
imu,276.017147,0.1573141864,-9.485507102400002,4.067439040000001,-9.96661356,26.87898144,-12.0948285,,,
imu,276.025965,0.2284943696,-9.429878892000001,4.0865799296,-11.55919539,28.92765478,-12.6182122,,,
imu,276.034783,0.2930948720000001,-9.346735652800001,4.136226612000001,-12.96485447,30.69220554,-13.10421135,,,
imu,276.043602,0.3624805968,-9.3174261656,4.1194783336,-13.78731457,32.27731046,-13.38833393,,,
imu,276.05242,0.4444275304,-9.3204169296,4.1146931112,-14.5574363,33.59324662,-13.47805685,,,
imu,276.061238,0.5191966304000001,-9.267181330400001,4.1350303064,-15.62663443,34.72226003,-13.76217943,,,
imu,276.070056,0.6208826064000001,-9.160710132,4.1667324048,-16.43414071,35.38022811,-14.00891746,,,
imu,276.078627,0.7458965416000001,-9.056631544800002,4.1757046968,-16.96500132,35.70921215,-14.28556313,,,
imu,276.087197,0.8069081272,-9.005190404000002,4.213986476000001,-16.97247823,35.73911979,-14.49491661,,,
imu,276.095768,0.8786864632000002,-8.948964040800002,4.2552590192,-16.8752784,35.47742794,-14.74165464,,,
imu,276.104338,0.9558481744000001,-8.837707620000002,4.286961117600001,-16.55377127,34.90170587,-14.89119284,,,
imu,276.112908,1.025832052,-8.789257243200002,4.3437856336,-16.11263358,34.01195358,-15.09306941,,,
imu,276.121479,1.0653101368,-8.764732978400001,4.3922360104,-15.49205005,32.88294017,-15.10054632,,,
imu,276.130049,1.0964140824,-8.740806866400002,4.439490081600001,-14.8565127,31.46232727,-14.8612852,,,
imu,276.138826,1.1137605136,-8.7276475048,4.4717903328,-14.1835908,29.95199145,-14.27060931,,,
imu,276.147396,1.115554972,-8.7342271856,4.524427779200001,-13.53309963,28.53137855,-13.71731797,,,
imu,276.155966,1.0778713456,-8.7557606864,4.5896264344,-12.77045481,27.20796548,-12.98458079,,,
imu,276.164537,1.055739692,-8.754564380800002,4.621926685600001,-12.22464038,25.86212168,-11.91538266,,,
imu,276.173107,1.025832052,-8.724656740800002,4.611758088,-11.87322561,24.67329299,-11.20507621,,,
imu,276.181677,1.0042985512,-8.694749100800001,4.638674964000001,-11.43956483,23.76858688,-10.5246774,,,
imu,276.190248,1.0031022456,-8.6415135016,4.663199228800001,-11.02833478,22.93864987,-9.78446331,,,
imu,276.198818,1.0072893152,-8.6415135016,4.6709752152,-10.43018198,22.12366668,-9.07415686,,,
imu,276.207389,1.0413840248,-8.657663627200002,4.676956743200001,-9.66753716,21.18905293,-8.31151204,,,
imu,276.215959,1.0910307072,-8.6277559872,4.6727696736,-9.09181509,20.30677755,-7.65354396,,,
imu,276.224529,1.1221346528,-8.601437264000001,4.6721715208,-8.33664718,19.35720998,-7.00305279,,,
imu,276.2331,1.1418736952,-8.586483444,4.699088396800001,-7.4543718,18.19081202,-6.487145999999999,,,
imu,276.24167,1.1669961128,-8.5757166936,4.727201578400001,-6.42255822,16.9047835,-6.031054489999999,,,
imu,276.25024,1.1747720992,-8.5822963744,4.7439498568,-5.555236659999999,15.53650897,-5.761885729999999,,,
imu,276.258811,1.1652016544,-8.6229707648,4.761296288,-4.658007459999999,14.02617315,-5.53010152,,,
imu,276.267381,1.148453376,-8.6558691688,4.772661191200001,-3.88040882,12.82986755,-5.0665331,,,
imu,276.275951,1.1227328056,-8.689365725600002,4.791203928000001,-3.24487147,11.5214083,-4.74502597,,,
imu,276.284335,1.064711984,-8.700132476,4.7870168584,-2.98317962,10.53445618,-4.48333412,,,
imu,276.292718,1.0234394408,-8.695347253600001,4.795989150400001,-2.68410322,9.70451917,-4.21416536,,,
imu,276.301102,0.9672130776000001,-8.719273365600001,4.83008386,-2.52708811,9.098889459999999,-3.90013514,,,
imu,276.309485,0.8972292000000002,-8.716880754400002,4.806755900800001,-2.45231901,8.83719761,-3.75807385,,,
imu,276.317869,0.7441020832,-8.688767572800002,4.7900076224,-2.24296553,8.85962834,-3.45152054,,,
imu,276.326252,0.5383375200000001,-8.692356489600002,4.8079522064,-2.2953039,9.38301204,-3.24216706,,,
imu,276.334635,0.2727576768,-8.747984700000002,4.842046916000001,-2.34764227,10.78867112,-3.24964397,,,
imu,276.343019,0.007775986400000001,-8.787462784800002,4.839056152,-2.4448421,13.17380541,-3.24216706,,,
imu,276.351402,-0.1662864784,-8.8119870496,4.8037651368,-2.97570271,16.76272221,-3.54872037,,,
imu,276.359786,-0.248233412,-8.813183355200001,4.7577073712,-3.2673022,21.18905293,-4.17678081,,,
imu,276.368169,-0.2464389536,-8.7976313824,4.752922148800001,-3.51404023,25.9518446,-5.37308641,,,
imu,276.376553,-0.2195220776,-8.7772941872,4.752323996000001,-3.7906859,30.74454391,-6.91332987,,,
imu,276.384936,-0.1902125904,-8.792248007200001,4.749931384800001,-3.92527028,35.29050519,-8.588157709999999,,,
imu,276.393319,-0.1579123392,-8.8143796608,4.731388648000001,-4.03742393,39.74674355,-10.18821645,,,
imu,276.401703,-0.1399677552,-8.787462784800002,4.7056680776,-4.14210067,44.06092062,-11.84809047,,,
imu,276.410086,-0.08972292000000001,-8.7497791584,4.673367826400001,-4.134623759999999,48.24051331,-13.62759505,,,
imu,276.41847,0.0340947096,-8.733629032800001,4.635086047200001,-4.14957758,52.47244437,-15.10802323,,,
imu,276.426853,0.158510492,-8.697141712,4.5854393648,-4.08228539,56.27819156,-16.52863613,,,
imu,276.435237,0.305057928,-8.661252544000002,4.5854393648,-3.78320899,59.55307814,-17.70998791,,,
imu,276.44362,0.430670016,-8.7288438104,4.5603169472,-3.16262546,62.38682703,-18.89133969,,,
imu,276.452003,0.3822196392,-8.688169420000001,4.520240709600001,-3.25982529,64.76448441,-20.79047483,,,
imu,276.460387,0.4474182944000001,-8.674411905600001,4.507081348000001,-3.20001001,67.04494196,-21.7400424,,,
imu,276.46877,0.6322475096000001,-8.7354234912,4.496314597600001,-3.14767164,69.69924501,-22.12136481,,,
imu,276.477154,0.771617112,-8.841296536800002,4.4927256808,-3.06542563,71.76287217000001,-23.20551676,,,
imu,276.485612,0.8332268504000001,-8.831726092,4.464612499200001,-3.20748692,73.00403923,-24.68594494,,,
imu,276.494071,0.8661252544000001,-8.841296536800002,4.4347048592,-3.18505619,73.99099135,-25.94206582,,,
imu,276.502529,0.9325202152000002,-8.913673025600001,4.416760275200001,-3.40936349,75.27701987,-27.33277108,,,
imu,276.510988,1.0144671488,-8.965712319200001,4.4071898304,-3.77573208,76.33126418,-28.70852252,,,
imu,276.519446,1.1131623608,-8.947767735200001,4.3671135928,-4.06733157,77.07147827,-29.89735121,,,
imu,276.527904,1.2106612672,-8.956740027200002,4.342589328000001,-4.14957758,77.34812394000001,-31.2357181,,,
imu,276.536363,1.2794488392,-8.9561418744,4.307896465600001,-4.157054489999999,77.32569321,-32.55913117,,,
imu,276.544821,1.3111509376,-8.9639178608,4.290550034400001,-4.11966994,77.08643209,-33.49374492,,,
imu,276.55328,1.3823311208,-8.920252706400001,4.264829464000001,-4.17948522,76.53314075,-34.23395901,,,
imu,276.561738,1.4840170968,-8.8879524552,4.2492774912,-3.73087062,75.92751104,-34.45826631,,,
imu,276.570197,1.62996638,-8.889746913600002,4.226547684800001,-3.23739456,75.02280493,-34.6003276,,,
imu,276.578655,1.7531858568,-8.86761526,4.226547684800001,-2.79625687,73.6545304,-34.38349720999999,,,
imu,276.587114,1.9254538632,-8.834716856000002,4.2277439904,-2.50465738,71.96474874,-33.47131419,,,
imu,276.595572,2.1168627592,-8.813183355200001,4.2444922688,-1.94388913,69.81887557,-32.06565511,,,
imu,276.604031,2.269989876,-8.8604374264,4.2935407984,-1.30835178,66.76829629,-30.68990367,,,
imu,276.612489,2.395601964,-8.868213412800001,4.335411494400001,-1.03170611,62.89525690999999,-29.32162914,,,
imu,276.620947,2.506858384800001,-8.870007871200002,4.3641228288,-0.74758353,58.65584894,-27.5720322,,,
imu,276.629406,2.5977776104,-8.891541372,4.384460024000001,-0.55318387,53.96782637,-25.82243526,,,
imu,276.637864,2.6354612368,-8.886157996800002,4.3862544824,-0.32887657,48.90595829999999,-24.15508433,,,
imu,276.646323,2.6055535968,-8.872400482400002,4.432312248000001,-0.4260764,43.50762928,-22.09893408,,,
imu,276.654781,2.5493272336,-8.861035579200001,4.447266068,-0.33635348,38.28126919,-19.89324563,,,
imu,276.66324,2.4572117024,-8.8275390224,4.430517789600001,-0.15690764,33.42127769,-17.50811134,,,
imu,276.671698,2.3405719064,-8.777892340000001,4.417358428000001,-0.14943073,28.74073203,-15.11550014,,,
imu,276.680157,2.249652680800001,-8.761144061600001,4.403600913600001,-0.02232326000000001,24.6060008,-12.47615091,,,
imu,276.688685,2.1814632616,-8.774303423200001,4.382665565600001,0.29170696,20.94979181,-9.575109829999999,,,
imu,276.697213,2.1288258152,-8.759947756,4.384460024000001,0.65807555,17.39825956,-6.98062206,,,
imu,276.705742,2.0803754384,-8.7497791584,4.405395372000001,0.9646288599999999,14.22057281,-4.66277996,,,
imu,276.71427,2.0355139784,-8.758751450400002,4.4059935248,1.2936129,11.33448555,-2.8234601,,,
imu,276.722799,1.9936432824,-8.788060937600001,4.3880489408,1.6674584,8.612890310000001,-1.02152479,,,
imu,276.731327,1.8608533608,-8.8484743704,4.370702509600001,2.07868845,6.205325289999999,0.58601086,,,
imu,276.739855,1.7424191064,-8.9088878032,4.3671135928,2.14598064,4.18655959,1.70754736,,,
imu,276.748384,1.6054421152,-8.9770772224,4.364720981600001,2.07121154,2.84071579,2.76926858,,,
imu,276.756912,1.5444305296,-9.0362943496,4.323448438400001,1.77213514,2.06311715,3.46462121,,,
imu,276.765441,1.4756429576,-9.0596223088,4.319859521600001,1.368382,1.46496435,3.63659014,,,
imu,276.773969,1.4152295248,-9.029116516000002,4.3192613688,0.67302937,1.23318014,3.47209812,,,
imu,276.782497,1.4008738576,-9.0267239048,4.323448438400001,0.05992275,1.26308778,3.21040627,,,
imu,276.791026,1.393696024,-9.042874030400002,4.322252132800001,-0.62047606,1.45001053,2.7842224,,,
imu,276.799554,1.4002757048,-9.0596223088,4.335411494400001,-1.16629049,1.67431783,1.95428539,,,
imu,276.808083,1.4104443024,-9.035696196800002,4.333617036000001,-1.7719202,2.04816333,1.14677911,,,
imu,275.453361,,,,,,,-95.6800444,172.5182236,100.630068
imu,275.554923,,,,,,,-94.01986520000001,172.2252508,103.2790304
imu,275.656486,,,,,,,-94.27621640000001,171.9444852,102.9128144
imu,275.758018,,,,,,,-94.3860812,171.9688996,103.315652
imu,275.859702,,,,,,,-93.91000039999999,172.1275932,102.3512832
imu,275.961265,,,,,,,-94.47153160000002,172.4449804,102.9982648
imu,276.062766,,,,,,,-92.89680280000002,171.3463324,99.5680416
imu,276.164298,,,,,,,-95.6190084,172.7623676,99.9098432
imu,276.816611,1.4313796504,-9.032705432800002,4.331822577600001,-2.31025772,2.27994754,0.32431901,,,
imu,276.825139,1.4122387608,-9.065603836800001,4.358141300800001,-2.885979789999999,2.4743472,-0.43832581,,,
imu,276.833668,1.393696024,-9.076968740000002,4.356346842400001,-3.618716969999999,2.88557725,-1.21592445,,,
imu,276.842196,1.3781440512,-9.063211225600002,4.349767161600001,-4.276685049999999,3.45382241,-1.76173888,,,
imu,276.850724,1.3823311208,-9.0644075312,4.357543148,-5.271114079999999,4.08935976,-2.43466078,,,
imu,276.859253,1.387714496,-9.093717018400001,4.368908051200001,-6.15338946,4.739850929999999,-3.15244414,,,
imu,276.867781,1.4002757048,-9.1062782272,4.404797219200001,-7.043141749999999,5.36791137,-3.93004278,,,
imu,276.87631,1.4050609272,-9.093118865600001,4.4089842888,-8.03757078,5.831479789999999,-4.72259524,,,
imu,276.884838,1.3889108016,-9.0386869608,4.405395372000001,-8.78526178,6.26514057,-5.739455,,,
imu,276.893581,1.3314881328,-8.986049514400001,4.435901164800001,-9.592768060000001,6.751139719999999,-6.83108386,,,
imu,276.902323,1.2507375048,-8.944178818400001,4.449658679200001,-10.38532052,7.30443106,-7.982528,,,
imu,276.911066,1.1556312096,-8.9088878032,4.432312248000001,-10.93113495,8.47830593,-8.82741883,,,
imu,276.919809,1.0778713456,-8.8879524552,4.449658679200001,-11.05824242,9.74938063,-9.66483275,,,
imu,276.928551,1.034804344,-8.846679912,4.468201416,-11.31245736,11.34943937,-10.36018538,,,
imu,276.937294,1.0090837736,-8.8185667304,4.4813607776,-11.45451865,12.98688266,-11.04058419,,,
imu,276.946036,0.9899428840000002,-8.80779998,4.5112684176,-11.55919539,14.62432595,-11.92285957,,,
imu,276.954779,1.004896704,-8.8000239936,4.561513252800001,-11.58910303,16.18700014,-12.83504259,,,
imu,276.963522,1.0491600112,-8.774901576000001,4.603982101600001,-11.61153376,17.89173562,-13.5902105,,,
imu,276.972264,1.0485618584,-8.7497791584,4.62073038,-11.6414414,19.42450217,-14.24070167,,,
imu,276.981007,1.0641138312,-8.716880754400002,4.619534074400001,-11.55919539,20.7180076,-14.91362357,,,
imu,276.98975,1.0802639568,-8.725853046400001,4.652432478400001,-11.26011899,22.01151303,-15.63888384,,,
imu,276.998492,1.079665804,-8.7384142552,4.696097632800001,-11.12553461,23.37978756,-16.31180574,,,
imu,277.007235,1.1023956104,-8.701328781600001,4.682340118400001,-11.1928268,24.47141642,-17.11931202,,,
imu,277.015977,1.088638096,-8.671421141600002,4.6877234936,-11.05076551,25.59295292,-17.81466465,,,
imu,277.02472,1.0874417904,-8.6690285304,4.7367720232,-10.88627349,26.85655071,-18.16607942,,,
imu,277.033463,1.0694972064,-8.688767572800002,4.7768482608,-10.37784361,28.00051794,-18.42777127,,,
imu,277.042205,0.9827650504000001,-8.679197128,4.773857496800001,-10.19092086,29.06971607,-18.85395514,,,
imu,277.050948,0.7291482632,-8.6732156,4.764287052,-9.846983,30.34079077,-19.4969694,,,
imu,277.059691,0.4833074624000001,-8.674411905600001,4.747538773600001,-9.547906600000001,32.38946411,-20.07269147,,,
imu,277.068433,0.260196468,-8.678598975200002,4.731986800800001,-9.3983684,35.46995103,-20.23718349,,,
imu,277.077176,-0.002990764,-8.715086296,4.7086588416,-9.27126093,39.17102148,-20.48392152,,,
imu,277.085918,-0.4922797544,-8.7342271856,4.6847327296,-9.480614410000001,43.98615152,-21.50825819,,,
imu,277.094395,-1.1681924184,-8.7079084624,4.602785796000001,-9.9217521,50.20694064,-23.11579384,,,
imu,277.102871,-1.7190911472,-8.704917698400001,4.536390835200001,-10.48999726,59.03717134999999,-24.6560373,,,
imu,277.111347,-2.0510659512,-8.829931633600001,4.465210652000001,-10.82645821,70.12542888,-26.30843441,,,
imu,277.119823,-2.0773846744,-9.0596223088,4.3796748016,-11.14796534,82.7763606,-29.1421833,,,
imu,277.1283,-2.0432899648,-9.1894214664,4.306700160000001,-11.98537926,95.68898417,-33.46383728,,,
imu,277.136776,-2.0205601584,-9.145756312000001,4.213388323200001,-13.3611307,108.17542387,-38.84721248,,,
imu,277.145252,-2.057645632,-9.0614167672,4.023773885600001,-14.39294428,120.09361841,-44.72406374,,,
imu,277.153728,-1.9942414352,-9.051846322400001,3.876030144,-15.43971168,132.38565845,-49.59900905999999,,,
imu,277.162205,-1.7149040776,-9.159513826400001,3.670265580800001,-15.95561847,144.9842518,-52.67201907,,,
imu,277.170681,-1.1652016544,-9.2964908176,3.526110756,-17.0995857,156.67066213,-55.58053706,,,
imu,277.179157,-0.7554669864000001,-9.252825663200001,3.4256210856,-18.10896855,166.57009097,-58.73579307999999,,,
imu,277.187633,-0.3373581792000001,-9.0506500168,3.3191498872,-18.9688132,174.63767686,-61.03120445,,,
imu,277.19611,0.143556672,-8.923243470400001,3.2814662608,-19.12582831,181.0977271,-62.24994078,,,
imu,277.204586,0.5323559920000001,-8.8395020784,3.2132768416,-18.64730607,185.84556495,-62.36209443,,,
imu,277.213062,0.9839613560000001,-8.7725089648,3.0978333512,-17.55567721,189.01577479,-61.34523467,,,
imu,277.221539,1.543234224,-8.750377311200001,3.1277409912,-16.74817093,190.55601825,-59.64049918999999,,,
imu,277.229898,2.013980477600001,-8.678000822400001,3.146881880800001,-15.69392662,190.10740365,-57.1805958,,,
imu,277.238375,2.4488375632,-8.521882941600001,3.140302200000001,-14.16116007,187.46805442,-54.27955471999999,,,
imu,277.246851,2.859170384,-8.4686473424,3.1959304104,-12.47885532,183.38566156,-51.18411398,,,
imu,277.255327,3.3442723048,-8.448908300000001,3.233015884,-10.69935074,177.77797906,-47.50547426,,,
imu,277.263803,3.9244805208,-8.481806704000002,3.312570206400001,-8.77778487,170.57771473,-43.32588157,,,
imu,277.27228,4.4299196368,-8.562557332,3.367600264,-6.68425007,161.71757638,-39.44536528,,,
imu,277.280756,4.7056680776,-8.5164995664,3.37956332,-4.919699309999999,151.72842462,-35.61718736,,,
imu,277.289232,4.929377224800001,-8.536836761600002,3.427415544,-3.34954821,140.75232074,-31.64694815,,,
imu,277.297691,5.0017537136,-8.652878404800001,3.4758659208,-1.70462801,129.76126304,-28.00569298,,,
imu,277.306149,4.994575880000001,-8.803014757600002,3.460313948,-0.2017691,119.17395848,-24.53640674,,,
imu,277.314607,4.9275827664,-8.944178818400001,3.428611849600001,0.85995212,109.01283779,-21.16432033,,,
imu,277.323066,4.813335581600001,-8.998610723200002,3.3598242776,1.68241222,99.62183883,-18.5997402,,,
imu,277.331524,4.6189359216,-8.9836569032,3.2712976632,2.28056502,90.91871559,-17.1043582,,,
imu,277.339983,4.35156162,-8.9980125704,3.254549384800001,3.0133022,83.03805245000001,-16.16974445,,,
imu,277.348441,4.124861708800001,-9.1134560608,3.3041960672,3.79090084,76.0471416,-15.81085277,,,
imu,277.3569,3.9669493696,-9.201384522400001,3.310775748,4.32923836,70.2899209,-15.91552951,,,
imu,277.365358,3.9214897568,-9.204375286400001,3.2832607192,4.20213089,65.19814519,-16.24451355,,,
imu,277.373817,3.896965492000001,-9.083548420800001,3.2066971608,4.27689999,60.4203997,-16.7305127,,,
imu,277.382275,3.973529050400001,-9.0129663904,3.2623253712,4.2843769,55.71742330999999,-17.61278808,,,
imu,277.390734,3.930462048800001,-8.972890152800002,3.2904385528,4.44139201,50.83500108,-18.74180149,,,
imu,277.399192,3.8933765752,-8.9645160136,3.270101357600001,4.77785296,46.10959396,-19.56426159,,,
imu,277.40765,3.738455000000001,-8.913673025600001,3.254549384800001,5.23394447,41.47390976,-20.12502984,,,
imu,277.416109,3.600879856,-8.884961691200001,3.2677087464,5.51806705,37.04010212999999,-20.52878298,,,
imu,277.424567,3.523119992000001,-8.9226453176,3.268905052,5.89938946,32.92780163,-20.22222967,,,
imu,277.433026,3.409470960000001,-8.9190564008,3.2072953136,6.19098895,29.08466989,-19.21284682,,,
imu,277.441484,3.385544848,-9.030910974400001,3.221650980800001,6.44520389,25.37612253,-17.9268183,,,
imu,277.449943,3.414854335200001,-9.157121215200002,3.2431844816,6.37043479,21.88440556,-16.59592832,,,
imu,277.458401,3.4668936288,-9.187627008000002,3.2114823832,6.13117367,17.94407399,-15.2351307,,,
imu,277.46686,3.5087643248,-9.152934145600002,3.175593215200001,5.99658929,13.84672731,-14.12107111,,,
imu,277.475318,3.558411007200001,-9.058426003200001,3.0978333512,5.69003598,9.48768878,-12.90981169,,,
imu,277.483777,3.6959861512,-9.031509127200001,3.0661312528,5.66012834,5.24828081,-11.39947587,,,
imu,277.492235,3.703762137600001,-9.070987212,3.041606988,5.80218963,0.6873657099999999,-9.88166314,,,
imu,277.500697,3.536877506400001,-9.085941032000001,2.9195838168,6.1536044,-4.12028742,-8.55825007,,,
imu,277.50916,3.3873393064,-9.114054213600001,2.877114968,6.69941883,-8.33726466,-7.189975539999999,,,
imu,277.517622,3.337692624000001,-9.195402994400002,2.8986484688,6.9012954,-12.29255005,-5.13382529,,,
imu,277.526084,3.361618736,-9.2755554696,2.889078024,7.19289489,-16.03100505,-2.98047521,,,
imu,277.534546,3.4405749056,-9.370661764800001,2.877713120800001,7.5742173,-19.9563828,-1.26078591,,,
imu,277.543009,3.6020761616,-9.4203084472,2.859170384,7.888247519999999,-24.06120639,0.1448731699999999,,,
imu,277.551471,3.8538984904,-9.411934308000001,2.8466091752,8.0228319,-28.88381334,1.31874804,,,
imu,277.559933,4.2480811856,-9.414326919200002,2.805934784800001,8.149939369999998,-34.19241944,2.35803853,,,
imu,277.568395,4.621328532800001,-9.447823476,2.7688493112,8.68079998,-40.63751586,3.44966739,,,
imu,277.576858,4.918012321600001,-9.499264616800001,2.7401379768,8.890153459999999,-48.27144097,4.376804229999999,,,
imu,277.58532,5.182395859200001,-9.505844297600001,2.7054451144,8.807907449999998,-56.91474893,5.513294549999999,,,
imu,277.593782,5.381580741600001,-9.477132963200003,2.657592890400001,8.37424667,-66.55248592,6.941384360000001,,,
imu,277.602245,5.580765624000001,-9.396980488,2.6115351248,8.149939369999998,-77.02763682999999,8.19750524,,,
imu,277.610707,5.703985100800001,-9.28632222,2.5822256376,8.35181594,-88.19066346,9.26670337,,,
imu,277.619169,5.747052102400001,-9.191215924800002,2.518223288000001,9.27147587,-100.27335002,10.28356313,,,
imu,277.627631,5.729107518400001,-9.100894852000001,2.4362763544,10.98368826,-112.76726663,11.28546907,,,
imu,276.265688,,,,,,,-93.580406,172.7501604,95.58849439999999
imu,276.367251,,,,,,,-95.7654948,173.946466,98.15200639999999
imu,276.468874,,,,,,,-95.472522,174.1539884,94.5386752
imu,276.570406,,,,,,,-95.13072040000002,174.5324116,91.29156
imu,276.671969,,,,,,,-94.74009000000001,175.1549788,89.521516
imu,276.773501,,,,,,,-93.8001356,175.4235372,88.422868
imu,276.875063,,,,,,,-93.763514,175.7043028,88.483904
imu,276.978335,,,,,,,-93.94662200000002,175.3136724,86.530752
imu,277.636094,5.726116754400001,-9.049453711200002,2.3471515872,13.00245396,-125.4555829,12.75094343,,,
imu,277.644556,5.671684849600001,-9.0847447264,2.266999112000001,15.11841949,-138.64485214,14.93420115,,,
imu,277.653018,5.482070412000001,-9.180449174400001,2.1683039,17.36149249,-152.21544379,17.53616583,,,
imu,277.66148,5.184190317600001,-9.2432552184,2.0181675472,19.29801218,-165.65145106,20.92320606,,,
imu,277.669943,4.863580416800001,-9.223516176,1.8417124712,21.02517839,-178.51173626,25.29719841,,,
imu,277.678405,4.5322037656,-9.173869493600002,1.6634629368,22.43831438,-190.38506934,30.41888176,,,
imu,277.686867,4.214584628800001,-9.160710132,1.5330656264,23.40283577,-201.31631176,35.49570365,,,
imu,277.69533,3.819205628,-9.233086620800002,1.45052054,23.55985088,-210.90171038,40.28840296,,,
imu,277.70383,3.4016949736,-9.3664746952,1.3416567304,23.55985088,-219.01415773,44.93904098,,,
imu,277.71233,3.0667294056,-9.464571754400001,1.2543264216,23.45517414,-225.25737758,50.27755472,,,
imu,277.720831,2.727576768,-9.5237888816,1.1460607648,23.31311285,-230.34167638,55.2721306,,,
imu,277.729331,2.4213225344,-9.519003659200001,1.0754787344,23.23834375,-234.25957722,59.27227745,,,
imu,277.737832,2.081571744,-9.596763523200002,1.0515526224,23.53742015,-236.79424971,62.71165604999999,,,
imu,277.746332,1.7597655376,-9.540537160000001,0.9385017432000002,24.0234193,-238.14009351,65.85195825,,,
imu,277.754832,1.459492832,-9.4669643656,0.8912476720000001,24.85335631,-238.73824631,68.79038388,,,
imu,277.763333,1.1861370024,-9.4454308648,0.8906495192000001,25.75058551,-238.70833867,71.67647113999999,,,
imu,277.771833,0.8906495192000001,-9.4873015608,0.9552500216000002,26.65529162,-238.27467789,74.33077419,,,
imu,277.780334,0.6537810104000001,-9.686486443200002,1.145462612,27.24596751,-237.2353874,76.06541730999999,,,
imu,277.788834,0.4342589328000001,-9.8719138112,1.3392641192,27.19362914,-235.40354445,76.97760032999999,,,
imu,277.797335,0.2386629672,-9.9430939944,1.4690632768,26.79735291,-232.23333461,76.94769269,,,
imu,277.805835,0.08015247520000002,-9.956253356,1.594077212,25.84030843,-228.09860338,76.18504786999999,,,
imu,277.814335,-0.04366515440000001,-9.947281064000002,1.7639526072,24.93560232,-223.54516519,74.89154244,,,
imu,277.822836,-0.1758569232,-9.953860744800002,1.9224630992,24.12809604,-218.79732734,73.33634516,,,
imu,277.831336,-0.2972819416,-10.0633227072,2.132414732,23.50751251,-213.99715112,71.35496400999999,,,
imu,277.839837,-0.4432312248,-10.2864337016,2.4147428536,22.55046803,-209.06239052,68.53616894,,,
imu,277.848337,-0.6585662328000002,-10.345052676,2.5547106088,21.45136226,-204.00052245,64.90239068,,,
imu,277.856837,-0.8744993936000002,-10.1303158208,2.566673664800001,19.8363497,-198.44517832,60.22184502,,,
imu,277.865338,-1.0593286088,-9.928738327200001,2.673743016,18.27367551,-191.94774353,55.39176116,,,
imu,277.873838,-1.1759684048,-9.780396432800002,2.8047384792,16.11284852,-184.39606443,50.76355387,,,
imu,277.882339,-1.25612088,-9.551303910400001,2.931546872800001,14.1538981,-176.33595545,46.18768495,,,
imu,277.890839,-1.2656913248,-9.3479319584,3.038616224000001,12.77814666,-167.78237041,42.3370763,,,
imu,277.89934,-1.2698783944,-9.174467646400002,3.1199650048,11.94820965,-159.41570812,39.37621994,,,
imu,277.908121,-1.3530216336,-9.021340529600002,3.2204546752,11.71642544,-151.30326077,37.21539295,,,
imu,277.916902,-1.4672688184,-8.969301236000002,3.352646444,11.88091746,-142.99641376,35.54056511,,,
imu,277.925683,-1.5599825024,-8.9956199592,3.4985957272,12.06784021,-134.04655249,34.45641316,,,
imu,277.934464,-1.5677584888,-9.054837086400001,3.6200207456,12.21737841,-124.5583537,33.41712267,,,
imu,277.943245,-1.4911949304,-9.056033392000002,3.7581940424,12.07531712,-115.10006255,31.95912522,,,
imu,277.952026,-1.4271925808,-9.0853428792,3.871244921600001,12.03045566,-106.00066308,29.82072896,,,
imu,277.960807,-1.2806451448,-9.076968740000002,3.941826952000001,12.08279403,-97.73120062,26.77762659,,,
imu,277.969588,-1.1448644592,-9.013564543200001,3.9920717872,12.0603633,-90.57579774999999,23.38310945,,,
imu,277.978369,-1.0282246632,-8.940589901600001,4.041718469600001,12.32953206,-84.60922357,19.56988535,,,
imu,277.987151,-0.9295294512000001,-8.937000984800001,4.0608593592,12.69590065,-79.37538656999999,15.76413816,,,
imu,277.995932,-0.8093007384,-8.870007871200002,4.0656445816,13.18937671,-74.53034889,12.6537436,,,
imu,278.004713,-0.7482891528000001,-8.8143796608,4.085383624,13.94454462,-69.99186452,10.59011644,,,
imu,278.013494,-0.6675385248000001,-8.785668326400002,4.078803943200001,14.93149674,-65.58796453,9.62559505,,,
imu,278.022275,-0.6358364264000002,-8.7982295352,4.078803943200001,16.21004835,-61.61024841,9.25174955,,,
imu,278.031056,-0.6172936896000001,-8.9884421256,4.163741640800001,17.08484682,-57.73720903,8.75827349,,,
imu,278.039837,-0.5837971328000001,-9.024331293600001,4.1607508768,17.63066125,-54.06604622,8.27975125,,,
imu,278.048618,-0.5221873944000001,-9.003395945600001,4.1254598616,18.05684512,-50.93322093,7.47224497,,,
imu,278.057399,-0.5287670752,-9.018349765600002,4.148189668000001,18.52041354,-48.15181041,6.238554820000001,,,
imu,278.06618,-0.5347486032000001,-9.157121215200002,4.186471447200001,18.76715157,-45.51246118,5.06467995,,,
imu,278.074962,-0.5335522976000001,-9.224712481600001,4.161947182400001,18.36339843,-43.18714217,3.44966739,,,
imu,278.083743,-0.5820026744000001,-9.24146076,4.157161960000001,18.09422967,-40.82443861,2.0365314,,,
imu,278.092524,-0.5975546472000001,-9.198393758400002,4.134432153600001,17.73533799,-38.19256629,0.9374256299999999,,,
imu,278.101305,-0.6657440664000001,-9.184038091200001,4.141609987200001,17.18952356,-35.29900212,0.2345960900000001,,,
imu,278.109787,-0.7183815128000002,-9.262994260800001,4.130245084,16.89792407,-32.2185152,-0.2289723299999999,,,
imu,278.11827,-0.8009265992000001,-9.3204169296,4.139217376,16.2474329,-29.05578227,-0.7224483899999998,,,
imu,278.126753,-0.8667234072000001,-9.346137500000001,4.151180432,15.53712645,-25.57901912,-1.30564737,,,
imu,278.135235,-0.9373054376000002,-9.377839598400001,4.166134252000001,14.48288214,-21.8256103,-2.05333837,,,
imu,278.143718,-0.9929336480000002,-9.402962016000002,4.139217376,13.44359165,-17.92266328,-2.65149117,,,
imu,278.152201,-1.0503563168,-9.419112141600001,4.1057208192,12.29962442,-13.61596312,-3.31693616,,,
imu,278.160683,-1.073684276,-9.512423978400001,4.056672289600001,11.28276466,-8.98027892,-4.08705789,,,
imu,278.169166,-1.1011993048,-9.640428677600001,4.030353566400001,10.06402833,-4.28477944,-5.18616366,,,
imu,278.177648,-1.0611230672,-9.6733270816,3.995660704,8.92753801,0.4481045899999998,-6.098346680000001,,,
imu,278.186131,-0.9773816752000002,-9.709814402400001,3.969341980800001,7.23027944,4.92677368,-7.34699065,,,
imu,278.194614,-0.8804809216,-9.624278552000002,3.9184989928,5.38348267,9.098889459999999,-8.55825007,,,
imu,278.203096,-0.7847764736,-9.595567217600001,3.897563644800001,3.76847011,12.83734446,-9.56763292,,,
imu,278.211579,-0.6771089696000001,-9.575828175200002,3.8772264496,2.1908421,16.12718486,-10.24055482,,,
imu,278.220061,-0.6005454112,-9.583604161600002,3.8933765752,0.59078336,18.85625701,-10.72655397,,,
imu,278.228544,-0.5371412144000001,-9.6117173432,3.912517464800001,-0.81487572,21.35354495,-11.30975295,,,
imu,278.237027,-0.4755314760000001,-9.561472508000001,3.904143325600001,-2.51213429,23.41717211,-11.9452903,,,
imu,278.245509,-0.391790084,-9.471151435200001,3.8933765752,-4.09723921,25.00975394,-12.33408962,,,
imu,278.253992,-0.3116376088,-9.4203084472,3.901750714400001,-5.48794447,26.1761519,-12.58082765,,,
imu,278.262475,-0.2536167872,-9.422701058400001,3.929265743200001,-6.594527149999999,27.05842728,-12.97710388,,,
imu,278.270957,-0.1710717008,-9.426289975200001,3.951397396800001,-7.873078759999999,27.5219957,-13.32851865,,,
imu,278.27944,-0.0693857248,-9.401167557600001,3.969940133600001,-8.8002156,27.72387227,-13.23879573,,,
imu,278.287922,0.007775986400000001,-9.321613235200001,3.980706884,-9.61519879,27.5219957,-12.93971933,,,
imu,278.296405,0.03588916800000001,-9.288714831200002,4.0022403848,-10.32550524,27.02104273,-12.72288894,,,
imu,278.304888,0.0783580168,-9.237273690400002,4.029157260800001,-10.72925838,26.39298229,-12.07239777,,,
imu,278.313345,0.1184342544,-9.187028855200001,4.0560741368,-11.09562697,25.73501421,-10.98824582,,,
imu,278.321907,0.1668846312,-9.110465296800001,4.082991012800001,-11.54424157,25.00227703,-9.82184786,,,
imu,278.330364,0.2207183832,-9.085941032000001,4.1254598616,-11.43956483,24.20224766,-8.64797299,,,
imu,278.338822,0.2769447464000001,-9.065005684,4.130245084,-11.36479573,23.46203357,-7.39932902,,,
imu,278.347279,0.3427415544,-9.040481419200002,4.161947182400001,-11.31245736,22.60966583,-6.135731229999999,,,
imu,278.355736,0.3905937784,-9.028518363200002,4.199630808800001,-11.05824242,21.39840641,-5.07401001,,,
imu,278.364193,0.4318663216,-8.990834736800002,4.221164309600001,-10.76664293,20.01517806,-4.23659609,,,
imu,278.37265,0.4659610312,-8.937000984800001,4.254062713600001,-10.52738181,18.70671881,-3.56367419,,,
imu,278.381107,0.4928779072000001,-8.9328139152,4.270810992,-10.13858249,17.30853664,-2.8234601,,,
imu,278.389565,0.4958686712000001,-8.978871680800001,4.2791851312,-9.86193682,15.98512357,-2.1505382,,,
imu,278.398022,0.5180003248000001,-8.9387954432,4.278586978400001,-9.63762952,14.6617105,-1.65706214,,,
imu,278.406479,0.5257763112000001,-8.931019456800001,4.2839703536,-9.46566059,13.45045108,-1.33555501,,,
imu,278.414936,0.499457588,-8.9627215552,4.292344492800001,-9.04695363,12.21676093,-1.0290017,,,
imu,278.423393,0.4970649768000001,-8.9627215552,4.309690924000001,-8.650677400000001,11.16999353,-0.9841402399999999,,,
imu,278.431851,0.4755314760000001,-8.941786207200002,4.316270604800001,-8.299262630000001,10.26528742,-1.00657097,,,
imu,278.440308,0.4575868920000001,-8.909485956000001,4.349767161600001,-7.731017469999999,9.40544277,-1.14115535,,,
imu,278.448765,0.4324644744,-8.9112804144,4.339598564,-7.05809557,8.83719761,-1.26078591,,,
imu,277.07831,,,,,,,-93.95882920000001,174.373718,85.8105272
imu,277.179934,,,,,,,-90.1868044,174.4835828,80.9032328
imu,277.281313,,,,,,,-86.6955452,176.3634916,77.59508159999999
imu,277.382845,,,,,,,-78.748658,176.9860588,72.919724
imu,277.484469,,,,,,,-79.3712252,178.7561028,75.86165919999999
imu,277.586031,,,,,,,-79.5909548,179.1467332,74.9705336
imu,277.687594,,,,,,,-82.4352324,179.2199764,76.61850559999999
imu,277.789126,,,,,,,-89.5886516,177.7184908,80.793368
imu,278.457222,0.4228940296000001,-8.894532136,4.350963467200001,-6.6319117,8.47082902,-1.23835518,,,
imu,278.465679,0.424688488,-8.8981210528,4.3521597728,-6.101051089999999,7.999783689999999,-1.27573973,,,
imu,278.474136,0.4414367664,-8.878382010400001,4.3401967168,-5.61505194,7.64089201,-1.48509321,,,
imu,278.482594,0.4486146000000001,-8.8670171072,4.3449819392,-5.06923751,7.32686179,-1.7019236,,,
imu,278.491051,0.46356842,-8.844885453600002,4.352757925600001,-4.299115779999999,7.00535466,-1.84398489,,,
imu,278.499508,0.4647647256,-8.853857745600001,4.341393022400001,-3.58880933,6.64646298,-2.001,,,
imu,278.507965,0.4713444064,-8.847876217600001,4.318663216,-2.90093361,6.31000203,-2.26269185,,,
imu,278.516434,0.4976631296000001,-8.846679912,4.319859521600001,-2.21305789,6.10812546,-2.28512258,,,
imu,278.524902,0.505439116,-8.868213412800001,4.349169008800001,-1.60742818,6.01840254,-2.3748455,,,
imu,278.533371,0.5030465048,-8.903504428000002,4.358141300800001,-1.10647521,5.79409524,-2.50195297,,,
imu,278.54184,0.5084298800000001,-8.9112804144,4.358141300800001,-0.73262971,5.50249575,-2.74121409,,,
imu,278.550308,0.5066354216000001,-8.9531511104,4.391039704800001,-0.56066078,5.18098862,-3.15244414,,,
imu,278.558777,0.5221873944000001,-8.993227348000001,4.406591677600001,-0.50832241,4.92677368,-3.45899745,,,
imu,278.567246,0.4922797544,-8.989638431200001,4.406591677600001,-0.51579932,4.500589809999999,-3.8702275,,,
imu,278.575714,0.4641665728000001,-9.006386709600001,4.4089842888,-0.52327623,4.149175039999999,-4.34874974,,,
imu,278.584183,0.451605364,-9.017153460000001,4.405395372000001,-0.55318387,3.8949601,-4.73007215,,,
imu,278.592651,0.4312681688,-9.048855558400001,4.4335085536,-0.66533752,3.76037572,-5.02914855,,,
imu,278.60112,0.4169125016,-8.990834736800002,4.422143650400001,-0.84478336,3.69308353,-5.20111748,,,
imu,278.609589,0.3864067088000001,-8.9609270968,4.4251344144,-0.81487572,3.5211146,-5.283363489999999,,,
imu,278.618057,0.3959771536000001,-8.911878567200002,4.416760275200001,-0.63542988,3.63326825,-5.350655679999999,,,
imu,278.626526,0.4109309736,-8.8903450664,4.4095824416,-0.29149202,3.5958837,-5.20859439,,,
imu,278.634995,0.3834159448,-8.889148760800001,4.3886470936,-0.04475399000000001,3.58840679,-5.31327113,,,
imu,278.643463,0.3792288752000001,-8.8837653856,4.3952267744,0.14216876,3.58840679,-5.260932759999999,,,
imu,278.651932,0.3684621248000001,-8.906495192000001,4.416760275200001,0.53096808,3.6706528,-5.11139456,,,
imu,278.6604,0.3744436528,-8.919654553600001,4.4299196368,0.56835263,3.64822207,-4.999240909999999,,,
imu,278.668869,0.367863972,-8.893933983200002,4.419152886400001,0.73284465,3.55102224,-5.021671639999999,,,
imu,278.677338,0.3750418056000001,-8.893933983200002,4.4251344144,1.00949032,3.47625314,-4.991764,,,
imu,278.685806,0.3582935272000001,-8.9226453176,4.4370974704,1.04687487,3.33419185,-5.03662546,,,
imu,278.694275,0.3547046104000001,-8.936402832,4.4335085536,0.97210577,3.17717674,-5.18616366,,,
imu,278.702744,0.331974804,-8.9178600952,4.4676032632,1.10669015,3.13231528,-5.13382529,,,
imu,278.711212,0.3092449976000001,-8.924439776000002,4.4927256808,1.12164397,2.86314652,-5.0665331,,,
imu,278.71968,0.2990764,-8.9256360816,4.480762624800001,1.15902852,2.61640849,-5.01419473,,,
imu,278.728147,0.2667761488000001,-8.941188054400001,4.465808804800001,1.18893616,2.52668557,-4.94690254,,,
imu,278.736614,0.2643835376,-8.959132638400002,4.5022961256,1.15902852,2.5491163,-4.63287232,,,
imu,278.745082,0.2225128416,-8.985451361600001,4.522035168,1.15155161,2.42948574,-4.37865738,,,
imu,278.753549,0.2117460912,-8.9675067776,4.495118292000001,1.10669015,2.53416248,-4.0197657,,,
imu,278.762016,0.1949978128,-8.947767735200001,4.486146000000001,1.09921324,2.63136231,-3.67582784,,,
imu,278.770484,0.1752587704,-8.9471695824,4.492127528000001,0.80761375,2.78090051,-3.46647436,,,
imu,278.778951,0.1656883256,-8.951954804800001,4.520838862400001,0.8823828499999999,3.02016163,-3.15244414,,,
imu,278.787418,0.1561178808,-9.00219964,4.538185293600001,0.9571519499999999,3.39400713,-2.85336774,,,
imu,278.795886,0.1459492832,-9.019546071200002,4.54596128,0.8375213899999999,3.67812971,-2.62158353,,,
imu,278.804353,0.1507345056,-9.023733140800001,4.552540960800001,0.73284465,3.81271409,-2.34493786,,,
imu,278.812821,0.1722680064,-9.035696196800002,4.5770652256,0.7253677399999999,4.246374869999999,-2.09072292,,,
imu,278.821288,0.1758569232,-9.053640780800002,4.578859684,0.56087572,4.58283582,-1.94118472,,,
imu,278.829755,0.2021756464,-9.0925207128,4.5836449064,0.34404533,5.001542779999999,-1.64958523,,,
imu,278.838223,0.2189239248,-9.0991003936,4.5824486008,0.12721494,5.38286519,-1.29817046,,,
imu,278.84669,0.236270356,-9.1122597552,4.587233823200001,-0.30644584,5.569787939999999,-1.253309,,,
imu,278.855157,0.2446444952,-9.0715853648,4.565700322400001,-0.6503837,5.82400288,-1.20097063,,,
imu,278.863625,0.2518223288000001,-9.069790906400002,4.5776633784,-0.73262971,6.09317164,-1.50004703,,,
imu,278.872092,0.2434481896,-9.0638093784,4.5561298776,-0.83730645,6.205325289999999,-1.75426197,,,
imu,278.880559,0.2446444952,-9.0297146688,4.542970516,-0.92702937,6.31000203,-1.97109236,,,
imu,278.889027,0.23926112,-9.041677724800001,4.528016696000001,-1.2485365,6.59412461,-2.34493786,,,
imu,278.897494,0.2494297176,-9.053640780800002,4.521437015200001,-1.51770526,6.85581646,-2.65896808,,,
imu,278.905961,0.251224176,-9.0398832664,4.515455487200001,-1.97379677,7.06516994,-2.98047521,,,
imu,278.914429,0.2584020096,-9.053042628,4.54596128,-2.5196112,7.40163089,-3.18235178,,,
imu,278.923239,0.23926112,-9.048257405600001,4.5633077112,-2.76634923,7.506307629999999,-3.44404363,,,
imu,278.932049,0.2458408008,-9.069192753600001,4.5645040168,-3.31964057,7.59603055,-3.59358183,,,
imu,278.94086,0.248233412,-9.056631544800002,4.59082274,-3.97013174,7.7829533,-3.83284295,,,
imu,278.94967,0.2595983152,-9.047061100000002,4.5896264344,-4.635576729999999,8.074552789999998,-4.10948862,,,
imu,278.95848,0.281131816,-9.0362943496,4.581252295200001,-5.21877571,8.10446043,-4.27398064,,,
imu,278.967291,0.3098431504,-9.00219964,4.5740744616,-5.75711323,8.418490649999999,-4.23659609,,,
imu,278.976101,0.3265914288,-8.9836569032,4.583046753600001,-6.17582019,8.396059919999999,-4.124442439999999,,,
imu,278.984911,0.3289840400000001,-8.997414417600002,4.603982101600001,-6.37021985,8.26147554,-3.91508896,,,
imu,278.993721,0.3600879856,-8.952552957600002,4.5896264344,-6.75154226,8.08950661,-3.96742733,,,
imu,279.002532,0.3959771536000001,-8.910084108800001,4.595607962400001,-6.98332647,8.029691329999999,-4.04219643,,,
imu,279.011342,0.3953790008,-8.9298231512,4.6243192968,-7.29735669,7.87267622,-4.16182699,,,
imu,279.020152,0.4169125016,-8.9429825128,4.6452546448,-7.20015686,7.723138019999999,-3.99733497,,,
imu,279.028963,0.4252866408000001,-8.8293334808,4.623721144000001,-7.349695059999999,7.51378454,-3.98238115,,,
imu,279.037773,0.4282774048000001,-8.840100231200001,4.622524838400001,-7.17772613,7.31190797,-4.10948862,,,
imu,279.046583,0.4480164472000001,-8.846679912,4.6135525464,-6.87117282,7.08760067,-4.169303899999999,,,
imu,279.055393,0.46356842,-8.817370424800002,4.623122991200001,-6.75154226,6.83338573,-4.28893446,,,
imu,279.064204,0.4779240872000001,-8.758751450400002,4.650638020000001,-6.691726979999999,6.71375517,-4.15435008,,,
imu,279.073014,0.4970649768000001,-8.702525087200002,4.663199228800001,-6.50480423,6.48197096,-4.012288789999999,,,
imu,279.081824,0.4851019208000001,-8.709702920800002,4.657815853600001,-5.958989799999999,6.01840254,-4.102011709999999,,,
imu,279.090635,0.4827093096,-8.758751450400002,4.688919799200001,-5.555236659999999,5.66698777,-4.386134289999999,,,
imu,279.099445,0.481513004,-8.7760978816,4.728996036800001,-5.40569846,5.19594244,-4.51324176,,,
imu,279.108255,0.4575868920000001,-8.7904535488,4.728996036800001,-5.07671442,4.717420199999999,-4.51324176,,,
imu,279.117066,0.4731388648000001,-8.7832757152,4.736173870400001,-4.79259184,4.48563599,-4.37118047,,,
imu,279.125546,0.454596128,-8.730040116000001,4.740959092800001,-4.47108471,4.388436159999999,-4.18425772,,,
imu,279.134026,0.4767277816000001,-8.657065474400001,4.708060688800001,-4.08228539,4.2688056,-3.81788913,,,
imu,279.142506,0.5072335744,-8.6211763064,4.712845911200001,-3.67853225,4.06692903,-3.43656672,,,
imu,279.150986,0.5281689224000001,-8.70312324,4.745744315200001,-2.96074889,3.93234465,-3.08515195,,,
imu,279.159466,0.5293652280000001,-8.7485828528,4.770866732800001,-2.48222665,3.75289881,-2.91318302,,,
imu,279.167946,0.5461135064000001,-8.721067824,4.757109218400001,-1.98875059,3.32671494,-2.8982292,,,
imu,279.176426,0.5329541448,-8.70312324,4.764885204800001,-1.44293616,2.97530017,-3.08515195,,,
imu,279.184906,0.5066354216000001,-8.713291837600002,4.7750538024,-1.16629049,2.66874686,-3.54124346,,,
imu,279.193386,0.4767277816000001,-8.700132476,4.7852224,-0.88964482,2.40705501,-3.69825857,,,
imu,279.201866,0.4486146000000001,-8.7043195456,4.7816334832,-0.70272207,2.27994754,-3.67582784,,,
imu,279.210346,0.4372496968000001,-8.713889990400002,4.795989150400001,-0.53823005,2.23508608,-3.71321239,,,
imu,279.218826,0.4079402096,-8.781481256800001,4.834270929600001,-0.28401511,2.11545552,-3.77302767,,,
imu,279.227306,0.4031549872,-8.775499728800002,4.828289401600001,-0.08961545,2.30985518,-3.83284295,,,
imu,279.235787,0.3804251808,-8.788659090400001,4.834270929600001,0.10478421,2.48930102,-3.76555076,,,
imu,279.244267,0.3977716120000001,-8.753966228000001,4.837859846400001,0.08235347999999998,2.71360832,-3.98238115,,,
imu,279.252747,0.3792288752000001,-8.747984700000002,4.8252986376,0.13469185,2.93791562,-4.124442439999999,,,
imu,279.261227,0.3876030144000001,-8.677402669600001,4.795989150400001,0.36647606,3.08745382,-4.16182699,,,
imu,279.269707,0.3882011672000001,-8.699534323200002,4.816924498400001,0.67302937,3.19213056,-4.28893446,,,
imu,277.890767,,,,,,,-94.80112600000001,176.0461044,89.9121464
imu,277.992329,,,,,,,-95.4603148,174.3615108,99.43376239999999
imu,278.093892,,,,,,,-94.6302252,173.0187188,103.8405616
imu,278.195393,,,,,,,-93.4461268,171.9566924,106.9411904
imu,278.297108,,,,,,,-90.85820040000002,170.5650716,105.7448848
imu,278.398549,,,,,,,-93.92220760000001,171.932278,106.3796592
imu,278.500142,,,,,,,-91.8958124,171.6393052,102.8639856
imu,278.601826,,,,,,,-94.21518040000001,173.3238988,104.6462368
imu,279.278187,0.3834159448,-8.788060937600001,4.867169333600001,0.9870595899999999,3.54354533,-4.40108811,,,
imu,279.286667,0.3780325696000001,-8.803612910400002,4.8641785696,1.0693056,3.63326825,-4.408565019999999,,,
imu,279.295147,0.3606861384,-8.7701163536,4.871954556,1.1440747,3.80523718,-4.53567249,,,
imu,279.303627,0.3738455000000001,-8.7766960344,4.8701600976,1.4431511,3.797760269999999,-4.51324176,,,
imu,279.312107,0.3923882368,-8.780883104,4.854009972000001,1.77961205,3.91739083,-4.53567249,,,
imu,279.320587,0.3989679176000001,-8.777892340000001,4.829485707200001,1.98896553,3.95477538,-4.56558013,,,
imu,279.329113,0.3995660704000001,-8.753368075200001,4.8372616936,2.23570356,3.91739083,-4.5431494,,,
imu,279.337639,0.3899956256000001,-8.766527436800002,4.8247004848,2.59459524,3.797760269999999,-4.55810322,,,
imu,279.346165,0.3923882368,-8.762340367200002,4.806157748,2.74413344,3.61831443,-4.715118329999999,,,
imu,279.354691,0.3882011672000001,-8.7970332296,4.7906057752,2.84881018,3.55849915,-4.602964679999999,,,
imu,279.363216,0.3786307224000001,-8.831726092,4.799578067200001,2.96844074,3.52859151,-4.40108811,,,
imu,279.371742,0.3672658192000001,-8.834716856000002,4.821111568000001,2.81890254,3.31923803,-4.16182699,,,
imu,279.380268,0.3511156936,-8.870606024,4.826494943200001,2.53477996,3.10988455,-4.0197657,,,
imu,279.388794,0.3361618736,-8.917261942400001,4.827691248800001,2.18336519,3.15474601,-3.82536604,,,
imu,279.39732,0.320011748,-8.910682261600002,4.816924498400001,1.86185806,3.10240764,-3.59358183,,,
imu,279.405846,0.3182172896000001,-8.9112804144,4.812737428800001,1.52539711,3.15474601,-3.36179762,,,
imu,279.414437,0.3176191368,-8.914869331200002,4.8043632896,1.2188438,3.34166876,-3.20478251,,,
imu,279.422963,0.3182172896000001,-8.9298231512,4.7906057752,0.83004448,3.20708438,-3.36179762,,,
imu,279.431489,0.3271895816000001,-8.908289650400002,4.7750538024,0.77770611,3.24446893,-3.33188998,,,
imu,279.440015,0.3397507904000001,-8.870007871200002,4.788213164,0.51601426,3.10240764,-3.30945925,,,
imu,279.44854,0.3505175408000001,-8.875391246400001,4.791203928000001,0.18703022,3.05006927,-3.44404363,,,
imu,279.457066,0.3744436528,-8.8598392736,4.7750538024,0.04496892999999999,2.85566961,-3.32441307,,,
imu,279.465592,0.367863972,-8.8179685776,4.770268580000001,-0.127,2.58650085,-3.45899745,,,
imu,279.474118,0.3624805968,-8.792846160000002,4.7714648856,0.01506129,2.25751681,-3.45152054,,,
imu,279.482644,0.3654713608,-8.757555144800001,4.776250108,-0.11952309,1.99582496,-3.39918217,,,
imu,279.49117,0.35889168,-8.757555144800001,4.8007743728,-0.13447691,1.76404075,-3.21225942,,,
imu,279.499695,0.3433397072,-8.758751450400002,4.807354053600001,-0.02232326000000001,1.577118,-3.05524431,,,
imu,279.508221,0.3283858872000001,-8.730040116000001,4.8007743728,0.26927623,1.37524143,-2.83093701,,,
imu,279.516747,0.3642750552,-8.737816102400002,4.812139276000001,0.73284465,1.18831868,-2.68887572,,,
imu,279.525273,0.3846122504,-8.7174789072,4.778044566400001,1.26370526,1.1285034,-2.5243837,,,
imu,279.533679,0.4348570856000001,-8.6457005712,4.737968328800001,1.82447351,0.9041961000000001,-2.59167589,,,
imu,279.542086,0.4528016696000001,-8.629550445600001,4.745744315200001,2.5646876,0.7995193599999997,-2.12810747,,,
imu,279.550492,0.5227855472,-8.705515851200001,4.784624247200001,3.17031731,0.3060432999999998,-1.67949287,,,
imu,279.558898,0.5694414656000001,-8.725853046400001,4.765483357600001,3.64136264,-0.1575251200000003,-1.4028472,,,
imu,279.567305,0.6424161072,-8.747386547200001,4.791802080800001,4.11988488,-0.7855855599999999,-1.3280781,,,
imu,279.575711,0.6753145112000001,-8.713291837600002,4.7624925936,4.63579167,-1.59309184,-1.253309,,,
imu,279.584117,0.7464946944,-8.684580503200001,4.7056680776,5.26385211,-2.69219761,-1.04395552,,,
imu,279.592524,0.7524762224000001,-8.7557606864,4.730790495200001,5.89191255,-3.85859557,-0.7299252999999999,,,
imu,279.60093,0.7458965416000001,-8.722264129600001,4.7086588416,6.0040662,-5.144624090000001,-0.6551562,,,
imu,279.609336,0.8027210576,-8.667832224800001,4.703275466400001,6.37043479,-6.40074497,-0.4233719899999999,,,
imu,279.617743,0.8218619472,-8.650485793600001,4.6901161048,6.87138776,-7.67181967,-0.1317724999999998,,,
imu,279.626149,0.8547603512000002,-8.670224836000001,4.682340118400001,7.39477146,-9.1148633,0.1074886200000003,,,
imu,278.703389,,,,,,,-94.2884236,173.8488084,105.207768
imu,278.804829,,,,,,,-94.01986520000001,174.068538,104.902588
imu,278.906453,,,,,,,-94.190766,173.8976372,104.71948
imu,279.007893,,,,,,,-94.08090120000001,174.3370964,104.292228
imu,279.109486,,,,,,,-93.6048204,174.984078,102.7907424
imu,279.211049,,,,,,,-94.2029732,175.5700236,103.6574536
imu,279.312611,,,,,,,-91.57842520000001,174.8742132,102.094932
imu,279.414174,,,,,,,-93.5071628,175.0573212,103.864976
imu,279.51576,,,,,,,-91.55401080000001,174.6544836,101.3380856
imu,279.617201,,,,,,,-93.77572119999999,175.167186,103.6696608
