Type,Timestamp,Data Accelerometer X,Data Accelerometer Y,Data Accelerometer Z,Data Gyroscope X,Data Gyroscope Y,Data Gyroscope Z,Data Magnetometer X,Data Magnetometer Y,Data Magnetometer Z
imu,62.921893,-0.2757484408,-9.652989886400002,2.311860572000001,-2.34016536,0.7546578999999998,-3.26459779,,,
imu,62.930266,-0.2715613712,-9.633250844,2.3046827384,-2.19810407,0.70231953,-3.23469015,,,
imu,62.938639,-0.2907022608000001,-9.602146898400001,2.299897516,-2.12333497,0.7995193599999997,-3.25712088,,,
imu,62.947012,-0.28412258,-9.595567217600001,2.3345903784,-2.07847351,0.6125966099999998,-3.35432071,,,
imu,62.955473,-0.2829262744000001,-9.599156134400001,2.3465534344,-1.89155076,0.5453044199999999,-3.30945925,,,
imu,62.963934,-0.2889078024000001,-9.5985579816,2.3280106976,-1.52518217,0.58268897,-3.43656672,,,
imu,62.972395,-0.3026653168,-9.575230022400001,2.3435626704,-1.23358268,0.64250425,-3.60853565,,,
imu,62.980856,-0.3074505392,-9.572239258400002,2.3644980184,-1.30835178,0.6798887999999996,-3.69825857,,,
imu,62.989317,-0.3146283728000001,-9.554294674400001,2.3435626704,-1.0989983,0.8294269999999999,-3.53376655,,,
imu,62.997778,-0.3146283728000001,-9.5393408544,2.3501423512,-0.85973718,1.08364194,-3.26459779,,,
imu,63.006239,-0.3295821928000001,-9.533359326400001,2.3381792952,-0.59056842,1.23318014,-3.09262886,,,
imu,63.0147,-0.3271895816000001,-9.5148165896,2.3094679608,-0.26158438,1.55468727,-2.84589083,,,
imu,63.023161,-0.320011748,-9.513022131200001,2.280756626400001,0.18703022,1.92853277,-2.70382954,,,
imu,63.031622,-0.3182172896000001,-9.5148165896,2.2687935704,0.64312173,2.14536316,-2.71878336,,,
imu,63.040083,-0.3080486920000001,-9.523190728800001,2.2711861816,1.21136689,2.26499372,-2.71130645,,,
imu,63.048544,-0.2990764,-9.565061424800001,2.2855418488,1.69736604,2.49677793,-2.85336774,,,
imu,63.057005,-0.2835244272,-9.592576453600001,2.2915233768,2.12354991,2.66874686,-3.01038285,,,
imu,63.065466,-0.2667761488000001,-9.6260730104,2.2897289184,2.2656112,2.84071579,-3.13749032,,,
imu,63.073927,-0.251224176,-9.659569567200002,2.3190384056,2.22074974,2.8481927,-3.2720747,,,
imu,63.082388,-0.2296906752000001,-9.690075360000002,2.321431016800001,2.05625772,2.8481927,-3.17487487,,,
imu,63.090849,-0.215335008,-9.7056273328,2.3082716552,1.69736604,2.80333124,-3.09262886,,,
imu,63.09931,-0.2129423968,-9.710412555200001,2.30288828,1.42819728,2.5491163,-3.08515195,,,
imu,63.107771,-0.2039701048,-9.681103068,2.299897516,1.15902852,2.46687029,-3.02533667,,,
imu,63.116232,-0.2051664104,-9.661364025600001,2.290327071200001,1.03939796,2.22013226,-2.93561375,,,
imu,63.124693,-0.2135405496,-9.6505972752,2.2825510848,1.00949032,1.88367131,-2.98795212,,,
imu,63.133154,-0.2111479384,-9.632054538400002,2.263410195200001,0.94967504,1.77151766,-3.07767504,,,
imu,63.141615,-0.2135405496,-9.6051376624,2.2586249728,1.09173633,1.67431783,-3.01785976,,,
imu,63.150076,-0.212344244,-9.608128426400002,2.278962168,1.24875144,1.62197946,-3.06272122,,,
imu,63.15854,-0.2344758976,-9.6505972752,2.280756626400001,1.54782784,1.64441019,-3.00290594,,,
imu,63.167003,-0.245242648,-9.661962178400001,2.2658028064,1.54782784,1.6518871,-2.92813684,,,
imu,63.175467,-0.2458408008,-9.666149248000002,2.2681954176,1.30108981,1.48739508,-2.85336774,,,
imu,63.18393,-0.2524204816,-9.657775108800001,2.2598212784,1.12912088,1.54721036,-2.86084465,,,
imu,63.192394,-0.272159524,-9.644615747200001,2.2466619168,1.00201341,1.60702564,-2.98047521,,,
imu,63.200858,-0.2548130928,-9.635045302400002,2.25802682,0.94967504,1.83880985,-3.10758268,,,
imu,63.209321,-0.2530186344000001,-9.658373261600001,2.25802682,0.9571519499999999,1.8761944,-3.36179762,,,
imu,63.217785,-0.2494297176,-9.657775108800001,2.237091472,1.03939796,2.05564024,-3.65339711,,,
imu,63.226248,-0.2554112456,-9.6709344704,2.2628120424,0.8973366700000001,2.10797861,-3.92256587,,,
imu,63.234712,-0.2476352592,-9.711608860800002,2.2783640152,1.00201341,2.05564024,-3.78798149,,,
imu,63.243175,-0.2278962168,-9.730749750400001,2.264008348,1.10669015,2.13788625,-3.78798149,,,
imu,63.251639,-0.230288828,-9.702636568800001,2.2574286672,0.94967504,1.99582496,-4.11696553,,,
imu,63.260102,-0.2308869808,-9.669140012000002,2.286738154400001,0.67302937,1.98834805,-4.32631901,,,
imu,63.268566,-0.2380648144,-9.675719692800001,2.2831492376,0.49358353,1.69674856,-4.37865738,,,
imu,63.277029,-0.23926112,-9.6775141512,2.253839750400001,0.49358353,1.68927165,-4.3936112,,,
imu,63.285493,-0.248233412,-9.6709344704,2.2424748472,0.4711528,1.43505671,-4.29641137,,,
imu,63.293957,-0.2637853848,-9.644615747200001,2.2388859304,0.4711528,1.64441019,-4.034719519999999,,,
imu,63.30242,-0.2691687600000001,-9.612315496,2.222735804800001,0.7253677399999999,1.86124058,-3.57862801,,,
imu,63.310884,-0.2667761488000001,-9.5949690648,2.2143616656,1.12164397,2.0257326,-3.13749032,,,
imu,63.319347,-0.2673743016,-9.612913648800001,2.2215394992,1.48801256,2.13040934,-2.90570611,,,
imu,63.327811,-0.2667761488000001,-9.630260080000001,2.22811918,1.68241222,2.27247063,-2.748691,,,
imu,63.336274,-0.260196468,-9.648204664000001,2.2424748472,1.92167334,2.27247063,-2.64401426,,,
imu,63.344738,-0.2685706072,-9.6703363176,2.2526434448,1.98896553,2.36219355,-2.98047521,,,
imu,63.353201,-0.2619909264,-9.6745233872,2.2335025552,1.69736604,2.324809,-3.41413599,,,
imu,63.36167,-0.2685706072,-9.669140012000002,2.2442693056,1.48053565,2.45191647,-3.53376655,,,
imu,63.370139,-0.2542149400000001,-9.633848996800001,2.2257265688,1.08425942,2.60145467,-3.496382,,,
imu,63.378607,-0.236270356,-9.610521037600002,2.2239321104,0.7253677399999999,2.53416248,-3.59358183,,,
imu,63.387076,-0.2314851336,-9.592576453600001,2.2167542768,0.44872207,2.42948574,-3.65339711,,,
imu,63.395544,-0.2290925224000001,-9.593174606400002,2.2215394992,0.3216146,2.27994754,-3.59358183,,,
imu,63.404013,-0.2266999112,-9.596165370400001,2.2143616656,0.32909151,2.33228591,-3.60853565,,,
imu,63.412482,-0.2135405496,-9.596165370400001,2.2239321104,0.5459219,2.28742445,-3.4216129,,,
imu,63.42095,-0.20935348,-9.625474857600002,2.2466619168,0.46367589,2.1752708,-3.41413599,,,
imu,63.429419,-0.2177276192,-9.659569567200002,2.2448674584,0.57582954,2.01077878,-3.48890509,,,
imu,63.437888,-0.2165313136,-9.713403319200001,2.2466619168,0.6132140899999999,1.84628676,-3.45899745,,,
imu,63.446356,-0.2105497856,-9.725366375200002,2.2532415976,0.56835263,1.82385603,-3.48142818,,,
imu,63.454825,-0.2207183832,-9.723571916800001,2.2598212784,0.32909151,1.69674856,-3.38422835,,,
imu,63.463293,-0.2147368552,-9.714001472000001,2.255036056,0.08235347999999998,1.46496435,-3.5711511,,,
imu,63.471762,-0.2117460912,-9.703234721600001,2.2442693056,-0.08961545,1.34533379,-3.50385891,,,
imu,63.480231,-0.2147368552,-9.655980650400002,2.234100708,-0.2017691,1.44253362,-3.2720747,,,
imu,63.488699,-0.2111479384,-9.641026830400001,2.2616157368,-0.18681528,1.44253362,-3.18235178,,,
imu,63.497168,-0.2081571744,-9.645213900000002,2.2592231256,-0.0522309,1.30047233,-3.33936689,,,
imu,63.505637,-0.2195220776,-9.641624983200002,2.246063764000001,-0.0522309,1.01634975,-3.76555076,,,
imu,63.514105,-0.2237091472,-9.627867468800002,2.2556342088,-0.05970781,0.8967191899999998,-4.21416536,,,
imu,63.522574,-0.2374666616,-9.6326526912,2.2897289184,-0.13447691,0.7097964399999999,-4.35622665,,,
imu,63.531042,-0.2548130928,-9.667345553600002,2.3010938216,-0.0522309,0.5752120599999997,-4.318842099999999,,,
imu,63.539511,-0.2715613712,-9.676915998400002,2.290925224,-0.14195382,0.72475026,-4.079580979999999,,,
imu,63.54798,-0.28412258,-9.657775108800001,2.2795603208,-0.02232326000000001,0.9640113799999996,-3.61601256,,,
imu,63.556448,-0.290104108,-9.603343204000002,2.2652046536,0.01506129,1.26308778,-3.30198234,,,
imu,63.565295,-0.2787392048,-9.558481744000002,2.25802682,0.05244583999999999,1.39767216,-3.18235178,,,
imu,63.574141,-0.2595983152,-9.5501076048,2.2574286672,0.35152224,1.63693328,-3.01785976,,,
imu,63.582987,-0.2524204816,-9.545322382400002,2.2352970136,0.82256757,1.89862513,-2.95056757,,,
imu,63.591833,-0.23926112,-9.52558334,2.2484563752,1.26370526,1.98087114,-3.10758268,,,
imu,63.600679,-0.2177276192,-9.526181492800001,2.2687935704,1.60764312,2.05564024,-3.33188998,,,
imu,63.609525,-0.2045682576000001,-9.5800152448,2.2813547792,1.86933497,1.98087114,-3.71321239,,,
imu,63.618371,-0.2039701048,-9.6290637744,2.2783640152,1.99644244,1.97339423,-4.057150249999999,,,
imu,63.627217,-0.1938015072,-9.6912716656,2.2885326128,2.16093446,1.85376367,-4.13191935,,,
imu,63.636063,-0.2105497856,-9.7217774584,2.2855418488,1.90671952,1.79394839,-4.102011709999999,,,
imu,63.64491,-0.2087553272,-9.7265626808,2.281952932,1.64502767,1.60702564,-3.95247351,,,
imu,63.653756,-0.2243073,-9.7325442088,2.2652046536,1.23379762,1.577118,-3.86275059,,,
imu,63.662602,-0.2219146888,-9.717590388800001,2.261017584,1.05435178,1.68179474,-3.63096638,,,
imu,63.671448,-0.233279592,-9.6912716656,2.249652680800001,0.8674290299999999,1.63693328,-3.54872037,,,
imu,63.680373,-0.2284943696,-9.6799067624,2.2586249728,0.7104139199999999,1.46496435,-3.60105874,,,
imu,63.689219,-0.23926112,-9.681103068,2.2472600696,0.63564482,1.39019525,-3.60853565,,,
imu,63.698066,-0.2284943696,-9.6775141512,2.2448674584,0.43376825,1.46496435,-3.50385891,,,
imu,63.706912,-0.2380648144,-9.6709344704,2.2568305144,0.26179932,1.42010289,-3.55619728,,,
imu,63.715758,-0.245242648,-9.654784344800001,2.2628120424,0.05244583999999999,1.32290306,-3.7206893,,,
imu,63.724604,-0.2518223288000001,-9.6535880392,2.275971404,-0.05970781,1.3528107,-3.69825857,,,
imu,63.73345,-0.2494297176,-9.645213900000002,2.263410195200001,-0.14943073,1.43505671,-3.60853565,,,
imu,63.742296,-0.2542149400000001,-9.633250844,2.2723824872,-0.2017691,1.50982581,-3.86275059,,,
imu,63.751142,-0.2548130928,-9.652989886400002,2.275971404,-0.19429219,1.42010289,-4.06462716,,,
imu,63.759988,-0.2566075512,-9.6535880392,2.2765695568,-0.04475399000000001,1.36028761,-4.146873169999999,,,
imu,63.768518,-0.275150288,-9.638036066400002,2.2652046536,0.0001074699999999984,1.62945637,-4.08705789,,,
imu,63.777048,-0.2649816904,-9.618895176800002,2.2628120424,0.19450713,2.01825569,-3.71321239,,,
imu,63.785577,-0.242251884,-9.596165370400001,2.2628120424,0.49358353,2.08554788,-3.33936689,,,
imu,63.794107,-0.2207183832,-9.568052188800001,2.2526434448,0.57582954,2.01825569,-3.61601256,,,
imu,63.802637,-0.2057645632,-9.560874355200001,2.280756626400001,0.64312173,1.96591732,-3.86275059,,,
imu,63.811166,-0.1985867296,-9.599754287200001,2.3034864328,0.80761375,1.60702564,-4.146873169999999,,,
imu,63.819696,-0.2111479384,-9.659569567200002,2.2891307656,0.8524752099999999,1.34533379,-4.453426479999999,,,
imu,63.828226,-0.20935348,-9.654784344800001,2.2741769456,0.66555246,1.23318014,-4.70016451,,,
imu,63.836755,-0.2243073,-9.647606511200001,2.28793446,0.52349117,1.14345722,-4.58801086,,,
imu,63.845285,-0.2470371064,-9.606932120800002,2.2735787928,0.44124516,1.10607267,-4.318842099999999,,,
imu,63.853815,-0.2416537312,-9.578818939200001,2.2448674584,0.68050628,1.14345722,-3.74312003,,,
imu,63.862344,-0.233279592,-9.574631869600001,2.2233339576,0.97210577,1.28551851,-3.32441307,,,
imu,63.870874,-0.2386629672,-9.559678049600002,2.2257265688,1.25622835,1.30794924,-3.24964397,,,
imu,63.879404,-0.248233412,-9.567454036,2.2293154856,1.65998149,1.29299542,-3.22721324,,,
imu,63.887933,-0.2655798432,-9.593772759200002,2.232306249600001,2.02635008,1.28551851,-3.35432071,,,
imu,63.896463,-0.2679724544000001,-9.630260080000001,2.2382877776,2.15345755,1.12102649,-3.66087402,,,
imu,63.904993,-0.275150288,-9.651195428000001,2.2466619168,2.1908421,1.15841104,-3.93751969,,,
imu,63.913522,-0.2781410520000001,-9.673925234400002,2.2586249728,2.13102682,1.31542615,-4.08705789,,,
imu,63.922052,-0.2733558296,-9.689477207200001,2.2723824872,1.82447351,1.45748744,-4.057150249999999,,,
imu,63.930582,-0.2775428992,-9.7128051664,2.2747750984,1.57773548,1.62945637,-4.012288789999999,,,
imu,63.939111,-0.2649816904,-9.717590388800001,2.2765695568,1.34595127,1.77899457,-4.20668845,,,
imu,63.947641,-0.263187232,-9.709216249600003,2.2604194312,1.2188438,1.86124058,-4.124442439999999,,,
imu,63.956171,-0.2625890792,-9.676317845600002,2.2586249728,1.09173633,1.88367131,-4.13191935,,,
imu,63.9647,-0.2560093984,-9.6494009696,2.2646065008,1.10669015,1.81637912,-4.17678081,,,
imu,63.97308,-0.2440463424,-9.630260080000001,2.2628120424,0.94219813,1.74908693,-4.28893446,,,
imu,63.98146,-0.2458408008,-9.6284656216,2.2675972648,0.9197674,1.65936401,-4.37118047,,,
imu,63.989839,-0.2578038568000001,-9.635643455200002,2.25802682,1.07678251,1.60702564,-4.453426479999999,,,
imu,63.998219,-0.2619909264,-9.638634219200002,2.2717843344,1.00949032,1.45001053,-4.25154991,,,
imu,64.006598,-0.2619909264,-9.6494009696,2.2705880288,1.05435178,1.3528107,-3.93751969,,,
imu,64.014978,-0.2590001624000001,-9.627867468800002,2.2604194312,1.20388998,1.42010289,-3.69078166,,,
imu,64.023358,-0.2769447464000001,-9.614109954400002,2.27298064,0.9945364999999999,1.47991817,-3.41413599,,,
imu,64.031737,-0.2667761488000001,-9.633848996800001,2.290327071200001,1.03192105,1.48739508,-3.20478251,,,
imu,64.040117,-0.2554112456,-9.651793580800001,2.2681954176,1.03192105,1.33785688,-3.48142818,,,
imu,64.048496,-0.2667761488000001,-9.658971414400002,2.2562323616,0.8973366700000001,1.08364194,-3.88518132,,,
imu,64.056876,-0.2595983152,-9.636241608,2.263410195200001,0.94967504,1.0537343,-3.97490424,,,
imu,64.065256,-0.2697669128,-9.6224840936,2.266999112000001,1.03939796,0.9640113799999996,-4.07210407,,,
imu,64.073635,-0.2763465936,-9.620091482400001,2.2825510848,1.04687487,1.00887284,-3.91508896,,,
imu,64.082015,-0.2829262744000001,-9.656578803200002,2.2813547792,0.97958268,0.9789651999999998,-3.88518132,,,
imu,64.090395,-0.2859170384,-9.645213900000002,2.2592231256,1.02444414,1.24065705,-3.5711511,,,
imu,64.098774,-0.28412258,-9.635643455200002,2.2466619168,1.15902852,1.39019525,-3.39170526,,,
imu,64.107154,-0.28412258,-9.641624983200002,2.2346988608,1.07678251,1.19579559,-3.31693616,,,
imu,64.115533,-0.2895059552,-9.658373261600001,2.231109944,1.23379762,1.28551851,-3.3468438,,,
imu,64.123913,-0.2948893304,-9.664952942400001,2.2257265688,1.45810492,1.40514907,-3.31693616,,,
imu,64.132293,-0.2883096496000001,-9.656578803200002,2.2454656112,1.65998149,1.39019525,-3.4216129,,,
imu,64.140672,-0.2889078024000001,-9.646410205600002,2.2335025552,1.79456587,1.50982581,-3.42908981,,,
imu,64.149052,-0.2865151912,-9.646410205600002,2.246063764000001,1.74970441,1.47991817,-3.57862801,,,
imu,64.157432,-0.2763465936,-9.635643455200002,2.2358951664,1.7422275,1.61450255,-3.66087402,,,
imu,64.165811,-0.2775428992,-9.634447149600001,2.2293154856,1.72727368,1.62197946,-3.63096638,,,
imu,64.174272,-0.2817299688000001,-9.6159044128,2.2346988608,1.76465823,1.69674856,-3.60105874,,,
imu,64.182733,-0.2691687600000001,-9.613511801600001,2.2436711528,1.77961205,1.89114822,-3.51881273,,,
imu,64.191194,-0.266177996,-9.635045302400002,2.249054528,1.80204278,1.83133294,-3.46647436,,,
imu,64.199655,-0.2667761488000001,-9.648802816800002,2.2346988608,1.75718132,1.81637912,-3.48142818,,,
imu,64.208116,-0.2619909264,-9.619493329600001,2.2197450408,1.62259694,1.89114822,-3.52628964,,,
imu,64.216577,-0.2703650656,-9.604539509600002,2.2257265688,1.58521239,1.94348659,-3.28702852,,,
imu,64.225038,-0.2655798432,-9.6087265792,2.2155579712,1.8169966,1.97339423,-3.18982869,,,
imu,64.233499,-0.2691687600000001,-9.627269316000001,2.2185487352,1.98148862,1.94348659,-3.07767504,,,
imu,64.24196,-0.2667761488000001,-9.631456385600002,2.2269228744,2.10111918,1.92105586,-2.95056757,,,
imu,64.250421,-0.275150288,-9.6637566368,2.210174596,2.30299575,1.86871749,-2.79355246,,,
imu,64.258882,-0.2655798432,-9.669738164800002,2.2113709016,2.30299575,2.0257326,-2.78607555,,,
imu,64.267343,-0.2584020096,-9.672130776000001,2.2107727488,2.42262631,2.04068642,-2.83841392,,,
imu,64.275804,-0.2440463424,-9.6643547896,2.222735804800001,2.31047266,2.16031698,-2.85336774,,,
imu,64.284265,-0.2398592728,-9.681103068,2.222735804800001,2.03382699,2.00330187,-3.1225365,,,
imu,64.292726,-0.2296906752000001,-9.711010708000002,2.2137635128,1.89924261,1.97339423,-3.33936689,,,
imu,64.301187,-0.233279592,-9.7331423616,2.204193068,1.82447351,1.98087114,-3.43656672,,,
imu,64.309648,-0.1955959656,-9.703832874400002,2.2006041512,1.69736604,2.12293243,-3.33188998,,,
imu,64.318109,-0.1932033544,-9.675121540000001,2.2065856792,1.60764312,1.9509635,-3.7206893,,,
imu,64.32657,-0.2105497856,-9.666149248000002,2.2143616656,1.60016621,1.63693328,-4.13939626,,,
imu,64.335031,-0.1908107432,-9.678112304,2.2125672072,1.43567419,1.37524143,-4.386134289999999,,,
imu,64.343492,-0.2009793408,-9.706823638400001,2.207183832,1.60016621,1.06121121,-4.55810322,,,
imu,64.351953,-0.2237091472,-9.714001472000001,2.188042942400001,1.67493531,0.7696117199999999,-4.57305704,,,
imu,62.939107,,,,,,,75.5381428,-12.18891960000001,8.477915199999996
imu,63.040822,,,,,,,75.29399880000001,-11.82270360000002,8.453500799999992
imu,63.142263,,,,,,,75.0132332,-11.82270360000002,7.794311999999993
imu,63.243764,,,,,,,77.1739076,-12.94576600000001,6.707871199999992
imu,63.345327,,,,,,,74.9644044,-12.31099160000002,8.575572799999998
imu,63.446859,,,,,,,77.6133668,-12.9579732,5.93881759999999
imu,63.548574,,,,,,,74.8057108,-11.908154,7.843140799999992
imu,63.649984,,,,,,,74.8545396,-11.82270360000002,7.867555199999998
imu,64.360414,-0.2434481896,-9.669140012000002,2.1766780392,1.40576655,0.6724118899999998,-4.28893446,,,
imu,64.368875,-0.2548130928,-9.605735815200001,2.1700983584,1.31604363,0.70231953,-3.69825857,,,
imu,64.377363,-0.2715613712,-9.577024480800002,2.164714983200001,1.64502767,0.80699627,-3.13749032,,,
imu,64.38585,-0.2679724544000001,-9.573435564,2.141387024,1.9665348,1.03878048,-2.53933752,,,
imu,64.394338,-0.2883096496000001,-9.573435564,2.1252368984,2.10859609,1.07616503,-2.38979932,,,
imu,64.402826,-0.2847207328,-9.5800152448,2.1246387456,2.40019558,1.18831868,-2.29259949,,,
imu,64.411314,-0.2913004136,-9.596165370400001,2.120451676000001,2.80394872,1.29299542,-2.53186061,,,
imu,64.419801,-0.2924967192,-9.608128426400002,2.1168627592,3.17779422,1.53973345,-2.87579847,,,
imu,64.428289,-0.3074505392,-9.630858232800001,2.111479384,3.282470959999999,1.8014253,-3.1973056,,,
imu,64.436777,-0.2996745528,-9.638036066400002,2.1276295096,3.34228624,2.07807097,-3.48890509,,,
imu,64.445264,-0.2966837888,-9.655980650400002,2.1366018016,3.26751714,2.21265535,-3.69825857,,,
imu,64.453752,-0.2823281216,-9.676317845600002,2.1467703992,3.140409669999999,2.30237827,-3.90761205,,,
imu,64.46224,-0.2643835376,-9.6984494992,2.1437796352,2.96844074,2.48182411,-3.96742733,,,
imu,64.470728,-0.2500278704,-9.699645804800001,2.1371999544,2.83385636,2.58650085,-3.86275059,,,
imu,64.479215,-0.233279592,-9.6918698184,2.150957468800001,2.67684125,2.85566961,-3.70573548,,,
imu,64.487703,-0.2177276192,-9.706823638400001,2.1539482328,2.5646876,2.78837742,-3.65339711,,,
imu,64.496191,-0.1860255208,-9.7122070136,2.1425833296,2.28804193,2.59397776,-3.66087402,,,
imu,64.504678,-0.182436604,-9.7217774584,2.135405496,2.20579592,2.34723973,-3.66835093,,,
imu,64.513166,-0.176455076,-9.711608860800002,2.141387024,2.02635008,2.0257326,-3.70573548,,,
imu,64.521654,-0.1812402984,-9.715795930400002,2.1371999544,2.00391935,1.68179474,-3.68330475,,,
imu,64.530141,-0.1752587704,-9.7163940832,2.1407888712,1.91419643,1.45748744,-3.73564312,,,
imu,64.538629,-0.1997830352,-9.7301515976,2.159331608,1.76465823,1.14345722,-3.70573548,,,
imu,64.547117,-0.2009793408,-9.7151977776,2.1371999544,1.72727368,0.7995193599999997,-3.59358183,,,
imu,64.555605,-0.215335008,-9.6876827488,2.1312184264,1.5926893,0.78456554,-3.39918217,,,
imu,64.564092,-0.2296906752000001,-9.6733270816,2.150957468800001,1.35342818,0.6574580699999997,-3.25712088,,,
imu,64.57258,-0.2290925224000001,-9.687084596000002,2.1419851768,1.07678251,0.3060432999999998,-3.23469015,,,
imu,64.581389,-0.2494297176,-9.687084596000002,2.111479384,1.1440747,0.2088434699999997,-3.50385891,,,
imu,64.590198,-0.2518223288000001,-9.687084596000002,2.0989181752,0.9945364999999999,0.2462280199999998,-3.84779677,,,
imu,64.599007,-0.2709632184,-9.655382497600002,2.1048997032,0.94967504,0.3733354899999997,-3.78050458,,,
imu,64.607816,-0.2883096496000001,-9.6535880392,2.1031052448,1.15902852,0.4630584099999999,-3.73564312,,,
imu,64.616625,-0.2847207328,-9.6499991224,2.0953292584,1.31604363,0.6275504299999999,-3.57862801,,,
imu,64.625434,-0.2924967192,-9.633848996800001,2.0959274112,1.35342818,0.8294269999999999,-3.39918217,,,
imu,64.634243,-0.2865151912,-9.633250844,2.0977218696,1.60764312,1.12102649,-3.29450543,,,
imu,64.643052,-0.2739539824000001,-9.641624983200002,2.1031052448,1.5926893,1.22570323,-3.37675144,,,
imu,64.651861,-0.2859170384,-9.644017594400001,2.0839643552,1.82447351,1.50982581,-3.45152054,,,
imu,64.66067,-0.28412258,-9.648204664000001,2.0839643552,2.0413039,1.54721036,-3.60105874,,,
imu,64.669479,-0.2769447464000001,-9.660765872800003,2.0809735912,2.16093446,1.71917929,-3.63844329,,,
imu,64.678288,-0.2715613712,-9.666149248000002,2.0779828272,2.17588828,1.83880985,-3.69825857,,,
imu,64.687096,-0.2548130928,-9.672130776000001,2.0827680496,2.22074974,1.92105586,-3.75059694,,,
imu,64.695905,-0.236270356,-9.6876827488,2.0779828272,2.14598064,2.09302479,-3.66835093,,,
imu,64.704714,-0.2296906752000001,-9.690075360000002,2.0833662024,1.97401171,2.01825569,-3.58610492,,,
imu,64.713523,-0.2249054528,-9.682897526400001,2.0779828272,1.77213514,1.88367131,-3.68330475,,,
imu,64.722332,-0.2171294664,-9.685888290400001,2.0851606608,1.6674584,1.75656384,-3.62348947,,,
imu,64.731141,-0.221316536,-9.676915998400002,2.0809735912,1.69736604,1.69674856,-3.46647436,,,
imu,64.73995,-0.233279592,-9.682299373600001,2.0887495776,1.58521239,1.51730272,-3.51881273,,,
imu,64.748759,-0.2278962168,-9.6733270816,2.0857588136,1.69736604,1.44253362,-3.58610492,,,
imu,64.757568,-0.2308869808,-9.6775141512,2.0714031464,1.83195042,1.40514907,-3.66835093,,,
imu,64.766377,-0.2458408008,-9.683495679200002,2.0654216184,1.95905789,1.31542615,-3.56367419,,,
imu,64.77507,-0.2368685088,-9.690075360000002,2.0600382432,1.86933497,1.34533379,-3.46647436,,,
imu,64.783538,-0.2434481896,-9.7056273328,2.0690105352,2.03382699,1.42010289,-3.47395127,,,
imu,64.792007,-0.2464389536,-9.7151977776,2.0654216184,1.85438115,1.45001053,-3.48142818,,,
imu,64.800476,-0.2446444952,-9.7122070136,2.0582437848,1.77961205,1.45748744,-3.4216129,,,
imu,64.808944,-0.245242648,-9.7056273328,2.057645632,1.6674584,1.5023489,-3.50385891,,,
imu,64.817413,-0.2494297176,-9.685888290400001,2.0558511736,1.57025857,1.577118,-3.68330475,,,
imu,64.825882,-0.2398592728,-9.700243957600001,2.0522622568,1.48801256,1.6518871,-3.84031986,,,
imu,64.83435,-0.2207183832,-9.6876827488,2.0474770344,1.37585891,1.69674856,-4.244073,,,
imu,64.842819,-0.2117460912,-9.6745233872,2.045682576,1.48053565,1.59954873,-4.61044159,,,
imu,64.851287,-0.2255036056,-9.6817012208,2.0510659512,1.39828964,1.59207182,-4.759979789999999,,,
imu,64.859756,-0.2075590216,-9.693664276800002,2.0522622568,1.34595127,1.53973345,-4.68521069,,,
imu,64.868225,-0.2045682576000001,-9.678112304,2.045682576,1.24875144,1.50982581,-4.51324176,,,
imu,64.876693,-0.2105497856,-9.661962178400001,2.0642253128,1.27865908,1.19579559,-4.73007215,,,
imu,64.885162,-0.2374666616,-9.668541859200001,2.07858098,1.12164397,0.9939190199999999,-4.80484125,,,
imu,64.893631,-0.251224176,-9.722375611200002,2.075590216,1.03939796,0.6574580699999997,-4.86465653,,,
imu,64.902099,-0.2518223288000001,-9.7510869456,2.066617924,0.8973366700000001,0.5303505999999998,-4.78988743,,,
imu,64.910568,-0.2566075512,-9.728955292000002,2.0474770344,0.6281679099999999,0.3658585799999998,-4.68521069,,,
imu,64.919036,-0.2673743016,-9.706225485600001,2.048673340000001,0.70293701,0.5079198699999998,-4.21416536,,,
imu,64.927505,-0.2829262744000001,-9.688879054400001,2.0564493264,0.80761375,0.8294269999999999,-3.66087402,,,
imu,64.935974,-0.2835244272,-9.685290137600001,2.0349158256,0.97958268,1.06868812,-3.01038285,,,
imu,64.944442,-0.266177996,-9.6799067624,2.039701048,1.16650543,1.22570323,-2.74121409,,,
imu,64.952911,-0.2763465936,-9.663158484000002,2.0295324504,1.34595127,1.34533379,-2.91318302,,,
imu,64.96138,-0.2769447464000001,-9.657775108800001,2.0385047424,1.4431511,1.4275798,-3.24964397,,,
imu,64.969848,-0.2829262744000001,-9.671532623200001,2.039701048,1.57773548,1.44253362,-3.84031986,,,
imu,64.978317,-0.2691687600000001,-9.685888290400001,2.0319250616,1.63755076,1.52477963,-4.28145755,,,
imu,64.986775,-0.2548130928,-9.690075360000002,2.0193638528,1.5179202,1.82385603,-4.58801086,,,
imu,64.995234,-0.257205704,-9.6876827488,2.0319250616,1.37585891,1.84628676,-4.90204108,,,
imu,65.003692,-0.2470371064,-9.693664276800002,2.0402992008,1.45062801,2.10797861,-4.7674567,,,
imu,65.012151,-0.2326814392,-9.697851346400002,2.0402992008,1.31604363,2.13788625,-4.670256869999999,,,
imu,65.020609,-0.2237091472,-9.693066124000001,2.0492714928,1.15155161,2.04068642,-4.55810322,,,
imu,65.029068,-0.2141387024,-9.672728928800002,2.0570474792,1.16650543,2.04816333,-4.49081103,,,
imu,65.037526,-0.1955959656,-9.6499991224,2.0648234656,0.97210577,2.00330187,-4.453426479999999,,,
imu,65.045985,-0.1926052016,-9.645213900000002,2.0672160768,0.7403215599999999,1.89114822,-4.61044159,,,
imu,65.054443,-0.1848292152,-9.614708107200002,2.0642253128,0.59078336,1.53973345,-4.78241052,,,
imu,65.062901,-0.1920070488,-9.579417092000002,2.0582437848,0.28423005,1.16588795,-4.9169949,,,
imu,65.07136,-0.191408896,-9.557883591200001,2.066617924,0.40386061,0.7920424499999998,-4.8422258,,,
imu,65.079818,-0.203371952,-9.5566872856,2.0660197712,0.5010604399999999,0.4032431299999999,-4.954379449999999,,,
imu,65.088277,-0.2159331608,-9.5632669664,2.0540567152,0.88985976,0.2462280199999998,-4.94690254,,,
imu,65.096735,-0.2326814392,-9.5907819952,2.075590216,0.9945364999999999,-0.07527911000000032,-4.991764,,,
imu,65.105194,-0.2530186344000001,-9.639232372,2.0887495776,1.368382,-0.2622018600000002,-4.87961035,,,
imu,65.113652,-0.272159524,-9.657176956,2.0654216184,1.6674584,-0.39678624,-4.92447181,,,
imu,65.122111,-0.2948893304,-9.688280901600002,2.07858098,1.86933497,-0.3818324200000003,-4.73007215,,,
imu,65.130569,-0.3056560808,-9.7283571392,2.0929366472,2.116073,-0.4491246100000001,-4.7674567,,,
imu,65.139028,-0.3122357616,-9.796546558400001,2.1013107864,2.31794957,-0.45660152,-4.9169949,,,
imu,65.147486,-0.3074505392,-9.837220948800002,2.117460912,2.29551884,-0.3294940500000001,-4.954379449999999,,,
imu,65.155944,-0.3056560808,-9.882680561600003,2.1377981072,2.29551884,-0.2846325900000002,-4.86465653,,,
imu,65.164403,-0.3092449976000001,-9.910793743200001,2.141387024,2.116073,-0.1350943900000003,-4.81979507,,,
imu,65.172861,-0.3062542336,-9.899428840000002,2.1342091904,1.83195042,-0.03789456000000024,-4.78988743,,,
imu,63.75145,,,,,,,74.6714316,-12.0424332,8.502329599999992
imu,63.852982,,,,,,,75.35503480000001,-12.38423480000002,8.526743999999997
imu,63.956467,,,,,,,75.28179159999999,-11.7128388,8.624401599999999
imu,64.056229,,,,,,,75.1597196,-12.10346920000001,8.892959999999995
imu,64.1577,,,,,,,75.4038636,-12.39644200000001,7.440303199999998
imu,64.259201,,,,,,,75.06206200000001,-12.39644200000001,8.795302399999994
imu,64.360795,,,,,,,77.35701559999998,-13.39743240000002,5.450529599999998
imu,64.462449,,,,,,,74.79350360000001,-12.61617160000002,9.283590399999998
imu,65.18132,-0.3086468448,-9.855165532800001,2.126433204,1.72727368,0.1415512799999998,-4.64034923,,,
imu,65.189783,-0.3068523864000001,-9.803126239200001,2.132414732,1.2936129,0.1191205499999999,-4.66277996,,,
imu,65.198247,-0.2996745528,-9.766040765600001,2.1521537744,1.09173633,-0.1425713000000002,-5.05905619,,,
imu,65.20671,-0.3074505392,-9.739722042400002,2.1348073432,1.0693056,-0.2846325900000002,-5.42542478,,,
imu,65.215174,-0.3116376088,-9.6942624296,2.106694161600001,0.91229049,-0.3369709599999999,-5.79179337,,,
imu,65.223637,-0.3331711096,-9.606932120800002,2.084562508,0.9646288599999999,-0.3369709599999999,-5.85908556,,,
imu,65.232101,-0.3547046104000001,-9.526181492800001,2.0779828272,0.8973366700000001,-0.5164168,-6.16563887,,,
imu,65.240565,-0.3642750552,-9.477132963200003,2.0702068408,1.21136689,-0.5463244400000002,-6.21050033,,,
imu,65.249028,-0.3822196392,-9.477132963200003,2.069608688,1.73475059,-0.4266938800000002,-6.008623759999999,,,
imu,65.257492,-0.3882011672000001,-9.489096019200002,2.0660197712,2.29551884,-0.3294940500000001,-5.91142393,,,
imu,65.265955,-0.4025568344,-9.5010590752,2.0737957576,2.89367164,-0.25472495,-5.64973208,,,
imu,65.274419,-0.4073420568000001,-9.490292324800002,2.0630290072,3.12545585,-0.17247894,-5.58243989,,,
imu,65.282882,-0.4342589328000001,-9.4974701584,2.0731976048,3.43200916,0.11164364,-5.3656095,,,
imu,65.291346,-0.43366078,-9.531564868,2.0953292584,3.70865483,0.35838167,-5.24597894,,,
imu,65.299809,-0.439642308,-9.572239258400002,2.0809735912,4.03016196,0.5079198699999998,-5.238502029999999,,,
imu,65.308273,-0.4276792520000001,-9.627269316000001,2.072001299200001,4.44139201,0.7471809899999999,-5.27588658,,,
imu,65.316736,-0.4145198904,-9.6637566368,2.0660197712,4.92739116,1.00139593,-5.27588658,,,
imu,65.3252,-0.3977716120000001,-9.6745233872,2.0534585624,5.12179082,1.15093413,-5.1413022,,,
imu,65.333664,-0.391790084,-9.668541859200001,2.042691812,5.45825177,1.30794924,-5.10391765,,,
imu,65.342127,-0.3893974728000001,-9.635643455200002,2.0229527696,5.4059134,1.25561087,-4.94690254,,,
imu,65.350591,-0.4049494456000001,-9.6284656216,2.0193638528,5.52554396,1.28551851,-4.56558013,,,
imu,65.359054,-0.3977716120000001,-9.6326526912,1.9816802264,5.63769761,1.37524143,-4.23659609,,,
imu,65.367518,-0.4049494456000001,-9.652989886400002,1.9523707392,5.63769761,1.43505671,-3.98985806,,,
imu,65.375981,-0.400762376,-9.667345553600002,1.920070488,5.54797469,1.30047233,-4.124442439999999,,,
imu,65.384445,-0.3774344168000001,-9.633250844,1.8907610008,5.76480508,1.24813396,-4.33379592,,,
imu,65.392967,-0.3816214864,-9.652989886400002,1.8776016392,6.16855822,1.12102649,-4.75250288,,,
imu,65.401489,-0.3702565832000001,-9.688879054400001,1.872218264,6.47511153,0.9714882899999999,-4.991764,,,
imu,65.410011,-0.3654713608,-9.734338667200001,1.85427368,6.76671102,0.8518577299999999,-5.25345585,,,
imu,65.418533,-0.3642750552,-9.752283251200002,1.8405161656,6.96858759,0.6051196999999999,-5.77683955,,,
imu,65.427055,-0.3756399584,-9.76484446,1.8566662912,6.98354141,0.3509047599999997,-6.158161959999999,,,
imu,65.435577,-0.3870048616000001,-9.794153947200002,1.8608533608,6.7517572,-0.02294074000000013,-6.158161959999999,,,
imu,65.444099,-0.3786307224000001,-9.8234634344,1.860255208,6.63960355,-0.4865091600000002,-5.92637775,,,
imu,65.452621,-0.3983697648000001,-9.840809865600002,1.8399180128,6.31809642,-0.7855855599999999,-5.98619303,,,
imu,65.461143,-0.4187069600000001,-9.8300431152,1.8267586512,5.98163547,-0.9799852200000005,-5.90394702,,,
imu,65.469665,-0.442633072,-9.803126239200001,1.8231697344,5.76480508,-1.3388769,-5.829177919999999,,,
imu,65.478187,-0.4480164472000001,-9.7510869456,1.7932620944,5.74237435,-1.54823038,-5.74693191,,,
imu,65.486709,-0.4874945320000001,-9.716992236000001,1.7591673848,6.05640457,-1.78001459,-5.55253225,,,
imu,65.495231,-0.5006538936,-9.689477207200001,1.7310542032,6.37043479,-2.04918335,-5.74693191,,,
imu,65.503753,-0.5221873944000001,-9.6709344704,1.7071280912,6.96858759,-2.12395245,-5.85908556,,,
imu,65.512275,-0.55329134,-9.675121540000001,1.6873890488,7.4246791,-2.18376773,-6.053485220000001,,,
imu,65.520797,-0.5814045216000001,-9.6434194416,1.6431257416,7.56674039,-2.28096756,-6.075915950000001,,,
imu,65.529319,-0.6089195504,-9.556089132800002,1.606040268,7.44710983,-2.31835211,-6.19554651,,,
imu,65.537841,-0.6328456624000001,-9.463973601600001,1.5994605872,7.18541798,-2.20619846,-5.98619303,,,
imu,65.546363,-0.6603606912000002,-9.405952780000002,1.5767307808,7.29757163,-2.03422953,-5.41047096,,,
imu,65.554885,-0.6651459136000001,-9.3868118904,1.5534028216,7.32747927,-1.570661110000001,-5.02914855,,,
imu,65.563407,-0.6830904976000001,-9.418513988800001,1.5085413616,7.56674039,-1.286538530000001,-4.81231816,,,
imu,65.57193,-0.6824923448,-9.436458572800001,1.4702595824,8.037785719999999,-0.9126930300000002,-4.72259524,,,
imu,65.580452,-0.6860812616,-9.447823476,1.4559039152,8.695753799999999,-0.39678624,-4.41604193,,,
imu,65.588974,-0.6711274416,-9.5429297712,1.4618854432,9.27147587,0.1565051,-4.079580979999999,,,
imu,65.597739,-0.6555754688000001,-9.741516500800001,1.4672688184,10.12384361,0.62007352,-3.69078166,,,
imu,65.606504,-0.6501920936000001,-9.929336480000002,1.4457353176,10.31076636,1.01634975,-3.33188998,,,
imu,65.615269,-0.6358364264000002,-10.0483688872,1.4678669712,10.01916687,1.42010289,-3.06272122,,,
imu,65.624034,-0.6143029256000001,-10.1004081808,1.489400472,9.27895278,1.93600968,-2.58419898,,,
imu,65.632799,-0.6029380224,-10.1285213624,1.5258877928,8.194800829999998,2.49677793,-1.89632326,,,
imu,65.641565,-0.5987509528,-10.1219416816,1.5797215448,6.70689574,2.95286944,-1.34303192,,,
imu,65.65033,-0.5730303824,-10.0573411792,1.5767307808,4.87505279,3.30428421,-0.73740221,,,
imu,65.659095,-0.565254396,-9.992740676800002,1.5665621832,3.63388573,3.5958837,-0.57291019,,,
imu,65.66786,-0.5461135064000001,-9.944290300000002,1.5605806552,2.51234923,4.16412886,-0.4682334499999998,,,
imu,65.676625,-0.5132151024,-9.934121702400002,1.5659640304,1.88428879,4.500589809999999,-0.5355256399999999,,,
imu,65.685391,-0.4958686712000001,-9.9466829112,1.552206516,1.56278166,4.66508183,-0.9018942299999999,,,
imu,65.694156,-0.4731388648000001,-9.931130938400003,1.5234951816,1.53287402,4.9417275,-1.50752394,,,
imu,65.702921,-0.4653628784000001,-9.927542021600003,1.549215752,1.49548947,4.91929677,-1.9262309,,,
imu,65.711686,-0.4522035168,-9.915578965600002,1.5587861968,1.39828964,5.18098862,-1.96361545,,,
imu,65.720451,-0.4390441552000001,-9.8719138112,1.5414397656,1.63755076,5.547357209999999,-1.83650798,,,
imu,65.729216,-0.4270810992000001,-9.80970592,1.501363528,1.77961205,5.79409524,-1.65706214,,,
imu,65.737982,-0.4031549872,-9.7403201952,1.5097376672,1.95905789,5.966064169999999,-1.50004703,,,
imu,65.746747,-0.3756399584,-9.703832874400002,1.5211025704,2.16841137,6.138033099999999,-1.1037708,,,
imu,65.755512,-0.3564990688,-9.7074217912,1.5121302784,2.44505704,6.272617479999999,-0.8719865899999999,,,
imu,65.764277,-0.3337692624,-9.720581152800001,1.483418944,3.0133022,6.250186749999999,-0.79721749,,,
imu,65.773042,-0.3206099008000001,-9.7427128064,1.4642780544,3.589024269999999,6.09317164,-0.8719865899999999,,,
imu,65.781808,-0.2924967192,-9.7821908912,1.4588946792,4.05259269,5.876341249999999,-0.93927878,,,
imu,65.790573,-0.2697669128,-9.822267128800002,1.4553057624,4.45634583,5.659510859999999,-1.15610917,,,
imu,65.799045,-0.2584020096,-9.834230184800003,1.4576983736,4.69560695,5.50249575,-1.28321664,,,
imu,65.807518,-0.245242648,-9.802528086400002,1.447529776,4.54606875,5.03892733,-1.53743158,,,
imu,65.81599,-0.2356722032,-9.7086180968,1.4469316232,4.1348387,4.46320526,-1.87389253,,,
imu,65.824462,-0.2476352592,-9.568650341600001,1.441548248,3.14788658,3.75289881,-2.2253073,,,
imu,65.832935,-0.2566075512,-9.453805004000001,1.4576983736,2.31794957,3.10988455,-2.41970696,,,
imu,65.841407,-0.2709632184,-9.4490197816,1.4636799016,1.63007385,2.6986545,-2.53186061,,,
imu,65.84988,-0.296085636,-9.541733465600002,1.3990793992,1.58521239,2.11545552,-2.63653735,,,
imu,65.858352,-0.3283858872000001,-9.669140012000002,1.3386659664,2.43758013,1.7266562,-2.81598319,,,
imu,64.564072,,,,,,,74.13431479999998,-12.64058600000002,7.965212799999999
imu,64.665482,,,,,,,75.0864764,-12.75045080000001,7.953005599999996
imu,64.767197,,,,,,,74.6103956,-12.53072120000001,7.928591199999991
imu,64.868607,,,,,,,74.7324676,-13.28756760000001,8.368050399999994
imu,64.970261,,,,,,,74.8057108,-13.20211720000002,8.050663199999997
imu,65.071793,,,,,,,74.8057108,-13.49509000000002,8.30701439999999
imu,65.173325,,,,,,,76.2095388,-13.47067560000001,8.368050399999994
imu,65.274949,,,,,,,75.0742692,-14.00779240000001,8.990617599999995
imu,65.866926,-0.3481249296000001,-9.789368724800001,1.3111509376,3.30490169,1.58459491,-3.15992105,,,
imu,65.875399,-0.3720510416,-9.862343366400001,1.3177306184,4.00025432,1.61450255,-3.25712088,,,
imu,65.883871,-0.3882011672000001,-9.9430939944,1.3524234808,4.36662291,1.8761944,-2.84589083,,,
imu,65.892344,-0.3822196392,-10.0088908024,1.378742204,4.33671527,2.16779389,-2.30755331,,,
imu,65.900816,-0.3786307224000001,-10.016068636,1.4032664688,3.43948607,2.37714737,-2.05333837,,,
imu,65.909289,-0.3762381112000001,-9.959244120000001,1.426594428,2.28056502,2.64631613,-2.01595382,,,
imu,65.917761,-0.3756399584,-9.904214062400001,1.4792318744,0.6281679099999999,2.81080815,-2.26269185,,,
imu,65.926233,-0.3654713608,-9.848585852000001,1.4756429576,-0.97189083,2.76594669,-2.6739219,,,
imu,65.934706,-0.340947096,-9.817481906400001,1.4541094568,-2.48222665,2.75846978,-2.96552139,,,
imu,65.943178,-0.3236006648,-9.836622796,1.4427445536,-3.51404023,2.75099287,-3.24964397,,,
imu,65.951651,-0.3152265256,-9.841408018400001,1.4050609272,-3.865455,2.73603905,-3.26459779,,,
imu,65.960123,-0.3008708584000001,-9.869521200000003,1.414631372,-3.65610152,2.78090051,-2.8982292,,,
imu,65.968596,-0.2793373576,-9.8527729216,1.4128369136,-3.28973293,2.73603905,-2.74121409,,,
imu,65.977068,-0.2823281216,-9.877297186400002,1.48042818,-2.83364142,2.7734236,-2.94309066,,,
imu,65.985541,-0.275150288,-9.944290300000002,1.5228970288,-2.56447266,2.67622377,-2.89075229,,,
imu,65.994013,-0.2697669128,-9.9616367312,1.522298876,-2.5943803,2.6238854,-2.81598319,,,
imu,66.002471,-0.2793373576,-9.917373424,1.5534028216,-3.10281018,2.39210119,-2.90570611,,,
imu,66.01093,-0.2775428992,-9.859950755200002,1.594077212,-3.4916095,2.39210119,-3.0477674,,,
imu,66.019388,-0.2859170384,-9.802528086400002,1.5994605872,-3.95517792,2.27994754,-3.18235178,,,
imu,66.027847,-0.2978800944000001,-9.7744149048,1.5707492528,-4.17200831,2.25751681,-3.15244414,,,
imu,66.036305,-0.2913004136,-9.767237071200002,1.5438323768,-3.98508556,2.13040934,-3.39918217,,,
imu,66.044764,-0.305057928,-9.716992236000001,1.5270840984,-3.61124006,2.04068642,-3.65339711,,,
imu,66.053222,-0.3218062064,-9.625474857600002,1.5276822512,-3.23739456,1.81637912,-4.25154991,,,
imu,66.061681,-0.3277877344,-9.573435564,1.5444305296,-2.53456502,1.78647148,-4.81231816,,,
imu,66.070139,-0.3343674152,-9.585398620000001,1.5653658776,-2.04856587,1.59207182,-5.11887147,,,
imu,66.078598,-0.3499193880000001,-9.5776226336,1.5534028216,-2.00370441,1.62945637,-5.283363489999999,,,
imu,66.087056,-0.3391526376000001,-9.5740337168,1.5623751136,-1.72705874,1.68179474,-5.11139456,,,
imu,66.095514,-0.3415452488,-9.556089132800002,1.58510492,-1.80182784,1.83880985,-4.79736434,,,
imu,66.103973,-0.3379563320000001,-9.571042952800001,1.5928809064,-1.93641222,1.92105586,-4.5431494,,,
imu,66.112431,-0.3241988176,-9.602146898400001,1.6078347264,-1.91398149,1.91357895,-4.35622665,,,
imu,66.12089,-0.3170209840000001,-9.6535880392,1.62996638,-1.90650458,1.88367131,-4.37118047,,,
imu,66.129348,-0.3301803456000001,-9.693066124000001,1.635947908,-1.85416621,1.67431783,-4.67773378,,,
imu,66.137807,-0.3038616224,-9.7361331256,1.6347516024,-1.77939711,1.36028761,-5.044102369999999,,,
imu,66.146265,-0.3236006648,-9.7612555432,1.656883256,-1.59247436,0.9789651999999998,-5.33570186,,,
imu,66.154724,-0.3206099008000001,-9.758264779200001,1.6730333816,-1.27844414,0.5752120599999997,-5.56000916,,,
imu,66.163182,-0.3289840400000001,-9.7780038216,1.6993521048,-1.04665993,0.3135202100000001,-5.6646859,,,
imu,66.171641,-0.3385544848000001,-9.7953502528,1.7059317856,-0.88964482,0.01444380999999995,-5.58243989,,,
imu,66.180099,-0.3391526376000001,-9.793555794400001,1.7161003832,-1.0242292,-0.2846325900000002,-5.545055339999999,,,
imu,66.188557,-0.3541064576,-9.7780038216,1.7274652864,-1.0989983,-0.53884753,-5.260932759999999,,,
imu,66.197016,-0.361882444,-9.767237071200002,1.7149040776,-0.88964482,-0.71829337,-4.931948719999999,,,
imu,66.205482,-0.370854736,-9.7504887928,1.7208856056,-0.90459864,-0.88278539,-4.73007215,,,
imu,66.213948,-0.3852104032000001,-9.745105417600001,1.7149040776,-0.93450628,-1.06970814,-4.58053395,,,
imu,66.222414,-0.3876030144000001,-9.7283571392,1.7029410216,-0.58309151,-1.24167707,-4.68521069,,,
imu,66.23088,-0.3965753064,-9.702038416,1.6891835072,-0.26158438,-1.4884151,-4.909517989999999,,,
imu,66.239346,-0.4199032656,-9.682897526400001,1.707726244,0.2468455,-1.6379533,-5.05905619,,,
imu,66.247812,-0.4354552384000001,-9.668541859200001,1.7101188552,0.65059864,-1.76506077,-5.1413022,,,
imu,66.256279,-0.4581850448000001,-9.7122070136,1.6909779656,1.12164397,-1.88469133,-5.12634838,,,
imu,66.264745,-0.4845037680000001,-9.7570684736,1.6676500064,1.33847436,-1.9370297,-4.98428709,,,
imu,66.273211,-0.505439116,-9.788770572,1.6461165056,1.36090509,-1.75758386,-4.63287232,,,
imu,66.281677,-0.520392936,-9.761853696000001,1.6503035752,1.15155161,-1.4884151,-4.35622665,,,
imu,66.290143,-0.5239818528000001,-9.739722042400002,1.6395368248,0.8674290299999999,-1.19681561,-3.99733497,,,
imu,66.298609,-0.5185984776000001,-9.727758986400001,1.6287700744,0.53844499,-0.9500775800000003,-3.75807385,,,
imu,66.307075,-0.5197947832,-9.711608860800002,1.6138162544,0.42629134,-0.6360473600000001,-3.39918217,,,
imu,66.315541,-0.5102243384,-9.709216249600003,1.6096291848,0.23936859,-0.2995864100000003,-2.95804448,,,
imu,66.324007,-0.4928779072000001,-9.702636568800001,1.6072365736,0.14964567,0.06678217999999969,-2.84589083,,,
imu,66.332473,-0.4779240872000001,-9.714001472000001,1.6072365736,0.26927623,0.3808123999999999,-2.78607555,,,
imu,66.340939,-0.4719425592000001,-9.7361331256,1.623984852,0.31413769,0.70231953,-2.85336774,,,
imu,66.349405,-0.4581850448000001,-9.749890640000002,1.6186014768,0.51601426,0.8294269999999999,-2.92813684,,,
imu,66.357872,-0.442633072,-9.768433376800001,1.6514998808,0.34404533,1.04625739,-3.13749032,,,
imu,66.366338,-0.4342589328000001,-9.76484446,1.6532943392,0.33656842,1.17336486,-3.33936689,,,
imu,66.374804,-0.4252866408000001,-9.761853696000001,1.6622666312,0.2468455,1.41262598,-3.43656672,,,
imu,66.38327,-0.400762376,-9.773218599200002,1.6700426176,0.15712258,1.42010289,-3.48142818,,,
imu,66.391736,-0.3947808480000001,-9.7780038216,1.6544906448,0.06739966,1.36028761,-3.59358183,,,
imu,66.400202,-0.3882011672000001,-9.7474980288,1.6682481592,-0.0522309,1.36028761,-3.45152054,,,
imu,66.408668,-0.3929863896,-9.701440263200002,1.6562851032,-0.03727708,1.29299542,-3.23469015,,,
imu,66.417134,-0.3816214864,-9.672130776000001,1.6491072696,0.41133752,1.39019525,-3.13001341,,,
imu,66.4256,-0.3840140976,-9.681103068,1.632957144,0.74779847,1.2780416,-3.02533667,,,
imu,66.434066,-0.3810233336,-9.693664276800002,1.6233866992,1.04687487,1.10607267,-2.95056757,,,
imu,66.442532,-0.3887993200000001,-9.706823638400001,1.632957144,1.54035093,1.01634975,-3.0477674,,,
imu,66.450999,-0.3953790008,-9.746899876,1.6186014768,1.77213514,0.9341037399999998,-3.10758268,,,
imu,66.459465,-0.3947808480000001,-9.783387196800001,1.6102273376,1.80951969,0.9041961000000001,-3.40665908,,,
imu,66.467931,-0.3953790008,-9.8043225448,1.6054421152,1.98896553,1.01634975,-3.50385891,,,
imu,66.476397,-0.3965753064,-9.805518850400002,1.6108254904,1.74970441,1.06868812,-3.7954584,,,
imu,66.484863,-0.3959771536000001,-9.832435726400002,1.6347516024,1.25622835,0.9789651999999998,-4.19921154,,,
imu,66.493329,-0.3870048616000001,-9.877297186400002,1.638938672,0.6954601,1.07616503,-4.17678081,,,
imu,66.501795,-0.3672658192000001,-9.918569729600001,1.6257793104,0.18703022,0.86681155,-4.46090339,,,
imu,66.510261,-0.3612842912,-9.907204826400001,1.6263774632,-0.74758353,0.6125966099999998,-4.96933327,,,
imu,66.518727,-0.3696584304000001,-9.919167882400002,1.6766222984,-1.74948947,0.3209971199999999,-5.41047096,,,
imu,66.527193,-0.3660695136000001,-9.968216412,1.707726244,-2.65419558,-0.08275602000000015,-5.567486069999999,,,
imu,66.535659,-0.3744436528,-9.970010870400001,1.6826038264,-3.60376315,-0.3893093300000001,-5.8889932,,,
imu,66.544125,-0.4480164472000001,-10.0734913048,1.7172966888,-4.418746339999999,-0.5164168,-6.225454149999999,,,
imu,66.552592,-0.4414367664,-9.980777620800001,1.6191996296,-5.532805929999999,-0.82297011,-6.56939201,,,
imu,66.561058,-0.5287670752,-9.953860744800002,1.6311626856,-6.332835299999999,-0.8304470200000003,-7.100252619999999,,,
imu,66.569524,-0.5180003248000001,-9.8880639368,1.6473128112,-7.088003209999999,-0.20986349,-7.21988318,,,
imu,66.57799,-0.5257763112000001,-9.824659740000001,1.6550887976,-7.588956179999999,0.27613566,-7.13763717,,,
imu,66.586456,-0.5473098120000001,-9.821668976000002,1.6873890488,-7.985232409999999,0.5677351499999999,-7.67597469,,,
imu,66.594922,-0.56824516,-9.794153947200002,1.6975576464,-8.20953971,1.16588795,-8.326465859999999,,,
imu,66.603388,-0.6166955368000001,-9.881484256,1.7836916496,-8.50861611,1.71170238,-9.11154141,,,
imu,66.612208,-0.6059287864000001,-9.928738327200001,1.7830934968,-9.31612239,2.22760917,-9.769509489999999,,,
imu,66.621027,-0.6023398696000001,-9.941897688800001,1.7759156632,-10.32550524,2.56407012,-10.8237538,,,
imu,66.629847,-0.6208826064000001,-9.937710619200002,1.7681396768,-11.43956483,2.95286944,-12.33408962,,,
imu,66.638666,-0.6298548984000001,-9.903615909600001,1.728661592,-12.26950184,3.45382241,-13.92667145,,,
imu,66.647486,-0.6442105656,-9.8527729216,1.7095207024,-12.84522391,3.90243701,-15.13793087,,,
imu,66.656306,-0.646005024,-9.8013317808,1.722680064,-13.30131542,4.500589809999999,-15.86319114,,,
imu,66.665125,-0.6735200528,-9.7534795568,1.7519895512,-13.38356143,5.023973509999999,-16.31180574,,,
imu,66.673945,-0.6872775672000001,-9.683495679200002,1.770532288,-13.31626924,5.67446468,-16.54358995,,,
imu,65.376542,,,,,,,77.564538,-15.60693560000002,5.93881759999999
imu,65.478105,,,,,,,75.0986836,-15.16747640000002,8.697644799999992
imu,65.579637,,,,,,,77.62557400000001,-16.68116920000002,6.890979199999991
imu,65.681199,,,,,,,75.34282759999999,-15.74121480000001,8.136113599999995
imu,65.782792,,,,,,,75.11089079999999,-16.119638,7.672239999999997
imu,65.884355,,,,,,,75.1597196,-15.97315160000001,7.464717599999993
imu,65.986009,,,,,,,75.0986836,-15.65576440000001,7.037465599999992
imu,66.087449,,,,,,,75.0864764,-15.04540440000002,7.647825599999991
imu,66.682764,-0.6932590952000001,-9.631456385600002,1.7938602472,-13.10691576,6.28009439,-16.5809745,,,
imu,66.691584,-0.7106055264000001,-9.602745051200001,1.848292152,-12.87513155,6.728708989999999,-16.38657484,,,
imu,66.700403,-0.7129981376000001,-9.610521037600002,1.890162848,-12.51623987,7.07264685,-15.93796024,,,
imu,66.709223,-0.7279519576000001,-9.719983000000001,2.0026155744,-12.20220965,7.44649235,-15.48186873,,,
imu,66.718043,-0.7201759712000001,-9.8013317808,1.9996248104,-12.33679403,7.76052257,-14.89119284,,,
imu,66.726862,-0.7201759712000001,-9.798341016800002,2.0109897136,-12.91999301,7.88015313,-14.33042459,,,
imu,66.735682,-0.7285501104000001,-9.7504887928,2.0163730888,-13.54805345,7.7829533,-13.86685617,,,
imu,66.744501,-0.7261574992000001,-9.6918698184,2.039701048,-13.86956058,7.92501459,-13.3659032,,,
imu,66.753321,-0.7225685824,-9.632054538400002,2.057645632,-13.91442204,8.119414249999998,-12.55092001,,,
imu,66.76214,-0.7147925960000001,-9.600352440000002,2.0923384944,-13.90694513,8.01473751,-11.96024412,,,
imu,66.77096,-0.7100073736000001,-9.595567217600001,2.1288258152,-13.62282255,7.603507459999999,-11.52658334,,,
imu,66.77978,-0.726755652,-9.571641105600001,2.147368552000001,-13.24150014,7.244615779999999,-11.16769166,,,
imu,66.788599,-0.7339334856000002,-9.550705757600001,2.1964170816,-12.9125161,6.908154829999999,-10.6742156,,,
imu,66.797419,-0.7387187080000002,-9.505844297600001,2.2454656112,-12.3891324,6.41467877,-10.23307791,,,
imu,66.806238,-0.7596540560000001,-9.482516338400002,2.2783640152,-11.97790235,6.08569473,-9.8517555,,,
imu,66.81472,-0.7698226536000001,-9.434065961600002,2.2951122936,-11.26011899,5.74175687,-9.33584871,,,
imu,66.823201,-0.7668318896,-9.3993730992,2.3256180864,-10.69187383,5.32304991,-8.62554226,,,
imu,66.831682,-0.7752060288000001,-9.3688673064,2.356722032,-9.71239862,4.91929677,-7.862897439999999,,,
imu,66.840164,-0.7770004872000001,-9.3622876256,2.3818444496,-8.560954480000001,4.57535891,-7.13016026,,,
imu,66.848645,-0.7853746264000001,-9.360493167200001,2.3920130472,-7.3796027,4.216467229999999,-6.54696128,,,
imu,66.857126,-0.7901598488000001,-9.3628857784,2.4021816448,-6.2580662,3.56597606,-6.203023419999999,,,
imu,66.865608,-0.7991321408000002,-9.3838211264,2.431491132,-5.14400661,3.07997691,-5.79927028,,,
imu,66.874089,-0.8039173632000001,-9.4005694048,2.4530246328,-4.254254319999999,2.60145467,-5.50767079,,,
imu,66.88257,-0.8182730304000002,-9.419112141600001,2.4787452032,-3.36450203,2.06311715,-5.12634838,,,
imu,66.891052,-0.8314323920000001,-9.450814240000001,2.5026713152,-2.83364142,1.47991817,-4.81979507,,,
imu,66.899533,-0.8332268504000001,-9.479525574400002,2.5140362184,-2.45979592,0.9041961000000001,-4.52071867,,,
imu,66.908014,-0.8523677400000002,-9.499862769600002,2.5218122048,-2.25044244,0.5079198699999998,-4.26650373,,,
imu,66.916496,-0.8547603512000002,-9.4944793944,2.5176251352,-1.98875059,0.1789358299999999,-4.102011709999999,,,
imu,66.924977,-0.8768920048000002,-9.5004609224,2.5379623304,-1.8466893,-0.1949096699999999,-3.92256587,,,
imu,66.933459,-0.8888550608000001,-9.5184055064,2.5313826496,-1.91398149,-0.39678624,-3.98985806,,,
imu,66.94194,-0.9067996448000001,-9.5393408544,2.5200177464,-1.74948947,-0.43417079,-3.67582784,,,
imu,66.950421,-0.9163700896000002,-9.536948243200001,2.508652843200001,-1.48779762,-0.4715553400000001,-3.47395127,,,
imu,66.958808,-0.9337165208000001,-9.516012895200001,2.512839912800001,-1.40555161,-0.4416477000000003,-3.25712088,,,
imu,66.967289,-0.9408943544,-9.5118258256,2.5146343712,-1.36816706,-0.35192478,-3.1973056,,,
imu,66.975771,-0.9343146736000002,-9.520199964800002,2.522410357600001,-0.90459864,-0.1276174800000001,-3.18235178,,,
imu,66.984252,-0.9361091320000001,-9.523190728800001,2.5188214408,-0.54570696,-0.03041764999999996,-3.20478251,,,
imu,66.992734,-0.9444832712000001,-9.51062952,2.5080546904,-0.2017691,-0.01546383000000029,-3.1973056,,,
imu,67.001215,-0.9444832712000001,-9.499264616800001,2.529588191200001,-0.03727708,0.1639820099999998,-3.18235178,,,
imu,67.009696,-0.9313239096000001,-9.495077547200001,2.5349715664,0.26179932,0.3135202100000001,-3.10010577,,,
imu,67.018155,-0.9420906600000001,-9.5172092008,2.5355697192,0.56835263,0.58268897,-2.87579847,,,
imu,67.026613,-0.9289312984000001,-9.501657228000001,2.5307844968,0.80761375,0.9939190199999999,-2.47952224,,,
imu,67.035072,-0.9079959504000001,-9.4831144912,2.5248029688,0.9347212199999999,1.08364194,-2.02343073,,,
imu,67.04353,-0.8942384360000002,-9.46576806,2.515232524,1.19641307,1.09859576,-1.91127708,,,
imu,67.051988,-0.8655271016000001,-9.444234559200002,2.518223288000001,1.4431511,1.09859576,-2.09819983,,,
imu,67.060447,-0.8565548096000002,-9.501657228000001,2.552916150400001,1.68241222,1.03130357,-2.08324601,,,
imu,67.068905,-0.8445917536,-9.585398620000001,2.554112456,2.0413039,0.9191499199999997,-2.02343073,,,
imu,67.077364,-0.8463862120000001,-9.613511801600001,2.518223288000001,2.27308811,0.6724118899999998,-2.03838455,,,
imu,67.085822,-0.8421991424,-9.585996772800002,2.5134380656,2.29551884,0.4630584099999999,-2.26269185,,,
imu,67.094281,-0.8368157672000002,-9.538742701600002,2.487717495200001,2.36281103,0.3658585799999998,-2.30755331,,,
imu,67.102739,-0.8230582528,-9.4729458936,2.4631932304,2.69179507,0.3957662200000001,-2.02343073,,,
imu,67.111198,-0.8140859608000002,-9.440047489600001,2.4368745072,3.2376095,0.2537049300000001,-1.52247776,,,
imu,67.119656,-0.8057118216000001,-9.440047489600001,2.4219206872,3.77594702,0.1789358299999999,-1.22340136,,,
imu,67.128115,-0.804515516,-9.489096019200002,2.4027797976,4.47877656,0.04435144999999974,-1.03647861,,,
imu,67.136573,-0.8110951968000001,-9.556089132800002,2.379451838400001,4.822714420000001,-0.2248173100000002,-0.9841402399999999,,,
imu,67.145031,-0.8122915024000001,-9.5985579816,2.3579183376,4.98720644,-0.3220171400000003,-0.79721749,,,
imu,67.15349,-0.8170767248000002,-9.6296619272,2.3513386568,5.12179082,-0.5911859000000002,-0.6925407499999998,,,
imu,67.161948,-0.8212637944000001,-9.655382497600002,2.3501423512,5.09936009,-0.5911859000000002,-0.51309491,,,
imu,67.170407,-0.8278434752000001,-9.668541859200001,2.3471515872,4.68813004,-0.6510011800000002,-0.55047946,,,
imu,67.178865,-0.8314323920000001,-9.7056273328,2.3429645176,4.38905364,-0.6958626400000001,-0.5579563699999999,,,
imu,67.187324,-0.8374139200000001,-9.717590388800001,2.3339922256,4.01520814,-0.6510011800000002,-0.6551562,,,
imu,67.195782,-0.8374139200000001,-9.7283571392,2.3339922256,3.64883955,-0.3818324200000003,-0.62524856,,,
imu,67.204241,-0.840404684,-9.7151977776,2.3495441984,3.20770186,-0.3594016900000003,-0.6925407499999998,,,
imu,67.212699,-0.8523677400000002,-9.693066124000001,2.3429645176,2.67684125,-0.2622018600000002,-0.79721749,,,
imu,67.221159,-0.8475825176000001,-9.688280901600002,2.344758976,2.15345755,-0.01546383000000029,-1.01404788,,,
imu,67.229619,-0.8535640456000001,-9.6846919848,2.3489460456,1.79456587,0.1490281899999997,-1.17106299,,,
imu,67.238078,-0.8487788232000001,-9.678112304,2.3543294208,1.47305874,0.3658585799999998,-1.49257012,,,
imu,67.246538,-0.8463862120000001,-9.658971414400002,2.3459552816,1.16650543,0.44062768,-1.82155416,,,
imu,67.254998,-0.8451899064,-9.631456385600002,2.34774974,0.94219813,0.7920424499999998,-1.97856927,,,
imu,67.263457,-0.8386102256000002,-9.619493329600001,2.348347892800001,0.9646288599999999,1.01634975,-1.99352309,,,
imu,67.271917,-0.8188711832000002,-9.61530626,2.3399737536,1.24127453,1.18084177,-2.09072292,,,
imu,67.280377,-0.8152822664000001,-9.5949690648,2.3244217808,1.5926893,1.54721036,-2.15801511,,,
imu,67.288837,-0.7985339880000002,-9.577024480800002,2.3435626704,1.69736604,1.81637912,-2.2253073,,,
imu,67.297296,-0.7770004872000001,-9.599754287200001,2.3668906296,1.87681188,1.95844041,-2.36736859,,,
imu,67.305756,-0.7734115704000001,-9.631456385600002,2.3435626704,2.10111918,1.96591732,-2.69635263,,,
imu,67.314216,-0.7698226536000001,-9.631456385600002,2.3525349624,2.25813429,1.96591732,-2.94309066,,,
imu,67.322676,-0.7674300424000001,-9.606932120800002,2.3698813936,2.02635008,1.83880985,-3.10010577,,,
imu,67.331135,-0.7746078760000001,-9.593772759200002,2.3668906296,2.04878081,1.93600968,-3.04029049,,,
imu,67.339595,-0.7764023344000002,-9.595567217600001,2.344758976,2.0413039,1.90610204,-2.95056757,,,
imu,67.348055,-0.7704208064000001,-9.625474857600002,2.3381792952,2.02635008,1.98834805,-2.5991528,,,
imu,67.356514,-0.7662337368000001,-9.619493329600001,2.3262162392,2.16841137,2.16779389,-2.41223005,,,
imu,67.364974,-0.7656355840000001,-9.605735815200001,2.2975049048,2.22822665,2.2500399,-2.21035348,,,
imu,67.373434,-0.7662337368000001,-9.591978300800001,2.2975049048,2.20579592,2.28742445,-2.27016876,,,
imu,67.381894,-0.7494854584000001,-9.597361676,2.296906752,2.29551884,2.29490136,-2.21783039,,,
imu,67.390353,-0.744700236,-9.5985579816,2.305879044,2.35533412,2.22760917,-2.27016876,,,
imu,67.398813,-0.7327371800000001,-9.596763523200002,2.3010938216,2.46748777,2.31733209,-2.35989168,,,
imu,67.407273,-0.7315408744,-9.627269316000001,2.3232254752,2.43758013,2.30237827,-2.33746095,,,
imu,67.415733,-0.7261574992000001,-9.646410205600002,2.3339922256,2.116073,2.12293243,-2.27016876,,,
imu,67.424201,-0.7243630408,-9.6535880392,2.3304033088,1.91419643,2.07807097,-2.16549202,,,
imu,67.43267,-0.7129981376000001,-9.657176956,2.3184402528,1.86933497,1.8014253,-2.34493786,,,
imu,67.441138,-0.7291482632,-9.638634219200002,2.3196365584,1.54782784,1.62945637,-2.47204533,,,
imu,67.449607,-0.7321390272000001,-9.614109954400002,2.308869808,1.42072037,1.47991817,-2.65149117,,,
imu,67.458076,-0.7333353328000001,-9.5985579816,2.2963085992,1.63755076,1.32290306,-2.64401426,,,
imu,67.466544,-0.7399150136000001,-9.597361676,2.290925224,1.91419643,1.19579559,-2.79355246,,,
imu,67.475013,-0.7488873056,-9.589585689600002,2.2711861816,1.91419643,1.13598031,-3.04029049,,,
imu,67.483482,-0.7536725280000001,-9.596763523200002,2.28793446,2.13102682,1.09859576,-2.98795212,,,
imu,67.49195,-0.7614485144,-9.630858232800001,2.3016919744,2.37028794,1.2780416,-2.78607555,,,
imu,66.189042,,,,,,,75.02544040000001,-15.10644040000002,7.02525839999999
imu,66.290574,,,,,,,78.15048360000002,-15.265134,6.915393599999997
imu,66.392167,,,,,,,75.04985479999999,-15.16747640000002,7.904176799999996
imu,66.493669,,,,,,,77.8575108,-16.119638,5.780123999999997
imu,66.595353,,,,,,,75.25737720000001,-15.13085480000001,7.708861599999994
imu,66.696733,,,,,,,76.4903044,-15.89990840000002,6.109718399999997
imu,66.798448,,,,,,,74.42728759999999,-14.44725160000002,8.331428799999996
imu,66.899949,,,,,,,74.5493596,-14.12986440000001,7.50133919999999
imu,67.500419,-0.7698226536000001,-9.654784344800001,2.2843455432,2.63197979,1.56964109,-2.5243837,,,
imu,67.508887,-0.7572614448000001,-9.6709344704,2.2873363072,2.52730305,1.69674856,-2.29259949,,,
imu,67.517356,-0.7620466672,-9.6709344704,2.2795603208,2.37776485,1.90610204,-1.90380017,,,
imu,67.525825,-0.7620466672,-9.646410205600002,2.2705880288,2.28056502,1.98087114,-1.63463141,,,
imu,67.534293,-0.741709472,-9.634447149600001,2.2747750984,2.34785721,2.19770153,-1.48509321,,,
imu,67.542762,-0.7285501104000001,-9.618895176800002,2.2664009592,2.27308811,2.21265535,-1.47013939,,,
imu,67.551231,-0.7201759712000001,-9.6224840936,2.2658028064,2.31047266,2.15284007,-1.48509321,,,
imu,67.559699,-0.7064184568,-9.6218859408,2.2532415976,2.18336519,2.24256299,-1.55986231,,,
imu,67.568168,-0.7010350816000002,-9.6015487456,2.2556342088,2.17588828,2.19022462,-1.43275484,,,
imu,67.576636,-0.6836886504,-9.5602762024,2.2508489864,2.30299575,2.05564024,-1.42527793,,,
imu,67.585105,-0.6938572480000001,-9.5776226336,2.2813547792,2.3403803,1.92105586,-1.63463141,,,
imu,67.593574,-0.6836886504,-9.631456385600002,2.2825510848,2.52730305,1.6518871,-1.82155416,,,
imu,67.602042,-0.6950535536000001,-9.709814402400001,2.2921215296,2.39271867,1.43505671,-2.04586146,,,
imu,67.610511,-0.7040258456,-9.765442612800001,2.2747750984,2.22822665,1.33785688,-2.2253073,,,
imu,67.61898,-0.7106055264000001,-9.766040765600001,2.25802682,1.83195042,1.21822632,-2.34493786,,,
imu,67.627799,-0.7100073736000001,-9.748096181600001,2.2574286672,1.18893616,1.18831868,-2.4496146,,,
imu,67.636619,-0.7141944432000001,-9.70502918,2.2358951664,1.12164397,1.45001053,-2.18792275,,,
imu,67.645438,-0.7106055264000001,-9.688280901600002,2.225128416,1.06182869,1.65936401,-2.0757691,,,
imu,67.654258,-0.7123999848000001,-9.672130776000001,2.192230012,1.03192105,1.92853277,-2.11315365,,,
imu,67.663078,-0.708811068,-9.633250844,2.1838558728,1.02444414,2.1752708,-2.06829219,,,
imu,67.671897,-0.7076147624000001,-9.620091482400001,2.1790706504,1.00949032,2.1752708,-2.50942988,,,
imu,67.680717,-0.6956517064000001,-9.614708107200002,2.1868466368,1.09173633,2.24256299,-2.8982292,,,
imu,67.689536,-0.6992406232000001,-9.625474857600002,2.186248484,1.16650543,2.15284007,-3.36927453,,,
imu,67.698356,-0.6986424704000002,-9.633250844,2.1868466368,1.35342818,2.28742445,-3.60105874,,,
imu,67.707175,-0.6950535536000001,-9.6458120528,2.195220776,1.27865908,2.33976282,-3.83284295,,,
imu,67.715995,-0.6932590952000001,-9.635045302400002,2.2077819848,1.45810492,2.41453192,-3.68330475,,,
imu,67.724815,-0.6956517064000001,-9.648204664000001,2.2137635128,1.31604363,2.38462428,-3.6459202,,,
imu,67.733634,-0.6860812616,-9.672130776000001,2.2173524296,1.15155161,2.4743472,-3.48890509,,,
imu,67.742454,-0.6806978864000002,-9.6703363176,2.21316536,1.06182869,2.5491163,-3.3468438,,,
imu,67.751273,-0.6723237472000001,-9.6703363176,2.225128416,0.91229049,2.56407012,-3.14496723,,,
imu,67.760093,-0.6627533024,-9.669140012000002,2.222735804800001,0.70293701,2.38462428,-3.10010577,,,
imu,67.768913,-0.6603606912000002,-9.675121540000001,2.2245302632,0.51601426,2.26499372,-3.09262886,,,
imu,67.777732,-0.6567717744000001,-9.667943706400001,2.2233339576,0.52349117,2.14536316,-3.03281358,,,
imu,67.786552,-0.6585662328000002,-9.667345553600002,2.2293154856,0.3739529699999999,1.97339423,-2.9729983,,,
imu,67.795371,-0.6603606912000002,-9.672728928800002,2.2358951664,0.23189168,1.73413311,-3.08515195,,,
imu,67.804191,-0.6651459136000001,-9.655382497600002,2.2454656112,0.20946095,1.71917929,-2.96552139,,,
imu,67.81301,-0.6711274416,-9.641026830400001,2.2412785416,0.20198404,1.7266562,-2.87579847,,,
imu,67.82183,-0.6609588440000002,-9.641624983200002,2.243073,0.29918387,1.66684092,-2.71130645,,,
imu,67.830297,-0.6699311360000001,-9.6326526912,2.249652680800001,0.28423005,1.77151766,-2.5243837,,,
imu,67.838765,-0.6729219000000001,-9.605735815200001,2.2646065008,0.30666078,1.76404075,-2.56176825,,,
imu,67.847232,-0.6645477608,-9.633848996800001,2.2921215296,0.47862971,1.71917929,-2.59167589,,,
imu,67.855699,-0.663949608,-9.6499991224,2.2855418488,0.33656842,1.67431783,-2.84589083,,,
imu,67.864167,-0.6597625384000001,-9.635643455200002,2.2801584736,0.31413769,1.62945637,-3.01038285,,,
imu,67.872634,-0.6543791632000001,-9.630260080000001,2.3172439472,0.38142988,1.54721036,-3.24216706,,,
imu,67.881101,-0.6627533024,-9.630858232800001,2.3274125448,0.41133752,1.39019525,-3.39918217,,,
imu,67.889569,-0.6753145112000001,-9.621287788000002,2.325019933600001,0.66555246,1.66684092,-3.23469015,,,
imu,67.898036,-0.6627533024,-9.600352440000002,2.305879044,0.74779847,1.83133294,-2.94309066,,,
imu,67.906504,-0.6603606912000002,-9.572239258400002,2.3154494888,0.65059864,1.85376367,-2.748691,,,
imu,67.914971,-0.6513883992,-9.5602762024,2.307673502400001,0.8375213899999999,1.95844041,-2.72626027,,,
imu,67.001619,,,,,,,74.6103956,-13.71481960000001,8.490122399999988
imu,67.103059,,,,,,,73.64602680000002,-13.37301800000001,8.502329599999992
imu,67.204805,,,,,,,74.52494519999999,-13.81247720000001,7.818726399999997
imu,67.306215,,,,,,,74.6836388,-13.73923400000001,8.184942399999995
imu,67.407777,,,,,,,76.6001692,-14.48387320000002,8.929581599999992
imu,67.50937,,,,,,,76.648998,-15.31396280000001,6.012060799999997
imu,67.610994,,,,,,,75.12309800000001,-14.39842280000001,8.429086399999996
imu,67.712526,,,,,,,74.7812964,-14.64256680000002,5.267421599999988
imu,67.814058,,,,,,,74.4883236,-14.1786932,8.35584319999999
imu,67.91559,,,,,,,74.42728759999999,-13.69040520000002,8.368050399999994
