Type,Timestamp,Data Accelerometer X,Data Accelerometer Y,Data Accelerometer Z,Data Gyroscope X,Data Gyroscope Y,Data Gyroscope Z,Data Magnetometer X,Data Magnetometer Y,Data Magnetometer Z
imu,266.887398,-0.9067996448000001,-9.560874355200001,2.290327071200001,-1.79435093,1.06121121,-3.84031986,,,
imu,266.896217,-0.9169682424000002,-9.540537160000001,2.2825510848,-1.68219728,0.8219500899999996,-3.9449966,,,
imu,266.905037,-0.9414925072000001,-9.526779645600001,2.299897516,-1.0989983,0.8817653699999997,-4.102011709999999,,,
imu,266.913856,-0.9313239096000001,-9.526181492800001,2.3016919744,-0.8522602699999999,0.7546578999999998,-4.30388828,,,
imu,266.922676,-0.9462777296000001,-9.527377798400002,2.2992993632,-0.43355331,0.7546578999999998,-4.41604193,,,
imu,266.931496,-0.9696056888000001,-9.5638651192,2.3070753496,0.09730729999999999,0.9415806499999997,-4.37865738,,,
imu,266.940315,-0.9719983000000001,-9.6009505928,2.2975049048,0.3739529699999999,1.09859576,-4.18425772,,,
imu,266.949135,-0.980970592,-9.581809703200001,2.2951122936,0.60573718,1.30047233,-4.22164227,,,
imu,266.957954,-0.9845595088000001,-9.5602762024,2.3064771968,0.8749059399999999,1.41262598,-4.28893446,,,
imu,266.966774,-0.9917373424000001,-9.595567217600001,2.323823628,1.01696723,1.41262598,-4.28893446,,,
imu,266.975594,-0.9995133288000001,-9.660765872800003,2.3256180864,1.37585891,1.62197946,-4.25154991,,,
imu,266.984413,-1.0066911624,-9.6817012208,2.3052808912,1.31604363,1.75656384,-4.22911918,,,
imu,266.993233,-1.013868996,-9.668541859200001,2.3124587248,1.08425942,2.1005017,-4.06462716,,,
imu,267.002052,-1.0180560656,-9.654784344800001,2.3226273224,0.8375213899999999,2.44443956,-3.61601256,,,
imu,267.010872,-1.0222431352,-9.6458120528,2.290327071200001,1.01696723,2.81080815,-3.05524431,,,
imu,267.019691,-1.0156634544,-9.659569567200002,2.2658028064,1.15902852,3.24446893,-2.76364482,,,
imu,267.028511,-1.0300191216,-9.6494009696,2.243073,1.37585891,3.56597606,-2.50195297,,,
imu,267.037331,-1.0150653016,-9.627269316000001,2.2239321104,1.49548947,3.94729847,-2.50942988,,,
imu,267.045868,-1.0126726904,-9.627269316000001,2.2006041512,1.72727368,4.32114397,-2.71878336,,,
imu,267.054405,-1.004896704,-9.6296619272,2.1790706504,2.02635008,4.694989469999999,-3.10758268,,,
imu,267.062942,-0.9995133288000001,-9.612913648800001,2.1689020528,2.22074974,4.9417275,-3.39918217,,,
imu,267.07148,-0.9731946056000002,-9.611119190400002,2.1874447896,2.37028794,5.21837317,-3.5711511,,,
imu,267.080017,-0.9486703408000001,-9.6499991224,2.1970152344,2.37028794,5.637080129999999,-3.48142818,,,
imu,267.088554,-0.9205571592,-9.687084596000002,2.1994078456,2.37028794,5.853910519999999,-3.45152054,,,
imu,267.097092,-0.8900513664000002,-9.709216249600003,2.1874447896,2.12354991,5.966064169999999,-3.42908981,,,
imu,267.105629,-0.8780883104000001,-9.706225485600001,2.195220776,1.77961205,5.90624889,-3.45899745,,,
imu,267.114166,-0.8553585040000001,-9.685290137600001,2.1934263176,1.42819728,5.726803049999999,-3.47395127,,,
imu,267.122704,-0.8224601,-9.659569567200002,2.1874447896,1.24127453,5.58474176,-3.3468438,,,
imu,267.131241,-0.8039173632000001,-9.630858232800001,2.1808651088,1.04687487,5.27071154,-3.31693616,,,
imu,267.139778,-0.7883653904000001,-9.6159044128,2.177276192,0.70293701,4.73237402,-3.46647436,,,
imu,267.148315,-0.7775986400000001,-9.6260730104,2.1641168304,0.7253677399999999,4.246374869999999,-3.53376655,,,
imu,267.156853,-0.7865709320000001,-9.6326526912,2.1545463856,0.8674290299999999,3.80523718,-3.33936689,,,
imu,267.16539,-0.7979358352000001,-9.658373261600001,2.1677057472,0.97210577,3.22951511,-3.21973633,,,
imu,267.173927,-0.8015247520000001,-9.700243957600001,2.170696511200001,1.05435178,2.72108523,-3.24216706,,,
imu,267.182465,-0.8224601,-9.7325442088,2.1844540256,1.19641307,2.26499372,-3.10010577,,,
imu,267.191002,-0.8350213088000001,-9.786377960800001,2.2047912208,1.28613599,1.99582496,-3.10758268,,,
imu,267.199539,-0.8553585040000001,-9.801929933600002,2.2149598184,1.10669015,1.86124058,-3.13001341,,,
imu,267.208076,-0.8912476720000001,-9.792957641600001,2.2466619168,0.60573718,1.59207182,-3.30945925,,,
imu,267.216614,-0.9038088808000001,-9.785181655200002,2.2675972648,-0.26158438,1.32290306,-3.67582784,,,
imu,267.225151,-0.9229497704,-9.7845835024,2.2562323616,-0.71019898,1.18084177,-4.124442439999999,,,
imu,267.233688,-0.9373054376000002,-9.736731278400002,2.2352970136,-1.13638285,1.21822632,-4.49081103,,,
imu,267.242226,-0.9552500216000002,-9.6876827488,2.2478582224,-1.65228964,1.21074941,-4.81979507,,,
imu,267.250637,-0.9761853696000001,-9.6523917336,2.2376896248,-1.92893531,1.28551851,-4.96185636,,,
imu,267.259048,-0.9779798280000002,-9.632054538400002,2.2077819848,-1.80930475,1.53973345,-4.96933327,,,
imu,267.26746,-0.9881484256000002,-9.605735815200001,2.1940244704,-1.51022835,1.84628676,-4.625395409999999,,,
imu,267.275871,-1.0007096344,-9.5800152448,2.178472497600001,-0.7550604399999999,2.28742445,-4.22911918,,,
imu,267.284283,-1.0090837736,-9.5842023144,2.186248484,-0.08961545,2.64631613,-3.9449966,,,
imu,267.292694,-1.0037003984,-9.605735815200001,2.1928281648,0.31413769,2.93043871,-3.82536604,,,
imu,267.301105,-0.998915176,-9.618895176800002,2.180266956,0.56087572,3.31923803,-3.60853565,,,
imu,267.309517,-0.9959244120000001,-9.630858232800001,2.1958189288,0.7702292,3.71551426,-3.55619728,,,
imu,267.317928,-0.9857558144000002,-9.647606511200001,2.2047912208,0.620691,4.03702139,-3.60105874,,,
imu,267.32634,-0.9779798280000002,-9.669738164800002,2.2125672072,0.23936859,4.37348234,-3.5711511,,,
imu,267.334751,-0.9564463272000002,-9.6942624296,2.2215394992,0.03749201999999999,4.73237402,-3.50385891,,,
imu,267.343162,-0.9438851184000001,-9.7265626808,2.2245302632,-0.26158438,5.046404239999999,-3.54124346,,,
imu,267.351574,-0.9056033392000001,-9.748096181600001,2.2352970136,-0.52327623,5.308096089999999,-3.52628964,,,
imu,267.359985,-0.8858642968000001,-9.749890640000002,2.2526434448,-0.80739881,5.48006502,-3.65339711,,,
imu,267.368397,-0.8727049352000001,-9.7474980288,2.2837473904,-1.38312088,5.43520356,-3.75059694,,,
imu,267.376808,-0.8517695872000001,-9.7612555432,2.2945141408,-2.02613514,5.19594244,-3.72816621,,,
imu,267.38522,-0.840404684,-9.7702278352,2.326814392,-2.51213429,5.10621952,-3.89265823,,,
imu,267.393631,-0.8218619472,-9.785181655200002,2.34774974,-3.0429949,4.79966621,-3.83284295,,,
imu,267.402042,-0.8266471696000001,-9.7911631832,2.365694324000001,-3.68600916,4.47068217,-3.87770441,,,
imu,267.410454,-0.8236564056000001,-9.800135475200001,2.37765738,-4.463607799999999,4.02206757,-3.97490424,,,
imu,267.418865,-0.8170767248000002,-9.776209363200001,2.4069668672,-5.084191329999999,3.55849915,-4.102011709999999,,,
imu,267.427277,-0.8499751288000001,-9.7714241408,2.4129483952,-5.52532902,3.2220382,-4.10948862,,,
imu,267.435688,-0.8727049352000001,-9.745703570400002,2.4338837432,-6.168343279999999,2.81828506,-4.057150249999999,,,
imu,267.444099,-0.8876587552000001,-9.727160833600001,2.4458467992,-6.48985041,2.57154703,-3.95247351,,,
imu,267.452595,-0.9265386872000001,-9.701440263200002,2.447043104800001,-6.68425007,2.50425484,-3.95247351,,,
imu,267.46109,-0.9588389384,-9.665551095200001,2.4542209384,-7.03566484,2.3995781,-4.012288789999999,,,
imu,267.469585,-0.9797742864000001,-9.620689635200002,2.4560153968,-7.29735669,2.33228591,-3.98985806,,,
imu,267.478081,-0.9971207176000002,-9.575230022400001,2.479343356,-7.686156009999999,2.30237827,-4.21416536,,,
imu,267.486576,-0.9887465784000001,-9.568052188800001,2.497287940000001,-7.76840202,2.4743472,-4.52819558,,,
imu,267.495071,-0.9977188704000002,-9.560874355200001,2.5116436072,-7.95532477,2.46687029,-4.86465653,,,
imu,267.503567,-1.0060930096,-9.5213962704,2.5248029688,-8.17963207,2.65379304,-4.9169949,,,
imu,267.512062,-0.9923354952000002,-9.530966715200002,2.5559069144,-8.41889319,2.80333124,-4.8422258,,,
imu,267.520557,-0.9498666464000002,-9.554892827200002,2.5672718176,-8.44880083,2.73603905,-4.78241052,,,
imu,267.529053,-0.9253423816,-9.551303910400001,2.5738514984,-8.344124090000001,2.4743472,-5.044102369999999,,,
imu,267.537548,-0.8972292000000002,-9.555490980000002,2.5905997768,-8.30673954,2.12293243,-5.18616366,,,
imu,267.546043,-0.8685178656000001,-9.557285438400001,2.595983152,-8.17215516,1.50982581,-5.0665331,,,
imu,267.554539,-0.8559566568000001,-9.548313146400002,2.606749902400001,-8.01514005,1.01634975,-4.68521069,,,
imu,267.563034,-0.8487788232000001,-9.527377798400002,2.640844612,-7.88055567,0.3658585799999998,-4.146873169999999,,,
imu,267.571529,-0.8685178656000001,-9.502853533600002,2.6486205984,-7.85812494,-0.39678624,-3.54872037,,,
imu,267.580025,-0.8523677400000002,-9.5004609224,2.6522095152,-7.544094719999999,-0.8080162900000003,-2.58419898,,,
imu,267.58852,-0.8894532136000001,-9.509433214400001,2.6510132096,-7.19267995,-1.22672325,-1.63463141,,,
imu,267.597015,-0.8984255056000002,-9.508835061600001,2.6653688768,-6.96089574,-1.47346128,-0.9318018699999999,,,
imu,267.605511,-0.9115848672000001,-9.5010590752,2.6779300856,-6.68425007,-1.73515313,-0.6775869299999999,,,
imu,267.614006,-0.9307257568000001,-9.4938812416,2.686902377600001,-6.56461951,-1.97441425,-0.8420789499999999,,,
imu,267.622501,-0.9115848672000001,-9.559678049600002,2.7371472128,-6.243112379999999,-2.20619846,-1.08134007,,,
imu,267.630997,-0.8786864632000002,-9.6015487456,2.736549060000001,-6.026281989999999,-2.43050576,-1.47013939,,,
imu,267.639492,-0.86732156,-9.575230022400001,2.7209970872,-6.01880508,-2.74453598,-1.88136944,,,
imu,267.647987,-0.8463862120000001,-9.556089132800002,2.7670548528,-6.05618963,-3.17071985,-1.96361545,,,
imu,267.656425,-0.7734115704000001,-9.603343204000002,2.815505229600001,-6.07862036,-3.49970389,-1.76921579,,,
imu,267.664864,-0.7046239984,-9.6260730104,2.8005514096,-6.1832971,-3.9557954,-1.27573973,,,
imu,267.673302,-0.6346401208000001,-9.613511801600001,2.761671477600001,-6.17582019,-4.90536297,-0.74487912,,,
imu,267.68174,-0.55329134,-9.554294674400001,2.778419756,-6.42255822,-6.11662239,-0.5056179999999999,,,
imu,267.690178,-0.4970649768000001,-9.496872005600002,2.7915791176,-6.811357539999999,-7.90360388,-0.2439261499999998,,,
imu,267.698616,-0.442633072,-9.5148165896,2.820290452000001,-6.84126518,-9.92236958,0.2944113700000002,,,
imu,267.707054,-0.4462219888000001,-9.528574104,2.8167015352,-6.833788269999999,-11.99347365,0.8252719800000001,,,
imu,267.715492,-0.4384460024000001,-9.569248494400002,2.8627593008,-6.856218999999999,-14.124393,1.34117877,,,
imu,267.72393,-0.4270810992000001,-9.590183842400002,2.8340479664,-7.07304939,-15.97118977,1.79727028,,,
imu,267.732368,-0.4791203928000001,-9.5249851872,2.8424221056,-7.656248369999999,-17.7880789,2.12625432,,,
imu,267.740807,-0.5311596864,-9.474740352000001,2.8436184112,-8.18710898,-19.59749112,2.97114515,,,
imu,267.749245,-0.5724322296000001,-9.393391571200002,2.8448147168,-8.11981679,-21.02558093,4.36932732,,,
imu,267.757683,-0.6615569968000001,-9.33118368,2.865151912,-8.17215516,-22.22936344,5.0272954,,,
imu,267.766121,-0.6699311360000001,-9.394587876800001,2.927957956,-7.9777555,-23.15650028,5.49086382,,,
imu,267.774559,-0.6202844536000002,-9.4908904776,2.962052665600001,-7.775878929999999,-23.89671437,6.089016620000001,,,
imu,267.782997,-0.4976631296000001,-9.6051376624,3.007512278400001,-7.62634073,-24.71169756,6.545108130000001,,,
imu,267.791435,-0.3469286240000001,-9.6523917336,2.9692304992,-7.820740389999999,-26.44634068,6.4479083,,,
imu,267.799873,-0.2643835376,-9.6015487456,2.9716231104,-8.03757078,-28.95858244,6.260985550000001,,,
imu,267.808311,-0.122621324,-9.719983000000001,3.105609337600001,-8.411416280000001,-32.03906936,6.066585890000001,,,
imu,267.81675,0.06160973840000001,-9.756470320800002,3.068523864000001,-8.80769251,-35.059741,6.62735414,,,
imu,267.825188,0.2745521352,-9.85456738,3.1379095888,-9.18153801,-39.1720415,7.569444800000001,,,
imu,267.833626,0.5987509528,-9.923354952,3.138507741600001,-10.09372103,-44.00960227,8.72836585,,,
imu,266.927982,,,,,,,72.29102759999999,-10.15031720000001,10.54093199999999
imu,267.029544,,,,,,,72.5717932,-10.46770440000002,10.30899519999999
imu,267.842064,1.0066911624,-9.870717505600002,3.055962655200001,-11.26011899,-50.05094555,10.07420965,,,
imu,267.850502,1.2638968664,-9.7750130576,2.9925584584,-12.42651695,-58.08114689,11.76399131,,,
imu,267.859409,1.3422548832,-9.608128426400002,2.854983314400001,-13.44337671,-67.30017692,14.02949504,,,
imu,267.868316,1.402668316,-9.519601812000001,2.7879902008,-14.23592917,-76.99772918999999,16.93053612,,,
imu,267.877223,1.3153380072,-9.364082084000001,2.6725467104,-14.88642034,-86.47097416,20.51197601,,,
imu,267.886131,1.1281161808,-9.246844135200002,2.555308761600001,-14.98362017,-95.92926530999999,24.50464595,,,
imu,267.895038,0.8278434752000001,-9.262396108,2.536167872,-14.54248248,-104.2959276,28.13842421,,,
imu,267.903945,0.4689517952000001,-9.315033554400001,2.5403549416,-13.89199131,-111.31674609,31.67500264,,,
imu,267.912852,0.04605776560000001,-9.411934308000001,2.6211055696,-12.86017773,-116.75245966,34.83025866,,,
imu,267.921759,-0.3762381112000001,-9.527975951200002,2.620507416800001,-11.79845651,-120.25913045,37.13314694,,,
imu,267.930666,-0.648995788,-9.555490980000002,2.578636720800001,-11.0432886,-122.03115812,38.41917546,,,
imu,267.939573,-1.0042985512,-9.4729458936,2.5194195936,-10.50495108,-122.539588,38.77059023,,,
imu,267.948481,-1.265093172,-9.3545116392,2.5559069144,-9.65258334,-121.88909683,38.12009906,,,
imu,267.957388,-1.4218092056,-9.270172094400001,2.5702625816,-8.86003088,-119.90023877,37.1032393,,,
imu,267.966295,-1.5534028216,-9.1960011472,2.569066276,-7.708586739999999,-117.27584336,35.69010331,,,
imu,267.975202,-1.6915761184,-9.2157401896,2.6234981808,-6.41508131,-114.48695593,34.04518311,,,
imu,267.98399,-1.788476872,-9.246245982400001,2.640844612,-5.06923751,-110.88308531,32.53484729,,,
imu,267.992897,-1.9158834184,-9.291107442400001,2.6940802112,-3.78320899,-106.94275374,31.30863405,,,
imu,268.001804,-2.1150683008,-9.399971252000002,2.8184959936,-2.7439185,-102.55380757,30.09737463,,,
imu,268.010712,-2.2119690544,-9.438851184,2.8627593008,-2.01118132,-97.14800163999999,29.09546869,,,
imu,268.019619,-2.232306249600001,-9.406550932800002,2.8490017864,-1.622382,-90.99450470999999,27.92907073,,,
imu,268.028526,-2.2646065008,-9.3557079448,2.8579740784,-1.49527453,-84.77371559,26.79258041,,,
imu,268.037433,-2.1796688032,-9.322809540800002,2.8848909544,-0.9793677399999999,-78.55292646999999,25.28224459,,,
imu,268.04634,-2.1150683008,-9.359895014400001,2.9112096776,-0.16438455,-72.30222970999999,23.57750911,,,
imu,268.055247,-2.0857588136,-9.388008196000001,2.9094152192,0.67302937,-66.54500900999999,22.47840334,,,
imu,268.063623,-2.066617924,-9.403560168800002,2.8866854128,1.43567419,-61.01209561,21.52883577,,,
imu,268.071999,-2.0056063384,-9.382624820800002,2.8962558576,2.0413039,-55.34459783,20.5792682,,,
imu,268.080375,-1.9152852656,-9.3904008072,2.945304387200001,2.59459524,-49.58737713,19.80166956,,,
imu,268.088751,-1.8470958464,-9.3832229736,2.966239735200001,3.24508641,-44.20400193,19.10631693,,,
imu,268.097126,-1.7304560504,-9.416121377600001,3.0039233616,3.52173208,-39.01502639,18.50068722,,,
imu,268.105502,-1.5725437112,-9.4591883792,3.011699348,3.731085559999999,-34.11017343,18.01468807,,,
imu,268.113878,-1.4481279288,-9.486703408,3.0045215144,3.81333157,-29.75861181,17.34924308,,,
imu,268.122254,-1.3392641192,-9.520798117600002,3.0302420848,3.61893191,-26.11735664,16.42210624,,,
imu,268.13063,-1.2585134912,-9.553696521600001,3.03562546,3.44696298,-22.91723916,15.6445076,,,
imu,268.139005,-1.1825480856,-9.596165370400001,3.03562546,3.03573293,-20.17321319,14.94167806,,,
imu,268.147381,-1.088638096,-9.596763523200002,3.0350273072,2.69927198,-17.66097143,14.38838672,,,
imu,268.155757,-0.980970592,-9.564463272000001,3.055962655200001,2.46001086,-15.20854495,13.76780319,,,
imu,268.164133,-0.8810790744000001,-9.5154147424,3.068523864000001,2.10859609,-13.06267178,13.34161932,,,
imu,268.172509,-0.8170767248000002,-9.440645642400002,3.0547663496,1.95158098,-11.09624445,13.29675786,,,
imu,268.180884,-0.6998387760000001,-9.3898026544,3.0697201696,1.88428879,-9.47375498,13.22946567,,,
imu,268.18926,-0.5891805080000001,-9.352119028,3.0739072392,2.23570356,-7.769019500000001,13.12478893,,,
imu,268.197636,-0.4827093096,-9.3443430416,3.055962655200001,2.50487232,-6.51289862,12.69112815,,,
imu,268.206012,-0.367863972,-9.401765710400001,3.062542336,2.84881018,-5.974561100000001,12.02568316,,,
imu,268.214388,-0.2051664104,-9.454403156800002,3.0398125296,3.02825602,-5.69791543,11.40509963,,,
imu,268.222763,-0.0855358504,-9.516012895200001,2.9949510696,2.9385331,-6.11662239,10.80694683,,,
imu,268.231139,-0.004187069600000001,-9.552500216,2.980595402400001,2.7889949,-7.133482150000001,10.66488554,,,
imu,268.239515,0.04007623760000001,-9.562668813600002,2.9770064856,2.44505704,-8.31483393,10.79199301,,,
imu,268.247891,0.0634041968,-9.5501076048,2.968632346400001,2.18336519,-9.51861644,10.91910048,,,
imu,268.256267,0.05383375200000001,-9.507638756,2.963847124,1.88428879,-10.81959878,11.06116177,,,
imu,268.264722,0.007775986400000001,-9.446627170400001,2.981791708,1.76465823,-11.87384309,11.1583616,,,
imu,268.273178,-0.05203929360000001,-9.420906600000002,2.9889695416,1.78708896,-12.60658027,11.07611559,,,
imu,268.281634,-0.1172379488,-9.417915836,3.0003344448,1.95158098,-12.88322594,10.79199301,,,
imu,268.29009,-0.1758569232,-9.419112141600001,2.9859787776,2.31794957,-12.98042577,10.17140948,,,
imu,268.298546,-0.2075590216,-9.4215047528,2.9931566112,2.51234923,-12.71873392,9.29661101,,,
imu,268.307002,-0.2739539824000001,-9.456795768000001,2.993754764000001,2.7142258,-12.37479606,8.466674000000001,,,
imu,268.315457,-0.3403489432000001,-9.4831144912,2.9889695416,2.90114855,-11.53738214,7.853567379999999,,,
imu,268.323913,-0.3870048616000001,-9.5010590752,3.003325208800001,2.92357928,-10.61772221,7.4946757,,,
imu,268.332369,-0.4276792520000001,-9.517807353600002,3.0069141256,2.81142563,-9.39898588,7.1208302,,,
imu,268.340825,-0.4587831976000001,-9.548313146400002,3.0254568624,2.69179507,-7.813880960000001,6.70960015,,,
imu,268.349281,-0.4749333232000001,-9.530368562400001,3.0069141256,2.35533412,-6.11662239,6.350708470000001,,,
imu,268.357736,-0.4821111568000001,-9.5447242296,3.0410088352,2.3403803,-4.26234871,6.305847010000001,,,
imu,268.366192,-0.4671573368000001,-9.6494009696,3.0840758368,2.35533412,-2.49032104,5.887140049999999,,,
imu,268.374648,-0.4450256832000001,-9.725964528,3.068523864000001,1.90671952,-0.7556779200000001,5.318894889999999,,,
imu,268.383104,-0.4288755576000001,-9.765442612800001,3.051775585600001,1.33847436,0.8219500899999996,4.87028029,,,
imu,268.39156,-0.3840140976,-9.756470320800002,3.065533100000001,0.58330645,2.3995781,4.59363462,,,
imu,268.400015,-0.34393786,-9.7504887928,3.0882629064,-0.35878421,3.76785263,4.361850410000001,,,
imu,268.408471,-0.2883096496000001,-9.723571916800001,3.0762998504,-1.36069015,5.07631188,3.94314345,,,
imu,268.416927,-0.236270356,-9.6709344704,3.0661312528,-2.22801171,5.88381816,3.57677486,,,
imu,268.425383,-0.1961941184,-9.596165370400001,3.049981127200001,-2.79625687,6.810955,3.3076061,,,
imu,268.433839,-0.1543234224,-9.514218436800002,3.0422051408,-3.117764,7.6334151,2.86646841,,,
imu,268.442294,-0.1561178808,-9.4729458936,3.044597752,-2.90841052,8.18670644,2.485146,,,
imu,268.45075,-0.1818384512,-9.455001309600002,3.063738641600001,-2.60185721,8.78485924,1.79727028,,,
imu,268.459206,-0.2308869808,-9.478927421600002,3.1187686992,-2.46727283,9.62975007,0.9972409099999999,,,
imu,268.467662,-0.2649816904,-9.479525574400002,3.1229557688,-2.2205348,10.76624039,0.2944113700000002,,,
imu,268.476124,-0.3206099008000001,-9.444832712,3.0996278096,-2.24296553,12.20180711,-0.3859874399999998,,,
imu,268.484586,-0.3624805968,-9.403560168800002,3.094244434400001,-2.49718047,13.78691203,-1.34303192,,,
imu,268.493049,-0.3762381112000001,-9.327594763200002,3.080486920000001,-2.60185721,15.61875498,-2.41970696,,,
imu,268.501511,-0.3965753064,-9.273162858400001,3.056560808,-2.37754991,17.7272436,-3.51881273,,,
imu,268.509973,-0.391790084,-9.218730953600001,3.0422051408,-2.15324261,19.94788587,-4.32631901,,,
imu,268.518436,-0.382817792,-9.188823313600002,3.017680876,-1.62985891,22.24329724,-5.01419473,,,
imu,268.526898,-0.3451341656,-9.1720750352,3.015288264800001,-0.93450628,24.57609316,-5.784316459999999,,,
imu,268.53536,-0.2829262744000001,-9.1720750352,3.0368217656,-0.11204618,26.97618127,-6.270315609999999,,,
imu,268.543822,-0.1985867296,-9.194206688800001,3.0410088352,0.68050628,29.15196208,-6.681545659999999,,,
imu,268.552285,-0.1399677552,-9.267181330400001,3.054168196800001,1.16650543,31.11838941,-7.167544809999999,,,
imu,268.560747,-0.07955432240000002,-9.324005846400002,3.0607478776,1.37585891,32.9053709,-7.77317452,,,
imu,268.569209,-0.03349655680000001,-9.3443430416,3.0703183224,1.68241222,34.29607616,-8.52834243,,,
imu,268.577671,0.0011963056,-9.356306097600001,3.071514628,1.87681188,35.5222894,-9.41809472,,,
imu,268.586134,0.0227298064,-9.394587876800001,3.088861059200001,2.10111918,36.89804084,-10.03867825,,,
imu,268.594596,0.0011963056,-9.489694172,3.1205631576,2.27308811,38.15416172,-10.35270847,,,
imu,268.603058,-0.0155519728,-9.538742701600002,3.087066600800001,2.43010322,39.51495934,-10.7489847,,,
imu,268.611521,-0.01495382,-9.520798117600002,3.070916475200001,2.39271867,40.92809533,-11.41442969,,,
imu,268.619983,-0.03947808480000001,-9.523190728800001,3.063738641600001,2.407672489999999,42.36366204999999,-12.17707451,,,
imu,268.628445,-0.0376836264,-9.4980683112,3.024260556800001,2.59459524,43.73941349,-12.89485787,,,
imu,268.636907,-0.06041343280000001,-9.5291722568,3.0069141256,3.12545585,45.3918106,-13.54534904,,,
imu,268.64537,-0.1447529776,-9.560874355200001,2.9985399864,3.611455,46.97691552,-14.53977807,,,
imu,268.653832,-0.2524204816,-9.574631869600001,2.9255653448,3.91800831,48.85361992999999,-15.32485362,,,
imu,267.131045,,,,,,,71.8515684,-10.33342520000002,9.82070719999999
imu,267.234103,,,,,,,72.1201268,-10.21135320000002,9.674220799999988
imu,267.334292,,,,,,,74.6714316,-11.06585720000002,9.088275199999995
imu,267.435702,,,,,,,72.0468836,-9.552164400000018,10.88273359999999
imu,267.537295,,,,,,,74.35404439999999,-9.869551600000005,8.661023199999995
imu,267.63959,,,,,,,71.7172892,-8.551174000000007,10.7972832
imu,267.740481,,,,,,,72.3398564,-7.95302120000001,9.759671199999998
imu,267.842257,,,,,,,73.6338196,-7.306039600000003,11.96917439999999
imu,268.662294,-0.3367600264,-9.5447242296,2.8795075792,4.08250033,51.28361568,-16.01272934,,,
imu,268.670756,-0.4001642232,-9.5172092008,2.8424221056,4.089977240000001,54.15474912,-16.17722136,,,
imu,268.67956,-0.4181088072000001,-9.450814240000001,2.772438228,4.19465398,57.07074402,-16.32675956,,,
imu,268.688364,-0.4079402096,-9.363483931200001,2.7012580448,4.57597639,59.92692364,-16.88752781,,,
imu,268.697167,-0.3971734592000001,-9.3204169296,2.6791263912,5.01711408,62.64104197,-17.79971083,,,
imu,268.705971,-0.4001642232,-9.340754124800002,2.643835376000001,5.78723581,65.19814519,-18.58478638,,,
imu,268.714775,-0.4402404608,-9.3754469872,2.615124041600001,6.60969591,67.49355656,-19.26518519,,,
imu,268.723578,-0.4593813504000001,-9.356904250400001,2.5732533456,7.34991,69.97589068,-20.0951222,,,
imu,268.732382,-0.4868963792000001,-9.2935000536,2.5236066632,8.187323919999999,72.82459339,-21.20918179,,,
imu,268.741186,-0.5180003248000001,-9.301276040000001,2.5026713152,9.286429689999999,75.71815756000001,-22.06902644,,,
imu,268.749989,-0.5168040192000001,-9.3419504304,2.4267059096,10.6397504,78.91827504,-22.71951761,,,
imu,268.758793,-0.4689517952000001,-9.398176793600001,2.3459552816,11.84353291,82.34269982,-22.98120946,,,
imu,268.767597,-0.3642750552,-9.3796340568,2.2526434448,13.23423817,85.42318674,-23.74385428,,,
imu,268.7764,-0.2637853848,-9.328192916,2.1724909696,14.52026669,87.95038232,-25.08222117,,,
imu,268.785204,-0.1489400472,-9.272564705600002,2.112675689600001,15.73900302,89.88690201,-26.68975682,,,
imu,268.794008,-0.008972292000000002,-9.332379985600001,2.1569389968,17.09232373,91.24769963,-28.12532354,,,
imu,268.802811,0.1142471848,-9.402363863200002,2.1467703992,18.4905059,92.18979029,-29.5160288,,,
imu,268.811615,0.2757484408,-9.4962738528,2.1437796352,19.47745802,92.37671304,-30.57775002,,,
imu,268.820419,0.3977716120000001,-9.657775108800001,2.1718928168,20.12047228,91.95052917,-31.3852563,,,
imu,268.829222,0.4970649768000001,-9.821668976000002,2.207183832,20.16533374,91.12059216,-31.77405562,,,
imu,268.838026,0.5987509528,-10.0202557056,2.180266956,19.97093408,89.84951746,-31.78153253,,,
imu,268.84683,0.6250696760000001,-10.0268353864,2.133611037600001,19.08118179,88.25693563,-31.40768703,,,
imu,268.855633,0.6854831088000001,-9.995133288000002,2.0702068408,18.36339843,86.28303139,-30.1889507,,,
imu,268.864437,0.7464946944,-9.935318008000001,1.9864654488,18.23629096,84.24183496,-28.87301454,,,
imu,268.873241,0.7476910000000001,-9.920962340800001,1.911098196,18.3409677,81.68473174,-28.36458466,,,
imu,268.881716,0.6956517064000001,-9.903615909600001,1.8626478192,18.37087534,78.83602903,-28.43935376,,,
imu,268.890191,0.6633514552,-9.859950755200002,1.8321420264,18.6400441,76.29387963,-28.05055444,,,
imu,268.898665,0.5628617848,-9.922158646400002,1.9176778768,18.63256719,73.70686877,-27.80381641,,,
imu,268.90714,0.5383375200000001,-9.944290300000002,1.9637356424,18.19890641,71.1871501,-28.11036972,,,
imu,268.915615,0.4916816016,-10.0118815664,1.970913476,17.42878468,68.78706199,-29.15713712,,,
imu,268.92409,0.4354552384000001,-10.0358076784,1.9338280024,16.12032543,66.73091174,-30.55531929,,,
imu,268.932565,0.4258847936,-10.0710986936,1.952968892,14.41558995,65.23552974,-31.02636462,,,
imu,268.94104,0.4414367664,-10.0268353864,1.9224630992,12.5089779,63.61304027,-30.64504221,,,
imu,268.949515,0.3935845424,-10.0136760248,1.9003314456,10.6397504,61.15313688,-30.3384889,,,
imu,268.95799,0.245242648,-10.0986137224,1.9302390856,9.16679913,58.73061804,-29.99455104,,,
imu,268.966465,-0.05861897440000001,-10.129717668,1.9517725864,7.85086297,56.62960632999999,-29.23938313,,,
imu,268.97494,-0.4222958768,-10.1919255592,1.946987364,6.602219,55.53797746999999,-27.66175512,,,
imu,268.983415,-0.6663422192,-10.1811588088,1.9009295984,5.15917537,56.21089937,-25.93458891,,,
imu,268.99189,-0.8828735328,-10.162616072,1.8506847632,3.67874719,57.96049631,-25.24671319,,,
imu,269.000365,-0.9815687448000001,-10.0483688872,1.7603636904,2.10859609,60.4203997,-25.67289706,,,
imu,269.00884,-1.1089752912,-10.0112834136,1.7872805664,0.53096808,63.16442567,-27.14584833,,,
imu,269.017315,-1.3524234808,-10.0316206088,1.8231697344,-0.81487572,66.08042057,-28.82815308,,,
imu,269.02579,-1.7812990384,-9.984366537600001,1.722680064,-2.55699575,69.66186046,-30.75719586,,,
imu,269.034265,-2.0109897136,-9.914980812800001,1.5785252392,-4.463607799999999,75.3742197,-32.69371555,,,
imu,269.04274,-2.3226273224,-10.0053018856,1.5623751136,-6.43751204,82.64177622,-34.65266596999999,,,
imu,269.051215,-2.6743411688,-10.1458677936,1.5240933344,-8.11233988,90.74674666,-36.60413947999999,,,
imu,269.05969,-3.154657867200001,-10.4030734976,1.4331741088,-10.01147502,100.32466837,-38.29392113999999,,,
imu,269.068165,-3.419041404800001,-10.491600112,1.1460607648,-12.78540863,111.53255646,-40.32764066,,,
imu,269.076575,-3.2461752456,-10.545433864,0.9462777296000001,-15.64906516,124.45265694,-42.39126782,,,
imu,269.085037,-2.8011495624,-10.518516988,0.903210728,-18.13139928,136.88675827,-44.8436943,,,
imu,269.093499,-2.2598212784,-10.5890990184,1.0467674,-20.0155806,147.04040205,-47.79707375,,,
imu,269.101962,-1.6670518536,-10.4503275688,0.9911391896000001,-21.52591642,154.33786621,-50.91494522,,,
imu,269.110424,-1.2967952704,-10.3049764384,1.0294209688,-22.72969893,158.80158148,-53.65897119,,,
imu,269.118886,-0.8685178656000001,-10.2086738376,1.139481084,-23.70917414,161.5082229,-55.19173773999999,,,
imu,269.127348,-0.5180003248000001,-10.1614197664,1.3243102992,-24.45686514,162.95874344,-55.06463026999999,,,
imu,269.135811,-0.2518223288000001,-10.2032904624,1.4876060136,-25.21950996,162.68957468,-53.68887882999999,,,
imu,269.144273,-0.1184342544,-10.1949163232,1.5354582376,-26.05692388,161.17923886,-51.78974368999999,,,
imu,269.152735,0.04007623760000001,-10.1662049888,1.5803196976,-27.49996751,158.91373513,-50.50371517,,,
imu,269.161197,0.2703650656,-10.1069878616,1.6826038264,-28.81590367,156.37158573,-49.42704012999999,,,
imu,269.16966,0.5526931872,-9.959244120000001,1.818384512,-29.91500944,152.59574618,-48.64196458,,,
imu,269.178122,0.9056033392000001,-9.794153947200002,1.985867296,-30.52811606,147.41424755,-47.72978156,,,
imu,269.186584,1.1568275152,-9.548313146400002,2.1587334552,-30.51316224,140.76727456,-46.84750618,,,
imu,269.195046,1.3296936744,-9.388606348800002,2.4117520896,-29.5112563,132.60248884,-45.46427782999999,,,
imu,269.203509,1.1921185304,-9.145158159200001,2.487717495200001,-27.96353593,123.18158224,-44.00628038,,,
imu,269.211971,1.055739692,-8.941786207200002,2.58701086,-26.1466468,113.71581418,-42.54080602,,,
imu,269.220433,0.9235479232000001,-8.799425840800001,2.615124041600001,-23.98581981,104.77342982,-41.10523929999999,,,
imu,269.228896,0.7351297912000001,-8.655271016,2.631872320000001,-21.32403985,96.95258196,-38.99675068,,,
imu,269.237358,0.6178918424000002,-8.606222486400002,2.7239878512,-18.06410709,90.1037324,-35.88635611999999,,,
imu,269.24582,0.5861897440000001,-8.607418792,2.8268701328,-14.60977467,83.98762002000001,-32.32734696,,,
imu,269.254282,0.6232752176,-8.628952292800001,2.8998447744,-10.84141203,78.03599966,-28.51412286,,,
imu,269.262745,0.6340419680000001,-8.634335668000002,2.9554729848,-7.0805263,71.71053380000001,-25.35138993,,,
imu,269.271207,0.5963583416000001,-8.636130126400001,3.0493829744,-3.43179422,65.22057592,-22.49521031,,,
imu,269.279669,0.6537810104000001,-8.6732156,3.1229557688,-0.06718472,58.52874147,-20.0951222,,,
imu,269.288177,0.6232752176,-8.750377311200001,3.1355169776,3.12545585,51.67989190999999,-18.38290981,,,
imu,269.296685,0.4755314760000001,-8.831127939200002,3.1091982544,6.06388148,44.98805746,-16.97725073,,,
imu,269.305193,0.2859170384,-8.999807028800001,3.1307317552,8.628461609999999,38.80465289,-15.5342071,,,
imu,269.313701,0.1220231712,-9.2617979552,3.146283728,10.60984276,33.22687803,-14.01639437,,,
imu,269.322209,-0.03588916800000001,-9.526181492800001,3.1038148792,12.08279403,28.45660945,-12.85747332,,,
imu,269.330717,-0.1979885768,-9.6643547896,3.0697201696,12.92020795,24.29944749,-11.58639862,,,
imu,269.339226,-0.3385544848000001,-9.706823638400001,3.044597752,13.02488469,20.80025361,-10.36766229,,,
imu,269.347734,-0.4486146000000001,-9.7128051664,3.033831001600001,12.75571593,17.91416635,-8.85732647,,,
imu,269.356242,-0.5562821040000001,-9.738525736800002,3.094244434400001,12.17251695,15.21500184,-7.6086825,,,
imu,269.36475,-0.6376308848000001,-9.812098531200002,3.152265256000001,11.29771848,12.90463665,-6.644161110000001,,,
imu,269.373258,-0.8386102256000002,-9.8749045752,3.1438911168,10.07150524,10.97559387,-6.32265398,,,
imu,269.381766,-1.2555227272,-9.864137824800002,3.12534838,8.31443139,9.794242090000001,-6.24040797,,,
imu,269.390274,-1.6287700744,-9.879091644800003,3.0912536704,6.13117367,10.19799523,-5.47028624,,,
imu,269.398782,-1.8171882064,-9.895839923200002,3.056560808,3.97782359,11.96254599,-4.13939626,,,
imu,269.40729,-1.8907610008,-9.864137824800002,2.991960305600001,2.05625772,14.94583308,-3.04029049,,,
imu,269.415798,-1.8626478192,-9.758264779200001,2.9327431784,0.46367589,18.31044258,-2.38232241,,,
imu,269.424306,-1.7771119688,-9.627269316000001,2.8717315928,-0.39616876,21.53299079,-1.73183124,,,
imu,269.432814,-1.6473128112,-9.513022131200001,2.8543851616,-0.64290679,24.38917041,-0.99161715,,,
imu,269.441322,-1.4576983736,-9.412532460800001,2.850198092000001,-0.3513073,26.63224341,-0.68506384,,,
imu,269.44983,-1.2997860344,-9.364082084000001,2.8340479664,0.03749201999999999,28.00799485,-1.56733922,,,
imu,269.458338,-1.2214280176,-9.340754124800002,2.804140326400001,0.32909151,28.82297804,-3.16739796,,,
imu,269.466846,-1.1149568192,-9.2935000536,2.8184959936,0.68050628,29.4659923,-4.3936112,,,
imu,269.475354,-0.963026008,-9.233086620800002,2.8579740784,1.11416706,30.04171437,-5.260932759999999,,,
imu,267.943637,,,,,,,76.83210600000001,-7.342661200000022,12.75043519999999
imu,268.045199,,,,,,,86.8175956,-6.829958800000013,14.4960648
imu,268.14664,,,,,,,93.9710148,-6.964238000000011,11.9569672
imu,268.248172,,,,,,,96.1438964,-7.794327600000006,10.67521119999999
imu,268.349734,,,,,,,97.21812999999999,-8.636624400000015,10.40665279999999
imu,268.459292,,,,,,,97.8529044,-9.393470800000014,10.846112
imu,268.560702,,,,,,,97.97497639999999,-10.76067720000002,9.002824799999997
imu,268.662234,,,,,,,92.95781720000001,-10.99261400000002,12.15228239999999
imu,269.483862,-0.8559566568000001,-9.209758661600002,2.88608726,1.6674584,30.16882184,-6.00114685,,,
imu,269.4923,-0.7536725280000001,-9.214543884000001,2.8824983432,2.16093446,29.81740707,-6.60677656,,,
imu,269.500739,-0.6800997336000001,-9.180449174400001,2.9064244552,3.07311748,29.38374629,-6.920806779999999,,,
imu,269.509177,-0.6077232448000001,-9.179851021600001,2.9584637488,4.17222325,28.62110147,-6.84603768,,,
imu,269.517615,-0.5066354216000001,-9.235479232000001,2.9985399864,5.39843649,27.40984205,-6.85351459,,,
imu,269.526053,-0.4528016696000001,-9.3168280128,3.033831001600001,6.602219,26.08642898,-6.771268579999999,,,
imu,269.534491,-0.3630787496,-9.412532460800001,3.0900573648,7.59664803,24.5312317,-6.397423079999999,,,
imu,269.542929,-0.2488315648,-9.507638756,3.1157779352,8.12003173,22.50498909,-5.83665483,,,
imu,269.551367,-0.1949978128,-9.605735815200001,3.1271428384,7.910678249999999,20.17219317,-5.545055339999999,,,
imu,269.559805,-0.1190324072,-9.662560331200002,3.113385324,7.32000236,17.86930489,-4.976810179999999,,,
imu,269.568243,-0.0663949608,-9.655382497600002,3.0912536704,6.46015771,15.34958622,-3.93751969,,,
imu,269.576682,-0.011963056,-9.616502565600001,3.053570044,5.53302087,12.7177139,-2.83841392,,,
imu,269.58512,0.0430670016,-9.5698466472,3.049981127200001,4.74046841,9.756857539999999,-1.58976995,,,
imu,269.593558,0.07177833600000001,-9.526779645600001,3.056560808,4.10493106,6.89320101,-0.15420323,,,
imu,269.601996,0.1124527264,-9.5357519376,3.061944183200001,3.48434753,3.75289881,1.26640967,,,
imu,269.610434,0.1369769912,-9.572239258400002,3.0577571136,2.96844074,0.5901658799999998,2.44776145,,,
imu,269.618872,0.09869521200000002,-9.625474857600002,3.1032167264,2.62450288,-2.57256705,3.80855907,,,
imu,269.62731,0.04964668240000001,-9.657176956,3.11039456,2.13850373,-5.54090032,5.079633769999999,,,
imu,269.635748,0.0317020984,-9.681103068,3.089459212,1.31604363,-8.24006483,6.216124090000001,,,
imu,269.644186,-0.0005981528000000001,-9.7056273328,3.070916475200001,0.5010604399999999,-10.81959878,6.88156908,,,
imu,269.652625,-0.0376836264,-9.709814402400001,3.0434014464,-0.23167674,-13.29445599,7.068491830000001,,,
imu,269.661063,-0.07955432240000002,-9.739123889600002,3.0111011952,-0.83730645,-15.56743663,6.88904599,,,
imu,269.669501,-0.131593616,-9.7492924872,3.0099048896,-1.61490509,-17.52638705,6.61987723,,,
imu,269.677939,-0.1788476872,-9.737329431200001,2.996147375200001,-2.23548862,-19.2834609,6.24603173,,,
imu,269.686377,-0.2584020096,-9.676317845600002,2.9656415824,-2.75887232,-20.82370436,5.37123326,,,
imu,269.695175,-0.3971734592000001,-9.630858232800001,2.978202791200001,-3.12524091,-22.05739451,4.660926809999999,,,
imu,269.703974,-0.5544876456000001,-9.5602762024,2.963248971200001,-3.37197894,-22.58825512,4.14502002,,,
imu,269.712772,-0.6806978864000002,-9.501657228000001,2.952482220800001,-3.32711748,-22.67050113,3.7562207,,,
imu,269.72157,-0.7764023344000002,-9.4460290176,2.943509928800001,-3.29720984,-22.22188653,3.39732902,,,
imu,269.730369,-0.8182730304000002,-9.405952780000002,2.952482220800001,-3.10281018,-21.43681098,3.18797554,,,
imu,269.739167,-0.8314323920000001,-9.359895014400001,2.9506877624,-2.79625687,-20.54705869,2.79917622,,,
imu,269.747965,-0.8104970440000001,-9.311444637600001,2.9303505672,-2.42241137,-19.7320755,2.19354651,,,
imu,269.756764,-0.8081044328000001,-9.274957316800002,2.9213782752,-1.93641222,-18.96943068,1.58043989,,,
imu,269.765562,-0.8110951968000001,-9.250433052000002,2.927957956,-1.45788998,-18.13201676,1.10939456,,,
imu,269.77436,-0.7620466672,-9.262396108,2.9441080816,-0.874691,-17.60115615,0.7953643399999999,,,
imu,269.783159,-0.7464946944,-9.2576108856,2.939921012000001,-0.07466163,-17.03291099,0.50376485,,,
imu,269.791957,-0.7339334856000002,-9.2617979552,2.9512859152,0.64312173,-16.40485055,0.1523500800000002,,,
imu,269.800756,-0.7231667352000001,-9.313239096000002,2.9859787776,1.33847436,-15.97866668,-0.17663396,,,
imu,269.809554,-0.7291482632,-9.376045140000002,3.0248587096,1.80951969,-15.49266753,-0.28878761,,,
imu,269.818352,-0.7303445688000001,-9.440645642400002,3.053570044,2.0413039,-14.9468531,-0.29626452,,,
imu,269.827151,-0.7393168608000001,-9.5172092008,3.0876647536,2.2656112,-14.2739312,-0.09438795,,,
imu,269.835949,-0.7189796656000002,-9.557883591200001,3.056560808,2.23570356,-13.60848621,0.2345960900000001,,,
imu,269.844747,-0.6800997336000001,-9.562070660800002,3.0182790288,2.37028794,-12.89070285,0.7579797899999998,,,
imu,269.853546,-0.6394253432000001,-9.553098368800002,2.9985399864,2.18336519,-12.37479606,1.22902512,,,
imu,269.862344,-0.6071250920000001,-9.5237888816,2.9925584584,1.8169966,-12.06824275,1.54305534,,,
imu,269.871142,-0.5706377712,-9.512423978400001,2.9883713888,1.69736604,-11.88132,1.70754736,,,
imu,269.879941,-0.5251781584,-9.492086783200001,2.9746138744,1.65998149,-12.03833511,1.39351714,,,
imu,269.888739,-0.4809148512,-9.467562518400001,2.9542766792,1.68241222,-12.44956516,0.9374256299999999,,,
imu,269.89726,-0.4480164472000001,-9.413130613600002,2.949491456800001,1.65998149,-13.06267178,0.3317959200000002,,,
imu,269.905781,-0.415716196,-9.481918185600001,3.038616224000001,1.97401171,-13.72811677,-0.17663396,,,
imu,269.914301,-0.3738455000000001,-9.568052188800001,3.0511774328,2.09364227,-14.47580777,-0.4308489,,,
imu,269.922822,-0.3469286240000001,-9.562070660800002,3.007512278400001,2.03382699,-15.40294461,-0.5280487299999999,,,
imu,269.931343,-0.3236006648,-9.5668558832,3.005717820000001,1.89924261,-16.43475819,-0.63272547,,,
imu,269.939864,-0.3032634696000001,-9.507040603200002,3.0081104312,1.61512003,-17.64601761,-0.85703277,,,
imu,269.948384,-0.3224043592,-9.463973601600001,3.001530750400001,1.53287402,-18.9096154,-0.9542325999999999,,,
imu,269.956905,-0.3265914288,-9.440047489600001,2.9692304992,1.30108981,-20.11339791,-1.05143243,,,
imu,269.965426,-0.3331711096,-9.404756474400001,2.951884068,1.15902852,-21.26484205,-1.09629389,,,
imu,269.973947,-0.3343674152,-9.376045140000002,2.924369039200001,1.28613599,-22.40880928,-1.01404788,,,
imu,269.982467,-0.3672658192000001,-9.367072848000001,2.921976428000001,1.58521239,-23.57520724,-1.05890934,,,
imu,269.990988,-0.4366515440000001,-9.414925072,2.9722212632,1.95905789,-24.592067,-1.0290017,,,
imu,269.999509,-0.5048409632,-9.513620284000002,2.969828652,2.18336519,-25.64631131,-0.90937114,,,
imu,270.00803,-0.5766192992000001,-9.516611048000001,2.910611524800001,2.84881018,-26.55101742,-0.7897405799999999,,,
imu,270.01655,-0.648995788,-9.5172092008,2.9171912056,3.26751714,-27.17160095,-0.8645096799999998,,,
imu,270.025071,-0.7345316384000001,-9.496872005600002,2.9512859152,3.75351629,-27.41086207,-0.5953409199999999,,,
imu,270.033592,-0.7668318896,-9.490292324800002,2.941117317600001,3.79090084,-27.62021555,-0.08691103999999994,,,
imu,270.042113,-0.7985339880000002,-9.499264616800001,2.922574580800001,3.88810067,-27.70993847,0.7355490599999999,,,
imu,270.050633,-0.8182730304000002,-9.478329268800001,2.908218913600001,3.97034668,-27.56787718,1.34117877,,,
imu,270.059154,-0.8230582528,-9.462777296000002,2.895657704800001,3.925485220000001,-27.46320044,1.75240882,,,
imu,270.067675,-0.8260490168000001,-9.422701058400001,2.8669463704,3.947915950000001,-27.3585237,2.34308471,,,
imu,270.076196,-0.8236564056000001,-9.3694654592,2.8669463704,4.17222325,-27.26132387,2.75431476,,,
imu,270.084717,-0.8170767248000002,-9.3658765424,2.865151912,4.53859184,-26.9099091,3.40480593,,,
imu,270.093237,-0.8230582528,-9.4215047528,2.9004429272,5.0320679,-26.78280163,4.1300662,,,
imu,270.101656,-0.8176748776000001,-9.5219944232,2.9387247064,5.49563632,-26.81270927,4.705788269999999,,,
imu,270.110075,-0.8272453224,-9.580613397600002,2.9273598032,5.5554516,-26.82766309,4.78803428,,,
imu,270.118494,-0.8350213088000001,-9.641026830400001,2.9112096776,5.31619048,-26.96972438,4.36932732,,,
imu,270.126913,-0.8559566568000001,-9.630858232800001,2.868142676,4.64326858,-26.99963202,3.53939031,,,
imu,270.135332,-0.8625363376,-9.612315496,2.8370387304,4.14979252,-26.96972438,2.7094533,,,
imu,270.143752,-0.8936402832000001,-9.580613397600002,2.798756951200001,3.59650118,-26.75289399,1.60287062,,,
imu,270.152171,-0.8739012408000001,-9.568650341600001,2.7706437696,2.98339456,-26.47624832,0.5710570399999999,,,
imu,270.16059,-0.8362176144000002,-9.548313146400002,2.738941671200001,2.52730305,-26.13978737,-0.3411259799999999,,,
imu,268.76372,,,,,,,87.1227756,-11.98139720000002,11.67620159999999
imu,268.865283,,,,,,,79.8350772,-12.64058600000002,11.79827359999999
imu,268.966906,,,,,,,74.76908920000001,-13.01900920000001,10.052644
imu,269.068438,,,,,,,70.1303532,-12.97018040000002,7.904176799999996
imu,269.170031,,,,,,,62.62292520000001,-11.05365,0.9582799999999891
imu,269.271563,,,,,,,58.4968916,-9.137119600000009,-6.414868800000006
imu,269.373095,,,,,,,57.910946,-8.490138000000002,-8.306984800000006
imu,269.474658,,,,,,,59.82747640000001,-8.905182800000011,-10.4798664
imu,270.168939,-0.7955432240000001,-9.506442450400002,2.7209970872,2.42262631,-25.8631417,-1.05143243,,,
imu,270.177359,-0.7566632920000002,-9.5447242296,2.7497084216,2.29551884,-25.8631417,-1.97856927,,,
imu,270.185778,-0.7399150136000001,-9.554294674400001,2.7401379768,2.0413039,-25.75846496,-2.4496146,,,
imu,270.194197,-0.7297464160000001,-9.5590798968,2.7473158104,2.01139626,-25.74351114,-2.47952224,,,
imu,270.202616,-0.7064184568,-9.580613397600002,2.764064088800001,1.97401171,-25.91548007,-2.21035348,,,
imu,270.211035,-0.7040258456,-9.554892827200002,2.724586004,1.7422275,-26.07997209,-1.81407725,,,
imu,270.219454,-0.6872775672000001,-9.507638756,2.7084358784,1.72727368,-26.32671012,-1.253309,,,
imu,270.227873,-0.6968480120000001,-9.477731116000001,2.701856197600001,1.86933497,-26.73794017,-0.7224483899999998,,,
imu,270.236292,-0.6681366776000001,-9.4735440464,2.704248808800001,2.13102682,-27.17160095,0.1523500800000002,,,
imu,270.244711,-0.6071250920000001,-9.495675700000001,2.736549060000001,2.28056502,-27.76227684,0.89256417,,,
imu,270.25313,-0.4964668240000001,-9.5237888816,2.746119504800001,2.73665653,-28.5548293,1.70007045,,,
imu,270.261549,-0.376836264,-9.5237888816,2.7473158104,3.00582529,-30.07264203,2.56739201,,,
imu,270.269968,-0.2907022608000001,-9.549509452,2.7568862552,3.20770186,-32.40543795,3.36742138,,,
imu,270.278387,-0.2458408008,-9.536948243200001,2.750306574400001,3.41705534,-35.26909448,4.032866370000001,,,
imu,270.286806,-0.2290925224000001,-9.5459205352,2.7239878512,3.67874719,-38.37948904,4.78803428,,,
imu,270.295225,-0.245242648,-9.557883591200001,2.6743411688,3.82828539,-41.4898836,5.341325619999999,,,
imu,270.303694,-0.3032634696000001,-9.5740337168,2.6492187512,3.96286977,-44.30867867,6.11892426,,,
imu,270.312162,-0.3696584304000001,-9.573435564,2.6115351248,3.94043904,-46.90316644,6.94886127,,,
imu,270.320631,-0.4827093096,-9.5704448,2.563084748,4.04511578,-49.07147034,7.771321370000001,,,
imu,270.3291,-0.5903768136,-9.5698466472,2.5313826496,4.11240797,-50.82106728,8.19750524,,,
imu,270.337568,-0.6537810104000001,-9.5698466472,2.4799415088,4.35166909,-51.98746524,8.9152886,,,
imu,270.346037,-0.7381205552000002,-9.551902063200002,2.4745581336,4.56102257,-52.76506388,9.46857994,,,
imu,270.354505,-0.8242545584000001,-9.621287788000002,2.5397567888,4.74046841,-53.28844758,10.0368251,,,
imu,270.362974,-0.9067996448000001,-9.675121540000001,2.548130928,4.77785296,-53.54266252,10.38076296,,,
imu,270.371443,-1.0025040928,-9.676317845600002,2.509250996,4.49373038,-53.50527797,10.53030116,,,
imu,270.379911,-1.0790676512,-9.709216249600003,2.5050639264,4.17970016,-53.04918646,10.57516262,,,
imu,270.38838,-1.13649032,-9.669140012000002,2.4925027176,3.97034668,-52.44355675,10.09664038,,,
imu,270.396849,-1.1986982112,-9.627867468800002,2.4655858416,3.51425517,-51.70334266,9.00501152,,,
imu,270.405317,-1.2447559768,-9.5877912312,2.4530246328,3.23013259,-50.52199088,7.95824412,,,
imu,270.413786,-1.2698783944,-9.541733465600002,2.446444952,3.29742478,-49.13876253,7.18812239,,,
imu,270.422254,-1.2794488392,-9.503451686400002,2.414144700800001,3.19274804,-47.44898087,6.36566229,,,
imu,270.430723,-1.3464419528,-9.512423978400001,2.434481896,2.97591765,-45.85639904,5.647878929999999,,,
imu,270.439192,-1.3494327168,-9.526181492800001,2.4362763544,3.3871477,-43.59089531,6.0740628,,,
imu,270.44766,-1.3314881328,-9.565061424800001,2.4482394104,3.79837775,-41.40016068,5.976862969999999,,,
imu,270.456129,-1.3889108016,-9.5602762024,2.4338837432,3.925485220000001,-39.57579464,5.16187978,,,
imu,270.464598,-1.4313796504,-9.5740337168,2.4368745072,4.26194617,-37.58693658,4.59363462,,,
imu,270.473066,-1.4379593312,-9.5656595776,2.4302948264,4.41148437,-35.2840483,4.45157333,,,
imu,270.481535,-1.4559039152,-9.560874355200001,2.4332855904,4.46382274,-33.01106766,4.36932732,,,
imu,270.490003,-1.453511304,-9.555490980000002,2.4452486464,4.76289914,-30.77547157,4.25717367,,,
imu,270.498472,-1.4331741088,-9.544126076800001,2.4482394104,5.06197554,-28.42772183,4.00295873,,,
imu,270.506928,-1.3889108016,-9.5219944232,2.45242648,5.09188318,-26.34166394,3.69640542,,,
imu,270.515384,-1.3326844384,-9.5423316184,2.4859230368,5.21151374,-24.15840622,3.67397469,,,
imu,270.52384,-1.2776543808,-9.618895176800002,2.551121692,5.31619048,-22.17702507,4.06277401,,,
imu,270.532296,-1.25612088,-9.6817012208,2.527793732800001,5.45077486,-20.36013594,4.75812664,,,
imu,270.540752,-1.2369799904,-9.6912716656,2.4560153968,5.69003598,-19.08906124,5.06467995,,,
imu,270.549208,-1.208268656,-9.647606511200001,2.3441608232,6.11621985,-18.10958603,4.91514175,,,
imu,270.557664,-1.2016889752,-9.5865949256,2.281952932,6.73680338,-17.17497228,4.272127490000001,,,
imu,270.566119,-1.1837443912,-9.5602762024,2.2717843344,7.32747927,-16.35998909,3.73378997,,,
imu,270.574575,-1.1765665576,-9.592576453600001,2.2604194312,7.99292426,-15.30574478,3.62163632,,,
imu,270.583031,-1.1251254168,-9.651793580800001,2.2346988608,8.28452375,-14.32626957,3.80108216,,,
imu,270.591487,-1.0760768872,-9.6703363176,2.2018004568,8.33686212,-13.39165582,3.96557418,,,
imu,270.599943,-1.0066911624,-9.703832874400002,2.232306249600001,8.32938521,-12.44208825,4.10763547,,,
imu,270.608399,-0.9265386872000001,-9.7570684736,2.2705880288,8.082647179999999,-11.99347365,4.294558220000001,,,
imu,270.616855,-0.8338250032000001,-9.7744149048,2.255036056,7.55926348,-11.53738214,4.51886552,,,
imu,270.625311,-0.7811875568000001,-9.779200127200001,2.2741769456,7.04335669,-11.33550557,4.43661951,,,
imu,270.633767,-0.7554669864000001,-9.7606573904,2.2777658624,6.07135839,-11.76168944,4.070250919999999,,,
imu,270.642223,-0.7333353328000001,-9.7427128064,2.2873363072,5.45077486,-11.9560891,3.9057589,,,
imu,270.650679,-0.7387187080000002,-9.731946056000002,2.269989876,4.658222400000001,-12.41218061,3.73378997,,,
imu,270.659134,-0.7357279440000001,-9.720581152800001,2.264008348,4.1348387,-12.93556431,3.4571443,,,
imu,270.66759,-0.7387187080000002,-9.6799067624,2.252045292,3.52173208,-13.15987161,3.35994447,,,
imu,270.676046,-0.7614485144,-9.6535880392,2.249652680800001,3.13293276,-13.41408655,3.03096043,,,
imu,270.684502,-0.7692245008,-9.627269316000001,2.2448674584,2.97591765,-13.68325531,2.65711493,,,
imu,270.692958,-0.7811875568000001,-9.597959828800002,2.2376896248,3.00582529,-13.72063986,2.32065398,,,
imu,270.701414,-0.7781967928000002,-9.599754287200001,2.269989876,2.85628709,-13.95990098,1.84213174,,,
imu,270.710243,-0.7770004872000001,-9.644017594400001,2.311262419200001,2.72170271,-13.85522424,1.68511663,,,
imu,270.719072,-0.7758041816000001,-9.672728928800002,2.3130568776,2.43758013,-13.74307059,1.64773208,,,
imu,270.727901,-0.7770004872000001,-9.693664276800002,2.3070753496,2.27308811,-13.51128638,1.93933157,,,
imu,270.736729,-0.7728134176000001,-9.693066124000001,2.3226273224,1.94410407,-13.16734852,2.66459184,,,
imu,270.745558,-0.7638411256000001,-9.692467971200001,2.3226273224,1.7422275,-12.79350302,3.44219048,,,
imu,270.754387,-0.7656355840000001,-9.682299373600001,2.3351885312,1.54782784,-12.42713443,4.01791255,,,
imu,270.763216,-0.7554669864000001,-9.6733270816,2.3495441984,1.36090509,-11.9560891,4.556250070000001,,,
imu,270.772045,-0.7333353328000001,-9.673925234400002,2.3435626704,1.36090509,-11.5074745,5.0272954,,,
imu,270.780874,-0.7106055264000001,-9.7193848472,2.3668906296,1.36090509,-11.26073647,5.42357163,,,
imu,270.789703,-0.6962498592000002,-9.739722042400002,2.368685088,1.42072037,-11.0588599,5.68526348,,,
imu,270.798532,-0.6998387760000001,-9.702038416,2.341768212,1.48053565,-10.78969114,6.03667825,,,
imu,270.80736,-0.7195778184000001,-9.635045302400002,2.3393756008,1.4431511,-10.55790693,6.328277740000001,,,
imu,270.816189,-0.7112036792,-9.594370912,2.3429645176,1.56278166,-10.19153834,6.76941543,,,
imu,270.825018,-0.7004369288000002,-9.554892827200002,2.323823628,1.82447351,-9.88498503,7.262891489999999,,,
imu,270.833847,-0.6884738728,-9.519003659200001,2.311262419200001,2.22074974,-9.13729403,7.78627519,,,
imu,270.842676,-0.6729219000000001,-9.493283088800002,2.286738154400001,2.75908726,-8.41951067,8.41433563,,,
imu,270.851505,-0.6382290376000002,-9.496872005600002,2.280756626400001,3.28994787,-7.64191203,8.95267315,,,
imu,270.860334,-0.5969564944000001,-9.5489112992,2.2843455432,3.97034668,-6.86431339,9.26670337,,,
imu,270.869163,-0.5861897440000001,-9.603343204000002,2.311262419200001,4.52363802,-6.28859132,9.25174955,,,
imu,270.877991,-0.517402172,-9.696056888000001,2.335786684,4.75542223,-5.780161440000001,9.2891341,,,
imu,270.88682,-0.4139217376000001,-9.721179305600002,2.3405719064,4.62831476,-5.54090032,8.82556568,,,
imu,270.895649,-0.3750418056000001,-9.727758986400001,2.359712796,4.48625347,-5.884838179999999,7.599352440000001,,,
imu,270.904478,-0.3714528888,-9.708019944000002,2.3495441984,4.02268505,-6.408221879999999,6.42547757,,,
imu,270.912971,-0.3696584304000001,-9.696056888000001,2.331001461600001,3.63388573,-6.78954429,5.61797129,,,
imu,270.921464,-0.361882444,-9.673925234400002,2.308869808,2.99087147,-7.0960976,5.18431051,,,
imu,270.929956,-0.3690602776000001,-9.663158484000002,2.30288828,2.69927198,-7.178343610000001,4.89271102,,,
imu,270.938449,-0.3612842912,-9.659569567200002,2.2897289184,2.35533412,-7.245635800000001,4.52634243,,,
imu,270.946942,-0.3744436528,-9.6709344704,2.2735787928,2.18336519,-7.454989279999999,4.137543109999999,,,
imu,270.955435,-0.3702565832000001,-9.685290137600001,2.2957104464,2.22074974,-7.200774340000001,3.980528,,,
imu,270.963927,-0.3720510416,-9.797742864000002,2.3172439472,2.14598064,-6.909174849999999,3.76369761,,,
imu,270.97242,-0.3786307224000001,-9.8330338792,2.3016919744,2.13102682,-6.52785244,3.84594362,,,
imu,270.980913,-0.382817792,-9.796546558400001,2.2562323616,1.91419643,-6.13905312,3.980528,,,
imu,269.57622,,,,,,,57.56914440000001,-6.964238000000011,-10.34558720000001
imu,269.677966,,,,,,,60.40121480000001,-6.927616400000014,-13.4584232
imu,269.779376,,,,,,,58.05743240000001,-5.828968400000023,-9.198110400000004
imu,269.880938,,,,,,,58.67999960000001,-6.268427600000015,-10.91932560000001
imu,269.98244,,,,,,,58.1917116,-6.073112400000014,-7.244958400000012
imu,270.084429,,,,,,,59.18049480000001,-6.878787600000003,-5.548157600000003
imu,270.18587,,,,,,,59.6443684,-7.476940400000021,-3.497348000000011
imu,270.287158,,,,,,,60.38900760000001,-8.404687600000017,-1.800547200000002
imu,270.989406,-0.3947808480000001,-9.7086180968,2.2119690544,1.85438115,-5.63810015,4.159973839999999,,,
imu,270.997899,-0.3953790008,-9.61530626,2.1940244704,1.82447351,-5.09228572,4.115112379999999,,,
imu,271.006391,-0.3876030144000001,-9.555490980000002,2.1700983584,2.03382699,-4.59133275,3.84594362,,,
imu,271.014884,-0.3834159448,-9.530966715200002,2.1467703992,2.37776485,-4.34459472,3.4571443,,,
imu,271.023377,-0.3834159448,-9.535153784800002,2.1318165792,2.85628709,-3.82868793,3.09825262,,,
imu,271.03187,-0.3870048616000001,-9.528574104,2.1108812312,3.42453225,-3.52961153,2.42533072,,,
imu,271.040363,-0.3864067088000001,-9.545322382400002,2.1240405928,3.93296213,-2.97632019,1.94680848,,,
imu,271.048855,-0.3612842912,-9.564463272000001,2.1485648576,4.38157673,-2.48284413,1.49819388,,,
imu,271.057348,-0.3361618736,-9.652989886400002,2.1808651088,4.60588403,-1.8622606,1.2140713,,,
imu,271.065841,-0.305057928,-9.690673512800002,2.164714983200001,4.56849948,-1.24167707,1.15425602,,,
imu,271.074334,-0.257205704,-9.706225485600001,2.1557426912,4.61336094,-0.6883857300000003,1.31874804,,,
imu,271.082827,-0.2201202304,-9.7074217912,2.159331608,4.53111493,-0.4715553400000001,1.34865568,,,
imu,271.091319,-0.197390424,-9.708019944000002,2.1425833296,4.39653055,-0.3294940500000001,1.24397894,,,
imu,271.099812,-0.1680809368,-9.7074217912,2.1162646064,4.36662291,-0.4117400600000001,1.12434838,,,
imu,271.108305,-0.140565908,-9.703234721600001,2.0947311056,4.32923836,-0.6435242699999999,0.8776103499999999,,,
imu,271.116743,-0.1262102408,-9.703234721600001,2.072599452,4.26194617,-0.94260067,0.5187186700000002,,,
imu,271.125181,-0.1208268656,-9.714001472000001,2.0779828272,4.41148437,-1.40616909,0.2794575500000001,,,
imu,271.133619,-0.1280046992,-9.7331423616,2.0779828272,4.2096078,-1.77253768,0.02524261000000028,,,
imu,271.142057,-0.1154434904,-9.754675862400001,2.0827680496,4.08250033,-2.10152172,-0.1093417699999999,,,
imu,271.150495,-0.1369769912,-9.773816752000002,2.0821698968,4.089977240000001,-2.2361061,0.0626271599999999,,,
imu,271.158934,-0.1327899216,-9.765442612800001,2.0731976048,3.97034668,-2.2361061,0.21964227,,,
imu,271.167372,-0.1363788384,-9.740918348000001,2.0588419376,3.71613174,-2.26601374,0.3766573800000002,,,
imu,271.17581,-0.1274065464,-9.731347903200001,2.0857588136,3.54416281,-2.161337000000001,0.54862631,,,
imu,271.184248,-0.1130508792,-9.746301723200002,2.0839643552,3.26751714,-2.07161408,0.4738572100000003,,,
imu,271.192686,-0.1130508792,-9.749890640000002,2.062430854400001,3.23013259,-2.05666026,0.2794575500000001,,,
imu,271.201124,-0.09570444800000001,-9.767237071200002,2.0791791328,2.81890254,-2.34078284,-0.1392494099999999,,,
imu,271.209562,-0.0813487808,-9.754675862400001,2.072001299200001,2.59459524,-2.46789031,-0.57291019,,,
imu,271.218,-0.0735727944,-9.717590388800001,2.0660197712,2.58711833,-2.47536722,-0.82712513,,,
imu,271.226438,-0.06041343280000001,-9.693664276800002,2.0528604096,2.407672489999999,-2.50527486,-0.9467556899999998,,,
imu,271.234877,-0.06519865520000001,-9.672728928800002,2.045682576,2.36281103,-2.6847207,-1.04395552,,,
imu,271.243315,-0.06041343280000001,-9.651793580800001,2.0498696456,2.43010322,-2.66228997,-1.14115535,,,
imu,271.251753,-0.0753672528,-9.638036066400002,2.0414955064,2.75908726,-2.61742851,-1.21592445,,,
imu,271.260094,-0.07716171120000001,-9.641624983200002,2.0295324504,2.92357928,-2.70715143,-1.53743158,,,
imu,271.268532,-0.09390998960000001,-9.631456385600002,1.9990266576,3.282470959999999,-2.66976688,-1.94118472,,,
imu,271.27697,-0.107667504,-9.618297024,2.021756464,3.49182444,-2.59499778,-2.19539966,,,
imu,271.285408,-0.1357806856,-9.654784344800001,2.012784172,3.70865483,-2.44545958,-2.41970696,,,
imu,271.293846,-0.140565908,-9.690673512800002,1.9876617544,3.925485220000001,-2.27349065,-2.69635263,,,
imu,271.302284,-0.140565908,-9.718786694400002,1.9846709904,3.99277741,-1.84730678,-2.58419898,,,
imu,271.310722,-0.1459492832,-9.743310959200002,1.9822783792,3.925485220000001,-1.36130763,-2.6739219,,,
imu,271.319186,-0.1501363528,-9.766638918400002,1.9846709904,3.67874719,-1.00241595,-2.80102937,,,
imu,271.327649,-0.1573141864,-9.789966877600001,1.9906525184,3.51425517,-0.6883857300000003,-2.86832156,,,
imu,271.336113,-0.1507345056,-9.802528086400002,1.991848824,3.17779422,-0.23229422,-2.76364482,,,
imu,271.344576,-0.1178361016,-9.844996935200001,2.027737992,2.77404108,0.2462280199999998,-2.80102937,,,
imu,271.35304,-0.09510629520000001,-9.8461932408,2.0175693944,1.99644244,0.2686587499999997,-3.03281358,,,
imu,271.361504,-0.062806044,-9.8300431152,2.0062044912,1.43567419,0.3060432999999998,-3.33188998,,,
imu,271.369967,-0.06579680800000001,-9.802528086400002,1.9990266576,0.8823828499999999,0.2312741999999997,-3.6459202,,,
imu,271.378431,-0.0526374464,-9.761853696000001,2.0103915608,0.4861066199999999,0.05182836000000002,-3.69078166,,,
imu,271.386894,-0.0532355992,-9.727758986400001,1.9936432824,0.11973803,0.05182836000000002,-3.77302767,,,
imu,271.395358,-0.06220789120000001,-9.718786694400002,1.985867296,-0.09709236,-0.03041764999999996,-3.96742733,,,
imu,271.403821,-0.0502448352,-9.690075360000002,1.9721097816,0.08983038999999998,-0.07527911000000032,-3.92256587,,,
imu,271.412285,-0.0741709472,-9.672728928800002,1.9780913096,0.3739529699999999,-0.05284837999999992,-3.98985806,,,
imu,271.420748,-0.07775986400000001,-9.671532623200001,1.9912506712,0.56087572,-0.06780220000000003,-4.07210407,,,
imu,271.429212,-0.092713684,-9.690673512800002,1.9996248104,0.97958268,0.1041667299999998,-4.13939626,,,
imu,271.437675,-0.09690075360000001,-9.743909112,2.0385047424,1.18893616,0.13407437,-4.41604193,,,
imu,271.446139,-0.09929336480000002,-9.746899876,2.0319250616,1.19641307,0.2910894799999997,-4.61044159,,,
imu,271.454602,-0.1202287128,-9.739123889600002,2.0151767832,1.03192105,0.3509047599999997,-4.8422258,,,
imu,271.463066,-0.1339862272,-9.7361331256,2.0151767832,0.8749059399999999,0.4705353199999998,-4.81231816,,,
imu,271.47153,-0.1309954632,-9.685888290400001,2.0229527696,0.67302937,0.72475026,-4.77493361,,,
imu,271.479993,-0.122621324,-9.644017594400001,2.0283361448,0.34404533,0.6275504299999999,-5.26840967,,,
imu,271.488457,-0.1244157824,-9.6523917336,2.0438881176,0.20198404,0.6574580699999997,-5.634778259999999,,,
imu,271.49692,-0.1411640608,-9.6984494992,2.0420936592,0.34404533,0.5453044199999999,-5.92637775,,,
imu,271.505384,-0.1668846312,-9.7325442088,2.0349158256,0.34404533,0.4555814999999996,-6.15068505,,,
imu,271.513847,-0.1668846312,-9.7540777096,2.0193638528,0.29170696,0.5303505999999998,-6.10582359,,,
imu,271.522315,-0.1728661592,-9.758264779200001,2.0062044912,0.34404533,0.7770886299999997,-5.97123921,,,
imu,271.530782,-0.1716698536,-9.7361331256,1.9936432824,0.46367589,0.9714882899999999,-5.59739371,,,
imu,271.539249,-0.1806421456,-9.709216249600003,1.9954377408,0.55339881,1.25561087,-5.23102512,,,
imu,271.547717,-0.1746606176,-9.687084596000002,1.9900543656,0.66555246,1.42010289,-4.81231816,,,
imu,271.556184,-0.1788476872,-9.667943706400001,1.9762968512,0.97958268,1.33037997,-4.50576485,,,
imu,271.564651,-0.1836329096,-9.669140012000002,1.9756986984,1.15155161,1.36776452,-4.51324176,,,
imu,271.573119,-0.1758569232,-9.6733270816,1.9745023928,1.18893616,1.24813396,-4.67773378,,,
imu,271.581586,-0.1836329096,-9.667345553600002,1.9751005456,1.34595127,1.13598031,-4.909517989999999,,,
imu,271.590053,-0.1878199792,-9.657775108800001,1.9780913096,1.49548947,1.04625739,-5.044102369999999,,,
imu,271.598521,-0.1800439928,-9.671532623200001,2.0014192688,1.55530475,1.10607267,-4.976810179999999,,,
imu,271.606988,-0.1902125904,-9.696655040800001,2.0074007968,1.48801256,1.15093413,-4.84970271,,,
imu,271.615456,-0.1908107432,-9.720581152800001,2.004410032800001,1.49548947,1.12102649,-4.47585721,,,
imu,271.623923,-0.1866236736,-9.727160833600001,2.006802644,1.31604363,1.09111885,-4.26650373,,,
imu,271.63239,-0.1740624648,-9.7283571392,2.015774936,1.18145925,1.2032725,-4.08705789,,,
imu,271.640858,-0.170473548,-9.727758986400001,2.0229527696,0.9646288599999999,1.09859576,-4.04219643,,,
imu,271.649325,-0.16449202,-9.7337405144,2.0181675472,0.83004448,0.8742884599999998,-4.19921154,,,
imu,271.657792,-0.1531271168,-9.7163940832,2.024747228,0.8973366700000001,0.7770886299999997,-4.169303899999999,,,
imu,271.66626,-0.1507345056,-9.710412555200001,2.0343176728,0.9197674,0.52287369,-4.46090339,,,
imu,271.674727,-0.1441548248,-9.7086180968,2.0295324504,0.85995212,0.3434278499999999,-4.47585721,,,
imu,271.683194,-0.1549215752,-9.711010708000002,2.030728756,0.8524752099999999,0.1864127399999997,-4.58053395,,,
imu,271.691662,-0.1668846312,-9.7086180968,2.031326908800001,0.80761375,-0.0005100100000001717,-4.73007215,,,
imu,271.700129,-0.1800439928,-9.7163940832,2.0355139784,0.8674290299999999,-0.2173404000000003,-4.85717962,,,
imu,271.708596,-0.2027737992,-9.7074217912,2.0462807288,1.15902852,-0.2846325900000002,-4.82727198,,,
imu,271.717064,-0.2141387024,-9.722973764,2.0582437848,1.09173633,-0.1799558500000003,-4.70016451,,,
imu,271.725899,-0.2069608688,-9.7295534448,2.0690105352,1.05435178,-0.1051867500000001,-4.64034923,,,
imu,271.734735,-0.2398592728,-9.734936820000001,2.0438881176,1.13659779,-0.17247894,-4.8422258,,,
imu,271.74357,-0.245242648,-9.728955292000002,2.0295324504,0.73284465,-0.2696787700000001,-5.08148692,,,
imu,271.752406,-0.2697669128,-9.688280901600002,2.036710284,0.66555246,-0.17247894,-5.11139456,,,
imu,271.761241,-0.2877114968,-9.685888290400001,2.0295324504,0.8674290299999999,0.08921290999999965,-4.715118329999999,,,
imu,271.770077,-0.2930948720000001,-9.696056888000001,2.006802644,1.10669015,0.4481045899999998,-4.49081103,,,
imu,271.778912,-0.3068523864000001,-9.706225485600001,2.0014192688,1.09921324,0.6873657099999999,-4.34874974,,,
imu,271.787748,-0.2948893304,-9.70502918,1.9990266576,1.30108981,1.08364194,-4.169303899999999,,,
imu,271.796583,-0.2733558296,-9.696655040800001,2.0091952552,1.368382,1.46496435,-3.96742733,,,
imu,270.388616,,,,,,,61.53648440000001,-8.917390000000003,0.1159831999999916
imu,270.490209,,,,,,,63.5995012,-10.26018200000001,3.241026399999991
imu,270.59171,,,,,,,67.6400844,-11.62738840000002,4.266431199999998
imu,270.693303,,,,,,,66.7855804,-10.38225400000001,6.659042399999993
imu,270.794866,,,,,,,69.97165960000001,-11.32220840000002,4.852376799999991
imu,270.896612,,,,,,,68.714318,-9.698650800000008,7.794311999999993
imu,270.998052,,,,,,,69.385714,-9.820722800000015,5.828952799999998
imu,271.099553,,,,,,,69.9594524,-10.26018200000001,8.563365599999994
imu,271.805419,-0.2685706072,-9.6775141512,2.0121860192,1.56278166,1.66684092,-3.85527368,,,
imu,271.814254,-0.2715613712,-9.70502918,2.0163730888,1.45810492,1.64441019,-4.16182699,,,
imu,271.82309,-0.2793373576,-9.678112304,2.0115878664,1.53287402,1.84628676,-4.34874974,,,
imu,271.831925,-0.2805336632,-9.6709344704,2.0091952552,1.51044329,1.96591732,-4.25902682,,,
imu,271.840761,-0.2907022608000001,-9.6799067624,2.009793408,1.5179202,2.07059406,-4.21416536,,,
imu,271.849596,-0.2799355104,-9.685888290400001,2.0074007968,1.34595127,2.31733209,-4.08705789,,,
imu,271.858432,-0.2745521352,-9.671532623200001,2.0014192688,1.27118217,2.44443956,-4.0945348,,,
imu,271.867267,-0.281131816,-9.669140012000002,1.9960358936,1.38333582,2.6986545,-3.91508896,,,
imu,271.876103,-0.2727576768,-9.669140012000002,2.0020174216,1.5179202,2.88557725,-3.83284295,,,
imu,271.201146,,,,,,,70.606434,-10.12590280000001,8.795302399999994
imu,271.302678,,,,,,,70.7162988,-10.12590280000001,8.612194399999995
imu,271.404241,,,,,,,71.27783000000001,-10.1014884,8.73426639999999
imu,271.505803,,,,,,,71.094722,-9.56437160000001,9.58877039999999
imu,271.607366,,,,,,,74.03665720000001,-11.11468600000001,8.83192399999999
imu,271.70899,,,,,,,71.7539108,-10.26018200000001,8.978410399999992
imu,271.810491,,,,,,,74.0976932,-11.1513076,6.781114399999999
