Type,Timestamp,Data Accelerometer X,Data Accelerometer Y,Data Accelerometer Z,Data Gyroscope X,Data Gyroscope Y,Data Gyroscope Z,Data Magnetometer X,Data Magnetometer Y,Data Magnetometer Z
imu,502.453603,0.04246884880000001,-9.596165370400001,2.668957793600001,1.22632071,4.91181986,-3.15244414,,,
imu,502.462074,0.0634041968,-9.645213900000002,2.6474242928,1.30108981,5.21837317,-2.99542903,,,
imu,502.470545,0.04845037680000001,-9.684093832000002,2.6611818072,1.27118217,5.330526819999999,-3.17487487,,,
imu,502.479016,0.04964668240000001,-9.688879054400001,2.6581910432,0.97958268,5.42772665,-3.39918217,,,
imu,502.487487,0.0753672528,-9.610521037600002,2.655200279200001,0.71789083,5.637080129999999,-3.57862801,,,
imu,502.495959,0.06160973840000001,-9.5447242296,2.6695559464,0.6281679099999999,5.898771979999999,-3.52628964,,,
imu,502.50443,0.03110394560000001,-9.5985579816,2.6581910432,0.65059864,6.31000203,-3.23469015,,,
imu,502.512901,0.0317020984,-9.6775141512,2.655200279200001,0.83004448,6.796001179999999,-2.74121409,,,
imu,502.521372,0.0430670016,-9.672728928800002,2.6540039736,0.79265993,7.296954149999999,-2.74121409,,,
imu,502.529843,0.06400234960000001,-9.620689635200002,2.657592890400001,0.31413769,7.84276858,-2.87579847,,,
imu,502.538314,0.07177833600000001,-9.5907819952,2.645629834400001,0.15712258,8.27642936,-3.07767504,,,
imu,502.546786,0.0634041968,-9.620091482400001,2.6581910432,0.18703022,8.72504396,-3.496382,,,
imu,502.555257,0.03110394560000001,-9.658971414400002,2.6581910432,-0.15690764,9.33815058,-4.0945348,,,
imu,502.563713,0.0167482784,-9.669738164800002,2.64682614,-0.40364567,9.83162664,-4.909517989999999,,,
imu,502.572169,0.0011963056,-9.6494009696,2.643835376000001,-0.8821679099999999,10.55688691,-5.88151629,,,
imu,502.580625,-0.0101685976,-9.6260730104,2.6306760144,-1.06161375,11.31205482,-6.51705364,,,
imu,502.58908,-0.007177833600000002,-9.599754287200001,2.634264931200001,-1.31582869,12.00740745,-7.39185211,,,
imu,502.597536,-0.0466559184,-9.582407856000001,2.6324704728,-1.3233056,12.83734446,-8.22926603,,,
imu,502.605992,-0.1094619624,-9.6039413568,2.6390501536,-1.30087487,13.90654259,-9.01434158,,,
imu,502.614448,-0.1513326584,-9.642223136000002,2.6635744184,-1.31582869,15.14770965,-9.6274482,,,
imu,502.622904,-0.176455076,-9.672728928800002,2.6803226968,-1.45041307,16.4561689,-10.36018538,,,
imu,502.63136,-0.2314851336,-9.671532623200001,2.6743411688,-1.82425857,17.88425871,-11.14526093,,,
imu,502.639816,-0.3128339144,-9.688280901600002,2.6743411688,-2.23548862,19.49927127,-11.80322901,,,
imu,502.648272,-0.3403489432000001,-9.6912716656,2.6845097664,-2.50465738,21.44326787,-12.41633563,,,
imu,502.656728,-0.3564990688,-9.711608860800002,2.7180063232,-3.00561035,23.37231065,-13.216365,,,
imu,502.665184,-0.4701481008,-9.752283251200002,2.739539824,-3.37945585,25.28639961,-13.8892869,,,
imu,502.67364,-0.6597625384000001,-9.785779808000001,2.7287730736,-4.17200831,27.73134918,-14.96596194,,,
imu,502.682095,-0.9026125752,-9.8049206976,2.743726893600001,-5.02437605,30.83426683,-15.89309878,,,
imu,502.690453,-1.1346958616,-9.850978463200002,2.75150288,-6.0337589,35.08115171,-16.82023562,,,
imu,502.698909,-1.1263217224,-9.898830687200002,2.7192026288,-7.24501832,40.1579736,-17.98663358,,,
imu,502.707365,-1.0371969552,-9.8467913936,2.713221100800001,-8.605815940000001,45.35442604999999,-19.65398451,,,
imu,502.71582,-0.998915176,-9.773218599200002,2.668957793600001,-9.94418283,50.02001789,-21.78490386,,,
imu,502.724276,-0.9157719368000001,-9.7474980288,2.6300778616,-10.73673529,54.18465676,-23.65413136,,,
imu,502.732732,-0.7829820152,-9.683495679200002,2.6563965848,-11.32741118,57.70628137,-25.47102049,,,
imu,502.741188,-0.6322475096000001,-9.614708107200002,2.6115351248,-11.7162105,60.74190683,-27.36267872,,,
imu,502.749644,-0.5311596864,-9.5602762024,2.5935905408,-11.61901067,63.03731819999999,-28.73843016,,,
imu,502.7581,-0.4414367664,-9.484908949600001,2.6450316816,-11.46199556,64.79439205,-29.71042846,,,
imu,502.766565,-0.3367600264,-9.417915836,2.640844612,-10.98347332,66.43183534,-30.04688941,,,
imu,502.77503,-0.221316536,-9.434065961600002,2.638452000800001,-10.40775125,67.35897218000001,-30.30110435,,,
imu,502.783494,-0.1010878232,-9.423299211200002,2.64682614,-9.54042969,67.96460189,-30.35344272,,,
imu,502.791959,-0.0131593616,-9.361091320000002,2.6605836544,-8.79273869,68.0468479,-30.09922778,,,
imu,502.800424,0.0783580168,-9.303070498400002,2.6952765168,-8.00018623,67.78515605,-29.57584408,,,
imu,502.808889,0.1908107432,-9.301874192800001,2.736549060000001,-6.923511189999999,67.00755741,-28.82815308,,,
imu,502.817354,0.2918985664000001,-9.348530111200002,2.7700456168,-5.816928509999999,65.81125181,-28.23000028,,,
imu,502.825819,0.4234921824,-9.401167557600001,2.802345868,-4.942130039999999,63.84482448,-27.53464765,,,
imu,502.834283,0.5443190480000001,-9.429280739200001,2.825075674400001,-4.24677741,61.2428598,-26.75704901,,,
imu,502.842748,0.6603606912000002,-9.447823476,2.877713120800001,-3.618716969999999,58.06517305,-26.00935801,,,
imu,502.851213,0.7883653904000001,-9.481320032800001,2.9034336912,-2.98317962,54.15474912,-25.47102049,,,
imu,502.859678,0.8242545584000001,-9.475936657600002,2.924967192,-2.54204193,49.92281806,-24.79809859,,,
imu,502.868143,0.7811875568000001,-9.468160671200001,2.948893304,-2.19810407,45.48901043,-23.75133119,,,
imu,502.876607,0.7195778184000001,-9.5040498392,2.9465006928,-1.87659694,41.07763353,-22.68960997,,,
imu,502.885072,0.631051204,-9.532163020800002,2.936930248,-1.65228964,37.03262522,-21.58302729,,,
imu,502.893537,0.5150095608,-9.5423316184,2.9512859152,-1.56256672,33.30164713,-20.42410624,,,
imu,502.902002,0.4420349192,-9.551902063200002,2.957267443200001,-1.36816706,30.31088313,-18.80909368,,,
imu,502.910467,0.3570972216000001,-9.593174606400002,2.9764083328,-1.42050543,27.47713424,-17.60531117,,,
imu,502.918931,0.2709632184,-9.602745051200001,2.968632346400001,-1.40555161,24.92750793,-16.52115922,,,
imu,502.927396,0.2278962168,-9.616502565600001,2.9943529168,-1.49527453,22.45265072,-15.50429946,,,
imu,502.935861,0.1746606176,-9.6434194416,2.9859787776,-1.75696638,20.08994716,-14.92110048,,,
imu,502.944326,0.1100601152,-9.6523917336,2.957865596,-1.88407385,17.89921253,-14.74913155,,,
imu,502.952791,0.0197390424,-9.646410205600002,3.0140919592,-2.12333497,15.94773902,-14.58463953,,,
imu,502.961256,-0.0263187232,-9.639232372,3.026653168000001,-2.2205348,14.11589607,-14.4126706,,,
imu,502.970072,-0.08912476720000001,-9.627867468800002,3.0302420848,-2.57942648,12.44854514,-14.53230116,,,
imu,502.978889,-0.1603049504,-9.595567217600001,3.0314383904,-2.90093361,11.00550151,-14.5622088,,,
imu,502.987706,-0.2087553272,-9.572239258400002,3.029643932,-2.94579507,9.8764881,-14.36033223,,,
imu,502.996523,-0.2649816904,-9.560874355200001,3.0260550152,-3.2673022,8.9044898,-14.31547077,,,
imu,503.00534,-0.3307784984000001,-9.541733465600002,3.03562546,-3.39440967,8.06707588,-13.99396364,,,
imu,503.014157,-0.3690602776000001,-9.514218436800002,3.038616224000001,-3.58133242,7.296954149999999,-13.70236415,,,
imu,503.022974,-0.3947808480000001,-9.495077547200001,3.0392143768,-3.60376315,6.706278259999999,-13.5154414,,,
imu,503.031791,-0.4444275304,-9.504647992000002,3.024260556800001,-3.70843989,6.31000203,-13.37338011,,,
imu,503.040608,-0.4785222400000001,-9.5172092008,3.017082723200001,-3.69348607,6.04083327,-13.10421135,,,
imu,503.049425,-0.4946723656000001,-9.493283088800002,3.0111011952,-3.66357843,5.9137258,-12.88738096,,,
imu,503.058242,-0.5114206440000001,-9.425691822400001,3.0218679456,-3.618716969999999,5.74175687,-12.59578147,,,
imu,503.067059,-0.5209910888,-9.402962016000002,3.0158864176,-3.22991765,5.64455704,-12.26679743,,,
imu,503.075876,-0.5269726168000001,-9.408345391200001,3.017082723200001,-2.84111833,5.397819009999999,-12.14716687,,,
imu,503.084693,-0.5407301312,-9.401167557600001,3.017680876,-2.39998064,5.30061918,-11.95276721,,,
imu,503.093509,-0.535346756,-9.385615584800002,3.0254568624,-1.74948947,5.136127159999999,-11.71350609,,,
imu,503.102326,-0.5168040192000001,-9.3927934184,3.0278494736,-1.28592105,4.91181986,-11.38452205,,,
imu,503.111143,-0.5048409632,-9.385017432000001,3.0601497248,-0.88964482,4.53797436,-11.00319964,,,
imu,503.11996,-0.5066354216000001,-9.419112141600001,3.0757016976,-0.41112258,4.11179049,-10.71907706,,,
imu,503.128777,-0.5042428104000001,-9.456795768000001,3.0876647536,-0.11204618,3.55849915,-10.47981594,,,
imu,503.137594,-0.4809148512,-9.48072188,3.1109927128,0.15712258,2.94539253,-10.0760628,,,
imu,503.146411,-0.4677554896000001,-9.501657228000001,3.1086001016,0.3739529699999999,2.33228591,-9.7022173,,,
imu,503.155228,-0.4629702672000001,-9.5148165896,3.1247502272,0.55339881,1.73413311,-9.26107961,,,
imu,503.164045,-0.4605776560000001,-9.5184055064,3.1367132832,0.5459219,0.8593346399999997,-8.86480338,,,
imu,503.172521,-0.4611758088,-9.514218436800002,3.136115130400001,0.68798319,0.01444380999999995,-8.29655822,,,
imu,503.180997,-0.4384460024000001,-9.486105255200002,3.122357616,0.70293701,-0.94260067,-7.825512890000001,,,
imu,503.189474,-0.4599795032,-9.507638756,3.1480781864,0.64312173,-1.83982987,-7.1600679,,,
imu,503.19795,-0.4629702672000001,-9.4980683112,3.1307317552,0.4711528,-2.92398182,-6.644161110000001,,,
imu,503.206426,-0.4839056152000001,-9.477731116000001,3.1355169776,0.29918387,-3.81373411,-6.25536179,,,
imu,503.214902,-0.4958686712000001,-9.502853533600002,3.126544685600001,0.3889067899999999,-4.72591713,-5.70954736,,,
imu,503.223379,-0.4797185456,-9.530368562400001,3.1277409912,0.5010604399999999,-5.93717655,-5.01419473,,,
imu,503.231855,-0.472540712,-9.508835061600001,3.121759463200001,0.53096808,-6.92412867,-4.57305704,,,
imu,503.240331,-0.4569887392,-9.464571754400001,3.1301336024,0.6132140899999999,-8.00080371,-4.124442439999999,,,
imu,503.248807,-0.4414367664,-9.478927421600002,3.1032167264,0.8749059399999999,-9.33169369,-3.7206893,,,
imu,503.257284,-0.4222958768,-9.479525574400002,3.082281378400001,0.88985976,-10.72987586,-3.38422835,,,
imu,503.26576,-0.4145198904,-9.425691822400001,3.0679257112,0.9048135799999999,-12.1803964,-2.92065993,,,
imu,503.274236,-0.3989679176000001,-9.340754124800002,3.0667294056,1.16650543,-13.6010093,-2.45709151,,,
imu,503.282712,-0.3391526376000001,-9.304864956800001,3.061346030400001,1.60016621,-15.14872967,-1.82155416,,,
imu,503.291189,-0.290104108,-9.3586987088,3.0703183224,2.16093446,-17.16749537,-1.23835518,,,
imu,503.299665,-0.2625890792,-9.437056725600002,3.056560808,2.7142258,-19.19373798,-0.5953409199999999,,,
imu,503.308141,-0.2404574256,-9.4699551296,3.055962655200001,3.24508641,-21.4517648,0.242073,,,
imu,503.316617,-0.2219146888,-9.448421628800002,3.03562546,3.40957843,-23.89671437,1.11687147,,,
imu,503.325094,-0.2165313136,-9.426888128000002,3.0392143768,3.85819303,-26.39400231,2.15616196,,,
imu,503.33357,-0.2530186344000001,-9.418513988800001,3.0063159728,4.40400746,-28.8539057,3.12068335,,,
imu,503.342046,-0.2625890792,-9.467562518400001,2.975810180000001,5.02459099,-31.23156308,4.30203513,,,
imu,503.350523,-0.263187232,-9.528574104,2.987773236,5.56292851,-33.44472844,5.58806365,,,
imu,503.358999,-0.2649816904,-9.537546396000002,2.9303505672,5.69751289,-35.77752436,6.612400320000001,,,
imu,503.367475,-0.290104108,-9.519003659200001,2.921976428000001,6.01902002,-38.03555118,7.44981424,,,
imu,503.375937,-0.3385544848000001,-9.4843107968,2.9094152192,6.24332732,-40.18142435,8.36947417,,,
imu,503.3844,-0.4121272792,-9.475936657600002,2.883096496000001,6.16108131,-42.18523623,9.386333930000001,,,
imu,503.392862,-0.4533998224,-9.528574104,2.8418239528,6.34052715,-43.7329566,10.50787043,,,
imu,503.401324,-0.5132151024,-9.5656595776,2.823281216,6.26575805,-44.89187765,11.39014581,,,
imu,503.409786,-0.5778156048000002,-9.560874355200001,2.8119163128,6.32557333,-46.00593724,11.96586788,,,
imu,503.418249,-0.6244715232,-9.554294674400001,2.8208886048,6.28818878,-47.0975661,12.55654377,,,
imu,503.426711,-0.681894192,-9.5566872856,2.820290452000001,6.20594277,-47.770488,13.12478893,,,
imu,503.435173,-0.7315408744,-9.572239258400002,2.8107200072,6.26575805,-47.94993384,13.61826499,,,
imu,503.443635,-0.7793930984000002,-9.594370912,2.784999436800001,6.06388148,-48.0695644,13.88743375,,,
imu,503.452098,-0.8110951968000001,-9.636241608,2.7915791176,5.68255907,-47.9947953,14.08183341,,,
imu,503.46056,-0.8541621984000002,-9.6703363176,2.8101218544,5.4806825,-47.72562654,14.11174105,,,
imu,503.469022,-0.8744993936000002,-9.668541859200001,2.805336632,5.08440627,-47.41907323,14.05192577,,,
imu,503.477485,-0.9157719368000001,-9.669140012000002,2.8101218544,4.71056077,-47.03027391,13.6257419,,,
imu,503.485947,-0.9468758824000001,-9.6942624296,2.8101218544,4.516161110000001,-46.43959802,13.06497365,,,
imu,503.494409,-0.9486703408000001,-9.701440263200002,2.8328516608,4.08250033,-45.60966101,12.60140523,,,
imu,503.502871,-0.9725964528000002,-9.689477207200001,2.8047384792,3.63388573,-44.76477018,12.02568316,,,
imu,503.511334,-0.9965225648000002,-9.671532623200001,2.823281216,3.40957843,-43.78529497,11.50229946,,,
imu,503.519796,-1.0162616072,-9.673925234400002,2.825075674400001,3.08059439,-42.63385083,10.94153121,,,
imu,503.528258,-1.0084856208,-9.626671163200001,2.805336632,2.7889949,-41.2655763,10.30599386,,,
imu,503.53672,-1.0186542184,-9.551902063200002,2.804140326400001,2.4899185,-39.92720941,9.74522561,,,
imu,503.545183,-1.0222431352,-9.5237888816,2.8280664384,2.22822665,-38.54398106,9.13211899,,,
imu,503.553645,-1.019850524,-9.588389384000001,2.817897840800001,2.24318047,-37.11589125,8.59378147,,,
imu,503.562107,-1.0192523712,-9.625474857600002,2.801747715200001,2.2656112,-35.44106341,8.02553631,,,
imu,503.57057,-1.0007096344,-9.6051376624,2.8304590496,2.04878081,-34.00549669,7.36009132,,,
imu,503.579041,-0.9702038416000002,-9.549509452,2.8095237016,1.91419643,-32.55497615,6.56006195,,,
imu,503.587512,-0.9737927584000001,-9.5184055064,2.822084910400001,1.61512003,-31.08950179,5.72264803,,,
imu,503.595983,-1.0007096344,-9.514218436800002,2.8298608968,1.8169966,-29.81842709,5.13944905,,,
imu,503.604454,-0.9929336480000002,-9.523190728800001,2.835244272,1.91419643,-28.4052911,4.25717367,,,
imu,503.612925,-0.9564463272000002,-9.5357519376,2.82627198,1.98148862,-26.96224747,3.50200576,,,
imu,503.621397,-0.9426888128,-9.520199964800002,2.8149070768,1.95158098,-25.53415766,3.0832988,,,
imu,503.629868,-0.9277349928000002,-9.5184055064,2.8101218544,2.03382699,-24.20326768,2.45523836,,,
imu,503.638339,-0.9157719368000001,-9.5184055064,2.815505229600001,2.13850373,-22.96957753,1.8122241,,,
imu,503.64681,-0.8816772272000001,-9.5004609224,2.8065329376,2.25065738,-21.83308721,1.33370186,,,
imu,503.655281,-0.8744993936000002,-9.48072188,2.804140326400001,2.38524176,-20.80127363,0.8028412500000002,,,
imu,503.663752,-0.8744993936000002,-9.4873015608,2.7909809648,2.43010322,-20.0311519,0.2645037299999999,,,
imu,503.672224,-0.885266144,-9.520798117600002,2.7861957424,2.61702597,-19.06663051,-0.2439261499999998,,,
imu,503.680695,-0.8750975464000001,-9.571042952800001,2.7867938952,2.7889949,-18.20678586,-0.5280487299999999,,,
imu,503.689166,-0.8589474208000002,-9.599156134400001,2.8149070768,2.69927198,-17.33198739,-0.6402023799999998,,,
imu,503.697637,-0.8607418792,-9.600352440000002,2.8107200072,2.43758013,-16.45718892,-0.7000176599999999,,,
imu,503.706108,-0.8487788232000001,-9.6117173432,2.8011495624,2.28804193,-15.66463646,-0.63272547,,,
imu,503.714579,-0.8356194616000001,-9.619493329600001,2.8071310904,2.03382699,-14.98423765,-0.6775869299999999,,,
imu,503.723051,-0.8433954480000001,-9.654784344800001,2.8095237016,1.8169966,-14.33374648,-0.66263311,,,
imu,503.731522,-0.8338250032000001,-9.6817012208,2.8149070768,1.55530475,-13.75802441,-0.40094126,,,
imu,503.739993,-0.8290397808000001,-9.690075360000002,2.8089255488,1.18145925,-13.25707144,-0.32617216,,,
imu,503.748464,-0.8439936008000001,-9.703832874400002,2.8137107712,0.73284465,-12.60658027,-0.18411087,,,
imu,503.756935,-0.8386102256000002,-9.704431027200002,2.79636434,0.25432241,-11.94113528,-0.1317724999999998,,,
imu,503.765406,-0.8338250032000001,-9.668541859200001,2.796962492800001,-0.26906129,-11.56728978,-0.04204958000000003,,,
imu,503.773878,-0.8236564056000001,-9.642223136000002,2.794569881600001,-0.63542988,-11.02147535,0.08505788999999986,,,
imu,503.782403,-0.8266471696000001,-9.620091482400001,2.7939717288,-0.82982954,-10.37098418,0.3093651899999998,,,
imu,503.790861,-0.8200674888,-9.604539509600002,2.789186506400001,-0.94198319,-9.88498503,0.3467497399999999,,,
imu,503.79932,-0.8033192104000001,-9.572239258400002,2.780812367200001,-1.39059779,-9.4139397,0.3168421000000001,,,
imu,503.807778,-0.7931506128000001,-9.574631869600001,2.762269630400001,-1.44293616,-8.87560218,0.4289957499999999,,,
imu,503.816237,-0.7919543072000002,-9.592576453600001,2.7826068256,-1.25601341,-8.38212612,0.5635801300000001,,,
imu,503.824695,-0.7746078760000001,-9.574631869600001,2.7957661872,-1.44293616,-8.15781882,0.4813341200000001,,,
imu,503.833154,-0.76264482,-9.520798117600002,2.793373576,-1.49527453,-7.68677349,0.3766573800000002,,,
imu,503.841612,-0.7638411256000001,-9.495077547200001,2.7915791176,-1.40555161,-7.170866699999999,0.3691804699999999,,,
imu,503.850071,-0.7674300424000001,-9.4980683112,2.780812367200001,-1.24105959,-6.826928840000001,0.2794575500000001,,,
imu,503.858529,-0.7536725280000001,-9.552500216,2.793373576,-1.07656757,-6.66243682,0.1747808100000001,,,
imu,503.866988,-0.7411113192000001,-9.5184055064,2.8119163128,-0.97189083,-6.40074497,-0.1990646899999999,,,
imu,503.875446,-0.7357279440000001,-9.459786532,2.8029440208,-0.78496808,-5.952130370000001,-0.26635688,,,
imu,503.883904,-0.726755652,-9.435262267200002,2.801747715200001,-0.32887657,-5.5259465,-0.28878761,,,
imu,503.892363,-0.7303445688000001,-9.4424401008,2.8035421736,0.1720764,-5.28668538,-0.5056179999999999,,,
imu,503.900821,-0.7189796656000002,-9.478329268800001,2.7999532568,0.57582954,-5.06237808,-0.63272547,,,
imu,503.90928,-0.7094092208000001,-9.453805004000001,2.814308924,0.82256757,-4.67357876,-0.79721749,,,
imu,502.547364,,,,,,,71.27783000000001,-18.20706920000001,124.373072
imu,502.648774,,,,,,,70.9360284,-17.90188920000002,124.0190632
imu,502.750336,,,,,,,69.50778600000001,-18.1582404,123.3476672
imu,502.851868,,,,,,,66.3583284,-17.76761000000002,119.9418584
imu,502.953461,,,,,,,64.319726,-17.66995240000002,115.7547888
imu,503.054993,,,,,,,63.03797,-17.70657400000002,115.8646536
imu,503.156586,,,,,,,64.3441404,-18.64652840000001,112.6907816
imu,503.258118,,,,,,,61.34116920000001,-18.28031240000001,115.644924
imu,503.917738,-0.7171852072000001,-9.444234559200002,2.814308924,1.16650543,-4.23991798,-0.7523560299999998,,,
imu,503.926197,-0.7165870544000001,-9.457393920800001,2.838833188800001,1.64502767,-3.94831849,-0.9467556899999998,,,
imu,503.934655,-0.6998387760000001,-9.495077547200001,2.8304590496,1.98148862,-3.64924209,-1.05143243,,,
imu,503.943114,-0.708811068,-9.5213962704,2.838235036,2.16093446,-3.17071985,-1.1037708,,,
imu,503.951572,-0.7195778184000001,-9.573435564,2.8537870088,2.38524176,-2.909028,-1.05890934,,,
imu,503.960031,-0.6986424704000002,-9.599754287200001,2.865151912,2.37776485,-2.51275177,-1.05890934,,,
imu,503.968489,-0.7052221512000001,-9.620689635200002,2.8609648424,2.30299575,-2.09404481,-1.08134007,,,
imu,503.976947,-0.7070166096,-9.6326526912,2.8789094264,2.06373463,-1.712722400000001,-0.9243249599999999,,,
imu,503.985775,-0.7046239984,-9.630858232800001,2.8807038848,1.79456587,-1.27906162,-0.9318018699999999,,,
imu,503.994603,-0.6926609424000001,-9.6260730104,2.8615629952,1.41324346,-0.8753084800000002,-1.02152479,,,
imu,504.00343,-0.6962498592000002,-9.636241608,2.8669463704,1.08425942,-0.4266938800000002,-0.9617095099999999,,,
imu,504.012258,-0.6854831088000001,-9.655980650400002,2.8609648424,0.70293701,0.01444380999999995,-1.00657097,,,
imu,504.021085,-0.6860812616,-9.6434194416,2.8747223568,0.35152224,0.4854891399999999,-0.7523560299999998,,,
imu,504.029913,-0.6627533024,-9.593174606400002,2.870535287200001,0.04496892999999999,0.9565344699999998,-0.7000176599999999,,,
imu,504.03874,-0.6609588440000002,-9.578818939200001,2.8436184112,-0.127,1.39019525,-0.8121713099999999,,,
imu,504.047568,-0.6525847048000001,-9.608128426400002,2.8585722312,-0.3513073,1.86124058,-0.8944173199999998,,,
imu,504.056395,-0.646005024,-9.626671163200001,2.8573759256,-0.66533752,2.15284007,-0.99909406,,,
imu,504.065223,-0.62806044,-9.595567217600001,2.8507962448,-0.93450628,2.42948574,-1.19349372,,,
imu,504.07405,-0.6220789120000001,-9.552500216,2.863955606400001,-1.12890594,2.74351596,-1.3280781,,,
imu,504.082878,-0.6017417168000001,-9.531564868,2.8490017864,-1.1737674,3.07997691,-1.44770866,,,
imu,504.091706,-0.580208216,-9.5154147424,2.8579740784,-1.0242292,3.31176112,-1.70940051,,,
imu,504.100533,-0.5837971328000001,-9.513022131200001,2.8687408288,-0.8672140899999999,3.40896095,-1.97109236,,,
imu,504.109361,-0.5646562432000001,-9.557285438400001,2.8603666896,-0.77001426,3.58840679,-2.34493786,,,
imu,504.118188,-0.5676470072,-9.593174606400002,2.8519925504,-0.62047606,3.49120696,-2.74121409,,,
imu,504.127016,-0.5514968816000001,-9.571641105600001,2.843020258400001,-0.5756146,3.43886859,-2.9729983,,,
imu,504.135843,-0.5520950344000001,-9.502853533600002,2.847207328000001,-0.8522602699999999,3.3715764,-3.07767504,,,
imu,504.144671,-0.5485061176,-9.447225323200001,2.8448147168,-0.6279529699999999,3.62579134,-2.99542903,,,
imu,504.153498,-0.5514968816000001,-9.4843107968,2.8274682856,-0.08961545,3.72299117,-2.49447606,,,
imu,504.162326,-0.5467116592000001,-9.514218436800002,2.823281216,0.32909151,3.8949601,-2.18044584,,,
imu,504.171153,-0.5251781584,-9.541733465600002,2.8238793688,0.60573718,3.93234465,-1.98604618,,,
imu,504.179981,-0.4922797544,-9.522592576000001,2.823281216,0.7104139199999999,4.0444983,-2.03090764,,,
imu,504.188447,-0.4563905864000001,-9.422102905600001,2.815505229600001,0.9646288599999999,3.97720611,-1.90380017,,,
imu,504.196913,-0.4623721144,-9.3796340568,2.804140326400001,1.36090509,3.76785263,-1.94866163,,,
imu,504.205379,-0.4617739616000001,-9.4699551296,2.805336632,1.95905789,3.57345297,-2.17296893,,,
imu,504.213845,-0.4587831976000001,-9.536350090400001,2.7885883536,2.116073,3.2968073,-2.41223005,,,
imu,504.222311,-0.4695499480000001,-9.532163020800002,2.7861957424,2.24318047,3.27437657,-2.59167589,,,
imu,504.230777,-0.4731388648000001,-9.517807353600002,2.7957661872,2.51982614,3.19213056,-2.66644499,,,
imu,504.239244,-0.4372496968000001,-9.530966715200002,2.8208886048,2.73665653,2.9977309,-2.91318302,,,
imu,504.24771,-0.4276792520000001,-9.652989886400002,3.014690112,2.97591765,2.86314652,-2.95804448,,,
imu,504.256176,-0.4199032656,-9.4203084472,2.7748308392,2.46748777,2.75846978,-3.21973633,,,
imu,504.264642,-0.4731388648000001,-9.328791068800001,2.798756951200001,2.72917962,2.58650085,-3.56367419,,,
imu,504.273108,-0.4653628784000001,-9.573435564,2.7610733248,3.35724006,2.45939338,-3.60853565,,,
imu,504.281574,-0.3989679176000001,-9.742114653600002,2.819692299200001,3.72360865,2.45939338,-3.59358183,,,
imu,504.29004,-0.430670016,-9.663158484000002,2.8669463704,3.31985551,2.35471664,-3.91508896,,,
imu,504.298506,-0.4408386136,-9.560874355200001,2.833449813600001,3.03573293,2.1005017,-4.124442439999999,,,
imu,504.306972,-0.4480164472000001,-9.528574104,2.823281216,2.90114855,1.99582496,-3.96742733,,,
imu,504.315438,-0.4384460024000001,-9.572239258400002,2.8214867576,3.00582529,2.03320951,-3.9449966,,,
imu,504.323904,-0.4019586816,-9.596763523200002,2.8466091752,3.02825602,2.00330187,-3.84779677,,,
imu,504.33237,-0.4408386136,-9.6284656216,2.832253508,2.90862546,1.9509635,-3.93004278,,,
imu,504.340837,-0.4880926848000001,-9.6296619272,2.8047384792,2.83385636,1.89114822,-3.76555076,,,
imu,504.349303,-0.4420349192,-9.591978300800001,2.8238793688,2.4899185,1.98834805,-3.69078166,,,
imu,504.357769,-0.4432312248,-9.575230022400001,2.833449813600001,2.29551884,2.12293243,-3.58610492,,,
imu,504.366235,-0.4946723656000001,-9.5800152448,2.823281216,2.29551884,2.19022462,-3.74312003,,,
imu,504.374701,-0.4444275304,-9.630260080000001,2.817299688,2.4151494,2.13788625,-3.70573548,,,
imu,504.383167,-0.4025568344,-9.6703363176,2.819692299200001,2.14598064,2.14536316,-3.69078166,,,
imu,504.391718,-0.4857000736000001,-9.6523917336,2.8119163128,1.85438115,2.26499372,-4.124442439999999,,,
imu,504.40027,-0.4851019208000001,-9.599156134400001,2.817897840800001,1.45810492,2.0257326,-4.47585721,,,
imu,504.408821,-0.4755314760000001,-9.585398620000001,2.819692299200001,1.38333582,2.07807097,-4.28145755,,,
imu,504.417372,-0.5120187968000001,-9.612913648800001,2.81131816,1.08425942,2.13040934,-4.37865738,,,
imu,504.425923,-0.550300576,-9.6218859408,2.804140326400001,0.82256757,2.324809,-4.363703559999999,,,
imu,504.434475,-0.5293652280000001,-9.5776226336,2.784999436800001,0.56835263,2.30985518,-4.52071867,,,
imu,504.443026,-0.5078317272000001,-9.553696521600001,2.7706437696,0.43376825,2.45939338,-4.53567249,,,
imu,504.451577,-0.5221873944000001,-9.530368562400001,2.7766252976,0.4861066199999999,2.57154703,-4.58801086,,,
imu,504.460128,-0.5162058664000001,-9.519601812000001,2.7419324352,0.620691,2.61640849,-4.647826139999999,,,
imu,504.46868,-0.46356842,-9.529770409600001,2.7550917968,0.67302937,2.53416248,-4.78988743,,,
imu,504.477231,-0.5066354216000001,-9.5393408544,2.7580825608,0.94219813,2.52668557,-4.87961035,,,
imu,504.485782,-0.5311596864,-9.541733465600002,2.754493644000001,1.16650543,2.34723973,-4.86465653,,,
imu,504.494334,-0.5168040192000001,-9.5429297712,2.7413342824,1.16650543,2.33976282,-4.72259524,,,
imu,504.502885,-0.5144114080000001,-9.536350090400001,2.7664567,1.30856672,2.27994754,-4.61044159,,,
imu,504.511436,-0.520392936,-9.536350090400001,2.7676530056,1.68988913,2.22760917,-4.341272829999999,,,
imu,504.519987,-0.5227855472,-9.552500216,2.7706437696,1.98148862,2.01077878,-4.13191935,,,
imu,504.528539,-0.5311596864,-9.575230022400001,2.763465936,2.24318047,1.89862513,-4.02724261,,,
imu,504.53709,-0.5497024232000001,-9.5776226336,2.7676530056,2.43010322,1.89114822,-3.76555076,,,
imu,504.545641,-0.5550857984,-9.577024480800002,2.7580825608,2.37776485,2.01077878,-3.53376655,,,
imu,504.554193,-0.5479079648000001,-9.567454036,2.7491102688,2.44505704,1.93600968,-3.2720747,,,
imu,504.562744,-0.5281689224000001,-9.578818939200001,2.746119504800001,2.4899185,1.68179474,-3.22721324,,,
imu,504.571295,-0.5257763112000001,-9.614708107200002,2.761671477600001,2.6394567,1.60702564,-3.00290594,,,
imu,504.579846,-0.5419264368000001,-9.644017594400001,2.7467176576,2.25813429,1.53225654,-3.1225365,,,
imu,504.588398,-0.5383375200000001,-9.6458120528,2.764064088800001,2.14598064,1.50982581,-3.10010577,,,
imu,504.596793,-0.5377393672000002,-9.644615747200001,2.7586807136,1.76465823,1.54721036,-3.14496723,,,
imu,504.605187,-0.5389356728,-9.634447149600001,2.7718400752,1.53287402,1.71170238,-3.18982869,,,
imu,504.613582,-0.5580765624000001,-9.619493329600001,2.757484408000001,1.47305874,1.82385603,-3.36179762,,,
imu,504.621977,-0.5556839512000001,-9.630260080000001,2.760475172,1.40576655,2.03320951,-3.31693616,,,
imu,504.630372,-0.5562821040000001,-9.620091482400001,2.7568862552,1.09173633,2.01077878,-3.50385891,,,
imu,504.638767,-0.5538894928000001,-9.593174606400002,2.7497084216,0.79265993,1.99582496,-3.78798149,,,
imu,504.647162,-0.5185984776000001,-9.592576453600001,2.7802142144,0.63564482,2.00330187,-3.96742733,,,
imu,504.655557,-0.4593813504000001,-9.6505972752,2.896854010400001,0.56087572,2.26499372,-3.7954584,,,
imu,504.663952,-0.4833074624000001,-9.519003659200001,2.796962492800001,0.34404533,2.23508608,-3.63844329,,,
imu,504.672346,-0.5574784096000001,-9.3383615136,2.717408170400001,0.3889067899999999,2.1752708,-3.81041222,,,
imu,504.680741,-0.5748248408000001,-9.443038253600001,2.671350404800001,1.01696723,2.1005017,-4.11696553,,,
imu,504.689136,-0.5341504504000001,-9.718786694400002,2.682715308000001,1.54782784,2.13040934,-4.057150249999999,,,
imu,504.697531,-0.5162058664000001,-9.803724392000001,2.7509047272,1.34595127,2.09302479,-3.93004278,,,
imu,504.705926,-0.5066354216000001,-9.6709344704,2.7688493112,0.81509066,2.01077878,-3.88518132,,,
imu,504.714321,-0.5215892416000001,-9.4962738528,2.7802142144,0.30666078,2.09302479,-3.69078166,,,
imu,504.722716,-0.5359449088000001,-9.4801237272,2.796962492800001,0.5459219,2.0257326,-3.48890509,,,
imu,504.731111,-0.5239818528000001,-9.561472508000001,2.7790179088,0.8524752099999999,1.8014253,-3.51881273,,,
imu,503.360001,,,,,,,64.23427560000002,-19.62310440000001,113.6673576
imu,503.461533,,,,,,,62.7816188,-19.15923080000002,117.781184
imu,503.563157,,,,,,,64.77139240000001,-19.0127444,120.4423536
imu,503.664628,,,,,,,68.4823812,-18.45121320000001,124.6294232
imu,503.766404,,,,,,,69.92283079999999,-18.98833000000002,125.8745576
imu,503.867814,,,,,,,70.6430556,-18.56107800000002,125.7891072
imu,503.969407,,,,,,,71.04589320000001,-18.255898,125.6304136
imu,504.070969,,,,,,,71.43652359999999,-18.46342040000002,126.0698728
imu,504.739505,-0.5209910888,-9.630858232800001,2.7855975896,0.8823828499999999,1.9509635,-3.33936689,,,
imu,504.7479,-0.5144114080000001,-9.621287788000002,2.771241922400001,0.68050628,1.88367131,-3.25712088,,,
imu,504.756295,-0.5287670752,-9.5489112992,2.7431287408,0.65807555,1.83880985,-3.10010577,,,
imu,504.76469,-0.5359449088000001,-9.5213962704,2.7317638376,0.8973366700000001,1.86871749,-3.01038285,,,
imu,504.773085,-0.5365430616000001,-9.556089132800002,2.7371472128,1.34595127,1.94348659,-2.80850628,,,
imu,504.78148,-0.5383375200000001,-9.556089132800002,2.733558296,1.65998149,2.03320951,-2.72626027,,,
imu,504.789875,-0.5341504504000001,-9.534555632000002,2.7443250464,1.68241222,2.07807097,-2.95804448,,,
imu,504.798629,-0.5359449088000001,-9.531564868,2.743726893600001,1.87681188,2.14536316,-3.01785976,,,
imu,504.807384,-0.5323559920000001,-9.5698466472,2.7521010328,1.99644244,2.16031698,-3.10758268,,,
imu,504.816139,-0.5036446576000001,-9.613511801600001,2.757484408000001,2.22822665,2.34723973,-3.10010577,,,
imu,504.824894,-0.4988594352000001,-9.635045302400002,2.7628677832,1.8917657,2.51173175,-3.17487487,,,
imu,504.833648,-0.5156077136000001,-9.652989886400002,2.7772234504,1.77961205,2.51920866,-3.03281358,,,
imu,504.842403,-0.4988594352000001,-9.651793580800001,2.771241922400001,1.56278166,2.55659321,-3.00290594,,,
imu,504.851158,-0.4749333232000001,-9.6326526912,2.761671477600001,1.2936129,2.5491163,-3.05524431,,,
imu,504.859913,-0.4851019208000001,-9.636241608,2.7664567,0.97210577,2.45191647,-3.03281358,,,
imu,504.868667,-0.4970649768000001,-9.618895176800002,2.763465936,0.73284465,2.43696265,-3.1225365,,,
imu,504.87776,-0.4976631296000001,-9.592576453600001,2.7646622416,0.65807555,2.4743472,-3.21973633,,,
imu,504.886515,-0.4880926848000001,-9.5949690648,2.724586004,0.6132140899999999,2.45191647,-3.30945925,,,
imu,504.89527,-0.4791203928000001,-9.6218859408,2.7287730736,0.57582954,2.42948574,-3.48142818,,,
imu,504.904024,-0.4779240872000001,-9.6075302736,2.7263804624,0.60573718,2.4743472,-3.40665908,,,
imu,504.912779,-0.481513004,-9.552500216,2.7491102688,0.60573718,2.46687029,-3.25712088,,,
imu,504.921534,-0.4892889904,-9.504647992000002,2.7580825608,0.67302937,2.51920866,-3.41413599,,,
imu,504.930289,-0.4916816016,-9.5148165896,2.742530588,0.94219813,2.42948574,-3.63844329,,,
imu,504.939043,-0.4839056152000001,-9.572837411200002,2.725184156800001,1.25622835,2.33976282,-3.89265823,,,
imu,504.947798,-0.490485296,-9.6296619272,2.7138192536,1.31604363,2.35471664,-4.13939626,,,
imu,504.956553,-0.490485296,-9.620091482400001,2.700659892,1.24875144,2.29490136,-4.20668845,,,
imu,504.965308,-0.4982612824000001,-9.597959828800002,2.70664142,1.40576655,2.30985518,-3.7954584,,,
imu,504.974062,-0.5108224912,-9.573435564,2.7198007816,1.30108981,2.41453192,-3.32441307,,,
imu,504.982817,-0.5461135064000001,-9.618895176800002,3.0099048896,1.49548947,2.4743472,-2.81598319,,,
imu,504.991572,-0.4061457512000001,-9.743310959200002,2.7317638376,1.55530475,2.63136231,-2.83841392,,,
imu,505.000326,-0.4330626272,-9.3664746952,2.7024543504,0.78518302,2.59397776,-2.9729983,,,
imu,505.008826,-0.5658525488000001,-9.288116678400002,2.6653688768,1.51044329,2.56407012,-2.92065993,,,
imu,505.017326,-0.4492127528000001,-9.651793580800001,2.6001702216,2.30299575,2.53416248,-2.96552139,,,
imu,505.025826,-0.3541064576,-9.746899876,2.7652603944,2.46748777,2.52668557,-3.35432071,,,
imu,505.034326,-0.502448352,-9.547116840800001,2.6755374744,2.01887317,2.54163939,-3.71321239,,,
imu,505.042826,-0.5144114080000001,-9.416719530400002,2.652807668,1.99644244,2.28742445,-3.88518132,,,
imu,505.051325,-0.391790084,-9.5082369088,2.7090340312,2.58711833,2.58650085,-3.90761205,,,
imu,505.059825,-0.4504090584,-9.6117173432,2.7000617392,2.80394872,2.96034635,-3.95995042,,,
imu,505.068325,-0.5150095608,-9.614109954400002,2.6779300856,2.81890254,3.02763854,-4.20668845,,,
imu,505.076825,-0.4432312248,-9.602146898400001,2.667163335200001,2.4899185,2.87062343,-4.6179185,,,
imu,505.085325,-0.4252866408000001,-9.618297024,2.696472822400001,2.16093446,2.84071579,-4.92447181,,,
imu,505.093824,-0.4743351704000001,-9.6087265792,2.7030525032,1.92167334,2.79585433,-4.991764,,,
imu,505.102324,-0.4755314760000001,-9.613511801600001,2.7120247952,1.74970441,2.46687029,-4.931948719999999,,,
imu,505.110824,-0.4874945320000001,-9.6326526912,2.704248808800001,1.60764312,2.30237827,-4.90204108,,,
imu,505.119324,-0.4557924336,-9.655382497600002,2.7203989344,1.47305874,2.22760917,-4.74502597,,,
imu,505.127824,-0.5012520464000001,-9.668541859200001,2.731165684800001,1.31604363,2.10797861,-4.81231816,,,
imu,505.136323,-0.5006538936,-9.672728928800002,2.727576768,1.15155161,1.8014253,-4.72259524,,,
imu,505.144823,-0.4827093096,-9.668541859200001,2.7413342824,0.94219813,1.68179474,-4.27398064,,,
imu,505.153323,-0.4767277816000001,-9.641624983200002,2.742530588,0.55339881,1.50982581,-3.98238115,,,
imu,505.161823,-0.4970649768000001,-9.645213900000002,2.7377453656,0.52349117,1.39767216,-3.91508896,,,
imu,505.170323,-0.5156077136000001,-9.648802816800002,2.7281749208,0.41133752,1.39767216,-3.75059694,,,
imu,505.178822,-0.4851019208000001,-9.626671163200001,2.725184156800001,0.31413769,1.18831868,-3.45899745,,,
imu,505.187322,-0.4928779072000001,-9.593772759200002,2.757484408000001,0.27675314,1.27056469,-3.15992105,,,
imu,505.195822,-0.5162058664000001,-9.639830524800002,2.7497084216,0.21693786,1.15093413,-3.24964397,,,
imu,505.204302,-0.5233837000000001,-9.6942624296,2.7592788664,0.13469185,1.16588795,-3.14496723,,,
imu,505.212782,-0.5180003248000001,-9.693066124000001,2.7838031312,-0.10456927,0.9714882899999999,-3.03281358,,,
imu,505.221262,-0.5287670752,-9.6428212888,2.7838031312,-0.56066078,0.9789651999999998,-3.03281358,,,
imu,505.229742,-0.5586747152,-9.638036066400002,2.7820086728,-1.00927538,0.9341037399999998,-2.98795212,,,
imu,505.238222,-0.5730303824,-9.6775141512,2.775428992000001,-1.12890594,1.09111885,-2.45709151,,,
imu,505.246703,-0.5676470072,-9.696056888000001,2.7646622416,-1.61490509,1.18831868,-2.03090764,,,
imu,505.255183,-0.5556839512000001,-9.682897526400001,2.7371472128,-1.89155076,1.24065705,-1.87389253,,,
imu,505.263663,-0.5305615336,-9.66016772,2.726978615200001,-2.31025772,1.5023489,-1.95613854,,,
imu,505.272143,-0.5072335744,-9.655382497600002,2.7144174064,-2.50465738,1.7266562,-1.87389253,,,
imu,505.280623,-0.5144114080000001,-9.588987536800001,2.7054451144,-2.91588743,1.69674856,-2.16549202,,,
imu,505.289103,-0.5168040192000001,-9.508835061600001,2.6970709752,-2.94579507,1.68179474,-2.33746095,,,
imu,505.297583,-0.5180003248000001,-9.443636406400001,2.685706072000001,-2.53456502,1.74908693,-2.65149117,,,
imu,505.306063,-0.5144114080000001,-9.462777296000002,2.686902377600001,-2.07847351,1.8014253,-2.91318302,,,
imu,505.314543,-0.5072335744,-9.4974701584,2.6928839056,-1.65228964,1.91357895,-3.26459779,,,
imu,505.323023,-0.5102243384,-9.484908949600001,2.7084358784,-1.27096723,1.92853277,-3.41413599,,,
imu,505.331503,-0.4862982264000001,-9.453805004000001,2.729371226400001,-0.94198319,1.98834805,-3.75059694,,,
imu,505.339983,-0.4671573368000001,-9.455001309600002,2.736549060000001,-0.44850713,2.18274771,-3.86275059,,,
imu,505.348463,-0.4833074624000001,-9.4980683112,2.7317638376,-0.18681528,2.30985518,-3.90761205,,,
imu,505.356943,-0.481513004,-9.5154147424,2.750306574400001,0.26927623,2.48182411,-3.77302767,,,
imu,505.365424,-0.4809148512,-9.502853533600002,2.7700456168,0.5459219,2.48930102,-3.81788913,,,
imu,505.373904,-0.4695499480000001,-9.516611048000001,2.7879902008,0.7403215599999999,2.44443956,-3.87770441,,,
imu,505.382384,-0.4623721144,-9.546518688,2.7927754232,0.9945364999999999,2.35471664,-3.99733497,,,
imu,505.390864,-0.4593813504000001,-9.5776226336,2.7927754232,1.15155161,2.3995781,-3.95247351,,,
imu,505.399344,-0.4498109056,-9.596165370400001,2.8035421736,1.19641307,2.39210119,-4.00481188,,,
imu,505.407809,-0.4510072112,-9.596165370400001,2.805336632,1.11416706,2.20517844,-3.9449966,,,
imu,505.416273,-0.4528016696000001,-9.6051376624,2.817299688,1.1440747,2.16031698,-3.86275059,,,
imu,505.424738,-0.4647647256,-9.606333968000001,2.8137107712,1.0693056,2.06311715,-3.69825857,,,
imu,505.433203,-0.4647647256,-9.613511801600001,2.817299688,0.97210577,2.1005017,-3.52628964,,,
imu,505.441668,-0.4593813504000001,-9.614708107200002,2.808327396000001,0.8674290299999999,1.98834805,-3.5711511,,,
imu,505.450133,-0.4701481008,-9.6434194416,2.829262744000001,0.7253677399999999,1.9509635,-3.5711511,,,
imu,505.458598,-0.4677554896000001,-9.620091482400001,2.8543851616,0.52349117,2.07059406,-3.39170526,,,
imu,505.467062,-0.4707462536000001,-9.484908949600001,2.8149070768,0.10478421,2.05564024,-3.36179762,,,
imu,505.475527,-0.4743351704000001,-9.4591883792,2.7909809648,0.29170696,2.03320951,-3.55619728,,,
imu,505.483992,-0.4695499480000001,-9.584800467200001,2.7730363808,0.73284465,2.06311715,-3.50385891,,,
imu,505.492457,-0.4569887392,-9.7163940832,2.7915791176,0.7403215599999999,1.96591732,-3.40665908,,,
imu,505.500922,-0.4438293776000001,-9.702038416,2.832253508,0.23936859,1.97339423,-3.4216129,,,
imu,505.509386,-0.4599795032,-9.554294674400001,2.819692299200001,-0.32139966,1.81637912,-3.5711511,,,
imu,505.517851,-0.4707462536000001,-9.458590226400002,2.8101218544,-0.4260764,1.94348659,-3.60853565,,,
imu,505.526316,-0.4605776560000001,-9.520798117600002,2.7975606456,-0.08213854000000001,2.03320951,-3.57862801,,,
imu,505.534781,-0.46356842,-9.5949690648,2.802345868,0.21693786,1.96591732,-3.32441307,,,
imu,505.543246,-0.4444275304,-9.5907819952,2.8167015352,-0.02232326000000001,1.78647148,-3.39170526,,,
imu,505.55171,-0.4444275304,-9.526779645600001,2.7939717288,0.03749201999999999,1.73413311,-3.41413599,,,
imu,504.172654,,,,,,,73.60940520000001,-18.81742920000002,123.94582
imu,504.274094,,,,,,,71.30224439999999,-18.45121320000001,125.6914496
imu,504.375657,,,,,,,73.59719799999999,-19.41558200000002,123.5551896
imu,504.477219,,,,,,,71.0581004,-18.57328520000001,125.227576
imu,504.578782,,,,,,,71.1923796,-18.60990680000001,124.2265856
imu,504.680375,,,,,,,71.1679652,-18.93950120000001,125.9722152
imu,504.781968,,,,,,,71.6196316,-18.81742920000002,125.7646928
imu,504.883469,,,,,,,71.6318388,-19.33013160000001,125.593792
imu,505.560175,-0.4551942808000001,-9.5172092008,2.8107200072,0.07487657,1.52477963,-3.54872037,,,
imu,505.56864,-0.4456238360000001,-9.526181492800001,2.7820086728,0.30666078,1.59954873,-3.56367419,,,
imu,505.577105,-0.4593813504000001,-9.562668813600002,2.805934784800001,0.41133752,1.48739508,-3.65339711,,,
imu,505.58557,-0.4611758088,-9.585996772800002,2.7957661872,0.56835263,1.51730272,-3.68330475,,,
imu,505.594035,-0.4611758088,-9.5429297712,2.787392048000001,0.4861066199999999,1.59207182,-3.59358183,,,
imu,505.602499,-0.4683536424000001,-9.549509452,2.802345868,0.58330645,1.53973345,-3.57862801,,,
imu,505.610953,-0.481513004,-9.609324732000001,2.8065329376,0.82256757,1.5023489,-3.496382,,,
imu,505.619406,-0.4773259344000001,-9.609922884800001,2.793373576,0.620691,1.62197946,-3.54124346,,,
imu,505.627859,-0.4797185456,-9.5800152448,2.787392048000001,0.66555246,1.61450255,-3.56367419,,,
imu,505.636313,-0.4707462536000001,-9.603343204000002,2.8131126184,0.5982602699999999,1.64441019,-3.66087402,,,
imu,505.644766,-0.472540712,-9.604539509600002,2.841225800000001,0.45619898,1.68179474,-3.51133582,,,
imu,505.65322,-0.4749333232000001,-9.536948243200001,2.8418239528,0.35899915,1.71170238,-3.63096638,,,
imu,505.661673,-0.4671573368000001,-9.509433214400001,2.8208886048,0.23189168,1.82385603,-3.57862801,,,
imu,505.670126,-0.46356842,-9.584800467200001,2.8089255488,0.36647606,1.92105586,-3.45899745,,,
imu,505.67858,-0.4731388648000001,-9.6703363176,2.822084910400001,0.3963837,1.84628676,-3.39170526,,,
imu,505.687033,-0.4551942808000001,-9.642223136000002,2.838235036,0.08235347999999998,1.82385603,-3.36179762,,,
imu,505.695486,-0.4605776560000001,-9.574631869600001,2.856777772800001,-0.03727708,1.86124058,-3.31693616,,,
imu,505.70394,-0.4623721144,-9.572239258400002,2.8370387304,0.08235347999999998,1.79394839,-3.26459779,,,
imu,505.712393,-0.454596128,-9.5877912312,2.841225800000001,-0.08213854000000001,1.79394839,-3.45152054,,,
imu,505.720847,-0.4569887392,-9.5429297712,2.843020258400001,-0.08213854000000001,1.74908693,-3.48142818,,,
imu,505.7293,-0.4611758088,-9.502255380800001,2.825075674400001,-0.14943073,1.76404075,-3.50385891,,,
imu,505.737753,-0.4928779072000001,-9.506442450400002,2.837636883200001,-0.09709236,1.75656384,-3.5711511,,,
imu,505.746207,-0.4785222400000001,-9.536350090400001,2.8495999392,-0.2765382,1.53225654,-3.95995042,,,
imu,505.75466,-0.4809148512,-9.632054538400002,2.8603666896,-0.19429219,1.36776452,-4.08705789,,,
imu,505.763113,-0.4880926848000001,-9.675719692800001,2.8765168152,-0.2017691,1.29299542,-4.17678081,,,
imu,505.771567,-0.5018501992000001,-9.620091482400001,2.8813020376,-0.5008455,1.21822632,-4.37118047,,,
imu,505.78002,-0.5012520464000001,-9.5154147424,2.8866854128,-0.76253735,1.16588795,-4.19173463,,,
imu,505.788473,-0.5449172008000001,-9.477132963200003,2.8615629952,-0.62047606,1.5023489,-3.7206893,,,
imu,505.796927,-0.5688433128,-9.534555632000002,2.862161148000001,-0.29896893,1.73413311,-2.93561375,,,
imu,505.80538,-0.5622636320000001,-9.557883591200001,2.8448147168,0.07487657,2.04068642,-2.39727623,,,
imu,505.814197,-0.5239818528000001,-9.495077547200001,2.838833188800001,0.18703022,2.30237827,-2.2253073,,,
imu,505.823014,-0.4922797544,-9.432869656000001,2.8286645912,0.3216146,2.23508608,-2.41223005,,,
imu,505.831831,-0.4773259344000001,-9.4346641144,2.812514465600001,0.64312173,2.16031698,-2.54681443,,,
imu,505.840648,-0.4922797544,-9.4753385048,2.8035421736,1.1440747,2.27247063,-2.63653735,,,
imu,505.849465,-0.4988594352000001,-9.5010590752,2.8011495624,1.6674584,2.23508608,-2.80102937,,,
imu,505.858282,-0.5114206440000001,-9.486105255200002,2.801747715200001,1.78708896,2.29490136,-3.15244414,,,
imu,505.867099,-0.5299633808,-9.472347740800002,2.799355104,2.07868845,2.43696265,-3.41413599,,,
imu,505.875916,-0.5120187968000001,-9.5219944232,2.8190941464,2.38524176,2.63883922,-3.60853565,,,
imu,505.884733,-0.5012520464000001,-9.5704448,2.8244775216,2.51982614,2.70613141,-3.62348947,,,
imu,505.893549,-0.4892889904,-9.575828175200002,2.8310572024,2.42262631,2.79585433,-3.6459202,,,
imu,505.902366,-0.5000557408,-9.594370912,2.8478054808,2.30299575,2.96034635,-3.75807385,,,
imu,505.911183,-0.4880926848000001,-9.6248767048,2.8358424248,2.07121154,2.90800798,-3.78798149,,,
imu,505.92,-0.4689517952000001,-9.635045302400002,2.850198092000001,1.82447351,2.90053107,-3.84779677,,,
imu,505.928817,-0.4743351704000001,-9.6296619272,2.862161148000001,1.48801256,2.94539253,-3.95995042,,,
imu,505.937634,-0.4671573368000001,-9.623680399200001,2.85617962,1.26370526,3.13979219,-3.87770441,,,
imu,505.946451,-0.4605776560000001,-9.6326526912,2.8609648424,1.12912088,2.97530017,-3.78050458,,,
imu,505.955268,-0.4510072112,-9.640428677600001,2.853188856,0.8674290299999999,2.82576197,-3.84031986,,,
imu,505.964085,-0.4462219888000001,-9.6326526912,2.8687408288,0.6132140899999999,2.75846978,-3.73564312,,,
imu,505.973003,-0.4408386136,-9.627867468800002,2.8585722312,0.33656842,2.63136231,-3.42908981,,,
imu,505.981819,-0.4462219888000001,-9.614708107200002,2.8346461192,0.09730729999999999,2.60145467,-3.27955161,,,
imu,505.990636,-0.4414367664,-9.627269316000001,2.8280664384,0.17955331,2.63136231,-3.01785976,,,
imu,505.999453,-0.4276792520000001,-9.593772759200002,2.8448147168,-0.0522309,2.50425484,-2.89075229,,,
imu,506.00827,-0.4187069600000001,-9.5393408544,2.8609648424,-0.17933837,2.36967046,-2.65149117,,,
imu,506.016512,-0.3983697648000001,-9.561472508000001,2.854983314400001,-0.21672292,2.33976282,-2.64401426,,,
imu,506.024755,-0.4181088072000001,-9.619493329600001,2.859768536800001,-0.11952309,2.29490136,-2.83841392,,,
imu,506.032997,-0.4330626272,-9.616502565600001,2.864553759200001,-0.14195382,2.20517844,-2.94309066,,,
imu,506.041239,-0.4193051128000001,-9.558481744000002,2.8633574536,-0.52327623,1.99582496,-3.15992105,,,
imu,506.049481,-0.4414367664,-9.519003659200001,2.8723297456,-0.50832241,1.86871749,-3.22721324,,,
imu,506.057723,-0.4444275304,-9.536948243200001,2.8854891072,-0.32887657,2.03320951,-2.77859864,,,
imu,506.065966,-0.4498109056,-9.5219944232,2.8819001904,-0.5307531400000001,2.10797861,-2.62906044,,,
imu,506.074208,-0.4456238360000001,-9.5154147424,2.8699371344,-0.40364567,2.16779389,-2.62906044,,,
imu,506.08245,-0.430670016,-9.541135312800002,2.8627593008,-0.14943073,2.2500399,-2.748691,,,
imu,506.090692,-0.4252866408000001,-9.553098368800002,2.865151912,-0.127,2.2500399,-2.96552139,,,
imu,506.098934,-0.4133235848,-9.526181492800001,2.87113344,0.007584380000000002,2.26499372,-2.98047521,,,
imu,506.107177,-0.4169125016,-9.491488630400001,2.8693389816,0.05992275,2.12293243,-3.07767504,,,
imu,506.115419,-0.4193051128000001,-9.474740352000001,2.859170384,0.45619898,2.30237827,-3.17487487,,,
imu,506.123661,-0.4139217376000001,-9.478927421600002,2.8466091752,0.81509066,2.22013226,-3.33188998,,,
imu,506.131903,-0.4115291264,-9.4873015608,2.8460110224,0.9870595899999999,2.28742445,-3.2720747,,,
imu,506.140145,-0.4228940296000001,-9.496872005600002,2.8669463704,1.25622835,2.15284007,-3.2720747,,,
imu,506.148387,-0.4073420568000001,-9.495077547200001,2.8765168152,1.33847436,2.09302479,-3.28702852,,,
imu,506.15663,-0.4025568344,-9.4801237272,2.8765168152,1.28613599,2.00330187,-3.3468438,,,
imu,506.164872,-0.4019586816,-9.527377798400002,2.88608726,1.48053565,1.86124058,-3.23469015,,,
imu,506.173114,-0.4073420568000001,-9.576426328,2.8836946488,1.57773548,1.90610204,-3.08515195,,,
imu,506.181356,-0.3971734592000001,-9.585996772800002,2.8908724824,1.49548947,1.77899457,-3.00290594,,,
imu,506.189598,-0.4073420568000001,-9.593772759200002,2.8789094264,1.51044329,1.68179474,-2.91318302,,,
imu,506.197841,-0.4103328208,-9.6087265792,2.8944613992,1.33099745,1.62945637,-2.83841392,,,
imu,506.206083,-0.4216977240000001,-9.593174606400002,2.8795075792,1.15155161,1.61450255,-2.79355246,,,
imu,506.214325,-0.424688488,-9.573435564,2.8813020376,0.97958268,1.42010289,-2.91318302,,,
imu,506.223042,-0.4384460024000001,-9.566257730400002,2.870535287200001,1.12164397,1.58459491,-2.91318302,,,
imu,506.23176,-0.4474182944000001,-9.578818939200001,2.8555814672,1.02444414,1.86124058,-3.02533667,,,
imu,506.240477,-0.4599795032,-9.590183842400002,2.8513943976,1.01696723,1.97339423,-3.09262886,,,
imu,506.249195,-0.4653628784000001,-9.5704448,2.8460110224,0.97958268,2.1005017,-3.36927453,,,
imu,506.257912,-0.4551942808000001,-9.544126076800001,2.8519925504,0.9870595899999999,2.2500399,-3.6459202,,,
imu,506.266629,-0.4504090584,-9.548313146400002,2.8424221056,0.88985976,2.35471664,-3.81788913,,,
imu,506.275347,-0.4414367664,-9.556089132800002,2.8436184112,1.07678251,2.56407012,-4.13939626,,,
imu,506.284064,-0.4408386136,-9.5566872856,2.8507962448,1.31604363,2.64631613,-4.08705789,,,
imu,506.292782,-0.430670016,-9.556089132800002,2.8364405776,1.22632071,2.67622377,-4.28145755,,,
imu,506.301499,-0.4169125016,-9.545322382400002,2.8448147168,1.25622835,2.64631613,-4.49828794,,,
imu,506.310216,-0.3935845424,-9.554294674400001,2.8615629952,1.20388998,2.6986545,-4.58053395,,,
imu,506.318934,-0.3929863896,-9.548313146400002,2.862161148000001,1.18893616,2.64631613,-4.430995749999999,,,
imu,506.327651,-0.3864067088000001,-9.526779645600001,2.8513943976,1.00949032,2.57154703,-4.58053395,,,
imu,506.336369,-0.4025568344,-9.540537160000001,2.8495999392,1.25622835,2.36219355,-4.48333412,,,
imu,506.345086,-0.3941826952,-9.5447242296,2.8460110224,1.21136689,2.13788625,-4.44594957,,,
imu,506.353804,-0.385808556,-9.544126076800001,2.8633574536,1.2936129,1.94348659,-4.31136519,,,
imu,506.362521,-0.400762376,-9.527377798400002,2.870535287200001,1.52539711,1.77151766,-4.10948862,,,
imu,506.371238,-0.4187069600000001,-9.526779645600001,2.8478054808,1.58521239,1.66684092,-4.0197657,,,
imu,504.985177,,,,,,,71.04589320000001,-19.15923080000002,125.654828
imu,505.086648,,,,,,,70.8749924,-19.3423388,125.1177112
imu,505.188241,,,,,,,70.5331908,-19.50103240000001,126.1309088
imu,505.289773,,,,,,,73.5727836,-19.92828440000001,124.0923064
imu,505.391518,,,,,,,70.3989116,-18.57328520000001,125.6059992
imu,505.492898,,,,,,,73.169946,-19.62310440000001,122.9448296
imu,505.594613,,,,,,,70.52098360000001,-18.86625800000001,126.1675304
imu,505.696023,,,,,,,71.1313436,-18.97612280000001,123.3232528
imu,506.379956,-0.4294737104000001,-9.551902063200002,2.847207328000001,1.64502767,1.56964109,-3.93004278,,,
imu,506.388673,-0.4258847936,-9.5877912312,2.8424221056,1.67493531,1.50982581,-3.7954584,,,
imu,506.397391,-0.4288755576000001,-9.579417092000002,2.8615629952,1.49548947,1.40514907,-3.60853565,,,
imu,506.406108,-0.4498109056,-9.565061424800001,2.864553759200001,1.49548947,1.28551851,-3.60105874,,,
imu,506.414825,-0.4581850448000001,-9.599156134400001,2.8513943976,1.42072037,1.2780416,-3.73564312,,,
imu,506.423307,-0.4593813504000001,-9.617698871200002,2.8573759256,1.4431511,1.49487199,-3.56367419,,,
imu,506.431788,-0.4432312248,-9.612315496,2.865151912,1.40576655,1.62945637,-3.51133582,,,
imu,506.440269,-0.4528016696000001,-9.583604161600002,2.8693389816,1.1440747,1.67431783,-3.43656672,,,
imu,506.448751,-0.4683536424000001,-9.591380148,2.8519925504,0.9870595899999999,1.99582496,-3.23469015,,,
imu,506.457232,-0.4617739616000001,-9.620689635200002,2.85617962,0.79265993,2.13788625,-3.39918217,,,
imu,506.465714,-0.4438293776000001,-9.6075302736,2.859170384,0.52349117,2.21265535,-3.40665908,,,
imu,506.474195,-0.4450256832000001,-9.575828175200002,2.859170384,0.40386061,2.21265535,-3.40665908,,,
imu,506.482676,-0.4510072112,-9.5429297712,2.8418239528,0.29918387,2.39210119,-3.52628964,,,
imu,506.491158,-0.4551942808000001,-9.5668558832,2.841225800000001,0.33656842,2.55659321,-3.57862801,,,
imu,506.499639,-0.4390441552000001,-9.578220786400001,2.8460110224,0.44124516,2.58650085,-3.78050458,,,
imu,506.50812,-0.4163143488000001,-9.580613397600002,2.854983314400001,0.4861066199999999,2.72856214,-3.7954584,,,
imu,506.516602,-0.4228940296000001,-9.571042952800001,2.838235036,0.28423005,2.60893158,-4.102011709999999,,,
imu,506.525083,-0.4300718632,-9.526779645600001,2.832253508,0.31413769,2.72108523,-4.08705789,,,
imu,506.533564,-0.4037531400000001,-9.475936657600002,2.845412869600001,0.40386061,2.75099287,-4.057150249999999,,,
imu,506.542046,-0.4025568344,-9.446627170400001,2.852590703200001,0.47862971,2.75846978,-4.16182699,,,
imu,506.550527,-0.3893974728000001,-9.4873015608,2.838833188800001,0.70293701,2.5491163,-4.22911918,,,
imu,506.559008,-0.3816214864,-9.581809703200001,2.8460110224,0.8674290299999999,2.30237827,-4.55810322,,,
imu,506.56749,-0.400762376,-9.6667474008,2.8633574536,0.8973366700000001,2.08554788,-4.87213344,,,
imu,506.575971,-0.3953790008,-9.6470083584,2.8603666896,0.7403215599999999,1.85376367,-4.909517989999999,,,
imu,506.584452,-0.3810233336,-9.546518688,2.8609648424,0.56835263,1.54721036,-4.7674567,,,
imu,506.592934,-0.4139217376000001,-9.477132963200003,2.868142676,0.59078336,1.37524143,-4.49081103,,,
imu,506.601415,-0.4528016696000001,-9.502255380800001,2.838833188800001,1.02444414,1.41262598,-3.81041222,,,
imu,506.609896,-0.4569887392,-9.584800467200001,2.823281216,1.20388998,1.21074941,-3.39918217,,,
imu,506.618378,-0.4462219888000001,-9.626671163200001,2.8214867576,1.36090509,1.21074941,-3.4216129,,,
imu,506.626832,-0.4318663216,-9.564463272000001,2.82627198,1.32352054,1.2032725,-3.25712088,,,
imu,506.635287,-0.4474182944000001,-9.4801237272,2.8208886048,1.24127453,1.09859576,-3.30945925,,,
imu,506.643742,-0.4623721144,-9.477731116000001,2.8167015352,1.42819728,0.9939190199999999,-3.47395127,,,
imu,506.652196,-0.4713444064,-9.495675700000001,2.8035421736,1.8169966,0.94905756,-3.47395127,,,
imu,506.660651,-0.5072335744,-9.5590798968,2.8101218544,2.13850373,1.09111885,-3.39918217,,,
imu,506.669106,-0.5287670752,-9.583006008800002,2.802345868,2.13102682,1.25561087,-3.50385891,,,
imu,506.67756,-0.5329541448,-9.552500216,2.814308924,1.97401171,1.53225654,-3.48142818,,,
imu,506.686015,-0.520392936,-9.554294674400001,2.829262744000001,1.98148862,1.77151766,-3.47395127,,,
imu,506.694469,-0.5299633808,-9.576426328,2.817897840800001,2.07121154,2.16031698,-3.54872037,,,
imu,506.702924,-0.5293652280000001,-9.630858232800001,2.814308924,1.7422275,2.40705501,-3.5711511,,,
imu,506.711379,-0.5108224912,-9.631456385600002,2.8244775216,1.51044329,2.6238854,-3.5711511,,,
imu,506.719833,-0.5042428104000001,-9.616502565600001,2.8167015352,1.37585891,2.96034635,-3.60853565,,,
imu,506.728288,-0.4857000736000001,-9.623082246400001,2.8310572024,1.12912088,3.05754618,-3.78050458,,,
imu,506.736743,-0.4719425592000001,-9.6326526912,2.8280664384,0.80013684,3.05754618,-3.77302767,,,
imu,506.745197,-0.4683536424000001,-9.606932120800002,2.823281216,0.76275229,3.38653022,-3.69825857,,,
imu,506.753652,-0.4575868920000001,-9.609324732000001,2.8280664384,0.64312173,3.52859151,-3.77302767,,,
imu,506.762107,-0.4474182944000001,-9.609324732000001,2.815505229600001,0.52349117,3.34166876,-3.81041222,,,
imu,506.770561,-0.4384460024000001,-9.6051376624,2.8280664384,0.34404533,3.39400713,-3.70573548,,,
imu,506.779016,-0.4378478496000001,-9.555490980000002,2.820290452000001,0.3216146,3.40148404,-3.58610492,,,
imu,506.787471,-0.4199032656,-9.568052188800001,2.819692299200001,0.41133752,3.37905331,-3.2720747,,,
imu,506.795925,-0.3977716120000001,-9.560874355200001,2.8298608968,0.33656842,3.19960747,-3.06272122,,,
imu,506.80438,-0.400762376,-9.5489112992,2.8424221056,0.49358353,3.05006927,-2.98047521,,,
imu,506.812834,-0.3977716120000001,-9.5698466472,2.841225800000001,0.63564482,2.90053107,-2.96552139,,,
imu,506.821289,-0.4013605288,-9.636839760800001,2.8490017864,0.59078336,2.81828506,-3.1225365,,,
imu,506.830103,-0.3864067088000001,-9.626671163200001,2.8478054808,0.41133752,2.58650085,-3.1973056,,,
imu,506.838918,-0.4049494456000001,-9.5501076048,2.8400294944,0.21693786,2.3995781,-3.25712088,,,
imu,506.847732,-0.4234921824,-9.501657228000001,2.8424221056,0.22441477,2.36219355,-3.27955161,,,
imu,506.856546,-0.4354552384000001,-9.5327611736,2.8448147168,0.3216146,2.3995781,-3.01785976,,,
imu,506.86536,-0.4318663216,-9.5638651192,2.8418239528,0.56087572,2.51920866,-2.88327538,,,
imu,506.874175,-0.4187069600000001,-9.553696521600001,2.8448147168,0.67302937,2.6238854,-2.9729983,,,
imu,506.882989,-0.4073420568000001,-9.536948243200001,2.8304590496,0.58330645,2.71360832,-2.85336774,,,
imu,506.891803,-0.3965753064,-9.5219944232,2.837636883200001,0.55339881,2.68370068,-2.78607555,,,
imu,506.900618,-0.4001642232,-9.523190728800001,2.82627198,0.65059864,2.63883922,-3.15244414,,,
imu,506.909432,-0.4043512928,-9.535153784800002,2.8268701328,0.7253677399999999,2.57902394,-3.42908981,,,
imu,506.918246,-0.3983697648000001,-9.52558334,2.8406276472,0.8749059399999999,2.55659321,-3.54124346,,,
imu,506.92706,-0.4013605288,-9.502255380800001,2.8358424248,0.8449983,2.53416248,-3.84779677,,,
imu,506.935875,-0.4013605288,-9.513620284000002,2.8466091752,0.9646288599999999,2.44443956,-3.85527368,,,
imu,506.944689,-0.3983697648000001,-9.533359326400001,2.852590703200001,1.20388998,2.48930102,-3.70573548,,,
imu,506.953503,-0.3959771536000001,-9.548313146400002,2.8519925504,1.09921324,2.35471664,-3.77302767,,,
imu,506.962317,-0.400762376,-9.536948243200001,2.838833188800001,1.45062801,2.34723973,-3.5711511,,,
imu,506.971132,-0.3953790008,-9.565061424800001,2.8490017864,1.48801256,2.38462428,-3.4216129,,,
imu,506.979946,-0.3882011672000001,-9.560874355200001,2.8902743296,1.33099745,2.34723973,-3.31693616,,,
imu,506.98876,-0.4121272792,-9.551902063200002,2.856777772800001,1.17398234,2.48182411,-3.21973633,,,
imu,506.997575,-0.4019586816,-9.541733465600002,2.8633574536,1.16650543,2.37714737,-3.21225942,,,
imu,507.006389,-0.3965753064,-9.539939007200001,2.8190941464,1.28613599,2.41453192,-3.06272122,,,
imu,507.015203,-0.4121272792,-9.606333968000001,2.8238793688,1.57025857,2.52668557,-3.00290594,,,
imu,507.024017,-0.4139217376000001,-9.6434194416,2.859768536800001,1.53287402,2.45939338,-2.89075229,,,
imu,507.032489,-0.4019586816,-9.568650341600001,2.873526051200001,1.38333582,2.54163939,-2.88327538,,,
imu,507.04096,-0.4169125016,-9.496872005600002,2.862161148000001,1.18145925,2.46687029,-2.98047521,,,
imu,507.049431,-0.415716196,-9.559678049600002,2.843020258400001,1.30856672,2.6238854,-3.01785976,,,
imu,507.057902,-0.4043512928,-9.633848996800001,2.838833188800001,1.33099745,2.74351596,-3.0477674,,,
imu,507.066266,-0.3977716120000001,-9.593772759200002,2.8466091752,1.368382,2.87810034,-3.13749032,,,
imu,507.074738,-0.415716196,-9.5237888816,2.837636883200001,1.15902852,2.90053107,-3.45152054,,,
imu,507.083209,-0.4019586816,-9.530368562400001,2.823281216,1.32352054,2.81828506,-3.60105874,,,
imu,507.09168,-0.3983697648000001,-9.582407856000001,2.820290452000001,1.46558183,2.90053107,-3.84031986,,,
imu,507.100151,-0.4031549872,-9.5812115504,2.832253508,1.30856672,3.07997691,-4.034719519999999,,,
imu,507.108622,-0.3696584304000001,-9.568650341600001,2.8394313416,1.17398234,3.05754618,-4.18425772,,,
imu,507.117093,-0.3666676664,-9.5459205352,2.838235036,1.09173633,3.07997691,-4.17678081,,,
imu,507.125565,-0.3696584304000001,-9.557883591200001,2.8304590496,1.13659779,2.91548489,-4.25154991,,,
imu,507.134036,-0.3445360128,-9.5740337168,2.838833188800001,1.03192105,2.61640849,-4.26650373,,,
imu,507.142507,-0.3415452488,-9.5842023144,2.8226830632,0.9347212199999999,2.5491163,-4.21416536,,,
imu,507.150978,-0.34393786,-9.596165370400001,2.8328516608,0.80761375,2.44443956,-4.13939626,,,
imu,507.159449,-0.3379563320000001,-9.588987536800001,2.844216564,0.7702292,2.324809,-3.99733497,,,
imu,507.16792,-0.3325729568,-9.541733465600002,2.8304590496,0.7702292,1.97339423,-3.75059694,,,
imu,507.176392,-0.3463304712,-9.541733465600002,2.837636883200001,0.80761375,1.74908693,-3.58610492,,,
imu,507.184863,-0.3570972216000001,-9.571042952800001,2.8298608968,0.83004448,1.39019525,-3.65339711,,,
imu,507.193334,-0.3702565832000001,-9.5704448,2.8226830632,0.9048135799999999,1.24065705,-3.59358183,,,
imu,505.797585,,,,,,,71.3632804,-18.70756440000001,126.021044
imu,505.899178,,,,,,,71.37548760000001,-18.30472680000002,125.7891072
imu,506.000741,,,,,,,71.3876948,-18.60990680000001,125.7524856
imu,506.102425,,,,,,,71.88819,-18.43900600000001,125.5205488
imu,506.205971,,,,,,,71.9370188,-18.45121320000001,125.1543328
imu,506.305398,,,,,,,71.66846039999999,-18.24369080000001,125.8257288
imu,506.406991,,,,,,,73.9267924,-19.25688840000002,124.4585224
imu,506.508492,,,,,,,71.57080280000001,-18.74418600000001,126.2285664
imu,507.201805,-0.3882011672000001,-9.5656595776,2.82627198,0.76275229,0.9640113799999996,-3.75059694,,,
imu,507.210276,-0.3947808480000001,-9.5800152448,2.825075674400001,0.71789083,0.9714882899999999,-3.80293531,,,
imu,507.218747,-0.4240903352000001,-9.593174606400002,2.8298608968,0.88985976,1.0537343,-3.69825857,,,
imu,507.227219,-0.4432312248,-9.590183842400002,2.8370387304,0.94967504,1.11354958,-3.6459202,,,
imu,507.23569,-0.4462219888000001,-9.608128426400002,2.8394313416,0.94219813,1.27056469,-3.71321239,,,
imu,507.244161,-0.4444275304,-9.575828175200002,2.841225800000001,0.80013684,1.41262598,-3.7954584,,,
imu,507.252632,-0.4438293776000001,-9.555490980000002,2.8244775216,0.67302937,1.6518871,-3.83284295,,,
imu,507.261103,-0.4432312248,-9.561472508000001,2.82627198,0.64312173,1.82385603,-3.89265823,,,
imu,507.269574,-0.4390441552000001,-9.5698466472,2.829262744000001,0.7253677399999999,2.13040934,-3.90761205,,,
imu,507.278046,-0.439642308,-9.555490980000002,2.8226830632,0.82256757,2.35471664,-3.93004278,,,
imu,507.286517,-0.4372496968000001,-9.550705757600001,2.8256738272,0.6954601,2.54163939,-3.88518132,,,
imu,507.294988,-0.4193051128000001,-9.544126076800001,2.8340479664,0.67302937,2.67622377,-3.89265823,,,
imu,507.303459,-0.3971734592000001,-9.5184055064,2.8268701328,0.65807555,2.85566961,-3.90761205,,,
imu,507.31193,-0.4049494456000001,-9.524387034400002,2.835244272,0.7253677399999999,2.87062343,-3.98238115,,,
imu,507.320401,-0.3947808480000001,-9.567454036,2.838833188800001,0.88985976,2.74351596,-4.146873169999999,,,
imu,507.328873,-0.3720510416,-9.593174606400002,2.825075674400001,1.06182869,2.60145467,-4.35622665,,,
imu,507.337344,-0.370854736,-9.556089132800002,2.838235036,0.83004448,2.51920866,-4.408565019999999,,,
imu,507.345815,-0.3840140976,-9.5393408544,2.8161033824,0.78518302,2.42200883,-4.363703559999999,,,
imu,507.354286,-0.3935845424,-9.537546396000002,2.8161033824,0.91229049,2.4743472,-4.19921154,,,
imu,507.362757,-0.4001642232,-9.5393408544,2.8364405776,0.8973366700000001,2.33976282,-4.44594957,,,
imu,507.371229,-0.4109309736,-9.584800467200001,2.819692299200001,1.12164397,2.35471664,-4.64034923,,,
imu,507.3797,-0.4216977240000001,-9.6535880392,2.8226830632,1.18145925,2.15284007,-4.82727198,,,
imu,507.388171,-0.4210995712,-9.636839760800001,2.814308924,1.01696723,1.95844041,-5.044102369999999,,,
imu,507.396642,-0.4360533912000001,-9.5602762024,2.8304590496,0.63564482,1.94348659,-5.17868675,,,
imu,507.405113,-0.4623721144,-9.544126076800001,2.8418239528,0.6954601,2.05564024,-5.01419473,,,
imu,507.413584,-0.4797185456,-9.602146898400001,2.832253508,1.00201341,2.22760917,-4.33379592,,,
imu,507.422056,-0.4599795032,-9.647606511200001,2.8268701328,1.04687487,2.5491163,-3.61601256,,,
imu,507.430527,-0.4557924336,-9.641026830400001,2.8131126184,0.9272443100000001,2.65379304,-3.33188998,,,
imu,507.438968,-0.4234921824,-9.5800152448,2.8167015352,0.6281679099999999,2.56407012,-3.39918217,,,
imu,506.610095,,,,,,,74.23197239999999,-19.0127444,123.457532
imu,506.713305,,,,,,,71.2290012,-18.57328520000001,126.570368
imu,506.813311,,,,,,,71.460938,-18.76860040000001,125.898972
imu,506.914782,,,,,,,71.72949639999999,-18.04837560000001,126.0332512
imu,507.016528,,,,,,,71.4487308,-18.67094280000001,126.0454584
imu,507.117907,,,,,,,71.1313436,-18.1582404,125.7524856
imu,507.21947,,,,,,,71.4853524,-18.50004200000001,125.8745576
imu,507.321032,,,,,,,71.1679652,-18.54887080000001,126.2896024
imu,507.422717,,,,,,,73.71927000000001,-19.12260920000002,124.9712248
