Type,Timestamp,Data Accelerometer X,Data Accelerometer Y,Data Accelerometer Z,Data Gyroscope X,Data Gyroscope Y,Data Gyroscope Z,Data Magnetometer X,Data Magnetometer Y,Data Magnetometer Z
imu,428.722687,-0.1698753952,-9.702636568800001,2.5008768568,0.23936859,0.8967191899999998,-3.30198234,,,
imu,428.731122,-0.1890162848,-9.672130776000001,2.4925027176,0.0001074699999999984,0.9415806499999997,-3.05524431,,,
imu,428.739558,-0.2027737992,-9.6326526912,2.503269468,-0.08961545,0.8219500899999996,-2.96552139,,,
imu,428.747993,-0.2027737992,-9.6248767048,2.5140362184,0.04496892999999999,0.9041961000000001,-2.79355246,,,
imu,428.756429,-0.2117460912,-9.678710456800001,2.494297176,0.05992275,0.8817653699999997,-2.93561375,,,
imu,428.764864,-0.2284943696,-9.709814402400001,2.4984842456,0.02253820000000001,0.98644211,-3.16739796,,,
imu,428.7733,-0.2470371064,-9.671532623200001,2.5146343712,-0.09709236,0.98644211,-3.44404363,,,
imu,428.781736,-0.2374666616,-9.595567217600001,2.5170269824,-0.22419983,1.04625739,-3.65339711,,,
imu,428.790199,-0.2488315648,-9.584800467200001,2.5164288296,-0.11952309,1.32290306,-3.78050458,,,
imu,428.798663,-0.2763465936,-9.631456385600002,2.5176251352,-0.10456927,1.45748744,-3.80293531,,,
imu,428.807126,-0.2691687600000001,-9.639232372,2.5080546904,0.03001510999999998,1.8014253,-3.78050458,,,
imu,428.81559,-0.2458408008,-9.597959828800002,2.4936990232,0.03749201999999999,1.98834805,-3.8702275,,,
imu,428.824053,-0.2356722032,-9.5740337168,2.499082398400001,0.14216876,2.12293243,-4.07210407,,,
imu,428.832517,-0.2165313136,-9.582407856000001,2.488315648,0.29918387,2.30237827,-4.22911918,,,
imu,428.84098,-0.2105497856,-9.597959828800002,2.4978860928,0.52349117,2.31733209,-4.43847266,,,
imu,428.849444,-0.221316536,-9.596763523200002,2.509250996,0.6132140899999999,2.20517844,-4.67773378,,,
imu,428.857907,-0.221316536,-9.589585689600002,2.4978860928,0.8674290299999999,2.26499372,-4.66277996,,,
imu,428.866371,-0.2255036056,-9.604539509600002,2.512839912800001,0.9646288599999999,2.16779389,-4.670256869999999,,,
imu,428.874834,-0.2219146888,-9.6224840936,2.5116436072,0.9870595899999999,2.10797861,-4.57305704,,,
imu,428.883298,-0.2243073,-9.6087265792,2.5170269824,1.19641307,1.98834805,-4.408565019999999,,,
imu,428.891762,-0.227298064,-9.6039413568,2.5170269824,1.16650543,1.83133294,-4.169303899999999,,,
imu,428.900225,-0.2249054528,-9.6260730104,2.5110454544,1.27865908,1.71170238,-3.93751969,,,
imu,428.908689,-0.2296906752000001,-9.663158484000002,2.503269468,1.47305874,1.62197946,-3.68330475,,,
imu,428.917152,-0.2398592728,-9.683495679200002,2.512839912800001,1.39081273,1.53973345,-3.55619728,,,
imu,428.925616,-0.2440463424,-9.664952942400001,2.520615899200001,1.09921324,1.63693328,-3.22721324,,,
imu,428.934079,-0.2470371064,-9.6709344704,2.518223288000001,1.20388998,1.62197946,-2.92813684,,,
imu,428.942543,-0.245242648,-9.6918698184,2.5170269824,1.13659779,1.62197946,-2.86832156,,,
imu,428.951006,-0.2554112456,-9.6876827488,2.5110454544,0.9870595899999999,1.62197946,-2.83841392,,,
imu,428.95947,-0.2613927736,-9.667943706400001,2.5008768568,0.8449983,1.75656384,-2.73373718,,,
imu,428.967933,-0.2637853848,-9.642223136000002,2.4919045648,0.6954601,1.89114822,-2.74121409,,,
imu,428.976397,-0.2691687600000001,-9.642223136000002,2.4931008704,0.7552753799999999,2.12293243,-2.66644499,,,
imu,428.98486,-0.2542149400000001,-9.641624983200002,2.481137814400001,0.59078336,2.44443956,-2.73373718,,,
imu,428.993725,-0.236270356,-9.635643455200002,2.4895119536,0.64312173,2.76594669,-2.71130645,,,
imu,429.00259,-0.2177276192,-9.61530626,2.4805396616,0.55339881,2.90800798,-3.07019813,,,
imu,429.011455,-0.2057645632,-9.612913648800001,2.488315648,0.78518302,3.02763854,-3.22721324,,,
imu,429.020319,-0.1872218264,-9.624278552000002,2.4871193424,0.80761375,3.20708438,-3.38422835,,,
imu,429.029184,-0.1686790896,-9.636839760800001,2.481137814400001,0.79265993,3.10240764,-3.57862801,,,
imu,429.038049,-0.1387714496,-9.644017594400001,2.494297176,0.94967504,3.15474601,-3.48142818,,,
imu,429.046913,-0.1268083936,-9.638036066400002,2.4871193424,0.97210577,2.9977309,-3.52628964,,,
imu,429.055778,-0.1238176296,-9.6505972752,2.491306412,0.78518302,2.95286944,-3.48142818,,,
imu,429.064643,-0.1064711984,-9.6499991224,2.4966897872,0.77770611,2.75099287,-3.42908981,,,
imu,429.073507,-0.09211553120000002,-9.648204664000001,2.4925027176,0.74779847,2.58650085,-3.36179762,,,
imu,429.082372,-0.0903210728,-9.634447149600001,2.4907082592,0.60573718,2.42200883,-3.30198234,,,
imu,429.091237,-0.1004896704,-9.618895176800002,2.4919045648,0.7702292,2.05564024,-3.05524431,,,
imu,429.100102,-0.1070693512,-9.6458120528,2.4936990232,0.80761375,1.81637912,-3.15992105,,,
imu,429.108966,-0.1070693512,-9.673925234400002,2.4919045648,0.74779847,1.66684092,-3.22721324,,,
imu,429.117831,-0.11963056,-9.6846919848,2.4817359672,0.6954601,1.51730272,-3.30945925,,,
imu,429.126696,-0.122621324,-9.669140012000002,2.4954934816,0.6132140899999999,1.37524143,-3.33188998,,,
imu,429.13556,-0.1333880744,-9.6428212888,2.488315648,0.6132140899999999,1.24813396,-3.4216129,,,
imu,429.144425,-0.1471455888,-9.641026830400001,2.4919045648,0.59078336,1.23318014,-3.48142818,,,
imu,429.15329,-0.1597067976,-9.672130776000001,2.48233412,0.5459219,1.2032725,-3.60853565,,,
imu,429.162154,-0.1603049504,-9.667943706400001,2.4996805512,0.56835263,1.33037997,-3.63844329,,,
imu,429.171019,-0.1710717008,-9.648802816800002,2.483530425600001,0.56087572,1.50982581,-3.5711511,,,
imu,429.179884,-0.170473548,-9.636839760800001,2.4805396616,0.41881443,1.49487199,-3.72816621,,,
imu,429.188748,-0.1680809368,-9.642223136000002,2.4829322728,0.20946095,1.49487199,-3.85527368,,,
imu,429.197213,-0.170473548,-9.641026830400001,2.494895328800001,0.05244583999999999,1.62197946,-3.89265823,,,
imu,429.205678,-0.1543234224,-9.636241608,2.500278704,0.10478421,1.78647148,-3.85527368,,,
imu,429.214143,-0.1567160336,-9.627269316000001,2.5014750096,-0.007369440000000005,1.86124058,-3.73564312,,,
imu,429.222608,-0.1513326584,-9.6428212888,2.504465773600001,0.10478421,1.85376367,-3.86275059,,,
imu,429.231073,-0.140565908,-9.658373261600001,2.508652843200001,0.05244583999999999,1.80890221,-4.18425772,,,
imu,429.239537,-0.1411640608,-9.6637566368,2.5170269824,0.07487657,1.88367131,-4.27398064,,,
imu,429.248002,-0.1363788384,-9.688280901600002,2.5146343712,-0.05970781,1.75656384,-4.49081103,,,
imu,429.256467,-0.1220231712,-9.6876827488,2.5056620792,-0.10456927,1.66684092,-4.63287232,,,
imu,429.264932,-0.1232194768,-9.638036066400002,2.5325789552,-0.29149202,1.44253362,-4.6179185,,,
imu,429.273397,-0.1381732968,-9.603343204000002,2.5236066632,-0.31392275,1.41262598,-4.61044159,,,
imu,429.281861,-0.1507345056,-9.600352440000002,2.5421494,-0.3513073,1.15093413,-4.70016451,,,
imu,429.290326,-0.1543234224,-9.633250844,2.552916150400001,-0.46346095,0.8817653699999997,-4.79736434,,,
imu,429.298791,-0.1573141864,-9.708019944000002,2.5588976784,-0.44850713,0.56025824,-5.021671639999999,,,
imu,429.307256,-0.1800439928,-9.7337405144,2.5756459568,-0.47093786,0.1714589200000001,-5.350655679999999,,,
imu,429.315721,-0.1878199792,-9.690075360000002,2.5732533456,-0.78496808,-0.1350943900000003,-5.49271697,,,
imu,429.324185,-0.20935348,-9.599754287200001,2.5523179976,-1.00927538,-0.35192478,-5.35813259,,,
imu,429.33265,-0.2578038568000001,-9.575230022400001,2.5756459568,-0.8821679099999999,-0.39678624,-4.92447181,,,
imu,429.341115,-0.2984782472,-9.618895176800002,2.5588976784,-0.54570696,-0.3668786000000002,-3.97490424,,,
imu,429.34958,-0.3038616224,-9.623680399200001,2.5379623304,-0.26158438,-0.09770984000000027,-3.36179762,,,
imu,429.358045,-0.275150288,-9.562668813600002,2.5355697192,0.05244583999999999,0.02192071999999978,-3.13001341,,,
imu,429.36651,-0.2637853848,-9.519003659200001,2.530186344,0.3739529699999999,0.02192071999999978,-3.18982869,,,
imu,429.374974,-0.2799355104,-9.516611048000001,2.5373641776,0.59078336,-0.04537147000000008,-3.23469015,,,
imu,429.383439,-0.296085636,-9.526181492800001,2.5337752608,0.81509066,-0.0603252900000002,-3.60853565,,,
imu,429.391904,-0.3170209840000001,-9.5489112992,2.5385604832,1.27118217,0.1714589200000001,-3.75807385,,,
imu,429.400368,-0.3463304712,-9.5632669664,2.5409530944,1.45810492,0.3509047599999997,-3.78050458,,,
imu,429.408831,-0.3535083048,-9.571641105600001,2.5505235392,1.64502767,0.6275504299999999,-4.00481188,,,
imu,429.417295,-0.3433397072,-9.591978300800001,2.5588976784,1.64502767,0.8593346399999997,-4.10948862,,,
imu,429.425758,-0.3295821928000001,-9.612315496,2.5588976784,1.47305874,1.1285034,-4.16182699,,,
imu,429.434222,-0.3289840400000001,-9.630858232800001,2.5672718176,1.43567419,1.56216418,-4.0197657,,,
imu,429.442685,-0.3241988176,-9.635643455200002,2.5684681232,1.37585891,1.89862513,-3.7954584,,,
imu,429.451149,-0.3032634696000001,-9.654186192000001,2.578038568,1.12164397,2.14536316,-3.89265823,,,
imu,429.459612,-0.2787392048,-9.665551095200001,2.581029332,1.00949032,2.29490136,-4.10948862,,,
imu,429.468076,-0.2643835376,-9.675719692800001,2.5852164016,0.7403215599999999,2.42948574,-4.19921154,,,
imu,429.476539,-0.2488315648,-9.701440263200002,2.592992388,0.6132140899999999,2.42200883,-4.13939626,,,
imu,429.484908,-0.236270356,-9.7008421104,2.60196468,0.32909151,2.29490136,-4.10948862,,,
imu,429.493371,-0.2278962168,-9.7056273328,2.5923942352,0.27675314,2.27247063,-3.98238115,,,
imu,429.501835,-0.2266999112,-9.7086180968,2.587609012800001,0.12721494,2.2500399,-3.67582784,,,
imu,429.510298,-0.236270356,-9.687084596000002,2.5905997768,-0.07466163,2.2500399,-3.37675144,,,
imu,429.518762,-0.2261017584,-9.6499991224,2.587609012800001,-0.10456927,2.08554788,-3.10010577,,,
imu,429.527225,-0.2201202304,-9.597361676,2.566075512,-0.02232326000000001,2.09302479,-2.83093701,,,
imu,429.535689,-0.2189239248,-9.568650341600001,2.5965813048,0.09730729999999999,2.00330187,-2.71130645,,,
imu,429.544152,-0.2117460912,-9.5907819952,2.5846182488,0.40386061,1.95844041,-2.54681443,,,
imu,429.552616,-0.218325772,-9.644615747200001,2.5702625816,0.44872207,1.90610204,-2.8234601,,,
imu,429.56108,-0.2278962168,-9.6523917336,2.5822256376,0.43376825,1.88367131,-3.00290594,,,
imu,429.569543,-0.212344244,-9.575230022400001,2.5852164016,0.36647606,1.86124058,-3.1973056,,,
imu,429.578007,-0.2344758976,-9.5172092008,2.595983152,0.32909151,1.86871749,-3.40665908,,,
imu,429.58647,-0.2613927736,-9.5459205352,2.585814554400001,0.52349117,2.01077878,-3.22721324,,,
imu,429.594934,-0.257205704,-9.596763523200002,2.578038568,0.78518302,2.19770153,-2.96552139,,,
imu,429.603365,-0.2177276192,-9.593772759200002,2.5702625816,1.00201341,2.42200883,-2.89075229,,,
imu,429.611797,-0.2111479384,-9.551902063200002,2.5702625816,1.00201341,2.42948574,-3.13749032,,,
imu,429.620229,-0.200381188,-9.5459205352,2.566075512,1.27118217,2.46687029,-3.18235178,,,
imu,429.628661,-0.19439966,-9.553098368800002,2.5535143032,1.45062801,2.52668557,-3.31693616,,,
imu,429.637092,-0.1949978128,-9.576426328,2.548130928,1.86933497,2.42200883,-3.47395127,,,
imu,429.645524,-0.1938015072,-9.5776226336,2.548729080800001,1.86933497,2.33228591,-3.66087402,,,
imu,429.653956,-0.1920070488,-9.599156134400001,2.5505235392,2.04878081,2.42200883,-3.5711511,,,
imu,429.662388,-0.188418132,-9.614109954400002,2.554112456,2.22822665,2.45191647,-3.60105874,,,
imu,429.670819,-0.1782495344,-9.6326526912,2.5642810536,2.18336519,2.37714737,-3.55619728,,,
imu,429.679251,-0.1692772424,-9.6643547896,2.5594958312,2.17588828,2.43696265,-3.5711511,,,
imu,429.687683,-0.1668846312,-9.6846919848,2.5816274848,1.97401171,2.41453192,-3.45152054,,,
imu,429.696115,-0.1519308112,-9.7086180968,2.5846182488,1.86185806,2.23508608,-3.44404363,,,
imu,429.704546,-0.1519308112,-9.725964528,2.5744496512,1.61512003,2.15284007,-3.43656672,,,
imu,429.712978,-0.1471455888,-9.734936820000001,2.580431179200001,1.12912088,2.04816333,-3.44404363,,,
imu,429.72141,-0.140565908,-9.727160833600001,2.5816274848,0.91229049,1.9509635,-3.42908981,,,
imu,429.729842,-0.1543234224,-9.7086180968,2.5864127072,0.5982602699999999,1.83880985,-3.47395127,,,
imu,429.738273,-0.1597067976,-9.690075360000002,2.5696644288,0.20198404,1.52477963,-3.63844329,,,
imu,429.746705,-0.1626975616,-9.6703363176,2.5612902896,-0.007369440000000005,1.46496435,-3.67582784,,,
imu,429.755137,-0.1656883256,-9.636241608,2.5588976784,-0.14195382,1.45748744,-3.84031986,,,
imu,429.763569,-0.17944584,-9.608128426400002,2.5559069144,-0.05970781,1.47991817,-3.88518132,,,
imu,429.772001,-0.1848292152,-9.6087265792,2.5463364696,0.16459949,1.34533379,-4.06462716,,,
imu,429.780432,-0.1902125904,-9.612315496,2.5445420112,0.19450713,1.2032725,-4.146873169999999,,,
imu,429.788864,-0.197390424,-9.610521037600002,2.5606921368,0.45619898,1.21822632,-4.27398064,,,
imu,429.797296,-0.206362716,-9.5877912312,2.541551247200001,0.60573718,1.18084177,-4.37865738,,,
imu,429.805761,-0.200381188,-9.560874355200001,2.5535143032,0.64312173,1.17336486,-4.49081103,,,
imu,429.814225,-0.2057645632,-9.574631869600001,2.5696644288,0.8973366700000001,1.10607267,-4.41604193,,,
imu,429.82269,-0.2099516328,-9.585398620000001,2.554112456,1.06182869,1.07616503,-4.37865738,,,
imu,429.831155,-0.2087553272,-9.594370912,2.5588976784,1.19641307,0.94905756,-4.55810322,,,
imu,429.83962,-0.2171294664,-9.593174606400002,2.5535143032,1.03192105,0.84438082,-4.625395409999999,,,
imu,429.848085,-0.2117460912,-9.574631869600001,2.543345705600001,1.17398234,0.8219500899999996,-4.49828794,,,
imu,429.856549,-0.23926112,-9.585996772800002,2.554112456,1.11416706,0.76213481,-4.28145755,,,
imu,429.865014,-0.2524204816,-9.585996772800002,2.545140164,1.2936129,0.72475026,-4.079580979999999,,,
imu,429.873479,-0.2530186344000001,-9.613511801600001,2.548729080800001,1.39828964,0.7471809899999999,-3.97490424,,,
imu,429.881944,-0.2470371064,-9.617100718400001,2.5439438584,1.43567419,0.8742884599999998,-3.97490424,,,
imu,428.773763,,,,,,,72.55958600000001,-20.14801400000001,125.5571704
imu,428.875326,,,,,,,75.34282759999999,-21.12459000000002,123.2500096
imu,428.976858,,,,,,,74.6103956,-20.47760840000002,123.1035232
imu,429.078451,,,,,,,73.169946,-20.47760840000002,125.898972
imu,429.180013,,,,,,,73.27981079999999,-20.17242840000002,125.3740624
imu,429.281576,,,,,,,72.9135948,-19.98932040000001,125.2519904
imu,429.890409,-0.2679724544000001,-9.614708107200002,2.530186344,1.58521239,0.92662683,-3.9449966,,,
imu,429.898874,-0.2739539824000001,-9.6326526912,2.5535143032,1.78708896,0.9191499199999997,-4.04219643,,,
imu,429.907338,-0.272159524,-9.668541859200001,2.545738316800001,1.8917657,0.9415806499999997,-4.19173463,,,
imu,429.915803,-0.2847207328,-9.6703363176,2.551121692,1.8917657,1.07616503,-4.16182699,,,
imu,429.924268,-0.2853188856,-9.667345553600002,2.5535143032,1.77961205,1.17336486,-4.146873169999999,,,
imu,429.932733,-0.3002727056,-9.6846919848,2.560093984,1.63755076,1.26308778,-4.19921154,,,
imu,429.941198,-0.2936930248,-9.706823638400001,2.5577013728,1.38333582,1.36776452,-4.012288789999999,,,
imu,429.949662,-0.2883096496000001,-9.6637566368,2.5535143032,1.24127453,1.49487199,-3.84031986,,,
imu,429.958127,-0.3062542336,-9.640428677600001,2.5427475528,1.03192105,1.71170238,-3.65339711,,,
imu,429.966592,-0.2978800944000001,-9.647606511200001,2.5379623304,0.9272443100000001,1.86871749,-3.43656672,,,
imu,429.975057,-0.3014690112,-9.633250844,2.5259992744,0.9870595899999999,1.9509635,-3.37675144,,,
imu,429.983522,-0.3032634696000001,-9.6296619272,2.5307844968,0.8749059399999999,2.06311715,-3.36927453,,,
imu,429.991986,-0.3086468448,-9.631456385600002,2.5200177464,1.00201341,2.16031698,-3.23469015,,,
imu,430.000451,-0.3032634696000001,-9.630260080000001,2.5349715664,0.81509066,2.31733209,-3.20478251,,,
imu,430.009313,-0.2889078024000001,-9.606333968000001,2.5236066632,1.00949032,2.46687029,-3.25712088,,,
imu,430.018174,-0.28412258,-9.6499991224,2.524204816,1.09173633,2.59397776,-3.35432071,,,
imu,430.027036,-0.275150288,-9.633250844,2.5259992744,1.12912088,2.82576197,-3.30945925,,,
imu,430.035897,-0.2703650656,-9.583006008800002,2.531980802400001,1.0693056,2.99025399,-3.14496723,,,
imu,430.044759,-0.2715613712,-9.546518688,2.5307844968,1.11416706,3.04259236,-3.10758268,,,
imu,430.053621,-0.2619909264,-9.592576453600001,2.543345705600001,1.25622835,3.10240764,-3.16739796,,,
imu,430.062482,-0.2404574256,-9.706225485600001,2.548729080800001,1.43567419,3.0725,-3.39170526,,,
imu,430.071344,-0.2410555784,-9.746301723200002,2.5535143032,1.24875144,3.05006927,-3.7206893,,,
imu,430.080205,-0.2374666616,-9.686486443200002,2.5355697192,0.9571519499999999,2.8481927,-3.81788913,,,
imu,430.089067,-0.2326814392,-9.599754287200001,2.5373641776,0.68798319,2.80333124,-4.012288789999999,,,
imu,430.097928,-0.2338777448,-9.5638651192,2.522410357600001,0.77770611,2.91548489,-3.85527368,,,
imu,430.10679,-0.2518223288000001,-9.594370912,2.520615899200001,1.00201341,2.9229618,-3.29450543,,,
imu,430.115651,-0.2446444952,-9.654784344800001,2.509250996,1.26370526,2.93791562,-2.73373718,,,
imu,430.124513,-0.212344244,-9.658373261600001,2.509250996,1.30108981,2.97530017,-2.55429134,,,
imu,430.133374,-0.1932033544,-9.592576453600001,2.4960916344,1.31604363,2.87062343,-2.62158353,,,
imu,430.142236,-0.1878199792,-9.5656595776,2.4996805512,1.45810492,2.74351596,-2.55429134,,,
imu,430.151097,-0.188418132,-9.596165370400001,2.494895328800001,1.54782784,2.60893158,-2.60662971,,,
imu,430.159959,-0.2021756464,-9.621287788000002,2.500278704,1.62259694,2.48182411,-2.86084465,,,
imu,430.168821,-0.2129423968,-9.638036066400002,2.4960916344,1.7422275,2.5491163,-2.83841392,,,
imu,430.177682,-0.2147368552,-9.635643455200002,2.4907082592,1.72727368,2.57902394,-2.84589083,,,
imu,430.186544,-0.2243073,-9.636839760800001,2.4889138008,1.74970441,2.72108523,-3.07767504,,,
imu,430.195405,-0.2255036056,-9.652989886400002,2.497287940000001,1.68988913,2.60145467,-3.14496723,,,
imu,430.204267,-0.2081571744,-9.657775108800001,2.504465773600001,1.6674584,2.64631613,-3.15244414,,,
imu,430.213128,-0.2117460912,-9.669140012000002,2.5218122048,1.48053565,2.81080815,-3.23469015,,,
imu,430.221578,-0.203371952,-9.662560331200002,2.5104473016,1.40576655,2.96034635,-3.37675144,,,
imu,430.230027,-0.182436604,-9.661364025600001,2.5158306768,1.00201341,3.02016163,-3.5711511,,,
imu,430.238476,-0.1752587704,-9.6799067624,2.5230085104,1.02444414,3.08745382,-3.55619728,,,
imu,430.246926,-0.1782495344,-9.706823638400001,2.530186344,0.8749059399999999,2.96782326,-3.65339711,,,
imu,430.255375,-0.1561178808,-9.682299373600001,2.5230085104,0.56835263,2.91548489,-3.74312003,,,
imu,430.263825,-0.1597067976,-9.6535880392,2.5283918856,0.29918387,2.88557725,-3.69825857,,,
imu,430.272274,-0.1513326584,-9.661962178400001,2.5289900384,0.41133752,2.72856214,-3.5711511,,,
imu,430.280723,-0.1519308112,-9.675121540000001,2.536167872,0.44872207,2.60893158,-3.54124346,,,
imu,430.289173,-0.1489400472,-9.6535880392,2.5265974272,0.26179932,2.60893158,-3.50385891,,,
imu,430.297622,-0.1513326584,-9.614708107200002,2.5176251352,0.01506129,2.41453192,-3.36179762,,,
imu,430.306072,-0.1507345056,-9.582407856000001,2.536167872,0.26927623,2.25751681,-3.24964397,,,
imu,430.314521,-0.1531271168,-9.610521037600002,2.5367660248,0.38142988,2.19022462,-3.18982869,,,
imu,430.32297,-0.1441548248,-9.672130776000001,2.5379623304,0.67302937,2.00330187,-3.28702852,,,
imu,430.33142,-0.1579123392,-9.692467971200001,2.536167872,0.58330645,1.99582496,-3.37675144,,,
imu,430.339869,-0.1591086448,-9.630260080000001,2.5547106088,0.44872207,1.77899457,-3.56367419,,,
imu,430.348319,-0.167482784,-9.568052188800001,2.5313826496,0.5459219,1.69674856,-3.59358183,,,
imu,430.356768,-0.2009793408,-9.576426328,2.5475327752,0.51601426,1.77151766,-3.71321239,,,
imu,430.365217,-0.2141387024,-9.6326526912,2.543345705600001,0.5982602699999999,1.84628676,-3.52628964,,,
imu,430.373667,-0.2135405496,-9.6535880392,2.539158636000001,0.65807555,2.03320951,-3.51881273,,,
imu,430.382116,-0.200381188,-9.630260080000001,2.5445420112,0.68798319,2.11545552,-3.54872037,,,
imu,430.390565,-0.1932033544,-9.593772759200002,2.5397567888,0.68798319,2.30237827,-3.48890509,,,
imu,430.399015,-0.1920070488,-9.5985579816,2.524204816,0.63564482,2.20517844,-3.55619728,,,
imu,430.407464,-0.1920070488,-9.596165370400001,2.520615899200001,0.63564482,2.27247063,-3.86275059,,,
imu,430.415896,-0.1890162848,-9.581809703200001,2.5325789552,0.83004448,2.19770153,-4.13939626,,,
imu,430.424328,-0.1949978128,-9.589585689600002,2.5248029688,1.03939796,2.14536316,-4.35622665,,,
imu,430.432759,-0.188418132,-9.5985579816,2.5265974272,1.15902852,1.91357895,-4.51324176,,,
imu,430.441191,-0.1800439928,-9.599156134400001,2.536167872,1.27865908,2.11545552,-4.4683803,,,
imu,430.449623,-0.1872218264,-9.613511801600001,2.5259992744,1.45062801,2.1005017,-4.29641137,,,
imu,430.458055,-0.1890162848,-9.6470083584,2.530186344,1.57025857,2.05564024,-4.13191935,,,
imu,430.466486,-0.1848292152,-9.6499991224,2.52719558,1.42072037,2.1005017,-4.102011709999999,,,
imu,430.474918,-0.1878199792,-9.639830524800002,2.5409530944,1.39828964,2.05564024,-3.83284295,,,
imu,430.48335,-0.1860255208,-9.6470083584,2.5307844968,1.368382,1.95844041,-3.74312003,,,
imu,430.491782,-0.1818384512,-9.654186192000001,2.536167872,1.30108981,1.86871749,-3.75807385,,,
imu,430.500214,-0.1920070488,-9.639830524800002,2.531980802400001,1.09921324,1.70422547,-3.68330475,,,
imu,430.508645,-0.1967922712,-9.641026830400001,2.520615899200001,1.04687487,1.6518871,-3.68330475,,,
imu,430.517077,-0.2069608688,-9.652989886400002,2.5355697192,1.18145925,1.71170238,-3.63844329,,,
imu,430.525509,-0.2105497856,-9.661364025600001,2.5283918856,1.17398234,1.54721036,-3.58610492,,,
imu,430.533941,-0.2141387024,-9.6470083584,2.521214052,1.08425942,1.50982581,-3.5711511,,,
imu,430.542372,-0.2255036056,-9.636839760800001,2.5355697192,1.05435178,1.66684092,-3.496382,,,
imu,430.550804,-0.2326814392,-9.6458120528,2.5146343712,1.18145925,1.88367131,-3.45152054,,,
imu,430.559236,-0.2326814392,-9.651793580800001,2.518223288000001,1.23379762,1.90610204,-3.53376655,,,
imu,430.567668,-0.230288828,-9.6643547896,2.5230085104,1.19641307,2.04816333,-3.6459202,,,
imu,430.57603,-0.2326814392,-9.654186192000001,2.521214052,1.11416706,2.21265535,-3.75059694,,,
imu,430.584461,-0.2177276192,-9.636241608,2.5110454544,1.07678251,2.2500399,-4.04967334,,,
imu,430.592893,-0.2099516328,-9.646410205600002,2.5236066632,0.94219813,2.15284007,-4.13191935,,,
imu,430.601325,-0.206362716,-9.6470083584,2.5230085104,0.8749059399999999,2.19022462,-4.146873169999999,,,
imu,430.609757,-0.1926052016,-9.644017594400001,2.5265974272,0.83004448,2.10797861,-4.25154991,,,
imu,430.618224,-0.1985867296,-9.646410205600002,2.520615899200001,0.85995212,2.12293243,-4.25154991,,,
imu,430.626691,-0.1938015072,-9.6499991224,2.5188214408,0.79265993,1.99582496,-4.19921154,,,
imu,430.635159,-0.1902125904,-9.630260080000001,2.518223288000001,0.7253677399999999,1.91357895,-4.13939626,,,
imu,430.643626,-0.1902125904,-9.605735815200001,2.5170269824,0.73284465,1.74161002,-4.0197657,,,
imu,430.652093,-0.1908107432,-9.614708107200002,2.5164288296,0.8524752099999999,1.71917929,-3.93004278,,,
imu,430.660561,-0.1985867296,-9.616502565600001,2.5259992744,0.8674290299999999,1.56964109,-3.90013514,,,
imu,430.669028,-0.2057645632,-9.632054538400002,2.5176251352,1.03939796,1.56964109,-3.63844329,,,
imu,430.677495,-0.2081571744,-9.635045302400002,2.5116436072,1.01696723,1.4275798,-3.55619728,,,
imu,430.685963,-0.227298064,-9.6290637744,2.5176251352,1.09173633,1.2780416,-3.60853565,,,
imu,430.69443,-0.2380648144,-9.633848996800001,2.5146343712,1.12164397,1.29299542,-3.54124346,,,
imu,430.702898,-0.242251884,-9.641026830400001,2.5283918856,1.24875144,1.40514907,-3.45899745,,,
imu,429.383108,,,,,,,72.95021639999999,-19.92828440000001,125.9233864
imu,429.484701,,,,,,,73.18215320000002,-19.8672484,125.7769
imu,429.586446,,,,,,,72.9013876,-19.95269880000001,125.2641976
imu,429.687795,,,,,,,74.2197652,-20.2945004,125.0200536
imu,429.789388,,,,,,,72.60841479999999,-19.8306268,125.3008192
imu,429.890951,,,,,,,74.95219719999999,-20.80720280000001,123.3232528
imu,429.992513,,,,,,,72.8159372,-19.94049160000002,126.0454584
imu,430.094076,,,,,,,75.34282759999999,-20.68513080000001,122.8593792
imu,430.711365,-0.2494297176,-9.642223136000002,2.5355697192,1.24875144,1.31542615,-3.51881273,,,
imu,430.719832,-0.2560093984,-9.6290637744,2.5248029688,1.0693056,1.36776452,-3.51881273,,,
imu,430.7283,-0.2296906752000001,-9.630858232800001,2.522410357600001,1.05435178,1.66684092,-3.57862801,,,
imu,430.736767,-0.1932033544,-9.642223136000002,2.5158306768,1.08425942,1.73413311,-3.58610492,,,
imu,430.745234,-0.1088638096,-9.6434194416,2.4936990232,1.18145925,1.70422547,-3.48890509,,,
imu,430.753702,0.08673215600000002,-9.627269316000001,2.4637913832,1.09173633,1.26308778,-3.6459202,,,
imu,430.762169,0.5790119104,-9.590183842400002,2.4338837432,1.16650543,0.1415512799999998,-3.97490424,,,
imu,430.770636,1.2369799904,-9.340155972000002,2.458408008,1.67493531,-3.02118165,-4.25902682,,,
imu,430.779104,1.9433984472,-9.562668813600002,2.3489460456,2.84133327,-9.51861644,-4.94690254,,,
imu,430.787571,2.7180063232,-9.734936820000001,2.216156124,3.87314685,-19.79936769,-8.12458929,,,
imu,430.796038,3.1229557688,-9.720581152800001,2.1629205248,4.44886892,-33.16808277,-13.90424072,,,
imu,430.804506,2.918985664,-9.527377798400002,2.150359316,4.83766824,-46.7237206,-17.87447993,,,
imu,430.812973,2.4446504936,-9.4071490856,2.1557426912,5.21151374,-58.12600835,-17.5529728,,,
imu,430.821429,1.9822783792,-9.524387034400002,2.2179505824,5.74985126,-66.58987047,-14.0388251,,,
imu,430.829885,1.4768392632,-9.819276364800002,2.1970152344,6.0040662,-72.3695219,-8.46105024,,,
imu,430.838341,1.0383932608,-9.980179468000001,2.2137635128,4.93486807,-76.57154532,-3.13001341,,,
imu,430.846797,0.6579680800000002,-9.982572079200002,2.2436711528,3.51425517,-79.32304819999999,0.5411494000000001,,,
imu,430.855253,0.367863972,-9.9819739264,2.2018004568,2.07868845,-81.08012204999999,2.73936094,,,
imu,430.863709,0.1603049504,-9.938906924800001,2.2000059984,0.7253677399999999,-82.19418164,4.032866370000001,,,
imu,430.872165,-0.0370854736,-9.8629415192,2.1844540256,-0.45598404,-83.27085668,3.92071272,,,
imu,430.88062,-0.2847207328,-9.8079114616,2.1539482328,-1.35321324,-83.89891712,2.66459184,,,
imu,430.889076,-0.481513004,-9.798341016800002,2.1270313568,-1.98127368,-84.07088605,1.23650203,,,
imu,430.897532,-0.6202844536000002,-9.7325442088,2.1090867728,-2.50465738,-83.62227145,-0.63272547,,,
imu,430.905988,-0.7650374312,-9.610521037600002,2.1150683008,-2.75887232,-82.71756534,-2.75616791,,,
imu,430.914444,-0.9420906600000001,-9.534555632000002,2.1312184264,-2.73644159,-81.30442934999999,-4.53567249,,,
imu,430.9229,-1.1167512776,-9.509433214400001,2.1599297608,-2.49718047,-79.35295583999999,-6.14320814,,,
imu,430.931356,-1.295000812,-9.543527924000001,2.1724909696,-2.10838115,-76.78837571,-7.429236659999999,,,
imu,430.939812,-1.4666706656,-9.575230022400001,2.189239248,-2.02613514,-73.6405966,-8.55077316,,,
imu,430.948268,-1.573141864,-9.571042952800001,2.2305117912,-1.81678166,-69.9021416,-9.29846416,,,
imu,430.956724,-1.62996638,-9.5602762024,2.275971404,-1.51022835,-65.73750272999999,-9.95643224,,,
imu,430.96518,-1.695763188,-9.554892827200002,2.311262419200001,-1.25601341,-61.5280024,-10.5246774,,,
imu,430.973635,-1.7537840096,-9.554892827200002,2.323823628,-1.09152139,-57.37831735,-10.92095363,,,
imu,430.982091,-1.7729248992,-9.585996772800002,2.3405719064,-0.874691,-53.09404792,-11.16021475,,,
imu,430.990547,-1.80941222,-9.594370912,2.374666616,-0.80739881,-48.98922433,-11.75836755,,,
imu,430.999003,-1.8500866104,-9.572239258400002,2.386629672,-0.77749117,-45.0040313,-12.43128945,,,
imu,431.007459,-1.8895646952,-9.551303910400001,2.3932093528,-0.5980453299999999,-41.16837647,-13.28365719,,,
imu,431.015915,-1.8853776256,-9.5489112992,2.4093594784,-0.32887657,-37.38506001,-14.20331712,,,
imu,431.024733,-1.8680311944,-9.5590798968,2.4069668672,-0.21672292,-33.98306596,-15.03325413,,,
imu,431.033552,-1.8859757784,-9.5698466472,2.4051724088,-0.04475399000000001,-30.64088719,-15.65383766,,,
imu,431.04237,-1.923061252,-9.572239258400002,2.419528076,0.0001074699999999984,-27.26880078,-16.22955973,,,
imu,431.051188,-1.9248557104,-9.558481744000002,2.420126228800001,0.1720764,-24.20326768,-16.91743545,,,
imu,431.060006,-1.9368187664,-9.551303910400001,2.406368714400001,0.23936859,-21.34708806,-17.44081915,,,
imu,431.068825,-1.9212667936,-9.556089132800002,2.3902185888,0.44872207,-18.48343153,-17.7772801,,,
imu,431.077643,-1.9182760296,-9.577024480800002,2.3860315192,0.7104139199999999,-16.01605123,-18.12121796,,,
imu,431.086461,-1.9451929056,-9.554294674400001,2.3860315192,0.97210577,-13.66082458,-18.29318689,,,
imu,431.095279,-1.97390424,-9.5172092008,2.3920130472,1.05435178,-11.58972051,-18.60721711,,,
imu,431.104098,-1.997830352,-9.533359326400001,2.383638908,1.30108981,-9.57843172,-18.74180149,,,
imu,431.112916,-2.0163730888,-9.596165370400001,2.3764610744,1.48801256,-7.73911186,-18.88386278,,,
imu,431.121734,-2.0349158256,-9.608128426400002,2.365694324000001,1.74970441,-6.064284020000001,-19.01844716,,,
imu,431.130552,-2.0708049936,-9.5668558832,2.3782555328,1.82447351,-4.56890202,-19.23527755,,,
imu,431.139371,-2.102507092,-9.566257730400002,2.3902185888,1.82447351,-3.10342766,-19.36238502,,,
imu,431.148189,-2.159331608,-9.6015487456,2.3926112,1.67493531,-1.58561493,-19.06330862,,,
imu,431.157007,-2.2137635128,-9.6470083584,2.4021816448,1.60016621,0.1415512799999998,-18.63712475,,,
imu,431.165825,-2.3016919744,-9.6505972752,2.4069668672,1.39081273,1.8014253,-18.17355633,,,
imu,431.174644,-2.4171354648,-9.638036066400002,2.4009853392,1.11416706,3.79028336,-17.22398876,,,
imu,431.183462,-2.5373641776,-9.630858232800001,2.416537312,0.80761375,6.3623404,-15.87814496,,,
imu,431.19228,-2.6043572912,-9.658373261600001,2.4093594784,0.57582954,9.098889459999999,-14.53230116,,,
imu,431.201098,-2.6474242928,-9.664952942400001,2.4111539368,0.2468455,12.02236127,-13.54534904,,,
imu,431.209917,-2.736549060000001,-9.614708107200002,2.406368714400001,0.0001074699999999984,15.14770965,-12.34156653,,,
imu,431.218735,-2.75150288,-9.5877912312,2.4087613256,-0.14943073,18.26558112,-11.13030711,,,
imu,431.227211,-2.7341564488,-9.6015487456,2.4147428536,-0.20924601,21.1666222,-10.26298555,,,
imu,431.235687,-2.7790179088,-9.606333968000001,2.4213225344,-0.41859949,24.09009401,-9.97138606,,,
imu,431.244164,-2.8238793688,-9.5740337168,2.4320892848,-0.5756146,27.1481502,-9.53772528,,,
imu,431.25264,-2.8424221056,-9.5638651192,2.4123502424,-0.79244499,30.14639111,-9.31341798,,,
imu,431.261116,-2.8238793688,-9.602745051200001,2.4219206872,-0.7550604399999999,33.12220129,-8.90966484,,,
imu,431.269592,-2.7670548528,-9.609922884800001,2.449435716,-1.01675229,35.970904,-8.84237265,,,
imu,431.278069,-2.692285752800001,-9.5812115504,2.4458467992,-1.22610577,38.7373607,-8.730219,,,
imu,431.286545,-2.625890792,-9.588389384000001,2.446444952,-1.46536689,41.30941773999999,-8.588157709999999,,,
imu,431.295021,-2.5158306768,-9.621287788000002,2.4667821472,-1.51770526,43.70202894,-8.16945075,,,
imu,431.303497,-2.4362763544,-9.612913648800001,2.481137814400001,-1.7719202,45.690887,-7.6834516,,,
imu,431.311974,-2.3573201848,-9.596763523200002,2.4655858416,-1.93641222,47.43300703,-7.227360089999999,,,
imu,431.32045,-2.2293154856,-9.583006008800002,2.4787452032,-2.2205348,48.80875846999999,-6.98062206,,,
imu,431.328926,-2.0851606608,-9.583006008800002,2.5170269824,-2.55699575,49.59383402,-7.18249863,,,
imu,431.337402,-1.9876617544,-9.577024480800002,2.5397567888,-2.85607215,50.25927901,-7.20492936,,,
imu,431.345879,-1.9015277512,-9.578220786400001,2.5385604832,-3.028041079999999,50.4761094,-6.838560769999999,,,
imu,431.354355,-1.806421456,-9.574631869600001,2.5493272336,-3.21496383,50.34900193,-6.58434583,,,
imu,431.362831,-1.7172966888,-9.5698466472,2.5732533456,-3.39440967,50.2518021,-6.15068505,,,
imu,431.371308,-1.6323589912,-9.5429297712,2.587609012800001,-3.52899405,49.89291042,-5.61982444,,,
imu,431.379784,-1.5318693208,-9.520798117600002,2.6043572912,-3.69348607,49.27232689,-5.12634838,,,
imu,431.38826,-1.453511304,-9.523190728800001,2.6163203472,-3.76825517,48.50220516,-4.48333412,,,
imu,431.396736,-1.3913034128,-9.5082369088,2.6306760144,-3.77573208,47.61245287,-3.81041222,,,
imu,431.405213,-1.3207213824,-9.471151435200001,2.6516113624,-3.6411477,46.61802384,-3.17487487,,,
imu,431.413689,-1.2489430464,-9.441841948000002,2.670752252,-3.6411477,45.40676441999999,-2.50942988,,,
imu,431.422165,-1.1981000584,-9.457992073600002,2.688696836,-3.58880933,44.09082825999999,-1.99352309,,,
imu,431.430634,-1.1430700008,-9.48072188,2.7048469616,-3.4168404,42.93190721,-1.23087827,,,
imu,431.439102,-1.1023956104,-9.4765348104,2.7329601432,-3.48413259,41.45895594,-0.63272547,,,
imu,431.447571,-1.07667504,-9.460982837600001,2.747913963200001,-3.64862461,40.06825068,-0.05700339999999993,,,
imu,431.45604,-1.025832052,-9.46576806,2.7778216032,-3.49908641,38.67754541999999,0.4813341200000001,,,
imu,431.464508,-0.9839613560000001,-9.470553282400001,2.7802142144,-3.40936349,37.19711724,0.9299487200000001,,,
imu,431.472977,-0.9696056888000001,-9.4843107968,2.801747715200001,-3.40936349,35.78398125,1.48324006,,,
imu,431.481445,-0.9797742864000001,-9.479525574400002,2.8161033824,-3.46170186,34.58019874,2.02905449,,,
imu,431.489914,-0.9390998960000001,-9.477731116000001,2.838235036,-3.31216366,33.54838516,2.65711493,,,
imu,431.498383,-0.9205571592,-9.48072188,2.844216564,-3.17757928,32.42684866,3.17302172,,,
imu,431.506851,-0.8715086296000001,-9.489694172,2.8519925504,-3.20001001,31.38755817,3.66649778,,,
imu,431.51532,-0.8140859608000002,-9.489096019200002,2.8633574536,-3.05047181,30.46042133,4.316988950000001,,,
imu,431.523789,-0.7835801680000001,-9.4765348104,2.868142676,-3.028041079999999,29.33888483,4.67588063,,,
imu,430.203528,,,,,,,72.8159372,-20.07477080000002,125.9478008
imu,430.297247,,,,,,,73.12111720000001,-20.23346440000002,125.7402784
imu,430.39884,,,,,,,72.73048680000001,-20.42877960000002,125.3984768
imu,430.500403,,,,,,,72.31544199999999,-19.78179800000002,126.2529808
imu,430.601935,,,,,,,72.80373,-19.85504120000001,125.5571704
imu,430.703528,,,,,,,72.8281444,-19.85504120000001,125.960008
imu,430.805182,,,,,,,73.41409000000002,-20.22125720000001,125.2397832
imu,430.906622,,,,,,,75.47710679999999,-20.6240948,127.7178448
imu,431.532257,-0.7662337368000001,-9.453805004000001,2.873526051200001,-2.90841052,28.493994,5.251602699999999,,,
imu,431.540726,-0.7255593464000001,-9.456795768000001,2.883096496000001,-2.70653395,27.45470351,5.782463310000001,,,
imu,431.549194,-0.6824923448,-9.457393920800001,2.889078024,-2.60933412,26.4004592,6.148831900000001,,,
imu,431.557663,-0.6591643856000001,-9.4496179344,2.8944613992,-2.46727283,25.69762966,6.477815940000001,,,
imu,431.566132,-0.6322475096000001,-9.429878892000001,2.891470635200001,-2.33268845,24.95741557,6.99372273,,,
imu,431.5746,-0.5939657304000001,-9.430477044800002,2.9028355384,-2.08595042,24.11252474,7.53953716,,,
imu,431.583069,-0.5526931872,-9.439449336800001,2.9159949,-1.74948947,23.4096952,7.875998110000001,,,
imu,431.591538,-0.5185984776000001,-9.458590226400002,2.9034336912,-1.42798234,22.72181948,8.03301322,,,
imu,431.600006,-0.4857000736000001,-9.458590226400002,2.9153967472,-1.1737674,21.93674393,7.99562867,,,
imu,431.608475,-0.4916816016,-9.437056725600002,2.917789358400001,-0.8821679099999999,21.21148366,8.19002833,,,
imu,431.616943,-0.5233837000000001,-9.398176793600001,2.9118078304,-0.64290679,20.7180076,8.33956653,,,
imu,431.625412,-0.5305615336,-9.4071490856,2.9447062344,-0.6279529699999999,20.17967008,8.00310558,,,
imu,431.63389,-0.5269726168000001,-9.458590226400002,2.947696998400001,-0.35878421,19.91797823,7.66664463,,,
imu,431.642367,-0.5371412144000001,-9.513022131200001,2.9393228592,-0.04475399000000001,19.76844003,7.225506940000001,,,
imu,431.650845,-0.5514968816000001,-9.5357519376,2.9512859152,0.04496892999999999,19.78339385,6.53015431,,,
imu,431.659322,-0.5126169496,-9.513022131200001,2.9566692904,-0.007369440000000005,19.70114784,5.804894040000001,,,
imu,431.667894,-0.4874945320000001,-9.478927421600002,2.9680341936,-0.02980017,19.81330149,5.13197214,,,
imu,431.676372,-0.517402172,-9.477731116000001,2.966239735200001,0.28423005,19.98527042,4.840372649999999,,,
imu,431.684849,-0.5634599376000001,-9.5118258256,2.954874832000001,0.3963837,20.37406974,4.75812664,,,
imu,431.693327,-0.6178918424000002,-9.5184055064,2.9512859152,0.36647606,20.95726872,4.48148097,,,
imu,431.701804,-0.7052221512000001,-9.509433214400001,2.94590254,0.46367589,21.9143132,4.30951204,,,
imu,431.710282,-0.8015247520000001,-9.5172092008,2.951884068,0.43376825,23.42464902,3.96557418,,,
imu,431.718759,-0.8631344904,-9.512423978400001,2.9423136232,0.33656842,25.22658433,3.35994447,,,
imu,431.727237,-0.9361091320000001,-9.522592576000001,2.9423136232,0.3739529699999999,27.3724575,2.485146,,,
imu,431.735714,-0.9785779808,-9.545322382400002,2.941117317600001,0.18703022,29.73516106,1.34865568,,,
imu,431.744192,-1.055739692,-9.536948243200001,2.924967192,-0.13447691,32.232449,-0.02709575999999991,,,
imu,431.752669,-1.1681924184,-9.516611048000001,2.918985664,-0.19429219,35.16339772,-1.50752394,,,
imu,431.761147,-1.2226243232,-9.540537160000001,2.9022373856,-0.29149202,38.48314576,-2.99542903,,,
imu,431.769624,-1.2417652128,-9.5800152448,2.9142004416,-0.34383039,42.19917003,-4.22911918,,,
imu,431.778102,-1.2985897288,-9.591978300800001,2.910611524800001,-0.81487572,45.93762503,-5.67216281,,,
imu,431.786579,-1.4044627744,-9.644615747200001,2.895059552,-1.3980747,50.04244861999999,-7.145114079999999,,,
imu,431.795057,-1.3972849408,-9.696056888000001,2.904031844000001,-1.79435093,54.31924114,-8.86480338,,,
imu,431.803535,-1.2973934232,-9.697253193600002,2.88608726,-2.5196112,58.40911091,-10.62187723,,,
imu,431.812012,-1.2154464896,-9.713403319200001,2.8633574536,-3.37945585,62.24476574,-12.62568911,,,
imu,431.82049,-1.1610145848,-9.724768222400002,2.8836946488,-4.1645314,65.82620563,-14.73417773,,,
imu,431.828967,-1.1017974576,-9.754675862400001,2.8783112736,-4.85988403,69.16838440000001,-16.34919029,,,
imu,431.83742,-1.0276265104,-9.758264779200001,2.863955606400001,-5.85431306,72.21896368,-17.75484937,,,
imu,431.845874,-0.8912476720000001,-9.788770572,2.8585722312,-6.78892681,75.23215841,-18.93620115,,,
imu,431.854327,-0.7650374312,-9.769629682400002,2.850198092000001,-7.55157163,77.82664618,-19.87829181,,,
imu,431.862781,-0.6370327320000001,-9.70502918,2.8208886048,-8.231970440000001,79.80802733,-20.64093663,,,
imu,431.871234,-0.4982612824000001,-9.671532623200001,2.8161033824,-8.81516942,81.36322461,-21.08207432,,,
imu,431.879687,-0.3499193880000001,-9.596763523200002,2.8238793688,-9.480614410000001,82.41746892,-21.6652733,,,
imu,431.888141,-0.1955959656,-9.526779645600001,2.8340479664,-9.91427519,82.73149914,-21.91201133,,,
imu,431.896594,-0.0855358504,-9.5219944232,2.837636883200001,-9.9965212,82.51466875,-22.06902644,,,
imu,431.905047,-0.008374139200000002,-9.530966715200002,2.8519925504,-10.01147502,81.91651595,-22.00921116,,,
imu,431.913501,0.1124527264,-9.5291722568,2.9058263024,-10.08624412,80.84731782,-21.91201133,,,
imu,431.921954,0.260196468,-9.4801237272,2.9255653448,-10.25073614,79.42670492,-21.65031948,,,
imu,431.930408,0.3636769024000001,-9.440645642400002,2.945304387200001,-10.31055142,77.49018523000001,-21.2914278,,,
imu,431.938861,0.4300718632,-9.416719530400002,2.981791708,-10.01147502,75.24711223,-20.73065955,,,
imu,431.947314,0.5413282840000001,-9.405354627200001,3.010503042400001,-9.57781424,72.59280918,-19.84090726,,,
imu,431.955768,0.6352382736000001,-9.404756474400001,3.0481866688,-9.36098385,69.49736844,-19.07826244,,,
imu,431.964221,0.7004369288000002,-9.382624820800002,3.0762998504,-9.18153801,66.05051293,-18.66703239,,,
imu,431.972674,0.7387187080000002,-9.350324569600001,3.1091982544,-8.740400320000001,62.46159613,-17.9268183,,,
imu,431.981128,0.7710189592000001,-9.328791068800001,3.143292964,-8.20953971,58.79043332,-17.22398876,,,
imu,431.989581,0.8093007384,-9.300079734400002,3.1558541728,-7.60391,54.92487085,-16.52863613,,,
imu,431.998034,0.8499751288000001,-9.285724067200002,3.181574743200001,-6.86369591,50.90977018,-15.69122221,,,
imu,432.006488,0.8691160184000001,-9.287518525600001,3.188154424,-6.05618963,46.81242349999999,-14.95100812,,,
imu,432.014941,0.8792846160000001,-9.2707702472,3.216267605600001,-5.30849863,42.67769226999999,-14.09864038,,,
imu,432.023395,0.8936402832000001,-9.251629357600002,3.2557456904,-4.50846926,38.40837665999999,-13.30608792,,,
imu,432.031848,0.903210728,-9.254021968800002,3.2641198296,-3.66357843,34.07176886,-12.68550439,,,
imu,432.04066,0.8667234072000001,-9.258209038400002,3.2814662608,-2.86354906,29.92956072,-12.00510558,,,
imu,432.049471,0.8254508640000001,-9.2851259144,3.292831164,-2.12333497,25.92193696,-11.07049183,,,
imu,432.058283,0.8344231560000002,-9.3060612624,3.314364664800001,-1.14385976,21.95169775,-9.97138606,,,
imu,432.067094,0.7889635432000001,-9.307855720800001,3.3203461928,-0.59056842,18.16090438,-9.04424922,,,
imu,432.075906,0.7476910000000001,-9.3060612624,3.3412815408,-0.03727708,14.51964921,-8.1320662,,,
imu,432.084718,0.7165870544000001,-9.335968902400001,3.3664039584,0.6954601,11.19242426,-6.973145150000001,,,
imu,432.093529,0.6747163584000001,-9.385615584800002,3.3783670144,1.31604363,8.074552789999998,-5.92637775,,,
imu,432.102341,0.6573699272000001,-9.402363863200002,3.3711891808,1.64502767,4.91181986,-5.02914855,,,
imu,432.111153,0.6394253432000001,-9.402962016000002,3.3849466952,1.83942733,1.77151766,-4.3936112,,,
imu,432.119964,0.6220789120000001,-9.404756474400001,3.374778097600001,2.21327283,-1.10709269,-3.50385891,,,
imu,432.128776,0.5909749664,-9.416719530400002,3.374778097600001,2.2656112,-4.18757961,-3.05524431,,,
imu,432.137587,0.5748248408000001,-9.427486280800002,3.361020583200001,2.4151494,-7.05871305,-2.61410662,,,
imu,432.146399,0.5646562432000001,-9.404756474400001,3.365207652800001,2.57964142,-9.78030829,-2.10567674,,,
imu,432.155211,0.5909749664,-9.382624820800002,3.352646444,2.66936434,-12.66639555,-1.85893871,,,
imu,432.164022,0.6262659816,-9.382624820800002,3.349655680000001,2.89367164,-15.619775,-1.54490849,,,
imu,432.172834,0.6765108168000001,-9.381428515200001,3.3370944712,3.35724006,-18.55820063,-0.9841402399999999,,,
imu,432.181645,0.7823838624,-9.352717180800001,3.3089812896,3.67874719,-22.02000996,-0.40094126,,,
imu,432.190457,0.8667234072000001,-9.297687123200001,3.297616386400001,4.36662291,-25.90052625,0.18225772,,,
imu,432.199269,0.8816772272000001,-9.267181330400001,3.289242247200001,5.04702172,-30.04273439,0.9149948999999999,,,
imu,432.20808,0.903210728,-9.28632222,3.2766810384,5.67508216,-34.47654202,1.61034753,,,
imu,432.216892,0.9217534648000001,-9.3144354016,3.256343843200001,6.46015771,-38.98511875,2.7842224,,,
imu,432.225704,0.9247442288000001,-9.3210150824,3.2467733984,7.11812579,-43.50117239,4.092681649999999,,,
imu,432.234515,0.8882569080000001,-9.307855720800001,3.2072953136,7.76861696,-48.11442586,5.49086382,,,
imu,432.24299,0.7931506128000001,-9.329389221600001,3.163630159200001,8.411631219999999,-52.80992534,7.031107280000001,,,
imu,432.251465,0.6657440664000001,-9.378437751200002,3.1690135344,8.88267655,-57.06428713,8.66855057,,,
imu,432.25994,0.5269726168000001,-9.395784182400002,3.1301336024,9.21166059,-60.77283449,10.23870167,,,
imu,432.268415,0.4402404608,-9.436458572800001,3.0816832256,9.47335244,-63.98042888,11.62940693,,,
imu,432.27689,0.3564990688,-9.453805004000001,3.0661312528,9.69018283,-66.79174703999999,13.05749674,,,
imu,432.285365,0.206362716,-9.440645642400002,3.0451959048,9.82476721,-69.12454296,14.8968166,,,
imu,432.29384,0.1190324072,-9.437654878400002,3.0111011952,10.03412069,-71.03863191999999,16.34733714,,,
imu,432.302315,0.04964668240000001,-9.482516338400002,3.0063159728,10.07898215,-72.87047487,17.53616583,,,
imu,432.31079,-0.0813487808,-9.5219944232,2.9746138744,10.00421305,-74.26865704,18.47077958,,,
imu,432.319265,-0.2231109944,-9.5590798968,2.969828652,9.74999811,-75.17336314999999,19.24837822,,,
imu,432.32774,-0.3624805968,-9.5602762024,2.9506877624,9.435967889999999,-75.86123887,19.82410029,,,
imu,432.336215,-0.4940742128000001,-9.557883591200001,2.9363320952,9.2939066,-75.89114651,20.21289961,,,
imu,432.34469,-0.6705292888000001,-9.5668558832,2.9321450256,8.97239947,-75.24065533999999,20.28766871,,,
imu,431.008154,,,,,,,82.3985892,-22.08895880000001,127.0830704
imu,431.109747,,,,,,,82.42300360000002,-20.6240948,129.5977536
imu,431.21131,,,,,,,84.70575,-21.40535560000001,126.7656832
imu,431.312872,,,,,,,81.8248508,-20.36774360000002,129.0606368
imu,431.414404,,,,,,,78.7608436,-19.8672484,128.5601416
imu,431.515997,,,,,,,76.1362956,-19.42778920000001,128.0230248
imu,431.61759,,,,,,,74.63481,-19.12260920000002,126.5337464
imu,431.719122,,,,,,,73.7925132,-18.93950120000001,125.227576
imu,432.353165,-0.8170767248000002,-9.603343204000002,2.920181969600001,8.64341543,-74.0144421,20.46711455,,,
imu,432.36164,-0.9731946056000002,-9.626671163200001,2.921976428000001,8.32938521,-71.95081493999999,20.37739163,,,
imu,432.370115,-1.1023956104,-9.6326526912,2.9554729848,7.933108979999999,-69.13201987,20.30262253,,,
imu,432.37859,-1.1107697496,-9.651195428000001,2.9692304992,7.52935584,-65.67021054,20.10822287,,,
imu,432.387065,-1.0683009008,-9.669140012000002,2.9626508184,7.05831051,-62.49252379,19.46520861,,,
imu,432.39554,-1.019850524,-9.665551095200001,2.972819416000001,6.55735754,-59.65129799,18.34367211,,,
imu,432.404015,-1.0234394408,-9.612913648800001,2.9973436808,5.77228199,-56.95213348,16.81838247,,,
imu,432.41249,-0.9516611048000001,-9.581809703200001,3.0164845704,5.24142138,-54.50718391,15.29309283,,,
imu,432.420965,-0.9211553120000001,-9.604539509600002,3.017082723200001,4.84514515,-52.27158782,13.49863443,,,
imu,432.42944,-0.9385017432000002,-9.633250844,3.002727056,4.41896128,-50.11823774,11.9060526,,,
imu,432.437915,-0.9133793256000001,-9.676317845600002,3.024260556800001,3.93296213,-47.78544182,10.80694683,,,
imu,432.446382,-0.8762938520000002,-9.723571916800001,3.029643932,3.28994787,-45.38535371,9.78261016,,,
imu,432.45485,-0.86732156,-9.703832874400002,3.0481866688,2.67684125,-43.17966526,8.80313495,,,
imu,432.463317,-0.8487788232000001,-9.627867468800002,3.0344291544,1.97401171,-40.85434625,8.08535159,,,
imu,432.471784,-0.8547603512000002,-9.5668558832,3.0254568624,1.61512003,-38.35705831,7.92833648,,,
imu,432.480252,-0.9193608536000001,-9.560874355200001,3.0182790288,1.45062801,-35.75509363,7.8685212,,,
imu,432.488719,-0.8565548096000002,-9.590183842400002,3.0134938064,1.38333582,-33.04845221,7.853567379999999,,,
imu,432.497186,-0.8098988912000001,-9.561472508000001,3.0039233616,1.1440747,-30.3492877,7.793752100000001,,,
imu,432.505654,-0.8063099744000001,-9.4908904776,2.9973436808,0.9197674,-27.78470757,7.636736990000001,,,
imu,432.514121,-0.7704208064000001,-9.447225323200001,2.989567694400001,1.05435178,-25.30985036,7.36009132,,,
imu,432.522588,-0.7387187080000002,-9.444234559200002,2.993754764000001,1.20388998,-23.08920809,6.90399981,,,
imu,432.531056,-0.7123999848000001,-9.443636406400001,3.008708584,1.37585891,-21.01810402,6.388093019999999,,,
imu,432.539523,-0.6908664840000001,-9.432869656000001,3.0158864176,1.41324346,-18.94699995,5.819847859999999,,,
imu,432.54799,-0.6495939408000001,-9.422102905600001,3.0009325976,1.57773548,-17.0403879,5.124495229999999,,,
imu,432.556458,-0.6149010784000001,-9.418513988800001,2.996745528,1.68241222,-15.3954677,4.45157333,,,
imu,432.564925,-0.5449172008000001,-9.4280844336,2.999736292,1.95905789,-13.6757784,3.91323581,,,
imu,432.573393,-0.4874945320000001,-9.4496179344,2.996745528,2.20579592,-12.35984224,3.39732902,,,
imu,432.58186,-0.4486146000000001,-9.4669643656,3.0314383904,2.24318047,-10.99156771,2.99357588,,,
imu,432.590327,-0.4420349192,-9.4873015608,3.0368217656,2.20579592,-9.79526211,2.61225347,,,
imu,432.598795,-0.4079402096,-9.522592576000001,3.059551572000001,2.50487232,-8.76344853,2.35803853,,,
imu,432.607262,-0.3672658192000001,-9.5602762024,3.0643367944,2.37028794,-7.918557699999999,1.97671612,,,
imu,432.615729,-0.3397507904000001,-9.5800152448,3.061944183200001,2.25813429,-6.9465594,1.62530135,,,
imu,432.624197,-0.3206099008000001,-9.580613397600002,3.075103544800001,2.12354991,-6.11662239,1.3636095,,,
imu,432.632664,-0.3152265256,-9.5740337168,3.0816832256,1.86933497,-5.41379285,1.0645331,,,
imu,432.641131,-0.2865151912,-9.580613397600002,3.0858702952,1.68988913,-4.56142511,0.9598563599999999,,,
imu,432.649603,-0.2446444952,-9.5907819952,3.0786924616,1.61512003,-3.85111866,0.8626565300000002,,,
imu,432.658074,-0.1842310624,-9.600352440000002,3.0631404888,1.27118217,-3.37259642,0.5187186700000002,,,
imu,432.666545,-0.1297991576,-9.558481744000002,3.049981127200001,0.8973366700000001,-3.05108929,0.1972115400000001,,,
imu,432.675016,-0.1124527264,-9.485507102400002,3.0511774328,0.9347212199999999,-2.909028,-0.1616801399999999,,,
imu,432.683487,-0.0681894192,-9.4729458936,3.0667294056,0.8674290299999999,-2.81930508,-0.7074945699999999,,,
imu,432.691958,-0.017944584,-9.504647992000002,3.0410088352,0.8823828499999999,-3.00622783,-1.34303192,,,
imu,432.70043,0.0017944584,-9.5357519376,3.0493829744,0.80761375,-3.35016569,-1.93370781,,,
imu,432.708901,0.020935348,-9.496872005600002,3.030840237600001,0.81509066,-3.59690372,-2.56924516,,,
imu,432.717372,0.07118018320000001,-9.457393920800001,3.033831001600001,0.85995212,-3.97074922,-3.0477674,,,
imu,432.725843,0.08673215600000002,-9.4633754488,3.038018071200001,0.8973366700000001,-4.50908674,-3.23469015,,,
imu,432.734314,0.06699311360000001,-9.490292324800002,3.0260550152,1.12912088,-5.189485550000001,-3.21225942,,,
imu,432.742785,0.07596540560000001,-9.493283088800002,3.022466098400001,1.43567419,-5.8250229,-3.31693616,,,
imu,432.751257,0.0753672528,-9.485507102400002,3.014690112,1.4431511,-6.348406600000001,-3.60853565,,,
imu,432.759652,0.0783580168,-9.470553282400001,3.0194753344,1.47305874,-6.96899013,-3.84031986,,,
imu,432.768123,0.06460050240000001,-9.444234559200002,3.0182790288,1.71979677,-7.567142929999999,-3.99733497,,,
imu,432.776594,0.0173464312,-9.4496179344,3.007512278400001,1.83942733,-8.12043427,-4.40108811,,,
imu,432.785065,-0.0197390424,-9.457393920800001,3.0021289032,1.8917657,-8.57652578,-4.57305704,,,
imu,432.793536,-0.04246884880000001,-9.4454308648,2.9973436808,2.05625772,-8.88307909,-4.670256869999999,,,
imu,432.802008,-0.08015247520000002,-9.440645642400002,3.0051196672,2.4151494,-8.94289437,-4.670256869999999,,,
imu,432.810479,-0.1004896704,-9.431075197600002,3.0009325976,2.58711833,-9.01766347,-4.56558013,,,
imu,432.81895,-0.09450814240000002,-9.4496179344,2.9943529168,2.62450288,-9.04757111,-4.50576485,,,
imu,432.827421,-0.1244157824,-9.478329268800001,3.014690112,2.95348692,-8.90550982,-4.363703559999999,,,
imu,432.835892,-0.146547436,-9.499264616800001,3.0093067368,2.79647181,-8.83074072,-4.44594957,,,
imu,432.844363,-0.1441548248,-9.501657228000001,3.020073487200001,2.87871782,-8.68867943,-4.34874974,,,
imu,432.852817,-0.1471455888,-9.52558334,3.0218679456,2.75908726,-8.49427977,-4.28145755,,,
imu,432.86127,-0.1668846312,-9.5566872856,3.0320365432,2.72917962,-8.19520337,-4.23659609,,,
imu,432.869724,-0.1908107432,-9.547714993600001,3.0398125296,2.51982614,-7.769019500000001,-4.079580979999999,,,
imu,432.878177,-0.2081571744,-9.520199964800002,3.0457940576,2.49739541,-7.59705057,-4.11696553,,,
imu,432.88663,-0.2296906752000001,-9.538742701600002,3.0553645024,2.407672489999999,-7.05123614,-3.96742733,,,
imu,432.895084,-0.2494297176,-9.562070660800002,3.0451959048,2.31047266,-6.46803716,-3.89265823,,,
imu,432.903537,-0.2793373576,-9.560874355200001,3.0463922104,1.98896553,-5.974561100000001,-3.88518132,,,
imu,432.91199,-0.3020671640000001,-9.5602762024,3.05057928,1.68988913,-5.36893139,-4.0945348,,,
imu,432.920444,-0.3098431504,-9.578818939200001,3.0451959048,1.45062801,-4.56890202,-4.11696553,,,
imu,432.928897,-0.3331711096,-9.593772759200002,3.038616224000001,1.25622835,-3.78382647,-4.11696553,,,
imu,432.937351,-0.3624805968,-9.589585689600002,3.0523737384,0.74779847,-3.18567367,-4.33379592,,,
imu,432.945804,-0.3983697648000001,-9.587193078400002,3.0577571136,0.7403215599999999,-2.15386009,-4.13191935,,,
imu,432.954257,-0.4169125016,-9.591978300800001,3.0589534192,0.32909151,-1.24167707,-4.19921154,,,
imu,432.962711,-0.4258847936,-9.5800152448,3.0643367944,-0.11204618,-0.3369709599999999,-4.32631901,,,
imu,432.971164,-0.4342589328000001,-9.571641105600001,3.059551572000001,-0.36626112,0.5453044199999999,-4.3936112,,,
imu,432.979617,-0.4252866408000001,-9.572239258400002,3.061346030400001,-0.59056842,1.68179474,-4.408565019999999,,,
imu,432.988071,-0.4025568344,-9.558481744000002,3.0481866688,-0.9494601,2.3995781,-4.64034923,,,
imu,432.996524,-0.3834159448,-9.520798117600002,3.0589534192,-1.11395212,3.02763854,-5.00671782,,,
imu,433.004978,-0.3774344168000001,-9.490292324800002,3.05057928,-1.29339796,3.75289881,-5.14877911,,,
imu,433.013431,-0.3690602776000001,-9.4908904776,3.05057928,-1.26349032,4.3435747,-5.24597894,,,
imu,433.021884,-0.3732473472,-9.483712644000002,3.0469903632,-1.18124431,4.837050759999999,-5.26840967,,,
imu,433.030338,-0.3774344168000001,-9.477731116000001,3.0368217656,-1.19619813,5.3903421,-5.2908404,,,
imu,433.038791,-0.3660695136000001,-9.472347740800002,3.0368217656,-1.15881358,5.7641876,-5.32074804,,,
imu,433.047244,-0.3666676664,-9.441841948000002,3.0469903632,-0.9494601,6.26514057,-5.350655679999999,,,
imu,433.056068,-0.3600879856,-9.4424401008,3.0463922104,-0.69524516,6.63898607,-5.41047096,,,
imu,433.064891,-0.3648732080000001,-9.462777296000002,3.0392143768,-0.5307531400000001,7.06516994,-5.46280933,,,
imu,433.073715,-0.3696584304000001,-9.477132963200003,3.03562546,-0.37373803,7.39415398,-5.477763149999999,,,
imu,433.082539,-0.3720510416,-9.477132963200003,3.0314383904,-0.14943073,7.82033785,-5.634778259999999,,,
imu,433.091362,-0.3714528888,-9.479525574400002,3.0434014464,-0.13447691,8.044645150000001,-5.896470109999999,,,
imu,433.100186,-0.3720510416,-9.477132963200003,3.036223612800001,-0.13447691,8.42596756,-5.99366994,,,
imu,433.109009,-0.3893974728000001,-9.477132963200003,3.038616224000001,0.12721494,8.7549516,-6.2628387,,,
imu,433.117833,-0.4043512928,-9.48072188,3.0374199184,0.10478421,8.94935126,-6.442284539999999,,,
imu,433.126656,-0.4252866408000001,-9.48072188,3.0392143768,0.28423005,9.45778114,-6.397423079999999,,,
imu,433.13548,-0.4390441552000001,-9.5040498392,3.0392143768,0.3216146,9.96621102,-6.33013089,,,
imu,433.144304,-0.4707462536000001,-9.5237888816,3.0368217656,0.35152224,10.44473326,-6.292746339999999,,,
imu,433.153127,-0.4886908376000001,-9.5357519376,3.0344291544,0.14216876,10.96064005,-6.47219218,,,
imu,433.161951,-0.5030465048,-9.5447242296,3.041606988,0.20946095,11.71580796,-6.58434583,,,
imu,431.820623,,,,,,,72.96242360000001,-18.45121320000001,124.2876216
imu,431.922155,,,,,,,70.66747,-18.23148360000002,121.5776232
imu,432.02387,,,,,,,66.70013000000002,-16.88869160000002,117.0243376
imu,432.12531,,,,,,,65.12540120000001,-16.54689,113.7772224
imu,432.226903,,,,,,,68.22603000000001,-17.42580840000001,113.2523128
imu,432.328405,,,,,,,68.79976839999999,-17.36477240000001,119.7831648
imu,432.429998,,,,,,,72.6694508,-16.98634920000002,121.9438392
imu,432.531499,,,,,,,75.18413399999999,-17.56008760000001,124.7759096
imu,433.170774,-0.5221873944000001,-9.5698466472,3.054168196800001,0.22441477,12.38125295,-6.76379167,,,
imu,433.179598,-0.5269726168000001,-9.5698466472,3.0577571136,-0.02232326000000001,13.09903631,-6.950714420000001,,,
imu,433.188421,-0.5293652280000001,-9.573435564,3.0643367944,-0.21672292,13.90654259,-7.249790819999999,,,
imu,433.197245,-0.5239818528000001,-9.552500216,3.061346030400001,-0.23167674,14.90097162,-7.339513739999999,,,
imu,433.206068,-0.5377393672000002,-9.524387034400002,3.057158960800001,-0.47841477,15.61875498,-7.429236659999999,,,
imu,433.214892,-0.5772174520000001,-9.499264616800001,3.0553645024,-0.5681376899999999,16.49355345,-7.39932902,,,
imu,433.223716,-0.5903768136,-9.507040603200002,3.063738641600001,-0.59056842,17.30105973,-7.63111323,,,
imu,433.232539,-0.5700396184000001,-9.565061424800001,3.0523737384,-0.64290679,18.09361219,-7.74326688,,,
imu,433.241363,-0.5742266880000001,-9.597361676,3.063738641600001,-0.84478336,19.1478565,-7.87785126,,,
imu,433.250186,-0.5371412144000001,-9.548313146400002,3.0601497248,-1.12142903,20.00770115,-8.04982019,,,
imu,433.258725,-0.5036446576000001,-9.463973601600001,3.059551572000001,-1.38312088,20.81520743,-8.09468165,,,
imu,433.267263,-0.4892889904,-9.4591883792,3.0493829744,-1.06909066,21.75729809,-7.563821040000001,,,
imu,433.275802,-0.472540712,-9.5148165896,3.0368217656,-0.94198319,22.72929639,-6.950714420000001,,,
imu,433.284341,-0.4169125016,-9.514218436800002,3.0398125296,-0.97189083,23.26763391,-6.5619151,,,
imu,433.292879,-0.3684621248000001,-9.4424401008,3.0350273072,-0.78496808,23.69381778,-6.315177069999999,,,
imu,433.301418,-0.340947096,-9.372456223200002,3.014690112,-0.6503837,24.007848,-6.075915950000001,,,
imu,433.309956,-0.3182172896000001,-9.3592968616,3.0158864176,-0.30644584,24.41907805,-5.76936264,,,
imu,433.318495,-0.2739539824000001,-9.409541696800002,3.015288264800001,0.07487657,24.59852389,-5.522624609999999,,,
imu,433.327033,-0.2530186344000001,-9.435262267200002,3.0230642512,0.34404533,24.65833917,-5.33570186,,,
imu,433.335572,-0.2207183832,-9.4280844336,3.0230642512,0.66555246,24.64338535,-5.20111748,,,
imu,433.34411,-0.191408896,-9.423299211200002,3.0254568624,0.7552753799999999,24.57609316,-5.14877911,,,
imu,433.352649,-0.1459492832,-9.4346641144,3.012895653600001,1.09921324,24.44898569,-4.9169949,,,
imu,433.361188,-0.09091922560000001,-9.463973601600001,3.008708584,1.32352054,24.25458603,-4.87213344,,,
imu,433.369726,-0.0323002512,-9.463973601600001,3.0260550152,1.60016621,23.71624851,-4.86465653,,,
imu,433.378265,0.0185427368,-9.4753385048,3.0344291544,1.67493531,22.9610806,-5.07401001,,,
imu,433.386803,0.06998387760000001,-9.478927421600002,3.0463922104,1.82447351,22.0638514,-5.328224949999999,,,
imu,433.395342,0.0980970592,-9.478927421600002,3.053570044,1.91419643,21.00213018,-5.61982444,,,
imu,433.40388,0.1244157824,-9.512423978400001,3.049981127200001,1.90671952,19.92545514,-5.75440882,,,
imu,433.412419,0.1459492832,-9.541135312800002,3.0649349472,2.04878081,18.81139555,-5.74693191,,,
imu,433.420958,0.1722680064,-9.558481744000002,3.079290614400001,2.01887317,17.76462815,-5.79179337,,,
imu,433.429496,0.1932033544,-9.5632669664,3.075103544800001,1.73475059,16.41878435,-5.70207045,,,
imu,433.438035,0.2069608688,-9.558481744000002,3.091851823200001,1.50296638,15.035556,-5.58243989,,,
imu,433.446573,0.2266999112,-9.558481744000002,3.092449976,1.45062801,13.71214293,-5.49271697,,,
imu,433.455112,0.2781410520000001,-9.5740337168,3.0840758368,1.31604363,12.40368368,-5.283363489999999,,,
imu,433.463507,0.3259932760000001,-9.551902063200002,3.062542336,1.21136689,10.7737173,-5.08148692,,,
imu,433.471902,0.3738455000000001,-9.513620284000002,3.0589534192,1.09921324,9.02412036,-5.05905619,,,
imu,433.480296,0.439642308,-9.447823476,3.061944183200001,1.00949032,7.13246213,-5.07401001,,,
imu,433.488691,0.5377393672000002,-9.4382530312,3.0667294056,1.00201341,4.7921893,-5.02914855,,,
imu,433.497086,0.5885823552,-9.486105255200002,3.0529718912,1.48801256,2.28742445,-4.96933327,,,
imu,433.505481,0.62806044,-9.5184055064,3.0589534192,1.57025857,-0.5089398900000002,-5.12634838,,,
imu,433.513876,0.6627533024,-9.4843107968,3.059551572000001,1.54035093,-3.43988861,-5.15625602,,,
imu,433.522271,0.6693329832000001,-9.456795768000001,3.05057928,1.54782784,-6.22877604,-4.94690254,,,
imu,433.530666,0.7052221512000001,-9.4753385048,3.0547663496,1.70484295,-9.10738639,-4.61044159,,,
imu,433.539061,0.7560651392000002,-9.512423978400001,3.0469903632,1.79456587,-12.33741151,-4.06462716,,,
imu,433.547455,0.8057118216000001,-9.502853533600002,3.0314383904,1.80204278,-15.62725191,-3.51133582,,,
imu,433.55585,0.8063099744000001,-9.481918185600001,3.001530750400001,1.57025857,-19.32084545,-3.26459779,,,
imu,433.564245,0.8954347416000001,-9.478329268800001,2.9566692904,1.56278166,-23.00696208,-2.49447606,,,
imu,433.57264,1.1460607648,-9.460982837600001,2.905228149600001,1.86933497,-26.92486292,-1.75426197,,,
imu,433.581035,1.417622136,-9.4412437952,2.838833188800001,2.24318047,-32.05402318,-1.88884635,,,
imu,433.58943,1.5599825024,-9.380830362400001,2.7676530056,2.72170271,-38.02059736,-2.47204533,,,
imu,433.597825,1.5510102104,-9.4137287664,2.7114266424,3.42453225,-44.45073996,-2.76364482,,,
imu,433.60622,1.4696614296,-9.4962738528,2.6641725712,4.089977240000001,-50.49956015,-2.87579847,,,
imu,433.614614,1.366779148,-9.5704448,2.634863084,4.57597639,-56.01004282,-3.03281358,,,
imu,433.623009,1.2818414504,-9.600352440000002,2.613927736,4.55354566,-61.1541569,-2.68887572,,,
imu,433.631404,1.16639796,-9.644017594400001,2.5965813048,4.5834533,-65.82722564999999,-2.26269185,,,
imu,433.639799,0.9785779808,-9.709814402400001,2.575047804,4.23951544,-69.89466469,-2.71878336,,,
imu,433.648194,0.7488873056,-9.777405668800002,2.598973916,3.67874719,-73.29665874,-3.21973633,,,
imu,433.656589,0.5078317272000001,-9.810304072800001,2.607946208,2.7142258,-75.87619269,-3.48142818,,,
imu,433.665105,0.2966837888,-9.83961356,2.599572068800001,1.77961205,-77.78280473999999,-4.04219643,,,
imu,433.67362,0.08852661440000001,-9.824061587200001,2.603759138400001,0.51601426,-79.0239718,-5.238502029999999,,,
imu,433.682136,-0.06998387760000001,-9.790565030400002,2.619909264,-0.6503837,-79.74175516,-6.509576729999999,,,
imu,433.690652,-0.1955959656,-9.728955292000002,2.6085443608,-1.81678166,-79.93615482,-7.92271272,,,
imu,433.699167,-0.3247969704000001,-9.679308609600001,2.6055535968,-2.71401086,-79.9959701,-9.31341798,,,
imu,433.707683,-0.5012520464000001,-9.625474857600002,2.6091425136,-3.74582444,-79.72680134,-10.87609217,,,
imu,433.716199,-0.6454068712000001,-9.571042952800001,2.613329583200001,-4.35893106,-79.06135635,-11.9452903,,,
imu,432.633153,,,,,,,75.58697160000001,-17.43801560000002,125.2764048
imu,432.734624,,,,,,,76.24616040000001,-17.29152920000001,125.6059992
imu,432.836248,,,,,,,76.8565204,-17.46243,125.1543328
imu,432.93781,,,,,,,77.320394,-17.4990516,124.3242432
imu,433.039342,,,,,,,77.02742119999999,-17.60891640000002,125.8013144
imu,433.140996,,,,,,,79.0782308,-18.46342040000002,123.3110456
imu,433.24262,,,,,,,76.47809720000001,-17.3037364,124.739288
imu,433.344091,,,,,,,77.3326012,-18.59769960000002,121.5165872
imu,433.445692,,,,,,,73.5727836,-17.41360120000002,123.213388
imu,433.547255,,,,,,,73.4629188,-17.3037364,121.9438392
imu,433.648817,,,,,,,74.9766116,-17.65774520000001,125.0810896
