Type,Timestamp,Data Accelerometer X,Data Accelerometer Y,Data Accelerometer Z,Data Gyroscope X,Data Gyroscope Y,Data Gyroscope Z,Data Magnetometer X,Data Magnetometer Y,Data Magnetometer Z
imu,344.015954,-0.07118018320000001,-9.789368724800001,1.7023428688,0.35152224,2.12293243,-2.96552139,,,
imu,344.024331,-0.0723764888,-9.7570684736,1.728661592,0.08983038999999998,2.07807097,-2.93561375,,,
imu,344.032708,-0.0723764888,-9.7325442088,1.7274652864,0.05992275,1.9509635,-2.9729983,,,
imu,344.041085,-0.08972292000000001,-9.711608860800002,1.7322505088,0.21693786,1.9509635,-2.87579847,,,
imu,344.049462,-0.1010878232,-9.710412555200001,1.76455076,0.05244583999999999,1.84628676,-2.84589083,,,
imu,344.057839,-0.1052748928,-9.714001472000001,1.7633544544,0.04496892999999999,1.77151766,-2.83093701,,,
imu,344.066216,-0.1010878232,-9.711010708000002,1.7872805664,0.08235347999999998,1.84628676,-2.62158353,,,
imu,344.074593,-0.1160416432,-9.713403319200001,1.8010380808,0.08235347999999998,1.83880985,-2.57672207,,,
imu,344.082971,-0.1202287128,-9.743310959200002,1.812402984,0.14216876,1.92105586,-2.44213769,,,
imu,344.091348,-0.1034804344,-9.751685098400001,1.821375276,0.2468455,2.08554788,-2.35241477,,,
imu,344.099725,-0.110658268,-9.764246307200002,1.8171882064,0.23936859,2.12293243,-2.20287657,,,
imu,344.108102,-0.1040785872,-9.767237071200002,1.8255623456,0.35152224,2.38462428,-2.04586146,,,
imu,344.116558,-0.092713684,-9.772022293600001,1.8405161656,0.41133752,2.42948574,-2.12063056,,,
imu,344.125014,-0.07118018320000001,-9.789966877600001,1.8524792216,0.32909151,2.34723973,-2.21783039,,,
imu,344.133469,-0.07596540560000001,-9.794153947200002,1.8441050824,0.22441477,2.3995781,-2.31503022,,,
imu,344.141925,-0.0753672528,-9.801929933600002,1.8447032352,0.10478421,2.41453192,-2.36736859,,,
imu,344.150381,-0.0281131816,-9.796546558400001,1.8429087768,-0.02232326000000001,2.53416248,-2.41223005,,,
imu,344.158837,0.005981528000000001,-9.752283251200002,1.8429087768,-0.03727708,2.58650085,-2.21783039,,,
imu,344.167293,0.0107667504,-9.755872168000002,1.8686293472,-0.17186146,2.33228591,-2.32250713,,,
imu,344.175749,0.004187069600000001,-9.802528086400002,1.8470958464,-0.007369440000000005,2.08554788,-2.62906044,,,
imu,344.184205,-0.009570444800000001,-9.765442612800001,1.8309457208,0.07487657,1.85376367,-2.60662971,,,
imu,344.192661,-0.0317020984,-9.722375611200002,1.8464976936,0.0001074699999999984,1.8014253,-2.47204533,,,
imu,344.201117,-0.026916876,-9.7576666264,1.8608533608,0.09730729999999999,1.70422547,-2.36736859,,,
imu,344.209573,0.002990764,-9.763050001600002,1.8530773744,0.09730729999999999,1.89862513,-2.00847691,,,
imu,344.218029,0.0017944584,-9.744507264800001,1.8494884576,0.08235347999999998,1.9509635,-1.73930815,,,
imu,344.226485,0.004187069600000001,-9.730749750400001,1.8441050824,0.14216876,1.99582496,-1.73930815,,,
imu,344.23494,0.0143556672,-9.718188541600002,1.8315438736,0.05992275,1.8761944,-1.99352309,,,
imu,344.243396,0.0155519728,-9.708019944000002,1.8249641928,0.26179932,1.83880985,-2.19539966,,,
imu,344.251852,0.0023926112,-9.699645804800001,1.8088140672,0.35152224,1.74161002,-2.5243837,,,
imu,344.260308,0.004187069600000001,-9.688280901600002,1.8010380808,0.49358353,1.86124058,-2.66644499,,,
imu,344.268764,0.003588916800000001,-9.667943706400001,1.782495344,0.68050628,1.92105586,-2.83093701,,,
imu,344.27722,-0.0017944584,-9.659569567200002,1.7669433712,0.9272443100000001,1.88367131,-2.91318302,,,
imu,344.285676,-0.011963056,-9.654186192000001,1.7412228008,1.24127453,1.98087114,-2.91318302,,,
imu,344.294132,-0.008374139200000002,-9.6470083584,1.7268671336,1.51044329,2.12293243,-2.96552139,,,
imu,344.302588,-0.0131593616,-9.681103068,1.7232782168,1.70484295,2.20517844,-2.93561375,,,
imu,344.311044,-0.01495382,-9.730749750400001,1.7035391744,2.06373463,2.28742445,-2.8234601,,,
imu,344.319862,0.0005981528000000001,-9.7504887928,1.7125114664,2.02635008,2.28742445,-2.73373718,,,
imu,344.32868,0.0053833752,-9.758862932000001,1.7041373272,2.03382699,2.27994754,-2.61410662,,,
imu,344.337498,0.002990764,-9.798341016800002,1.7035391744,2.16093446,2.49677793,-2.38979932,,,
imu,344.346317,0.0143556672,-9.803126239200001,1.6993521048,2.20579592,2.75099287,-2.3748455,,,
imu,344.355135,-0.0005981528000000001,-9.819276364800002,1.6891835072,2.116073,2.90800798,-2.25521494,,,
imu,344.363953,0.0257205704,-9.8264541984,1.7005484104,1.80204278,2.81828506,-2.35989168,,,
imu,344.372771,0.0466559184,-9.824659740000001,1.6891835072,1.53287402,2.80333124,-2.57672207,,,
imu,344.38159,0.0502448352,-9.836024643200002,1.6832019792,1.39081273,2.90800798,-2.66644499,,,
imu,344.390408,0.0550300576,-9.828846809600002,1.6790149096,1.21136689,2.93043871,-2.77859864,,,
imu,344.399226,0.05742266880000001,-9.824659740000001,1.6754259928,0.94967504,3.07997691,-2.95056757,,,
imu,344.408044,0.06519865520000001,-9.824659740000001,1.6706407704,0.8524752099999999,3.10240764,-3.07019813,,,
imu,344.416863,0.0783580168,-9.8162856008,1.6706407704,0.65807555,3.12483837,-3.06272122,,,
imu,344.425681,0.09690075360000001,-9.812696684000002,1.6843982848,0.6281679099999999,3.16969983,-3.15992105,,,
imu,344.434499,0.1148453376,-9.83961356,1.6939687296,0.5010604399999999,2.98277708,-3.24964397,,,
imu,344.443317,0.1351825328,-9.835426490400001,1.6969594936,0.45619898,2.94539253,-3.33936689,,,
imu,344.452136,0.140565908,-9.802528086400002,1.716698536,0.20198404,2.88557725,-3.39170526,,,
imu,344.460954,0.1411640608,-9.797144711200001,1.7328486616,0.08235347999999998,2.65379304,-3.42908981,,,
imu,344.469772,0.1333880744,-9.7911631832,1.7394283424,-0.10456927,2.43696265,-3.67582784,,,
imu,344.47859,0.143556672,-9.770825988000002,1.7537840096,-0.21672292,2.12293243,-3.74312003,,,
imu,344.487409,0.1423603664,-9.759461084800002,1.770532288,-0.08961545,2.03320951,-3.72816621,,,
imu,344.496227,0.1297991576,-9.745703570400002,1.7717285936,0.03749201999999999,1.8761944,-3.85527368,,,
imu,344.505045,0.1387714496,-9.731946056000002,1.7830934968,0.05244583999999999,1.74908693,-3.8702275,,,
imu,344.513863,0.1142471848,-9.7331423616,1.7944584,0.14964567,1.59954873,-3.86275059,,,
imu,344.522338,0.1154434904,-9.731347903200001,1.8010380808,0.23189168,1.2780416,-3.93004278,,,
imu,344.530813,0.09869521200000002,-9.7337405144,1.8165900536,0.29170696,1.13598031,-3.99733497,,,
imu,344.539288,0.092713684,-9.746301723200002,1.806421456,0.3739529699999999,1.02382666,-3.90761205,,,
imu,344.547763,0.08852661440000001,-9.7474980288,1.8130011368,0.4861066199999999,0.76213481,-3.85527368,,,
imu,344.556238,0.0747691,-9.745703570400002,1.82436604,0.41881443,0.78456554,-3.87770441,,,
imu,344.564713,0.06400234960000001,-9.748096181600001,1.80941222,0.50853735,0.6724118899999998,-4.02724261,,,
imu,344.573188,0.06699311360000001,-9.7427128064,1.8171882064,0.52349117,0.52287369,-3.87770441,,,
imu,344.581663,0.06160973840000001,-9.735534972800002,1.8058233032,0.4861066199999999,0.3882893099999998,-3.95247351,,,
imu,344.590138,0.04246884880000001,-9.7331423616,1.7962528584,0.7104139199999999,0.4107200399999997,-3.95247351,,,
imu,344.598613,0.04366515440000001,-9.737927584000001,1.7932620944,0.80013684,0.3434278499999999,-3.98238115,,,
imu,344.607088,0.04246884880000001,-9.7337405144,1.7932620944,0.91229049,0.3284740299999998,-3.98985806,,,
imu,344.615563,0.0281131816,-9.7331423616,1.7872805664,1.10669015,0.3808123999999999,-4.15435008,,,
imu,344.624038,0.0317020984,-9.758862932000001,1.800439928,1.30108981,0.4630584099999999,-4.22911918,,,
imu,344.632513,0.0370854736,-9.790565030400002,1.7753175104,1.40576655,0.5153967799999997,-4.28145755,,,
imu,344.640988,0.0406743904,-9.786377960800001,1.7801027328,1.39828964,0.5527813299999997,-4.27398064,,,
imu,344.649463,0.0161501256,-9.76484446,1.7657470656,1.23379762,0.6798887999999996,-4.41604193,,,
imu,344.657938,0.0143556672,-9.7744149048,1.7741212048,1.30856672,0.7172733499999997,-4.692687599999999,,,
imu,344.666413,0.0257205704,-9.801929933600002,1.7812990384,1.41324346,0.76213481,-4.887087259999999,,,
imu,344.674888,0.03588916800000001,-9.815687448000002,1.7830934968,1.25622835,0.6724118899999998,-5.0665331,,,
imu,344.683363,0.0263187232,-9.815687448000002,1.7723267464,0.9571519499999999,0.78456554,-5.03662546,,,
imu,344.691838,0.0257205704,-9.810304072800001,1.7723267464,0.6954601,0.6798887999999996,-5.05157928,,,
imu,344.700313,0.03110394560000001,-9.785181655200002,1.7603636904,0.29918387,0.4107200399999997,-5.14877911,,,
imu,344.708788,0.0137575144,-9.780396432800002,1.7597655376,0.34404533,0.3733354899999997,-4.8422258,,,
imu,344.717263,0.0065796808,-9.767835224,1.7513913984,0.3963837,0.3957662200000001,-4.67773378,,,
imu,344.725727,0.008972292000000002,-9.746899876,1.7591673848,0.20946095,0.2312741999999997,-4.625395409999999,,,
imu,344.73419,0.0143556672,-9.758862932000001,1.7753175104,0.23189168,0.01444380999999995,-4.42351884,,,
imu,344.742654,0.008374139200000002,-9.803126239200001,1.782495344,0.35899915,0.006966899999999665,-4.25154991,,,
imu,344.751117,0.0005981528000000001,-9.8144911424,1.7818971912,0.35152224,-0.1425713000000002,-4.02724261,,,
imu,344.759581,-0.0173464312,-9.807313308800001,1.7812990384,0.09730729999999999,-0.2995864100000003,-4.034719519999999,,,
imu,344.768044,-0.0233279592,-9.811500378400002,1.7818971912,0.08235347999999998,-0.4640784300000003,-3.96742733,,,
imu,344.776508,-0.0221316536,-9.8234634344,1.7890750248,0.04496892999999999,-0.2771556799999999,-3.68330475,,,
imu,344.784971,-0.0317020984,-9.827650504000003,1.7771119688,-0.127,-0.09023292999999999,-3.55619728,,,
imu,344.793435,-0.0197390424,-9.8168837536,1.7807008856,-0.16438455,-0.09770984000000027,-3.59358183,,,
imu,344.801899,-0.0053833752,-9.8013317808,1.7747193576,-0.13447691,-0.02294074000000013,-3.72816621,,,
imu,344.810362,-0.0191408896,-9.776807516000002,1.7842898024,-0.24663056,0.09668981999999993,-3.93004278,,,
imu,344.818826,-0.026916876,-9.7570684736,1.7812990384,-0.51579932,0.04435144999999974,-4.18425772,,,
imu,344.827289,-0.04007623760000001,-9.758264779200001,1.7860842608,-0.65786061,0.2312741999999997,-4.37865738,,,
imu,344.835753,-0.06041343280000001,-9.740918348000001,1.782495344,-0.68029134,0.4331507699999997,-4.670256869999999,,,
imu,344.844216,-0.06400234960000001,-9.7265626808,1.782495344,-0.7999219,0.5153967799999997,-4.759979789999999,,,
imu,344.85268,-0.06041343280000001,-9.7474980288,1.7902713304,-0.85973718,0.6125966099999998,-4.6179185,,,
imu,344.861143,-0.07118018320000001,-9.745703570400002,1.7962528584,-0.77001426,0.9565344699999998,-4.46090339,,,
imu,344.869607,-0.0903210728,-9.7301515976,1.803430692,-0.65786061,1.13598031,-4.318842099999999,,,
imu,344.87807,-0.101685976,-9.7325442088,1.8088140672,-0.79244499,1.31542615,-4.27398064,,,
imu,344.886534,-0.0903210728,-9.743310959200002,1.8135992896,-0.76253735,1.59207182,-4.06462716,,,
imu,344.894997,-0.09450814240000002,-9.752881404000002,1.8219734288,-0.91207555,1.78647148,-4.19921154,,,
imu,344.903461,-0.08733030880000002,-9.721179305600002,1.833338332,-1.03170611,1.89114822,-4.15435008,,,
imu,344.911925,-0.09211553120000002,-9.7074217912,1.8369272488,-0.88964482,1.98834805,-4.079580979999999,,,
imu,344.920367,-0.08912476720000001,-9.7265626808,1.8518810688,-0.8821679099999999,2.20517844,-4.012288789999999,,,
imu,344.928829,-0.0861340032,-9.7504887928,1.860255208,-1.03170611,2.15284007,-4.0945348,,,
imu,344.937292,-0.08314323920000001,-9.755274015200001,1.8584607496,-0.8522602699999999,2.33228591,-4.04219643,,,
imu,344.945754,-0.08673215600000002,-9.748096181600001,1.860255208,-0.71767589,2.54163939,-4.04967334,,,
imu,344.954216,-0.08493769760000001,-9.773816752000002,1.8716201112,-0.69524516,2.59397776,-3.96742733,,,
imu,344.962679,-0.06519865520000001,-9.797742864000002,1.878199792,-0.5756146,2.72856214,-3.90013514,,,
imu,344.971141,-0.06101158560000001,-9.803724392000001,1.875209028,-0.5681376899999999,2.78090051,-3.90013514,,,
imu,344.979603,-0.04246884880000001,-9.8013317808,1.8805924032,-0.81487572,2.78090051,-3.83284295,,,
imu,344.988065,-0.0442633072,-9.8013317808,1.8883683896,-0.9793677399999999,2.72856214,-3.78050458,,,
imu,344.996528,-0.0245242648,-9.8049206976,1.8823868616,-1.08404448,2.65379304,-3.7954584,,,
imu,345.00499,-0.008972292000000002,-9.805518850400002,1.8865739312,-1.13638285,2.56407012,-3.93004278,,,
imu,345.013452,-0.009570444800000001,-9.797742864000002,1.875209028,-1.14385976,2.5491163,-3.80293531,,,
imu,345.021914,-0.004785222400000001,-9.773816752000002,1.8943499176,-1.12142903,2.51173175,-3.90761205,,,
imu,345.030377,-0.008374139200000002,-9.792957641600001,1.9099018904,-1.12890594,2.31733209,-4.02724261,,,
imu,345.038839,-0.003588916800000001,-9.8013317808,1.8985369872,-1.06909066,2.22013226,-4.15435008,,,
imu,345.047301,0.0017944584,-9.746899876,1.9015277512,-1.15881358,2.07807097,-4.124442439999999,,,
imu,345.055763,-0.003588916800000001,-9.724768222400002,1.9188741824,-1.39059779,2.07059406,-4.10948862,,,
imu,345.064226,0.0143556672,-9.730749750400001,1.9128926544,-1.26349032,2.0257326,-3.83284295,,,
imu,345.072688,0.0203371952,-9.743310959200002,1.9176778768,-1.06161375,1.94348659,-3.84031986,,,
imu,345.08115,0.0257205704,-9.728955292000002,1.923061252,-1.16629049,1.77151766,-3.93751969,,,
imu,345.089613,0.04007623760000001,-9.7474980288,1.9206686408,-1.09152139,1.62945637,-4.04219643,,,
imu,345.098075,0.0382817792,-9.7331423616,1.9134908072,-0.8522602699999999,1.33037997,-4.15435008,,,
imu,345.106537,0.0215335008,-9.6984494992,1.9027240568,-0.84478336,1.22570323,-4.16182699,,,
imu,345.114999,0.005981528000000001,-9.665551095200001,1.902125904,-0.94198319,0.9415806499999997,-4.26650373,,,
imu,345.123462,-0.005981528000000001,-9.6667474008,1.902125904,-0.80739881,0.7546578999999998,-4.25902682,,,
imu,345.132099,-0.011963056,-9.669140012000002,1.890162848,-0.62047606,0.4630584099999999,-4.34874974,,,
imu,345.140737,-0.0340947096,-9.654784344800001,1.890162848,-0.43355331,0.44062768,-4.20668845,,,
imu,345.149375,-0.04187069600000001,-9.657176956,1.9057148208,-0.26906129,0.41819695,-3.93004278,,,
imu,345.158013,-0.05861897440000001,-9.672130776000001,1.9039203624,-0.02980017,0.33595094,-3.7206893,,,
imu,345.16665,-0.06460050240000001,-9.679308609600001,1.9033222096,-0.08213854000000001,0.2686587499999997,-3.77302767,,,
imu,345.175288,-0.07955432240000002,-9.692467971200001,1.9194723352,-0.05970781,0.29856639,-3.68330475,,,
imu,345.183926,-0.07656355840000001,-9.683495679200002,1.9176778768,0.17955331,0.5079198699999998,-3.46647436,,,
imu,345.192564,-0.1004896704,-9.686486443200002,1.9284446272,0.25432241,0.5752120599999997,-3.43656672,,,
imu,345.201201,-0.09151737840000002,-9.669738164800002,1.9242575576,0.29170696,0.7770886299999997,-3.44404363,,,
imu,345.209839,-0.08972292000000001,-9.664952942400001,1.9314353912,0.3739529699999999,1.00139593,-3.54124346,,,
imu,345.218477,-0.09630260080000001,-9.672728928800002,1.9356224608,0.56087572,1.30794924,-3.40665908,,,
imu,345.227115,-0.1052748928,-9.682299373600001,1.9493799752,0.67302937,1.45001053,-3.48142818,,,
imu,345.235752,-0.08314323920000001,-9.713403319200001,1.9523707392,0.66555246,1.80890221,-3.54124346,,,
imu,345.24439,-0.06699311360000001,-9.7474980288,1.9463892112,0.80761375,2.08554788,-3.51881273,,,
imu,345.253028,-0.05742266880000001,-9.748096181600001,1.9433984472,0.9048135799999999,2.29490136,-3.58610492,,,
imu,345.261666,-0.0406743904,-9.752283251200002,1.9439966,0.8749059399999999,2.63136231,-3.63096638,,,
imu,345.270303,-0.0215335008,-9.758264779200001,1.9392113776,0.80761375,2.8481927,-3.90761205,,,
imu,345.278941,0.0011963056,-9.7821908912,1.938015072,0.66555246,2.78090051,-4.25902682,,,
imu,345.287579,0.0155519728,-9.773218599200002,1.9272483216,0.49358353,2.88557725,-4.51324176,,,
imu,345.296217,0.0113649032,-9.772620446400001,1.9152852656,0.31413769,2.86314652,-4.625395409999999,,,
imu,345.304854,0.0197390424,-9.766040765600001,1.9009295984,0.3889067899999999,2.90800798,-4.63287232,,,
imu,345.313492,0.0281131816,-9.777405668800002,1.9116963488,0.3889067899999999,2.88557725,-4.70016451,,,
imu,345.32213,0.04127254320000001,-9.766040765600001,1.8967425288,0.34404533,2.71360832,-4.931948719999999,,,
imu,344.100025,,,,,,,81.06800439999999,-43.03651400000001,118.940868
imu,344.201557,,,,,,,83.5582732,-43.47597320000001,116.7924008
imu,344.30312,,,,,,,80.78723880000001,-42.41394680000001,119.1117688
imu,344.404774,,,,,,,81.9469228,-43.36610840000002,116.255284
imu,344.506245,,,,,,,80.7017884,-42.34070360000002,118.8310032
imu,345.330768,0.0340947096,-9.743909112,1.9015277512,0.30666078,2.60145467,-4.954379449999999,,,
imu,345.339408,0.03349655680000001,-9.7504887928,1.9063129736,0.47862971,2.54163939,-4.887087259999999,,,
imu,345.348048,0.03349655680000001,-9.755274015200001,1.9242575576,0.45619898,2.29490136,-5.044102369999999,,,
imu,345.356689,0.026916876,-9.7504887928,1.9236594048,0.44872207,2.03320951,-5.044102369999999,,,
imu,345.365329,0.0167482784,-9.749890640000002,1.9356224608,0.32909151,1.77151766,-4.887087259999999,,,
imu,345.37397,0.0131593616,-9.752881404000002,1.9326316968,0.36647606,1.47991817,-4.78988743,,,
imu,345.38261,-0.0113649032,-9.7540777096,1.9356224608,0.14964567,1.11354958,-4.86465653,,,
imu,345.391251,-0.017944584,-9.7361331256,1.941005836,0.05992275,0.8518577299999999,-4.77493361,,,
imu,345.399891,-0.0161501256,-9.7295534448,1.9583522672,0.03001510999999998,0.7770886299999997,-4.52819558,,,
imu,345.408532,-0.03588916800000001,-9.7325442088,1.9463892112,-0.05970781,0.5453044199999999,-4.408565019999999,,,
imu,345.417172,-0.06101158560000001,-9.7265626808,1.938015072,0.02253820000000001,0.3209971199999999,-4.408565019999999,,,
imu,345.425813,-0.06699311360000001,-9.718188541600002,1.9302390856,0.08235347999999998,0.2088434699999997,-4.07210407,,,
imu,345.434453,-0.0933118368,-9.709814402400001,1.9487818224,0.26927623,0.21632038,-3.92256587,,,
imu,345.443093,-0.1070693512,-9.7086180968,1.9416039888,0.36647606,0.2537049300000001,-3.81788913,,,
imu,345.451734,-0.113649032,-9.711608860800002,1.9445947528,0.42629134,0.2387511099999999,-3.83284295,,,
imu,345.460374,-0.1178361016,-9.7163940832,1.9374169192,0.44872207,0.1191205499999999,-3.78050458,,,
imu,345.469015,-0.1339862272,-9.727160833600001,1.9493799752,0.50853735,0.2537049300000001,-3.69825857,,,
imu,345.477655,-0.140565908,-9.725366375200002,1.9422021416,0.52349117,0.33595094,-3.80293531,,,
imu,345.486296,-0.1411640608,-9.7361331256,1.9517725864,0.5459219,0.4032431299999999,-3.73564312,,,
imu,345.494936,-0.1483418944,-9.742114653600002,1.9565578088,0.71789083,0.5079198699999998,-3.61601256,,,
imu,345.503577,-0.1423603664,-9.748694334400001,1.9577541144,0.56087572,0.5453044199999999,-3.68330475,,,
imu,345.512217,-0.1357806856,-9.755274015200001,1.9541651976,0.6281679099999999,0.6125966099999998,-3.69825857,,,
imu,345.520858,-0.1495382,-9.746301723200002,1.9715116288,0.56087572,0.8518577299999999,-3.57862801,,,
imu,345.529498,-0.1567160336,-9.755872168000002,1.9751005456,0.40386061,0.84438082,-3.67582784,,,
imu,345.537973,-0.1632957144,-9.7570684736,1.9673245592,0.42629134,0.9341037399999998,-3.62348947,,,
imu,345.546448,-0.1597067976,-9.768433376800001,1.9780913096,0.33656842,1.11354958,-3.57862801,,,
imu,345.554923,-0.152528964,-9.752881404000002,1.9523707392,0.29918387,1.15841104,-3.45899745,,,
imu,345.563398,-0.140565908,-9.723571916800001,1.9481836696,0.28423005,1.18831868,-3.3468438,,,
imu,345.571873,-0.1321917688,-9.728955292000002,1.95895042,0.23189168,1.30047233,-3.24216706,,,
imu,345.580348,-0.1441548248,-9.745703570400002,1.9517725864,0.18703022,1.3528107,-3.20478251,,,
imu,345.588823,-0.1537252696,-9.7283571392,1.9445947528,0.26179932,1.30047233,-3.28702852,,,
imu,345.597298,-0.1351825328,-9.6954587352,1.938015072,0.12721494,1.44253362,-3.28702852,,,
imu,345.605773,-0.1321917688,-9.696056888000001,1.9661282536,0.29170696,1.56964109,-3.21973633,,,
imu,345.614248,-0.122621324,-9.7474980288,1.9870636016,0.26927623,1.62945637,-3.22721324,,,
imu,345.622723,-0.1262102408,-9.760059237600002,1.9655301008,0.17955331,1.62945637,-3.33188998,,,
imu,345.631198,-0.1327899216,-9.731946056000002,1.9703153232,0.17955331,1.68927165,-3.4216129,,,
imu,345.639673,-0.1339862272,-9.724170069600001,1.982876532,0.20198404,1.96591732,-3.31693616,,,
imu,345.648148,-0.1208268656,-9.751685098400001,1.9733060872,0.35899915,2.03320951,-3.23469015,,,
imu,345.656623,-0.107667504,-9.7744149048,1.979885768,0.3963837,2.16779389,-3.07767504,,,
imu,345.665098,-0.08852661440000001,-9.770825988000002,1.97390424,0.57582954,2.42948574,-3.06272122,,,
imu,345.673573,-0.06579680800000001,-9.765442612800001,1.9517725864,0.56087572,2.57154703,-3.2720747,,,
imu,345.682048,-0.0526374464,-9.7427128064,1.946987364,0.56835263,2.61640849,-3.36179762,,,
imu,345.690523,-0.05383375200000001,-9.7265626808,1.9308372384,0.65059864,2.57154703,-3.5711511,,,
imu,345.698998,-0.06460050240000001,-9.719983000000001,1.9146871128,0.67302937,2.51920866,-3.75807385,,,
imu,345.707473,-0.07118018320000001,-9.711608860800002,1.9003314456,0.9347212199999999,2.54163939,-3.99733497,,,
imu,345.715948,-0.062806044,-9.718786694400002,1.905116668,1.03192105,2.59397776,-4.012288789999999,,,
imu,345.724423,-0.05682451600000001,-9.746301723200002,1.9003314456,1.15155161,2.7734236,-3.7206893,,,
imu,345.732898,-0.0376836264,-9.779798280000001,1.9057148208,1.22632071,2.71360832,-3.77302767,,,
imu,345.741371,-0.023926112,-9.773218599200002,1.9176778768,1.38333582,2.71360832,-3.61601256,,,
imu,345.749845,-0.026916876,-9.783985349600002,1.9063129736,1.28613599,2.66126995,-3.57862801,,,
imu,345.758319,-0.0197390424,-9.800135475200001,1.905116668,1.17398234,2.40705501,-3.63096638,,,
imu,345.766793,-0.03349655680000001,-9.800733628000001,1.9009295984,0.94967504,2.45939338,-3.75059694,,,
imu,345.775266,-0.03289840400000001,-9.7911631832,1.8955462232,0.82256757,2.30237827,-3.67582784,,,
imu,345.78374,-0.0251224176,-9.8013317808,1.8955462232,0.56835263,2.16779389,-3.81041222,,,
imu,345.792214,-0.03349655680000001,-9.783985349600002,1.89913514,0.35152224,2.13788625,-3.88518132,,,
imu,345.800687,-0.0233279592,-9.779200127200001,1.8829850144,0.3739529699999999,2.21265535,-3.85527368,,,
imu,345.809161,-0.0376836264,-9.765442612800001,1.890162848,0.2468455,2.10797861,-3.84779677,,,
imu,345.817635,-0.0442633072,-9.756470320800002,1.8859757784,0.1720764,2.00330187,-3.87770441,,,
imu,345.826109,-0.04486146000000001,-9.786976113600002,1.8746108752,0.22441477,2.09302479,-3.86275059,,,
imu,345.834582,-0.04605776560000001,-9.7995373224,1.8865739312,0.36647606,2.18274771,-3.78798149,,,
imu,345.843056,-0.03947808480000001,-9.792957641600001,1.8895646952,0.50853735,2.23508608,-3.62348947,,,
imu,345.85153,-0.04007623760000001,-9.790565030400002,1.8985369872,0.68050628,2.45191647,-3.48890509,,,
imu,345.860003,-0.0466559184,-9.796546558400001,1.8979388344,0.5982602699999999,2.36967046,-3.43656672,,,
imu,345.868477,-0.03947808480000001,-9.8049206976,1.9134908072,0.51601426,2.33228591,-3.56367419,,,
imu,345.876951,-0.0323002512,-9.824061587200001,1.9105000432,0.36647606,2.27994754,-3.63096638,,,
imu,345.885425,-0.0227298064,-9.812098531200002,1.9164815712,0.21693786,2.25751681,-3.60853565,,,
imu,345.893898,-0.02990764000000001,-9.794752100000002,1.911098196,-0.07466163,2.25751681,-3.52628964,,,
imu,345.902372,-0.03588916800000001,-9.7995373224,1.9326316968,-0.45598404,2.01077878,-3.81041222,,,
imu,345.910846,-0.0245242648,-9.805518850400002,1.9105000432,-0.6503837,1.95844041,-3.90013514,,,
imu,345.919319,-0.0281131816,-9.7702278352,1.9194723352,-0.9793677399999999,1.73413311,-4.00481188,,,
imu,345.927793,-0.0550300576,-9.734338667200001,1.9206686408,-1.10647521,1.8014253,-3.81041222,,,
imu,345.936267,-0.05084298800000001,-9.737927584000001,1.9158834184,-1.15881358,1.83133294,-3.63844329,,,
imu,345.944718,-0.0466559184,-9.743310959200002,1.9116963488,-1.12890594,1.93600968,-3.47395127,,,
imu,345.953168,-0.04605776560000001,-9.7786019744,1.9278464744,-1.11395212,1.93600968,-3.59358183,,,
imu,345.961619,-0.0406743904,-9.8043225448,1.9547633504,-1.18124431,1.85376367,-3.75807385,,,
imu,345.97007,-0.0263187232,-9.8043225448,1.9631374896,-1.40555161,1.82385603,-3.73564312,,,
imu,345.978521,-0.0376836264,-9.789368724800001,1.9924469768,-1.75696638,1.66684092,-3.86275059,,,
imu,345.986972,-0.04845037680000001,-9.793555794400001,2.0121860192,-2.06351969,1.49487199,-3.80293531,,,
imu,345.995423,-0.06460050240000001,-9.7606573904,2.00381188,-2.54951884,1.39019525,-3.93751969,,,
imu,346.003873,-0.08852661440000001,-9.721179305600002,2.0349158256,-2.77382614,1.30794924,-3.95247351,,,
imu,344.607681,,,,,,,80.9581396,-42.36511800000002,119.307084
imu,344.709213,,,,,,,81.08021160000001,-42.27966760000002,119.5634352
imu,344.810776,,,,,,,80.6895812,-42.64588360000001,119.2704624
imu,344.912338,,,,,,,81.165662,-42.2308388,119.5878496
imu,345.013901,,,,,,,80.860482,-42.30408200000002,120.1127592
imu,345.115463,,,,,,,82.996742,-42.30408200000002,119.3559128
imu,345.217026,,,,,,,81.6417428,-42.27966760000002,120.0639304
imu,345.318588,,,,,,,83.02115640000001,-42.43836120000002,117.5614544
imu,346.012189,-0.09869521200000002,-9.689477207200001,2.0379065896,-2.87102597,1.26308778,-3.90761205,,,
imu,346.020639,-0.1028822816,-9.6505972752,2.0444862704,-2.82616451,1.36028761,-3.72816621,,,
imu,346.02909,-0.1178361016,-9.636241608,2.0642253128,-2.63924176,1.53973345,-3.48142818,,,
imu,346.037541,-0.1327899216,-9.635643455200002,2.0899458832,-2.47474974,1.67431783,-3.33188998,,,
imu,346.045992,-0.1297991576,-9.631456385600002,2.0959274112,-2.16071952,1.75656384,-3.21225942,,,
imu,346.054443,-0.1232194768,-9.645213900000002,2.1132738424,-1.81678166,2.06311715,-2.83093701,,,
imu,346.062894,-0.1160416432,-9.666149248000002,2.141387024,-1.622382,2.13788625,-2.58419898,,,
imu,346.071344,-0.1064711984,-9.6703363176,2.1419851768,-1.51770526,2.15284007,-2.57672207,,,
imu,346.079795,-0.1148453376,-9.6470083584,2.1599297608,-1.35321324,2.2500399,-2.59167589,,,
imu,346.088246,-0.101685976,-9.657775108800001,2.178472497600001,-1.15881358,2.36967046,-2.51690679,,,
imu,346.096697,-0.0933118368,-9.685888290400001,2.1946226232,-1.21862886,2.37714737,-2.63653735,,,
imu,346.105148,-0.092713684,-9.697253193600002,2.195220776,-1.34573633,2.45939338,-2.68139881,,,
imu,346.113598,-0.1088638096,-9.6942624296,2.1934263176,-1.53265908,2.40705501,-2.6739219,,,
imu,346.122049,-0.1130508792,-9.6643547896,2.1790706504,-1.61490509,2.39210119,-2.80102937,,,
imu,346.1305,-0.113649032,-9.6535880392,2.2006041512,-1.51022835,2.57902394,-2.80850628,,,
imu,346.138951,-0.1028822816,-9.633250844,2.177276192,-1.3980747,2.71360832,-2.86084465,,,
imu,346.147417,-0.1082656568,-9.6296619272,2.1886410952,-1.24105959,2.88557725,-2.75616791,,,
imu,346.155883,-0.1022841288,-9.644615747200001,2.19821154,-1.06161375,3.08745382,-2.64401426,,,
imu,346.164349,-0.0855358504,-9.6637566368,2.1994078456,-0.95693701,3.05754618,-2.79355246,,,
imu,346.172815,-0.062806044,-9.673925234400002,2.1946226232,-0.874691,3.22951511,-2.73373718,,,
imu,346.181281,-0.06101158560000001,-9.678710456800001,2.2035949152,-0.79244499,3.34166876,-2.62158353,,,
imu,346.189747,-0.0550300576,-9.690673512800002,2.2125672072,-0.7251528,3.34166876,-2.91318302,,,
imu,346.198214,-0.0532355992,-9.689477207200001,2.2059875264,-0.63542988,3.4463455,-2.96552139,,,
imu,346.20668,-0.03588916800000001,-9.704431027200002,2.219146888,-0.58309151,3.5211146,-2.91318302,,,
imu,346.215146,-0.02990764000000001,-9.697253193600002,2.2269228744,-0.53823005,3.57345297,-3.07019813,,,
imu,346.223612,-0.0245242648,-9.690075360000002,2.2059875264,-0.47841477,3.55102224,-3.09262886,,,
imu,346.232078,-0.0257205704,-9.6733270816,2.2137635128,-0.47841477,3.65569898,-3.10758268,,,
imu,346.240544,-0.01495382,-9.661962178400001,2.201202304,-0.32887657,3.58840679,-2.95804448,,,
imu,346.24901,-0.0017944584,-9.661962178400001,2.1928281648,-0.38869185,3.58840679,-3.04029049,,,
imu,346.257476,0.0005981528000000001,-9.672130776000001,2.1994078456,-0.41112258,3.46877623,-3.02533667,,,
imu,346.265942,0.002990764,-9.648802816800002,2.208978290400001,-0.26158438,3.46129932,-2.92813684,,,
imu,346.274408,0.0011963056,-9.647606511200001,2.19821154,-0.15690764,3.32671494,-3.07019813,,,
imu,346.282874,0.0125612088,-9.667345553600002,2.2035949152,-0.23167674,3.28185348,-3.15992105,,,
imu,346.29134,0.0125612088,-9.6637566368,2.191631859200001,-0.16438455,3.30428421,-3.1225365,,,
imu,346.299807,0.011963056,-9.641026830400001,2.188042942400001,0.12721494,3.15474601,-3.08515195,,,
imu,346.308273,0.0053833752,-9.661962178400001,2.192230012,0.19450713,3.17717674,-3.01785976,,,
imu,346.316739,0.0203371952,-9.657176956,2.1760798864,0.29170696,3.02763854,-3.10758268,,,
imu,346.325205,0.0263187232,-9.656578803200002,2.1838558728,0.4711528,2.98277708,-3.10010577,,,
imu,346.333671,0.0251224176,-9.659569567200002,2.170696511200001,0.83004448,2.98277708,-3.14496723,,,
imu,346.342137,0.017944584,-9.6667474008,2.1814632616,1.03192105,3.00520781,-3.15992105,,,
imu,346.351014,0.0203371952,-9.693664276800002,2.1814632616,0.97958268,2.88557725,-3.14496723,,,
imu,346.35989,0.0293094872,-9.700243957600001,2.1808651088,1.08425942,3.09493073,-3.04029049,,,
imu,346.368767,0.0352910152,-9.708019944000002,2.1689020528,1.1440747,3.1472691,-3.05524431,,,
imu,346.377644,0.0430670016,-9.70502918,2.162322372,1.12912088,3.16969983,-3.10758268,,,
imu,346.38652,0.0592171272,-9.671532623200001,2.1485648576,1.08425942,3.25194584,-3.13001341,,,
imu,346.395397,0.06041343280000001,-9.645213900000002,2.141387024,1.03939796,3.28933039,-3.05524431,,,
imu,346.404273,0.0753672528,-9.635045302400002,2.132414732,1.09921324,3.16222292,-3.1973056,,,
imu,346.41315,0.07716171120000001,-9.646410205600002,2.1377981072,1.24127453,3.13231528,-3.35432071,,,
imu,346.422027,0.0980970592,-9.666149248000002,2.1371999544,1.33847436,2.95286944,-3.53376655,,,
imu,346.430903,0.0933118368,-9.676317845600002,2.1395925656,1.26370526,2.76594669,-3.58610492,,,
imu,346.43978,0.08972292000000001,-9.706823638400001,2.1641168304,1.27118217,2.50425484,-3.61601256,,,
imu,346.448657,0.0903210728,-9.756470320800002,2.1760798864,1.40576655,2.49677793,-3.65339711,,,
imu,346.457533,0.08433954480000001,-9.766040765600001,2.1491630104,1.37585891,2.33976282,-3.76555076,,,
imu,346.46641,0.06699311360000001,-9.736731278400002,2.1330128848,1.03939796,2.25751681,-3.87770441,,,
imu,346.475287,0.05861897440000001,-9.720581152800001,2.13839626,1.03192105,2.16779389,-3.75807385,,,
imu,346.484163,0.06699311360000001,-9.7325442088,2.1371999544,1.07678251,2.12293243,-3.42908981,,,
imu,346.49304,0.06519865520000001,-9.745105417600001,2.1288258152,1.19641307,2.08554788,-3.2720747,,,
imu,346.501916,0.07058203040000001,-9.7534795568,2.1330128848,1.01696723,1.89862513,-3.30945925,,,
imu,346.510793,0.0783580168,-9.759461084800002,2.1168627592,0.85995212,1.71917929,-3.28702852,,,
imu,346.51967,0.0675912664,-9.731946056000002,2.120451676000001,0.60573718,1.49487199,-3.54872037,,,
imu,346.528546,0.06220789120000001,-9.722973764,2.1019089392,0.65059864,1.43505671,-3.59358183,,,
imu,346.537423,0.05742266880000001,-9.709814402400001,2.105497856,0.52349117,1.22570323,-3.66087402,,,
imu,346.5463,0.0323002512,-9.685290137600001,2.1078904672,0.6132140899999999,1.11354958,-3.54124346,,,
imu,346.554724,0.0143556672,-9.6643547896,2.1186572176,0.49358353,1.13598031,-3.56367419,,,
imu,346.563148,0.0143556672,-9.619493329600001,2.1078904672,0.3216146,0.98644211,-3.69078166,,,
imu,346.571572,0.0137575144,-9.595567217600001,2.1162646064,0.620691,1.12102649,-3.7206893,,,
imu,346.579996,0.0293094872,-9.6260730104,2.1150683008,0.8375213899999999,1.01634975,-3.82536604,,,
imu,346.58842,0.0317020984,-9.654784344800001,2.1306202736,0.97210577,1.18831868,-3.68330475,,,
imu,346.596844,0.01495382,-9.685888290400001,2.1371999544,1.18145925,1.21074941,-3.71321239,,,
imu,346.605268,0.0017944584,-9.7301515976,2.162322372,1.00949032,1.24065705,-3.75059694,,,
imu,346.613693,0.0155519728,-9.748694334400001,2.1760798864,1.05435178,1.30047233,-3.6459202,,,
imu,346.622117,0.0221316536,-9.759461084800002,2.1605279136,0.8973366700000001,1.31542615,-3.84031986,,,
imu,346.630541,0.0131593616,-9.767835224,2.1581353024,0.620691,1.24065705,-4.16182699,,,
imu,346.638965,0.0215335008,-9.746301723200002,2.156340844,0.49358353,1.39767216,-4.169303899999999,,,
imu,346.647389,0.0173464312,-9.727758986400001,2.1455740936,0.43376825,1.40514907,-4.18425772,,,
imu,346.655813,0.0101685976,-9.723571916800001,2.1551445384,0.33656842,1.25561087,-4.25902682,,,
imu,346.664237,0.0065796808,-9.734338667200001,2.1467703992,0.4711528,1.15093413,-4.25902682,,,
imu,346.672661,0.0227298064,-9.745703570400002,2.1641168304,0.52349117,1.21822632,-4.27398064,,,
imu,346.681086,0.0263187232,-9.7780038216,2.162322372,0.58330645,1.30047233,-4.20668845,,,
imu,346.68951,0.03648732080000001,-9.803126239200001,2.1778743448,0.71789083,1.45001053,-4.17678081,,,
imu,346.697934,0.04605776560000001,-9.831239420800001,2.186248484,0.77770611,1.2780416,-4.25902682,,,
imu,346.706358,0.04785222400000001,-9.8270523512,2.1754817336,0.7403215599999999,1.1285034,-4.46090339,,,
imu,346.714782,0.0592171272,-9.803724392000001,2.1910337064,0.6132140899999999,1.19579559,-4.25902682,,,
imu,346.723206,0.06519865520000001,-9.830641268,2.19821154,0.58330645,0.92662683,-4.46090339,,,
imu,346.73163,0.05443190480000001,-9.831239420800001,2.1718928168,0.57582954,0.6275504299999999,-4.74502597,,,
imu,346.740054,0.0634041968,-9.764246307200002,2.1485648576,0.38142988,0.4481045899999998,-4.86465653,,,
imu,346.748479,0.04785222400000001,-9.711010708000002,2.159331608,0.29170696,0.3733354899999997,-5.08896383,,,
imu,346.756938,0.0340947096,-9.724170069600001,2.1856503312,0.52349117,0.41819695,-5.13382529,,,
imu,346.765398,0.0370854736,-9.7714241408,2.207183832,0.3963837,0.2611818399999999,-5.12634838,,,
imu,346.773858,0.02871133440000001,-9.798341016800002,2.207183832,0.27675314,0.29856639,-5.00671782,,,
imu,346.782317,0.0155519728,-9.797144711200001,2.2137635128,0.13469185,0.3284740299999998,-5.1413022,,,
imu,346.790777,0.0053833752,-9.758862932000001,2.2275210272,0.09730729999999999,0.1864127399999997,-5.305794219999999,,,
imu,346.799237,-0.008972292000000002,-9.7122070136,2.219146888,-0.007369440000000005,-0.1276174800000001,-5.48524006,,,
imu,346.807697,-0.06220789120000001,-9.656578803200002,2.2179505824,0.05244583999999999,-0.4865091600000002,-5.86656247,,,
imu,346.816156,-0.1112564208,-9.6296619272,2.2059875264,0.12721494,-0.7781086500000001,-6.113300499999999,,,
imu,346.824616,-0.1417622136,-9.565061424800001,2.186248484,0.3216146,-0.8454008399999999,-6.031054489999999,,,
imu,345.421066,,,,,,,80.6407524,-41.91345160000002,120.4179392
imu,345.521713,,,,,,,83.0333636,-42.20642440000002,117.8300128
imu,345.623489,,,,,,,81.53187799999999,-41.80358680000003,121.138164
imu,345.724869,,,,,,,80.75061720000001,-41.74255080000002,120.6254616
imu,345.826401,,,,,,,81.55629239999999,-41.30309160000001,120.527804
imu,345.927994,,,,,,,81.104626,-41.33971320000001,121.1015424
imu,346.029526,,,,,,,81.1290404,-41.29088440000002,121.4189296
imu,346.131088,,,,,,,82.9723276,-40.52183080000002,121.4921728
imu,346.833076,-0.182436604,-9.522592576000001,2.1581353024,0.47862971,-1.01736977,-5.83665483,,,
imu,346.841536,-0.2219146888,-9.499862769600002,2.1449759408,0.7104139199999999,-0.8902623000000003,-5.38804023,,,
imu,346.849995,-0.2410555784,-9.4843107968,2.1282276624,1.1440747,-0.7930624700000002,-4.70764142,,,
imu,346.858455,-0.2578038568000001,-9.487899713600001,2.1168627592,1.23379762,-0.6360473600000001,-4.10948862,,,
imu,346.866915,-0.2691687600000001,-9.499862769600002,2.1037033976,1.33847436,-0.2397711300000003,-3.31693616,,,
imu,346.875374,-0.2595983152,-9.513022131200001,2.0983200224,1.35342818,0.1265974599999997,-2.62158353,,,
imu,346.883834,-0.2619909264,-9.5184055064,2.0899458832,1.27118217,0.4256738599999998,-2.17296893,,,
imu,346.892294,-0.2428500368,-9.551902063200002,2.089347730400001,1.53287402,0.8518577299999999,-1.84398489,,,
imu,346.900754,-0.2135405496,-9.614708107200002,2.0959274112,1.58521239,1.32290306,-1.61220068,,,
imu,346.909213,-0.1926052016,-9.658373261600001,2.096525564,1.63007385,1.90610204,-1.58976995,,,
imu,346.917673,-0.1722680064,-9.6918698184,2.1228442872,1.68988913,2.28742445,-1.7019236,,,
imu,346.926133,-0.1441548248,-9.748096181600001,2.135405496,1.57773548,2.53416248,-1.93370781,,,
imu,346.934593,-0.1118545736,-9.794153947200002,2.135405496,1.4431511,2.85566961,-2.11315365,,,
imu,346.943052,-0.0813487808,-9.7989391696,2.1407888712,1.15155161,3.12483837,-2.47952224,,,
imu,346.951512,-0.06160973840000001,-9.786976113600002,2.150359316,1.06182869,3.24446893,-2.8234601,,,
imu,346.959973,-0.04007623760000001,-9.7570684736,2.1348073432,0.9197674,3.3715764,-3.17487487,,,
imu,346.968434,-0.023926112,-9.7122070136,2.1276295096,0.66555246,3.35662258,-3.61601256,,,
imu,346.976895,-0.0155519728,-9.669140012000002,2.111479384,0.7702292,3.22951511,-3.51133582,,,
imu,346.985356,-0.0017944584,-9.647606511200001,2.0863569664,0.65059864,3.02016163,-3.66835093,,,
imu,346.993817,-0.005981528000000001,-9.599754287200001,2.069608688,0.65807555,2.94539253,-3.60853565,,,
imu,347.002278,0.007177833600000002,-9.592576453600001,2.0654216184,0.67302937,2.57902394,-3.59358183,,,
imu,347.010739,0.011963056,-9.614109954400002,2.0672160768,0.9197674,2.324809,-3.496382,,,
imu,347.0192,0.0197390424,-9.666149248000002,2.07858098,1.15155161,1.97339423,-3.48142818,,,
imu,347.027661,0.020935348,-9.7331423616,2.1019089392,1.30108981,1.52477963,-3.28702852,,,
imu,347.036122,0.0293094872,-9.8330338792,2.1371999544,1.2936129,1.14345722,-3.1973056,,,
imu,347.044583,0.0125612088,-9.923354952,2.1575371496,1.2936129,0.9191499199999997,-3.18235178,,,
imu,347.053044,0.0215335008,-9.973599787200001,2.1868466368,1.1440747,0.8144731799999998,-2.86832156,,,
imu,347.061505,0.0155519728,-9.967618259200002,2.188042942400001,0.78518302,0.70231953,-2.65149117,,,
imu,347.069966,0.004785222400000001,-9.938308772000001,2.205389373600001,0.65807555,0.5901658799999998,-2.54681443,,,
imu,347.078427,-0.009570444800000001,-9.8916528536,2.1928281648,0.5459219,0.62007352,-2.39727623,,,
imu,347.086888,-0.0233279592,-9.8234634344,2.1928281648,0.35152224,0.5901658799999998,-2.36736859,,,
imu,347.095349,-0.0406743904,-9.776807516000002,2.204193068,0.33656842,0.5453044199999999,-2.3748455,,,
imu,347.103692,-0.062806044,-9.743909112,2.1958189288,0.3963837,0.6798887999999996,-2.44213769,,,
imu,347.112153,-0.07058203040000001,-9.703832874400002,2.2023986096,0.42629134,0.8742884599999998,-2.48699915,,,
imu,347.120614,-0.0747691,-9.665551095200001,2.189239248,0.53096808,1.07616503,-2.58419898,,,
imu,347.129075,-0.0903210728,-9.617100718400001,2.165313136,0.52349117,1.26308778,-2.62158353,,,
imu,347.137536,-0.08852661440000001,-9.561472508000001,2.1479667048,0.52349117,1.6518871,-2.65149117,,,
imu,347.145997,-0.1148453376,-9.530368562400001,2.1461722464,0.49358353,1.83880985,-2.60662971,,,
imu,347.154458,-0.1070693512,-9.516012895200001,2.1306202736,0.77770611,2.11545552,-2.51690679,,,
imu,347.162925,-0.113649032,-9.5082369088,2.1258350512,0.9347212199999999,2.42200883,-2.62158353,,,
imu,347.171393,-0.1208268656,-9.519003659200001,2.1198535232,1.05435178,2.75846978,-2.44213769,,,
imu,347.17986,-0.0980970592,-9.550705757600001,2.1198535232,1.37585891,3.10988455,-2.30755331,,,
imu,347.188327,-0.08972292000000001,-9.546518688,2.0977218696,1.54035093,3.57345297,-2.09819983,,,
imu,347.196795,-0.06220789120000001,-9.5172092008,2.111479384,1.63755076,4.05197521,-1.91127708,,,
imu,347.205262,-0.0376836264,-9.537546396000002,2.1156664536,1.80204278,4.35852852,-1.60472377,,,
imu,347.213729,-0.002990764,-9.572239258400002,2.1222461344,1.94410407,4.717420199999999,-1.57481613,,,
imu,347.222197,0.0352910152,-9.590183842400002,2.1282276624,1.83942733,4.75480475,-1.82903107,,,
imu,347.230664,0.04964668240000001,-9.61530626,2.1605279136,1.82447351,4.784712389999999,-1.93370781,,,
imu,347.239131,0.07118018320000001,-9.680504915200002,2.1718928168,1.80951969,4.979112049999999,-2.12063056,,,
imu,347.247599,0.09091922560000001,-9.713403319200001,2.1683039,1.78708896,5.03145042,-2.5243837,,,
imu,347.256066,0.080750628,-9.710412555200001,2.1736872752,1.71231986,5.00901969,-2.87579847,,,
imu,347.264533,0.09690075360000001,-9.689477207200001,2.1700983584,1.62259694,4.96415823,-3.09262886,,,
imu,347.273001,0.101685976,-9.685290137600001,2.1587334552,1.56278166,4.979112049999999,-3.08515195,,,
imu,347.281468,0.1178361016,-9.6954587352,2.171294664,1.68988913,4.91181986,-3.20478251,,,
imu,347.289936,0.1250139352,-9.7217774584,2.164714983200001,1.79456587,4.74732784,-3.24964397,,,
imu,347.298403,0.1495382,-9.724170069600001,2.1449759408,2.03382699,4.6426511,-3.13749032,,,
imu,347.30687,0.1603049504,-9.7122070136,2.147368552000001,2.16093446,4.35105161,-3.30945925,,,
imu,347.315338,0.1513326584,-9.736731278400002,2.1575371496,2.34785721,4.126744309999999,-3.50385891,,,
imu,347.323805,0.1441548248,-9.803126239200001,2.156340844,2.69927198,3.62579134,-3.40665908,,,
imu,347.332272,0.1399677552,-9.824061587200001,2.130022120800001,2.90114855,3.25942275,-3.48890509,,,
imu,347.34074,0.1250139352,-9.80970592,2.112675689600001,2.70674889,2.93791562,-3.54124346,,,
imu,347.349207,0.1130508792,-9.7953502528,2.1150683008,2.67684125,2.70613141,-3.13749032,,,
imu,347.357674,0.1232194768,-9.748096181600001,2.087553272,2.57216451,2.4743472,-2.80102937,,,
imu,347.36649,0.113649032,-9.672130776000001,2.0600382432,2.22074974,2.13040934,-2.53186061,,,
imu,347.375306,0.1172379488,-9.6015487456,2.0205601584,1.84690424,1.92105586,-2.2253073,,,
imu,347.384121,0.1124527264,-9.574631869600001,2.009793408,1.67493531,1.73413311,-1.94118472,,,
imu,347.392937,0.1040785872,-9.583604161600002,1.9882599072,1.50296638,1.38271834,-1.82155416,,,
imu,347.401752,0.09929336480000002,-9.575230022400001,1.9834746848,1.38333582,1.29299542,-1.74678506,,,
imu,347.410568,0.09630260080000001,-9.592576453600001,1.9840728376,1.51044329,1.02382666,-1.73930815,,,
imu,347.419384,0.08374139200000001,-9.641026830400001,1.9876617544,1.68988913,0.7770886299999997,-1.78416961,,,
imu,347.428199,0.07596540560000001,-9.716992236000001,1.9966340464,1.68988913,0.66493498,-2.03090764,,,
imu,347.437015,0.07297464160000001,-9.7702278352,2.0074007968,1.79456587,0.4331507699999997,-2.3000764,,,
imu,347.44583,0.05203929360000001,-9.800733628000001,2.0187657,1.71979677,0.3284740299999998,-2.41970696,,,
imu,347.454646,0.0346928624,-9.838417254400001,2.0414955064,1.7422275,0.4032431299999999,-2.32998404,,,
imu,347.463462,0.0215335008,-9.8593526024,2.0402992008,1.53287402,0.4555814999999996,-2.24026112,,,
imu,347.472277,0.0173464312,-9.831837573600001,2.0373084368,1.18145925,0.5976427899999996,-2.13558438,,,
imu,347.481093,0.009570444800000001,-9.7989391696,2.030728756,0.9646288599999999,0.7471809899999999,-2.10567674,,,
imu,347.489908,0.008374139200000002,-9.737927584000001,2.00381188,0.94967504,0.9714882899999999,-2.12063056,,,
imu,347.498724,0.0065796808,-9.6954587352,2.0133823248,0.94219813,1.15093413,-2.06829219,,,
imu,347.50754,0.0131593616,-9.6643547896,1.9846709904,0.97958268,1.33037997,-1.99352309,,,
imu,347.516355,0.0131593616,-9.6290637744,1.98885806,1.07678251,1.48739508,-2.0757691,,,
imu,347.525171,0.007775986400000001,-9.620689635200002,2.0056063384,1.11416706,1.69674856,-2.04586146,,,
imu,347.533986,0.0293094872,-9.6799067624,2.0199620056,1.5179202,1.88367131,-2.16549202,,,
imu,347.542802,0.0323002512,-9.7265626808,2.0074007968,1.92167334,2.03320951,-2.19539966,,,
imu,347.551618,0.026916876,-9.7074217912,2.006802644,2.13850373,2.22760917,-2.26269185,,,
imu,347.560433,0.04366515440000001,-9.709814402400001,2.0235509224,2.33290339,2.3995781,-2.14306129,,,
imu,347.568909,0.062806044,-9.764246307200002,2.0181675472,2.57964142,2.5491163,-2.06829219,,,
imu,347.577386,0.06160973840000001,-9.7959484056,2.021756464,2.55721069,2.74351596,-2.06081528,,,
imu,347.585862,0.080750628,-9.803126239200001,2.0002229632,2.40019558,2.89305416,-1.6271545,,,
imu,347.594338,0.09929336480000002,-9.8049206976,1.9930451296,2.407672489999999,3.01268472,-1.43275484,,,
imu,347.602814,0.122621324,-9.801929933600002,1.9870636016,2.24318047,2.82576197,-1.34303192,,,
imu,347.611291,0.13458438,-9.800135475200001,1.9864654488,2.17588828,2.66126995,-1.14863226,,,
imu,347.619767,0.1531271168,-9.803126239200001,1.982876532,2.16093446,2.60893158,-0.90937114,,,
imu,347.628243,0.1650901728,-9.792957641600001,1.979885768,2.15345755,2.37714737,-0.8495558599999999,,,
imu,347.63672,0.1632957144,-9.798341016800002,1.9900543656,2.03382699,1.98087114,-0.76730985,,,
imu,347.645196,0.1692772424,-9.801929933600002,1.9840728376,1.94410407,1.53973345,-0.76730985,,,
imu,346.232513,,,,,,,81.226698,-40.02133560000001,121.687488
imu,346.334075,,,,,,,83.3507508,-40.82701080000002,118.9774896
imu,346.435638,,,,,,,81.0924188,-39.5940836,121.0038848
imu,346.537231,,,,,,,83.4606156,-40.8148036,118.6845168
imu,346.638793,,,,,,,81.3609772,-40.21665080000001,122.053704
imu,346.740325,,,,,,,80.921518,-40.16782200000002,121.260236
imu,346.842132,,,,,,,81.03138279999999,-40.289894,121.870596
imu,346.94345,,,,,,,80.5308876,-39.862642,122.0903256
imu,347.653672,0.173464312,-9.779798280000001,1.9876617544,1.77213514,1.2780416,-0.6177716499999999,,,
imu,347.662148,0.1620994088,-9.758862932000001,1.9924469768,1.5926893,0.8817653699999997,-0.4831872699999999,,,
imu,347.670625,0.1561178808,-9.741516500800001,1.997830352,1.60764312,0.7471809899999999,-0.43832581,,,
imu,347.679101,0.1626975616,-9.7128051664,1.9936432824,1.72727368,0.6125966099999998,-0.3859874399999998,,,
imu,347.687577,0.161501256,-9.685290137600001,1.9954377408,1.8917657,0.5976427899999996,-0.1691570499999999,,,
imu,347.696053,0.1567160336,-9.656578803200002,2.00381188,1.99644244,0.5303505999999998,0.002811879999999878,,,
imu,347.70453,0.161501256,-9.654186192000001,2.0175693944,2.18336519,0.5677351499999999,-0.1317724999999998,,,
imu,347.713006,0.1698753952,-9.6799067624,2.0319250616,2.29551884,0.76213481,-0.2439261499999998,,,
imu,347.721482,0.191408896,-9.7056273328,2.0241490752,2.53477996,0.7471809899999999,-0.4308489,,,
imu,347.729958,0.1938015072,-9.706225485600001,2.0414955064,2.77404108,0.9939190199999999,-0.63272547,,,
imu,347.738435,0.212344244,-9.7074217912,2.051664104,2.92357928,1.16588795,-1.03647861,,,
imu,347.746911,0.2368685088,-9.7056273328,2.036710284,2.74413344,1.16588795,-1.54490849,,,
imu,347.755387,0.2296906752000001,-9.703832874400002,2.036710284,2.63197979,1.26308778,-2.00847691,,,
imu,347.763863,0.2536167872,-9.688280901600002,2.0133823248,2.87871782,1.42010289,-2.14306129,,,
imu,347.772637,0.2458408008,-9.675719692800001,2.0121860192,2.9385331,1.59954873,-2.28512258,,,
imu,347.781411,0.2625890792,-9.699047652,2.0325232144,2.82637945,1.61450255,-2.62906044,,,
imu,347.790185,0.2889078024000001,-9.758862932000001,2.0504677984,2.54973378,1.73413311,-2.80102937,,,
imu,347.798959,0.2924967192,-9.7989391696,2.0504677984,2.34785721,1.78647148,-2.71130645,,,
imu,347.807732,0.3062542336,-9.8049206976,2.0737957576,1.87681188,1.89114822,-2.748691,,,
imu,347.816506,0.3026653168,-9.805518850400002,2.066617924,1.39081273,1.81637912,-2.77859864,,,
imu,347.82528,0.3044597752,-9.800135475200001,2.0612345488,0.9646288599999999,1.92853277,-2.76364482,,,
imu,347.834054,0.2966837888,-9.76484446,2.0474770344,0.68798319,1.79394839,-2.8234601,,,
imu,347.842828,0.311039456,-9.727160833600001,2.0349158256,0.51601426,1.75656384,-2.56176825,,,
imu,347.851601,0.3020671640000001,-9.692467971200001,2.0241490752,0.5459219,1.77151766,-2.41223005,,,
imu,347.860375,0.3008708584000001,-9.659569567200002,2.030728756,0.7702292,1.64441019,-2.47952224,,,
imu,347.869149,0.2853188856,-9.6434194416,2.0379065896,1.02444414,1.59207182,-2.5243837,,,
imu,347.877923,0.2847207328,-9.6015487456,2.0175693944,1.30108981,1.49487199,-2.5991528,,,
imu,347.886697,0.2643835376,-9.561472508000001,2.012784172,1.93662716,1.56964109,-2.71878336,,,
imu,347.89547,0.2685706072,-9.527975951200002,2.0121860192,2.37028794,1.62197946,-3.01785976,,,
imu,347.904244,0.2619909264,-9.534555632000002,2.0223546168,3.09554821,1.62197946,-3.21225942,,,
imu,347.913018,0.260196468,-9.5776226336,2.0522622568,3.73856247,1.59954873,-3.51133582,,,
imu,347.921792,0.2595983152,-9.6434194416,2.075590216,4.11988488,1.82385603,-3.55619728,,,
imu,347.930566,0.2697669128,-9.743310959200002,2.1120775368,4.29185381,2.09302479,-3.55619728,,,
imu,347.939339,0.2847207328,-9.801929933600002,2.1090867728,4.03763887,2.13040934,-3.80293531,,,
imu,347.948113,0.2613927736,-9.810902225600001,2.114470148,3.50677826,2.0257326,-4.386134289999999,,,
imu,347.956887,0.2554112456,-9.821668976000002,2.1072923144,2.863764,2.19022462,-4.22911918,,,
imu,347.965661,0.2805336632,-9.818678212000002,2.0803754384,2.20579592,2.21265535,-3.80293531,,,
imu,347.974435,0.260196468,-9.766638918400002,2.0522622568,1.62259694,2.46687029,-3.67582784,,,
imu,347.982585,0.2440463424,-9.7056273328,2.0223546168,1.36090509,2.5491163,-3.48142818,,,
imu,347.990736,0.2536167872,-9.642223136000002,1.9954377408,1.22632071,2.65379304,-3.13001341,,,
imu,347.998887,0.2560093984,-9.609324732000001,1.9930451296,1.33847436,2.73603905,-2.99542903,,,
imu,348.007038,0.248233412,-9.6218859408,2.0151767832,1.60016621,2.80333124,-2.83093701,,,
imu,348.015188,0.2530186344000001,-9.654186192000001,2.0259435336,1.79456587,2.6986545,-2.96552139,,,
imu,348.023339,0.257205704,-9.630260080000001,2.0211583112,2.02635008,2.70613141,-3.09262886,,,
imu,348.03149,0.2518223288000001,-9.599754287200001,2.0558511736,2.1908421,2.74351596,-3.20478251,,,
imu,348.039641,0.2548130928,-9.642223136000002,2.0827680496,2.43758013,2.63883922,-3.26459779,,,
imu,348.047791,0.2590001624000001,-9.702636568800001,2.1048997032,2.47496468,2.60893158,-3.46647436,,,
imu,348.055942,0.2643835376,-9.764246307200002,2.147368552000001,2.37776485,2.58650085,-3.69825857,,,
imu,348.064093,0.2655798432,-9.7995373224,2.133611037600001,2.20579592,2.48930102,-4.20668845,,,
imu,348.072243,0.2476352592,-9.7989391696,2.1461722464,1.75718132,2.44443956,-4.602964679999999,,,
imu,348.080394,0.2500278704,-9.7959484056,2.1461722464,1.63007385,2.57902394,-4.430995749999999,,,
imu,348.088545,0.2595983152,-9.785181655200002,2.1246387456,1.40576655,2.61640849,-4.30388828,,,
imu,348.096696,0.2446444952,-9.739123889600002,2.1162646064,1.28613599,2.68370068,-4.55062631,,,
imu,348.104846,0.2201202304,-9.685290137600001,2.1013107864,1.20388998,2.64631613,-4.75250288,,,
imu,348.112997,0.2368685088,-9.660765872800003,2.0947311056,1.36090509,2.88557725,-4.61044159,,,
imu,348.121148,0.2518223288000001,-9.645213900000002,2.0743939104,1.63755076,2.89305416,-4.96933327,,,
imu,348.129299,0.2117460912,-9.621287788000002,2.072001299200001,2.0413039,2.88557725,-5.305794219999999,,,
imu,348.137449,0.20935348,-9.6296619272,2.072599452,2.36281103,2.91548489,-5.3656095,,,
imu,348.1456,0.2326814392,-9.664952942400001,2.0839643552,2.69179507,2.87062343,-5.43290169,,,
imu,348.153751,0.2105497856,-9.710412555200001,2.0839643552,2.84881018,2.71360832,-5.55253225,,,
imu,348.161902,0.2207183832,-9.745703570400002,2.07858098,2.98339456,2.76594669,-5.350655679999999,,,
imu,348.170052,0.2075590216,-9.739123889600002,2.0684123824,2.87124091,2.6238854,-5.12634838,,,
imu,348.17869,0.2039701048,-9.741516500800001,2.0534585624,2.73665653,2.63136231,-4.931948719999999,,,
imu,348.187328,0.2069608688,-9.7403201952,2.0432899648,2.53477996,2.51173175,-4.67773378,,,
imu,348.195904,0.19439966,-9.7403201952,2.0121860192,2.2656112,2.50425484,-4.50576485,,,
imu,348.204542,0.185427368,-9.727758986400001,2.006802644,2.13850373,2.41453192,-4.46090339,,,
imu,348.213179,0.1961941184,-9.7265626808,2.00381188,2.02635008,2.41453192,-4.21416536,,,
imu,348.221817,0.1908107432,-9.714001472000001,1.9816802264,2.04878081,2.28742445,-4.19921154,,,
imu,348.230455,0.182436604,-9.689477207200001,1.979885768,2.01139626,2.33228591,-4.26650373,,,
imu,348.239093,0.17944584,-9.672728928800002,1.9667264064,1.98148862,2.13788625,-4.23659609,,,
imu,348.24773,0.17944584,-9.655980650400002,1.9595485728,2.116073,2.07059406,-4.19921154,,,
imu,348.256368,0.1872218264,-9.664952942400001,1.9607448784,2.16841137,1.71170238,-4.33379592,,,
imu,348.265006,0.1806421456,-9.690075360000002,1.9727079344,2.43758013,1.60702564,-4.18425772,,,
imu,348.273644,0.1848292152,-9.724170069600001,1.9685208648,2.47496468,1.55468727,-3.98985806,,,
imu,348.282281,0.1788476872,-9.736731278400002,1.9667264064,2.51982614,1.54721036,-3.90013514,,,
imu,348.290919,0.1698753952,-9.758862932000001,1.9583522672,2.46001086,1.53973345,-3.83284295,,,
imu,348.299557,0.1800439928,-9.7953502528,1.9487818224,2.37776485,1.49487199,-3.52628964,,,
imu,348.308194,0.1650901728,-9.785779808000001,1.9368187664,2.33290339,1.58459491,-3.47395127,,,
imu,348.316832,0.1531271168,-9.776807516000002,1.9296409328,1.99644244,1.6518871,-3.38422835,,,
imu,348.32547,0.1632957144,-9.8049206976,1.9212667936,2.01139626,1.66684092,-3.3468438,,,
imu,348.334108,0.1638938672,-9.805518850400002,1.91408896,1.99644244,1.65936401,-3.29450543,,,
imu,348.342745,0.173464312,-9.7821908912,1.9093037376,1.89924261,1.83880985,-3.21225942,,,
imu,348.351383,0.167482784,-9.766040765600001,1.9128926544,1.67493531,1.8761944,-3.24964397,,,
imu,348.360021,0.1668846312,-9.777405668800002,1.9134908072,1.62259694,2.10797861,-3.04029049,,,
imu,348.368659,0.1746606176,-9.773218599200002,1.9027240568,1.76465823,2.31733209,-2.96552139,,,
imu,348.377296,0.19439966,-9.783985349600002,1.8979388344,1.76465823,2.37714737,-2.92065993,,,
imu,348.386017,0.2027737992,-9.755872168000002,1.8955462232,1.57025857,2.48182411,-3.15244414,,,
imu,348.394737,0.2207183832,-9.7301515976,1.8758071808,1.60016621,2.60145467,-3.48142818,,,
imu,348.403457,0.2290925224000001,-9.709814402400001,1.8716201112,1.6674584,2.5491163,-3.74312003,,,
imu,348.412177,0.23926112,-9.711608860800002,1.860255208,1.84690424,2.52668557,-3.93004278,,,
imu,348.420897,0.2476352592,-9.716992236000001,1.8692275,1.92915025,2.51173175,-3.9449966,,,
imu,348.429617,0.2470371064,-9.7540777096,1.8620496664,1.91419643,2.36967046,-4.079580979999999,,,
imu,348.438337,0.2524204816,-9.787574266400002,1.8614515136,1.89924261,2.21265535,-3.92256587,,,
imu,348.447057,0.2554112456,-9.802528086400002,1.8566662912,1.94410407,2.19770153,-3.76555076,,,
imu,348.455777,0.2488315648,-9.798341016800002,1.8518810688,1.84690424,2.05564024,-3.52628964,,,
imu,348.464497,0.260196468,-9.794752100000002,1.8548718328,1.57773548,1.88367131,-3.50385891,,,
imu,347.045013,,,,,,,80.5797164,-40.00912840000002,121.443344
imu,347.146575,,,,,,,80.6529596,-39.94809240000001,121.748524
imu,347.248138,,,,,,,81.7516076,-39.27669640000002,121.7241096
imu,347.349731,,,,,,,81.01917560000001,-39.66732680000003,121.1747856
imu,347.451263,,,,,,,83.76579559999999,-40.14340760000002,118.9774896
imu,347.552825,,,,,,,80.90931080000001,-39.09358840000002,121.6142448
imu,347.654388,,,,,,,83.88786759999999,-39.16683160000001,119.3314984
imu,347.755981,,,,,,,81.65395,-37.65313880000001,122.3222624
imu,348.473217,0.2464389536,-9.7959484056,1.833338332,1.35342818,1.76404075,-3.35432071,,,
imu,348.481937,0.242251884,-9.7606573904,1.8375254016,1.15902852,1.62197946,-3.40665908,,,
imu,348.490657,0.2470371064,-9.749890640000002,1.8177863592,1.06182869,1.41262598,-3.29450543,,,
imu,348.499377,0.2278962168,-9.734338667200001,1.80941222,1.03939796,1.50982581,-3.24216706,,,
imu,348.508097,0.2314851336,-9.745703570400002,1.8201789704,0.8524752099999999,1.4275798,-3.33936689,,,
imu,348.516818,0.215335008,-9.7427128064,1.8201789704,0.81509066,1.5023489,-3.33936689,,,
imu,348.525538,0.2380648144,-9.7283571392,1.8369272488,0.82256757,1.51730272,-3.4216129,,,
imu,348.534258,0.2296906752000001,-9.737927584000001,1.836329096,0.8973366700000001,1.74908693,-3.48142818,,,
imu,348.542978,0.242251884,-9.755274015200001,1.8417124712,0.82256757,1.71170238,-3.75807385,,,
imu,348.551698,0.248233412,-9.7606573904,1.8488903048,0.8674290299999999,1.79394839,-3.9449966,,,
imu,348.560418,0.2655798432,-9.767237071200002,1.8506847632,1.01696723,1.76404075,-4.25154991,,,
imu,348.569138,0.2697669128,-9.76484446,1.8458995408,0.9870595899999999,1.61450255,-4.49081103,,,
imu,348.577858,0.2829262744000001,-9.7786019744,1.8560681384,1.12164397,1.45748744,-4.47585721,,,
imu,348.586292,0.2817299688000001,-9.779798280000001,1.8644422776,0.97958268,1.25561087,-4.55810322,,,
imu,348.594727,0.2637853848,-9.773218599200002,1.8746108752,0.91229049,1.0537343,-4.57305704,,,
imu,348.603161,0.2703650656,-9.758862932000001,1.8793960976,0.67302937,0.7995193599999997,-4.67773378,,,
imu,348.611595,0.2691687600000001,-9.76484446,1.8758071808,0.59078336,0.5378275100000001,-4.4683803,,,
imu,348.620029,0.266177996,-9.749890640000002,1.8734145696,0.5982602699999999,0.3284740299999998,-4.29641137,,,
imu,348.628464,0.2578038568000001,-9.744507264800001,1.8805924032,0.44124516,0.1864127399999997,-4.146873169999999,,,
imu,348.636898,0.2703650656,-9.745703570400002,1.8728164168,0.52349117,0.13407437,-4.012288789999999,,,
imu,348.645332,0.2913004136,-9.724768222400002,1.8746108752,0.65807555,-0.1201405700000002,-4.079580979999999,,,
imu,348.653767,0.3008708584000001,-9.709814402400001,1.8829850144,0.71789083,-0.4266938800000002,-4.23659609,,,
imu,348.662201,0.3104413032000001,-9.710412555200001,1.8776016392,0.94219813,-0.82297011,-4.363703559999999,,,
imu,348.670635,0.2990764,-9.7163940832,1.8817887088,1.1440747,-1.31644617,-4.318842099999999,,,
imu,348.67907,0.2883096496000001,-9.722973764,1.887172084,1.33847436,-1.7874915,-4.32631901,,,
imu,348.687504,0.2691687600000001,-9.7301515976,1.9003314456,1.55530475,-2.18376773,-4.25902682,,,
imu,348.695938,0.2518223288000001,-9.7217774584,1.8967425288,1.5926893,-2.59499778,-4.13939626,,,
imu,348.704372,0.2356722032,-9.728955292000002,1.9045185152,1.58521239,-3.01370474,-4.07210407,,,
imu,348.712807,0.2237091472,-9.745105417600001,1.9242575576,1.54035093,-3.24548895,-4.102011709999999,,,
imu,348.721241,0.2099516328,-9.7845835024,1.9356224608,1.41324346,-3.5071808,-4.124442439999999,,,
imu,348.729675,0.2087553272,-9.8013317808,1.932033544,1.26370526,-3.81373411,-4.13191935,,,
imu,348.73811,0.1902125904,-9.782789044000001,1.9254538632,1.10669015,-3.89598012,-3.93004278,,,
imu,348.746544,0.1519308112,-9.7492924872,1.9152852656,0.60573718,-3.98570304,-4.034719519999999,,,
imu,348.754978,0.1327899216,-9.714001472000001,1.9069111264,0.26179932,-3.9557954,-3.97490424,,,
imu,348.763412,0.1052748928,-9.706225485600001,1.9057148208,0.35152224,-3.82868793,-3.7954584,,,
imu,348.771847,0.06101158560000001,-9.701440263200002,1.89913514,0.46367589,-3.85111866,-3.78050458,,,
imu,348.780281,0.0346928624,-9.683495679200002,1.9063129736,0.47862971,-3.58942681,-3.47395127,,,
imu,348.788706,0.0275150288,-9.706823638400001,1.920070488,0.7253677399999999,-3.40250406,-3.496382,,,
imu,348.797132,0.0227298064,-9.7504887928,1.9296409328,0.68798319,-3.30530423,-3.45899745,,,
imu,348.805557,0.0185427368,-9.762451848800001,1.9158834184,0.79265993,-3.03613547,-3.51133582,,,
imu,348.813983,0.0257205704,-9.760059237600002,1.9332298496,0.8973366700000001,-2.67724379,-3.08515195,,,
imu,348.822408,0.03349655680000001,-9.760059237600002,1.9284446272,0.8449983,-2.40807503,-2.70382954,,,
imu,348.830833,0.02990764000000001,-9.7786019744,1.9248557104,0.8823828499999999,-2.16881391,-2.55429134,,,
imu,348.839259,0.04366515440000001,-9.801929933600002,1.9248557104,0.9197674,-1.79496841,-2.19539966,,,
imu,348.847684,0.0592171272,-9.797742864000002,1.9033222096,0.73284465,-1.39869218,-2.03090764,,,
imu,348.85611,0.07716171120000001,-9.769031529600001,1.8776016392,0.5982602699999999,-1.18186179,-2.01595382,,,
imu,348.864535,0.08374139200000001,-9.7301515976,1.8650404304,0.45619898,-0.9725083100000003,-2.15801511,,,
imu,348.87296,0.08673215600000002,-9.701440263200002,1.851282916,0.49358353,-0.7407241,-2.20287657,,,
imu,348.881386,0.1184342544,-9.679308609600001,1.8231697344,0.7403215599999999,-0.4042631500000002,-2.10567674,,,
imu,348.889811,0.1250139352,-9.671532623200001,1.80941222,0.8524752099999999,0.006966899999999665,-2.05333837,,,
imu,348.898237,0.1519308112,-9.669140012000002,1.812402984,0.88985976,0.1265974599999997,-2.18044584,,,
imu,348.906662,0.1656883256,-9.675121540000001,1.8022343864,1.12912088,0.4331507699999997,-2.09819983,,,
imu,348.915087,0.1949978128,-9.675719692800001,1.7944584,1.34595127,0.6275504299999999,-2.01595382,,,
imu,348.923513,0.2189239248,-9.679308609600001,1.788476872,1.17398234,0.6051196999999999,-2.00847691,,,
imu,348.931938,0.2249054528,-9.711608860800002,1.7998417752,1.27865908,0.6798887999999996,-2.001,,,
imu,348.940364,0.2326814392,-9.742114653600002,1.806421456,1.37585891,0.66493498,-1.96361545,,,
imu,348.948789,0.2266999112,-9.760059237600002,1.8076177616,1.24875144,0.5527813299999997,-2.12810747,,,
imu,348.957214,0.2416537312,-9.7750130576,1.8249641928,1.2936129,0.5453044199999999,-2.20287657,,,
imu,348.96564,0.2428500368,-9.801929933600002,1.8309457208,1.24875144,0.5453044199999999,-2.21035348,,,
imu,348.974065,0.2255036056,-9.8049206976,1.83931986,0.9646288599999999,0.4107200399999997,-2.29259949,,,
imu,348.982491,0.2249054528,-9.806715156000001,1.836329096,0.9347212199999999,0.3808123999999999,-2.14306129,,,
imu,348.990978,0.2326814392,-9.806715156000001,1.8429087768,0.620691,0.4331507699999997,-2.10567674,,,
imu,348.999466,0.2237091472,-9.803724392000001,1.8548718328,0.44872207,0.4630584099999999,-2.20287657,,,
imu,349.007954,0.2261017584,-9.802528086400002,1.8464976936,0.35152224,0.6574580699999997,-2.09819983,,,
imu,347.85738,,,,,,,81.409806,-37.65313880000001,121.8828032
imu,347.958943,,,,,,,81.6905716,-36.84746360000002,122.2246048
imu,348.060627,,,,,,,81.65395,-36.7375988,121.8461816
imu,348.162068,,,,,,,82.19106679999999,-36.72539160000001,121.8828032
imu,348.263661,,,,,,,82.36196760000001,-36.60331960000001,122.297848
imu,348.365193,,,,,,,82.71597639999999,-36.04178840000001,121.5165872
imu,348.466755,,,,,,,82.142238,-36.24931080000002,121.9194248
imu,348.568348,,,,,,,84.6080924,-37.82403960000001,119.36812
imu,348.669911,,,,,,,82.19106679999999,-36.16386040000001,121.1747856
imu,348.771473,,,,,,,82.447418,-36.39579720000001,121.5532088
imu,348.873005,,,,,,,82.447418,-36.90849960000002,121.6630736
imu,348.974537,,,,,,,82.9234988,-36.84746360000002,122.4443344
