Type,Timestamp,Data Accelerometer X,Data Accelerometer Y,Data Accelerometer Z,Data Gyroscope X,Data Gyroscope Y,Data Gyroscope Z,Data Magnetometer X,Data Magnetometer Y,Data Magnetometer Z
imu,497.712099,1.7812990384,-9.277349928000001,2.275971404,4.71056077,74.103145,-15.56411474,,,
imu,497.720561,1.6826038264,-9.382026668000002,2.308869808,5.89938946,67.38887982,-12.98458079,,,
imu,497.729023,1.5211025704,-9.453206851200001,2.331001461600001,6.78166484,61.03350631999999,-10.43495448,,,
imu,497.737486,1.3631902312,-9.438851184,2.3381792952,7.43963292,55.23142416,-7.76569761,,,
imu,497.745948,1.2872248256,-9.4322715032,2.3722740048,7.85833988,49.48168037,-5.85908556,,,
imu,497.75441,1.2363818376,-9.520199964800002,2.3842370608,8.299477569999999,44.03101298,-4.87213344,,,
imu,497.762874,1.157425668,-9.540537160000001,2.323823628,8.56864633,39.1112062,-3.9449966,,,
imu,497.771337,1.0629175256,-9.5740337168,2.3453571288,8.55369251,34.64749093,-2.76364482,,,
imu,497.779801,1.0144671488,-9.495675700000001,2.2125672072,8.74809217,30.75202082,-1.42527793,,,
imu,497.788264,1.0180560656,-9.539939007200001,2.2412785416,9.151845309999999,27.32759604,-0.4532796299999999,,,
imu,497.796728,1.0760768872,-9.673925234400002,2.249054528,9.652798279999999,23.84335598,0.4065650199999999,,,
imu,497.805192,1.1998945168,-9.723571916800001,2.2616157368,10.09393597,20.52360794,0.81031816,,,
imu,497.813655,1.3225158408,-9.789368724800001,2.3381792952,9.95187468,16.71038384,0.6159185000000003,,,
imu,497.822119,1.4379593312,-9.880287950400001,2.467380300000001,9.368675699999999,12.7177139,0.05515025000000007,,,
imu,497.830582,1.55519728,-10.0352095256,2.5792348736,8.493877229999999,8.69513632,-0.15420323,,,
imu,497.839046,1.6126199488,-10.0710986936,2.587609012800001,7.08074124,4.62769728,0.3093651899999998,,,
imu,497.847509,1.6449202,-9.937710619200002,2.5588976784,5.39095958,0.4331507699999997,0.87013344,,,
imu,497.855973,1.7101188552,-9.720581152800001,2.5038676208,3.9853005,-3.8062572,0.9598563599999999,,,
imu,497.864436,1.8046269976,-9.530368562400001,2.4326874376,3.11797894,-8.2176341,0.58601086,,,
imu,497.8729,1.9134908072,-9.416719530400002,2.36270356,2.92357928,-13.04771796,-0.08691103999999994,,,
imu,497.881273,1.9894562128,-9.350324569600001,2.3034864328,3.33480933,-18.22921659,-0.8645096799999998,,,
imu,497.889736,2.027737992,-9.283929608800001,2.2406803888,4.08250033,-23.67988398,-1.51500085,,,
imu,497.8982,1.9697171704,-9.178056563200002,2.1748835808,5.04702172,-28.95858244,-1.47013939,,,
imu,497.906663,1.7543821624,-9.024929446400002,2.0797772856,6.21341968,-33.75128175,-0.3859874399999998,,,
imu,497.915127,1.3380678136,-8.948964040800002,2.0235509224,7.70880168,-37.34767546,1.93185466,,,
imu,497.92359,0.7500836112000001,-9.005190404000002,1.964931948,9.241568229999999,-39.1720415,5.909570779999999,,,
imu,497.932054,-0.0562263632,-9.115250519200002,1.8907610008,11.07341118,-38.88791892,10.46300897,,,
imu,497.940517,-0.9343146736000002,-9.2576108856,1.8429087768,12.23233223,-35.99435475,14.20146397,,,
imu,497.948981,-1.5480194464,-9.481320032800001,1.8829850144,13.0323616,-30.74556393,16.63893663,,,
imu,497.957445,-1.8877702368,-9.689477207200001,1.857264444,13.06974615,-24.02382184,16.95296685,,,
imu,497.965909,-2.0432899648,-9.785779808000001,1.7980473168,12.81553121,-16.1431587,14.78466295,,,
imu,497.974374,-2.0349158256,-9.817481906400001,1.7711304408,12.42673189,-7.88865006,10.64245481,,,
imu,497.982839,-1.9069111264,-9.8013317808,1.7196893,11.97064038,0.1415512799999998,5.864709319999999,,,
imu,497.991304,-1.7621581488,-9.714001472000001,1.6855945904,11.51454887,7.790430209999999,1.2888404,,,
imu,497.999769,-1.6138162544,-9.638634219200002,1.6586777144,11.15565719,15.17014038,-2.25521494,,,
imu,498.008233,-1.4696614296,-9.562668813600002,1.623984852,10.78181169,22.18348196,-4.66277996,,,
imu,498.016698,-1.2226243232,-9.516012895200001,1.6186014768,10.83415006,28.88279332,-5.67216281,,,
imu,498.025163,-0.8164785720000002,-9.507040603200002,1.6245830048,10.74442714,34.28112234,-6.21797724,,,
imu,498.033628,-0.3535083048,-9.538742701600002,1.6712389232,10.79676551,38.16911554,-6.943237509999999,,,
imu,498.042093,0.04785222400000001,-9.596165370400001,1.73464312,11.02854972,40.12058905,-7.623636319999999,,,
imu,498.050557,0.4055475984,-9.645213900000002,1.73464312,11.23042629,40.39723472,-7.76569761,,,
imu,498.059022,0.7147925960000001,-9.602146898400001,1.7172966888,11.34257994,39.35046732,-7.46662121,,,
imu,498.067487,0.9881484256000002,-9.5429297712,1.7250726752,11.65661016,36.92047157,-7.317083009999999,,,
imu,498.075952,1.2967952704,-9.553696521600001,1.743615412,12.52393172,33.34650859,-7.100252619999999,,,
imu,498.084417,1.665855548,-9.618297024,1.7621581488,13.31648418,28.50894782,-7.13016026,,,
imu,498.092882,2.0678142296,-9.722375611200002,1.7741212048,14.25109793,22.38535853,-6.965668239999999,,,
imu,498.101346,2.4500338688,-9.819276364800002,1.8016362336,15.11841949,14.97574072,-6.659114929999999,,,
imu,498.109811,2.8107200072,-9.895241770400002,1.8052251504,16.21004835,6.31000203,-6.00114685,,,
imu,498.118276,3.154059714400001,-9.970010870400001,1.8339364848,16.86053952,-3.32025805,-4.82727198,,,
imu,498.126741,3.6152355232,-10.0094889552,1.848292152,17.48112305,-13.78045514,-3.48142818,,,
imu,498.135206,4.179891766400001,-10.0088908024,1.8518810688,17.95216838,-25.69117277,-1.71687742,,,
imu,498.14367,4.8426450688,-10.0382002896,1.9206686408,18.16899877,-39.46364099,0.1972115400000001,,,
imu,498.152135,5.586747152000001,-10.1045952504,1.9613430312,18.25872169,-55.51656676,2.3356078,,,
imu,498.1606,6.1866944104,-10.0992118752,1.8470958464,17.85496855,-73.70041187999999,5.603017469999999,,,
imu,498.169424,6.436722280800002,-9.964627495200002,1.564169572,17.36149249,-94.00769944,10.4106706,,,
imu,498.178247,6.338625221600001,-9.906008520800002,1.2872248256,17.15961592,-115.32436985,16.2426604,,,
imu,498.187071,6.0120337928,-9.9658238008,1.0461692472,17.13718519,-136.92516284,22.25409604,,,
imu,498.195894,5.4868556344,-10.0148723304,0.7106055264000001,17.09980064,-157.63620354,28.00383983,,,
imu,498.204718,4.869561944800001,-10.0495651928,0.3780325696000001,16.74090896,-176.6724164,32.32549381,,,
imu,498.213541,4.205014184,-10.1219416816,0.06579680800000001,16.55398621,-193.54032536,35.0844736,,,
imu,498.222365,3.481249296000001,-10.1380918072,-0.2117460912,16.50912475,-207.79879273,35.61533421,,,
imu,498.231189,2.6719485576,-10.1016044864,-0.4701481008,16.76333969,-219.17117284,34.65828973,,,
imu,498.240012,1.8554699856,-10.0926321944,-0.535346756,17.17456974,-226.90977469,33.59656851,,,
imu,498.248836,1.0336080384,-10.174579128,-0.4821111568000001,17.6680458,-231.27629013,32.56475493,,,
imu,498.257659,0.1692772424,-10.49758164,-0.2775428992,17.75776872,-232.76419522,30.03755935,,,
imu,498.266483,-0.5718340768000001,-10.9061200024,0.0233279592,16.71847823,-230.99964446,26.97950316,,,
imu,498.275306,-1.0778713456,-11.0616397304,0.1154434904,14.5277436,-226.87986705,23.18123288,,,
imu,498.28413,-1.339862272,-10.8361361248,0.1967922712,11.36501067,-221.43667657,17.46887364,,,
imu,498.292953,-1.4343704144,-10.3647917184,0.334965568,7.50692511,-214.81961122,11.53968401,,,
imu,498.301777,-1.531271168,-9.956253356,0.4677554896000001,4.34419218,-207.39503959,6.55258504,,,
imu,498.310601,-1.6766222984,-9.7193848472,0.5156077136000001,2.23570356,-198.93117747,3.05339116,,,
imu,498.319424,-1.9445947528,-9.631456385600002,0.6154992312,0.9272443100000001,-189.6074707,1.60287062,,,
imu,498.328248,-2.246063764000001,-9.693664276800002,0.8218619472,-0.08213854000000001,-179.20708889,1.74493191,,,
imu,498.337071,-2.4566135496,-9.772022293600001,1.01685976,-0.73262971,-167.5505862,3.02348352,,,
imu,498.345895,-2.6396483064,-9.875502728,1.1915203776,-1.3980747,-155.48285346,3.71135924,,,
imu,498.354718,-2.9644452768,-9.973599787200001,1.3314881328,-2.01118132,-142.44312242,4.00295873,,,
imu,498.363542,-3.1349188248,-9.825856045600002,1.3320862856,-2.62428794,-128.15474741,4.974957030000001,,,
imu,498.372026,-3.061346030400001,-9.546518688,1.40565908,-2.82616451,-113.47757308,4.75812664,,,
imu,498.38051,-2.864553759200001,-9.404756474400001,1.5755344752,-2.56447266,-99.20415188999999,3.01600661,,,
imu,498.388994,-2.5194195936,-9.4071490856,1.6963613408,-1.93641222,-85.84291372,1.22154821,,,
imu,498.397477,-2.1766780392,-9.474740352000001,1.7208856056,-1.06909066,-73.96958063999999,-1.19349372,,,
imu,498.405961,-1.8793960976,-9.4621791432,1.7729248992,-0.50832241,-63.471999,-3.57862801,,,
imu,498.414445,-1.6574814088,-9.4496179344,1.872218264,0.17955331,-53.79687746,-4.82727198,,,
imu,498.422929,-1.5157191952,-9.499264616800001,1.9206686408,1.07678251,-44.77224709,-4.991764,,,
imu,498.431413,-1.3679754536,-9.556089132800002,1.9116963488,1.98148862,-36.47287699,-4.82727198,,,
imu,498.439897,-1.2256150872,-9.5249851872,1.9015277512,3.19274804,-28.68941368,-4.53567249,,,
imu,498.448381,-1.1197420416,-9.463973601600001,1.9338280024,4.31428454,-21.53401081,-4.17678081,,,
imu,498.456865,-1.0013077872,-9.472347740800002,1.9404076832,5.18908301,-15.05152984,-3.90761205,,,
imu,498.465349,-0.8589474208000002,-9.516012895200001,1.9122945016,6.04892766,-9.21954004,-4.10948862,,,
imu,498.473832,-0.7070166096,-9.592576453600001,1.8907610008,6.8265263,-4.08290287,-4.83474889,,,
imu,498.482316,-0.535346756,-9.647606511200001,1.8817887088,7.13307961,-0.0005100100000001717,-5.98619303,,,
imu,498.4908,-0.3499193880000001,-9.7474980288,1.9093037376,6.86391085,2.9977309,-7.429236659999999,,,
imu,498.499284,-0.1782495344,-9.868923047200001,1.9164815712,6.3779117,5.25575772,-8.88723411,,,
imu,498.507768,-0.04486146000000001,-9.9586459672,1.920070488,5.42834413,6.80347809,-10.00877061,,,
imu,498.516252,0.0263187232,-9.995133288000002,1.9033222096,3.88062376,7.76052257,-10.77889234,,,
imu,498.524736,0.0550300576,-9.964627495200002,1.9134908072,2.54973378,8.29138318,-11.11535329,,,
imu,498.53322,0.0137575144,-9.937710619200002,1.9105000432,1.38333582,8.597936489999999,-11.13030711,,,
imu,498.541704,0.005981528000000001,-9.8916528536,1.8787979448,0.38142988,9.15122783,-10.62187723,,,
imu,498.550187,-0.009570444800000001,-9.8467913936,1.887172084,-0.38869185,9.99611866,-10.225601,,,
imu,498.558671,-0.1124527264,-9.8946436176,1.9703153232,-0.67281443,10.86344022,-9.91904769,,,
imu,498.567155,-0.3989679176000001,-10.0681079296,2.057645632,-1.0989983,12.41116059,-9.50034073,,,
imu,498.575657,-0.8786864632000002,-10.1620179192,2.099516328,-2.1457657,15.43930914,-9.16387978,,,
imu,498.584159,-1.3709662176,-10.1285213624,2.1252368984,-3.83554736,20.65071541,-9.16387978,,,
imu,498.59266,-1.845301388,-10.1219416816,2.2125672072,-5.61505194,27.73882609,-10.3003701,,,
imu,498.601162,-2.467380300000001,-10.2906207712,2.3818444496,-7.424464159999999,37.20459415,-12.6182122,,,
imu,498.609664,-3.2856533304,-10.509544696,2.4231169928,-10.31055142,49.33961908,-15.70617603,,,
imu,498.618165,-3.8359539064,-10.4353737488,2.2532415976,-14.26583681,64.39811582,-19.31004665,,,
imu,498.626667,-3.8646652408,-10.249348228,2.2035949152,-18.50524478,81.48285517000001,-25.31400538,,,
imu,498.635169,-3.6636859,-10.1584290024,2.1366018016,-21.91471574,99.24799333,-33.74795986,,,
imu,498.64367,-3.3969097512,-10.0382002896,2.0079989496,-24.38209604,116.40002487,-42.53332911,,,
imu,498.652172,-2.96085636,-9.956253356,1.9906525184,-25.91486259,132.03424368,-50.81774539,,,
imu,498.660674,-2.3872278248,-10.0059000384,2.0151767832,-26.72236887,145.75437353,-58.44419359,,,
imu,498.669175,-1.8973406816,-10.0716968464,2.0109897136,-27.23079875,157.096846,-64.00701463,,,
imu,498.677677,-1.3566105504,-9.914980812800001,1.9164815712,-27.791567,166.22615311,-66.93048644000001,,,
imu,498.686179,-0.7943469184000002,-9.6643547896,1.9128926544,-28.26261233,172.9478952,-68.60531428,,,
imu,498.694681,-0.3654713608,-9.564463272000001,2.0235509224,-28.13550486,177.36674901,-69.42777438,,,
imu,498.703182,-0.0980970592,-9.5393408544,2.0582437848,-27.32799858,179.78179094,-69.12869798,,,
imu,498.711684,0.1866236736,-9.5249851872,2.0851606608,-26.69246123,180.46218975,-68.27633024000001,,,
imu,498.720186,0.4785222400000001,-9.4346641144,2.0899458832,-26.11673916,179.59486819,-68.16417659,,,
imu,498.728687,0.7560651392000002,-9.388606348800002,2.1910337064,-25.3989558,177.74807142,-68.42586844,,,
imu,498.737189,1.0922270128,-9.3904008072,2.331001461600001,-24.62883407,174.75730742,-67.97725384,,,
imu,498.745691,1.4403519424,-9.418513988800001,2.5038676208,-23.6044974,170.0319003,-66.80337897,,,
imu,498.754192,1.8165900536,-9.402962016000002,2.6372556952,-22.57268382,163.55689624,-66.31737982,,,
imu,498.762694,1.9996248104,-9.371259917600002,2.764064088800001,-21.72779299,155.50426417,-66.73608678000001,,,
imu,498.771196,2.0050081856,-9.2899111368,2.8717315928,-21.23431693,146.49458762,-66.07064179,,,
imu,498.779611,2.069608688,-9.126017269600002,2.920181969600001,-20.75579469,136.85685063,-63.90233789,,,
imu,498.788026,2.015774936,-8.969899388800002,2.8866854128,-19.75388875,127.09948308,-62.19760240999999,,,
imu,498.796441,1.88418132,-8.91247672,2.9770064856,-18.40804495,117.6187612,-60.60502057999999,,,
imu,498.804857,1.7161003832,-8.9298231512,3.023662404,-16.62106346,108.51936173,-58.20493247,,,
imu,498.813272,1.5324674736,-8.997414417600002,3.0487848216,-14.62472849,99.86857686,-55.02724572,,,
imu,498.821687,1.3482364112,-9.102091157600002,3.1241520744,-12.86765464,91.56920676,-51.74488222999999,,,
imu,498.830102,1.1699868768,-9.205571592000002,3.182172896,-11.22273444,83.61377452,-48.82888732999999,,,
imu,498.838518,0.9528574104000002,-9.373652528800001,3.2653161352,-9.697444800000001,75.87517267,-46.88489073,,,
imu,498.846933,0.8104970440000001,-9.5812115504,3.3275240264,-8.79273869,68.60013924,-45.19510906999999,,,
imu,498.855348,0.8290397808000001,-9.703234721600001,3.333505554400001,-8.59833903,60.95873722,-43.93151128,,,
imu,498.863763,0.7488873056,-9.702636568800001,3.2910367056,-8.39646246,53.20518155,-43.45298904,,,
imu,498.872178,0.4922797544,-9.554892827200002,3.228828814400001,-7.76840202,45.48153352,-42.83240550999999,,,
imu,498.880594,0.1830347568,-9.51062952,3.2366048008,-7.117910849999999,38.1392079,-40.93327037,,,
imu,498.889009,-0.06519865520000001,-9.4412437952,3.1749950624,-6.355266029999999,31.66420384,-37.89764491,,,
imu,498.897424,-0.2793373576,-9.432869656000001,3.140302200000001,-5.368313909999999,25.49575309,-34.98165001,,,
imu,498.905839,-0.5473098120000001,-9.4250936696,3.113983476800001,-4.30659269,19.78339385,-32.47688516,,,
imu,498.914255,-0.8697141712000002,-9.437654878400002,3.0553645024,-3.2673022,14.71404887,-29.48612116,,,
imu,498.92267,-1.1556312096,-9.453805004000001,2.9913621528,-2.05604278,10.14565686,-26.42058806,,,
imu,498.931085,-1.357806856,-9.485507102400002,2.9764083328,-0.69524516,6.205325289999999,-23.91582321,,,
imu,498.9395,-1.5839086144,-9.489694172,2.9423136232,0.3216146,2.55659321,-22.16622627,,,
imu,498.947915,-1.8470958464,-9.517807353600002,2.9393228592,1.24127453,-0.2921095,-20.60355208,,,
imu,498.956331,-1.9906525184,-9.555490980000002,2.928556108800001,2.16093446,-2.52770559,-18.62217093,,,
imu,498.964746,-2.0863569664,-9.52558334,2.8986484688,2.64693361,-4.30721017,-16.86509708,,,
imu,497.745928,,,,,,,72.1811628,-30.10908920000002,106.7458752
imu,497.847583,,,,,,,72.6450364,-29.92598120000001,105.9524072
imu,497.949053,,,,,,,73.2187748,-29.44990040000002,108.0642528
imu,498.050647,,,,,,,73.41409000000002,-29.7672876,107.3074064
imu,498.152178,,,,,,,74.29300839999999,-29.7672876,107.9421808
imu,498.973158,-2.1796688032,-9.427486280800002,2.8400294944,3.23013259,-5.93717655,-15.43700727,,,
imu,498.98162,-2.2532415976,-9.318024318400001,2.784401284,4.09745415,-7.454989279999999,-13.85190235,,,
imu,498.990083,-2.2801584736,-9.2917055952,2.7532973384,5.03954481,-8.92046364,-12.22193597,,,
imu,498.998545,-2.2472600696,-9.3060612624,2.7323619904,6.14612749,-10.35603036,-10.47981594,,,
imu,499.007007,-2.1581353024,-9.3628857784,2.715613712000001,7.08821815,-11.94861219,-8.81994192,,,
imu,499.015469,-2.0408973536,-9.418513988800001,2.673743016,8.04526263,-13.85522424,-7.06286807,,,
imu,499.023932,-1.9134908072,-9.435860420000001,2.6294797088,8.81538436,-16.37494291,-5.33570186,,,
imu,499.032394,-1.74959694,-9.478329268800001,2.5475327752,9.548121539999999,-19.76946005,-3.33936689,,,
imu,499.040856,-1.5845067672,-9.439449336800001,2.428500368,10.1911358,-23.60511488,-0.8046943999999998,,,
imu,499.049319,-1.4164258304,-9.335968902400001,2.3130568776,10.89396534,-28.19593762,1.76736264,,,
imu,499.057781,-1.3003841872,-9.260601649600002,2.210174596,11.99307111,-33.46715917,4.750649729999999,,,
imu,499.066243,-1.1538367512,-9.229497704000002,2.1330128848,13.30900727,-38.99259566,8.160120690000001,,,
imu,499.074705,-0.9091922560000001,-9.281536997600002,2.0522622568,14.49035905,-45.2283386,11.50229946,,,
imu,499.083168,-0.6154992312,-9.325800304800001,1.9924469768,15.74647993,-52.26411091,14.48558655,,,
imu,499.09163,-0.2823281216,-9.384419279200001,1.935024308,16.8455857,-60.45880427,16.99782831,,,
imu,499.100092,-0.0005981528000000001,-9.4173176832,1.8082159144,17.8923531,-70.29094092,18.95677873,,,
imu,499.108554,0.1262102408,-9.395784182400002,1.6221903936,19.33539673,-80.8184302,21.14003645,,,
imu,499.117017,0.1423603664,-9.343146736000001,1.4666706656,21.21210114,-91.48050386,24.00369298,,,
imu,499.125479,0.122621324,-9.33118368,1.3207213824,22.70000623,-101.76125511,27.37577939,,,
imu,499.133941,0.1214250184,-9.469356976800002,1.1981000584,24.2477266,-111.34665373,31.1964804,,,
imu,499.142404,0.092713684,-9.7403201952,1.1311069448,25.68329332,-120.40119174,35.33121163,,,
imu,499.150866,-0.0681894192,-10.0992118752,1.0790676512,26.19920011,-128.57345437,39.21172792,,,
imu,499.159328,-0.3774344168000001,-10.3982882752,0.9414925072000001,25.93003135,-135.94568763,43.04738275,,,
imu,499.16779,-0.7129981376000001,-10.5968750048,0.8146841136000001,24.82344867,-142.06927692,46.15777731,,,
imu,499.176253,-0.9672130776000001,-10.7117203424,0.7674300424000001,23.1261901,-146.74982258,48.52048087,,,
imu,499.185096,-1.1041900688,-10.7763208448,0.6968480120000001,21.27939333,-150.32378556,49.76164793,,,
imu,499.19394,-1.205277892,-10.8486973336,0.6495939408000001,19.74662678,-153.26221119,50.32241618,,,
imu,499.202783,-1.30098234,-10.9689260464,0.6412198016000001,17.84001473,-155.71463767,50.69626168,,,
imu,499.211626,-1.5187099592,-11.0066096728,0.5867878968000001,15.28291151,-157.47171152,50.67383095,,,
imu,499.22047,-1.8040288448,-10.9366257952,0.5329541448,12.59122391,-157.89041848,50.82336915,,,
imu,499.229313,-1.9906525184,-10.799648804,0.5126169496,10.01916687,-156.91842018,50.84579988,,,
imu,499.238157,-2.0229527696,-10.6638681184,0.535346756,7.81347842,-155.10900796,50.52429275,,,
imu,499.247,-2.0821698968,-10.5735470456,0.5622636320000001,6.21341968,-152.54442783,49.47004844,,,
imu,499.255844,-2.10848862,-10.4694684584,0.5855915912,4.86009897,-149.55366383,47.95971262,,,
imu,499.264687,-1.9667264064,-10.3324914672,0.6615569968000001,3.9105314,-146.51056146,46.62134573,,,
imu,499.273531,-1.7693359824,-10.2116646016,0.741709472,3.09554821,-143.73662785,44.96147171,,,
imu,499.282374,-1.6353497552,-10.1231379872,0.8356194616000001,2.54225687,-141.62813923,42.74830635,,,
imu,499.291218,-1.4965783056,-10.0950248056,0.9755872168000002,2.17588828,-139.76638864,40.90898649,,,
imu,499.300061,-1.297991576,-10.0914358888,1.0611230672,1.76465823,-138.45045248,39.31640466,,,
imu,499.308905,-1.1580238208,-10.010087108,1.127518028,1.24875144,-137.29900834,37.69391519,,,
imu,499.317748,-0.9779798280000002,-9.9101955904,1.2268113928,0.65059864,-136.64104026,36.38545594,,,
imu,499.326591,-0.7034276928000001,-9.880287950400001,1.3153380072,0.3889067899999999,-136.63356335,35.32373472,,,
imu,499.335435,-0.4761296288000001,-9.831837573600001,1.3237121464,0.03749201999999999,-137.38125435,34.64333591,,,
imu,499.344278,-0.2266999112,-9.7995373224,1.3452456472,-0.53823005,-139.15328202,34.16481367,,,
imu,499.353122,0.1309954632,-9.724768222400002,1.2997860344,-0.95693701,-142.21133821,33.22272301,,,
imu,499.361965,0.4510072112,-9.6745233872,1.262102408,-1.3980747,-146.41336163,31.75724865,,,
imu,499.370809,0.7656355840000001,-9.671532623200001,1.1430700008,-1.74948947,-151.9986134,30.72543507,,,
imu,499.379652,0.9462777296000001,-9.632054538400002,0.9893447312000001,-2.15324261,-158.71287858,30.03755935,,,
imu,499.388102,0.8936402832000001,-9.663158484000002,0.9761853696000001,-2.60933412,-165.71126634,29.87306733,,,
imu,499.396551,0.5849934384000001,-9.788770572,1.0001114816,-3.02056417,-171.95448619,30.88245018,,,
imu,499.405001,0.3744436528,-9.914980812800001,1.028822816,-3.17757928,-176.56026275,33.11804627,,,
imu,499.41345,0.2578038568000001,-10.0142741776,1.00190594,-3.70096298,-180.111795,35.39850382,,,
imu,499.4219,0.1280046992,-10.0082926496,0.9648204664000001,-4.66548437,-183.13246664,36.76677835,,,
imu,499.43035,0.0221316536,-9.992740676800002,0.9534555632000001,-5.839359239999999,-186.00360008,36.99856256,,,
imu,499.438799,-0.2805336632,-10.081865444,0.9791761336000001,-6.84874209,-188.21676544,36.4303174,,,
imu,499.447249,-0.5903768136,-10.1249324456,0.9313239096000001,-7.72354056,-189.29344048,35.94431825,,,
imu,499.455698,-0.8595455736000001,-10.1614197664,1.019850524,-8.54600066,-188.98688717,35.4583191,,,
imu,499.464148,-1.3464419528,-10.2379833248,1.1867351552,-9.36098385,-186.88587546,35.0097045,,,
imu,499.472597,-1.8758071808,-10.1859440312,1.3165343128,-9.91427519,-182.51188311,35.27139635,,,
imu,499.481047,-2.3142531832,-10.0752857632,1.4343704144,-10.31055142,-176.13407888,35.4583191,,,
imu,499.489496,-2.634264931200001,-9.914980812800001,1.5689547944,-10.55728945,-167.90947788,35.02465832,,,
imu,499.497946,-2.8813020376,-9.7744149048,1.6772204512,-10.35541288,-158.48857128,33.91807564,,,
imu,499.506396,-3.0523737384,-9.571641105600001,1.6909779656,-10.03390575,-148.08071256,32.07875578,,,
imu,499.514845,-3.0691220168,-9.3138372488,1.7119133136,-9.31612239,-137.20180851,29.0281765,,,
imu,499.523295,-3.0194753344,-9.1924122304,1.8411143184,-8.24692426,-126.32290446,24.55698432,,,
imu,499.531744,-3.0410088352,-9.198393758400002,1.9075092792,-6.661819339999999,-115.57110788,19.44277788,,,
imu,499.540194,-3.0727109336,-9.1960011472,1.9685208648,-5.084191329999999,-104.65481928,14.63512475,,,
imu,499.548643,-2.996745528,-9.2133475784,2.0648234656,-3.35702512,-93.31234681,10.61254717,,,
imu,499.557093,-2.9482951512,-9.261199802400002,2.1090867728,-1.83173548,-82.13436635999999,7.158214750000001,,,
imu,499.565542,-2.9423136232,-9.3269966104,2.164714983200001,-0.5008455,-70.92647826999999,4.444096419999999,,,
imu,499.573992,-2.8795075792,-9.391597112800001,2.2299136384,0.7253677399999999,-59.75597473,2.67954566,,,
imu,499.582442,-2.701856197600001,-9.438851184,2.2275210272,1.8917657,-48.74996321,1.49819388,,,
imu,499.590908,-2.427304062400001,-9.422102905600001,2.174285428,2.90862546,-38.71594999,0.3392728300000001,,,
imu,499.599374,-2.0929366472,-9.346735652800001,2.1581353024,3.65631646,-29.9006731,-1.0290017,,,
imu,499.60784,-1.761559996,-9.3628857784,2.1228442872,4.53859184,-22.39385546,-2.48699915,,,
imu,499.616306,-1.426594428,-9.388606348800002,2.0911421888,5.39843649,-16.60672712,-4.079580979999999,,,
imu,499.624772,-1.15144414,-9.468160671200001,2.07858098,6.03397384,-11.98599674,-5.283363489999999,,,
imu,499.633238,-0.9522592576000002,-9.6326526912,2.105497856,6.54240372,-8.35221848,-5.97123921,,,
imu,499.641704,-0.7781967928000002,-9.756470320800002,2.0971237168,6.49754226,-5.54090032,-6.2628387,,,
imu,499.65017,-0.5903768136,-9.8264541984,2.0708049936,6.14612749,-3.22305822,-5.94880848,,,
imu,498.253741,,,,,,,79.0049876,-31.61057480000002,114.48524
imu,498.355334,,,,,,,83.2897148,-34.40602360000003,123.94582
imu,498.456866,,,,,,,89.466558,-36.39579720000001,123.2500096
imu,498.558428,,,,,,,87.52561320000001,-36.07841000000001,125.8501432
imu,498.660113,,,,,,,85.12079480000001,-37.32354440000001,121.7973528
imu,498.761553,,,,,,,75.9531876,-36.09061720000002,118.086364
imu,498.863238,,,,,,,71.155758,-37.66534600000002,111.6043408
imu,498.964678,,,,,,,70.3378756,-40.63169560000001,108.9797928
imu,499.658636,-0.4318663216,-9.883278714400001,2.042691812,5.43582104,-1.91459897,-5.634778259999999,,,
imu,499.667102,-0.3600879856,-9.960440425600002,2.0379065896,4.77785296,-0.8528777500000002,-5.17120984,,,
imu,499.675568,-0.31403022,-9.9747960928,2.0265416864,4.12736179,-0.20986349,-4.43847266,,,
imu,499.684035,-0.3636769024000001,-10.0334150672,2.0432899648,3.44696298,0.3209971199999999,-3.74312003,,,
imu,499.692501,-0.3385544848000001,-9.956851508800002,1.9870636016,2.2656112,1.13598031,-3.22721324,,,
imu,499.700967,-0.2560093984,-9.850380310400002,1.9780913096,1.55530475,1.89114822,-2.68139881,,,
imu,499.709433,-0.2278962168,-9.8228652816,1.9667264064,1.19641307,2.44443956,-2.54681443,,,
imu,499.717899,-0.2069608688,-9.831239420800001,1.9433984472,0.8375213899999999,2.85566961,-2.77859864,,,
imu,499.726365,-0.2141387024,-9.850978463200002,1.9398095304,0.65059864,3.15474601,-3.25712088,,,
imu,499.734831,-0.2560093984,-9.858754449600001,1.9517725864,0.41133752,3.54354533,-3.59358183,,,
imu,499.743297,-0.367863972,-9.866530436000001,1.9523707392,0.38142988,4.194036499999999,-3.97490424,,,
imu,499.751763,-0.5096261856000001,-9.887465784000002,1.9547633504,0.11973803,5.352957549999999,-4.30388828,,,
imu,499.760229,-0.6483976352,-9.873708269600002,1.955959656,0.03749201999999999,7.244615779999999,-4.35622665,,,
imu,499.768695,-0.7811875568000001,-9.863539672000002,1.920070488,0.11973803,9.644703889999999,-4.34874974,,,
imu,499.777161,-0.8733030880000001,-9.820472670400001,1.9039203624,0.17955331,12.61303716,-4.40108811,,,
imu,499.785628,-0.9702038416000002,-9.7714241408,1.8943499176,0.35152224,16.02998503,-4.53567249,,,
imu,499.79409,-1.0635156784,-9.724170069600001,1.8823868616,0.79265993,19.55908655,-5.11887147,,,
imu,499.802552,-1.193314836,-9.706823638400001,1.8614515136,1.08425942,23.23772627,-5.98619303,,,
imu,499.811014,-1.2662894776,-9.7337405144,1.878199792,1.40576655,27.4472266,-6.89837605,,,
imu,499.819477,-1.3033749512,-9.8043225448,1.8704238056,1.89924261,31.98571097,-7.87785126,,,
imu,499.827939,-1.262102408,-9.80970592,1.8267586512,1.79456587,36.46438006,-9.04424922,,,
imu,499.836401,-1.217240948,-9.813892989600001,1.815393748,1.50296638,40.89071078,-10.21812409,,,
imu,499.844863,-1.1963056,-9.825856045600002,1.8016362336,1.12912088,44.89085763,-11.31722986,,,
imu,499.853326,-1.0611230672,-9.879091644800003,1.7789064272,0.4711528,48.57697426,-12.25184361,,,
imu,499.861788,-0.8517695872000001,-9.8629415192,1.722680064,-0.14943073,51.88176848,-12.93224242,,,
imu,499.87025,-0.7279519576000001,-9.805518850400002,1.7161003832,-0.7401066199999999,54.34167187,-13.34347247,,,
imu,499.878713,-0.6771089696000001,-9.7809945856,1.7125114664,-1.06909066,56.20342246,-13.76217943,,,
imu,499.887175,-0.6962498592000002,-9.737329431200001,1.6999502576,-1.2485365,57.58665080999999,-13.75470252,,,
imu,499.895637,-0.9510629520000001,-9.6912716656,1.7125114664,-1.16629049,59.63532415,-13.24627264,,,
imu,499.904099,-1.3392641192,-9.6296619272,1.7029410216,-0.82235263,62.97750292,-12.08735159,,,
imu,499.912562,-1.7274652864,-9.537546396000002,1.6784167568,-0.13447691,67.92721734,-10.76393852,,,
imu,499.921024,-2.1090867728,-9.484908949600001,1.6532943392,0.6954601,74.46203668,-10.50224667,,,
imu,499.929486,-2.4476412576,-9.419112141600001,1.5677584888,1.95905789,82.4772842,-11.15273784,,,
imu,499.937948,-2.7401379768,-9.414326919200002,1.5067469032,3.23013259,91.78603715,-12.87990405,,,
imu,499.946411,-2.966837888,-9.462777296000002,1.4242018168,4.374099820000001,102.31352643,-15.2351307,,,
imu,499.954873,-3.0990296568,-9.6290637744,1.3243102992,5.58535924,113.66347581,-17.91186448,,,
imu,499.963335,-3.0272513208,-9.889260242400002,1.2405689072,6.21341968,125.72373164,-20.64093663,,,
imu,499.971798,-2.5774404152,-10.1560363912,1.124527264,5.83209727,137.15592703,-23.66908518,,,
imu,499.98026,-2.0690105352,-10.342061912,0.9845595088000001,4.81523751,146.82357166,-26.75704901,,,
imu,499.988722,-1.603049504,-10.4186254704,0.9157719368000001,3.37219388,154.34534312,-29.11227566,,,
imu,499.997202,-1.0419821776,-10.4383645128,0.9056033392000001,1.60764312,159.66142613,-30.42821182,,,
imu,500.005682,-0.6226770648,-10.4688703056,0.8392083784000002,-0.17933837,163.06342018,-31.39273321,,,
imu,500.014162,-0.2278962168,-10.4551127912,0.8463862120000001,-2.06351969,164.48403308,-31.67685579,,,
imu,500.022642,0.4240903352000001,-10.4365700544,0.8368157672000002,-3.902839549999999,164.4242178,-30.62261148,,,
imu,500.031122,1.097610388,-10.3528286624,0.8667234072000001,-5.60757503,161.76991475,-29.46369043,,,
imu,500.039603,1.3751532872,-10.1333065848,0.8894532136000001,-7.07304939,156.88749252,-27.97578534,,,
imu,500.048083,1.5240933344,-9.9484773696,0.9965225648000002,-8.03757078,150.42744228,-25.00745207,,,
imu,500.056563,1.5677584888,-9.828846809600002,1.1023956104,-8.56843139,143.0402552,-21.64284257,,,
imu,500.06495,1.462483596,-9.687084596000002,1.1646035016,-8.845077060000001,135.66802194,-18.62964784,,,
imu,500.07343,1.2692802416,-9.516611048000001,1.2609061024,-8.64320049,129.03600277,-16.11740608,,,
imu,500.08191,1.133499556,-9.367072848000001,1.3135435488,-8.11233988,122.98718258,-14.59211644,,,
imu,500.09039,1.0611230672,-9.2761536224,1.3775458984,-7.185203039999999,117.44679227,-14.75660846,,,
imu,500.09887,1.2058760448,-9.443636406400001,1.6042458096,-5.91412834,112.22790909,-16.11740608,,,
imu,500.10735,1.4134350664,-9.697253193600002,1.6999502576,-4.69539201,106.63518041,-17.98663358,,,
imu,500.11583,1.5510102104,-9.787574266400002,1.7412228008,-4.02994702,100.63122168,-19.14555463,,,
imu,500.12431,1.5055505976,-9.6775141512,1.7998417752,-3.78320899,93.99920251,-19.07826244,,,
imu,500.13279,1.3422548832,-9.509433214400001,1.8608533608,-3.36450203,87.75598266,-17.88195684,,,
imu,500.14127,1.145462612,-9.3664746952,1.8590589024,-2.73644159,81.99876196000001,-16.2818981,,,
imu,500.14975,0.9737927584000001,-9.251629357600002,1.8435069296,-1.62985891,77.093909,-14.67436245,,,
imu,500.15823,0.8876587552000001,-9.154728604,1.8417124712,-0.007369440000000005,72.77973193,-13.47057994,,,
imu,500.16671,0.8565548096000002,-9.0996985464,1.7980473168,1.80951969,68.75715435000001,-13.18645736,,,
imu,500.175191,0.7901598488000001,-9.0883336432,1.8201789704,4.2096078,64.73457677,-13.17898045,,,
imu,500.183671,0.741709472,-9.2169364952,1.941005836,6.7517572,60.80919901999999,-12.99953461,,,
imu,500.192151,0.7405131664000002,-9.439449336800001,2.0319250616,8.852768909999998,57.10812857,-12.86495023,,,
imu,500.200953,0.6699311360000001,-9.566257730400002,2.0349158256,10.05655142,53.52668868,-12.63316602,,,
imu,500.209755,0.56824516,-9.597361676,2.072599452,10.58741203,50.19198682,-11.77332137,,,
imu,500.218558,0.4803166984,-9.613511801600001,2.1180590648,10.70704259,47.35823792999999,-10.64430796,,,
imu,500.22736,0.3720510416,-9.723571916800001,2.1330128848,10.69956568,44.7936578,-9.87418623,,,
imu,500.236162,0.2428500368,-9.8617452136,2.1467703992,10.54255057,42.52815407,-9.27603343,,,
imu,500.244965,0.1058730456,-9.925747563200002,2.1342091904,9.592982999999998,40.97295679,-8.62554226,,,
imu,500.253767,0.01495382,-9.953860744800002,2.1132738424,8.650892339999999,39.96357394,-7.87785126,,,
imu,500.262569,-0.011963056,-9.983170232,2.1037033976,7.70132477,39.3355135,-7.6086825,,,
imu,500.271372,0.0053833752,-9.999320357600002,2.0809735912,6.81157248,38.67754541999999,-7.70588233,,,
imu,500.280174,0.05383375200000001,-9.9969277464,2.0612345488,5.96668165,37.84760841,-7.803082159999999,,,
imu,500.288976,0.1100601152,-9.959244120000001,2.062430854400001,5.19655992,36.99524066999999,-7.74326688,,,
imu,500.297779,0.1495382,-9.904214062400001,2.0414955064,4.63579167,35.97838091,-7.48157503,,,
imu,500.306581,0.188418132,-9.879091644800003,2.0271398392,4.11240797,34.43813745,-7.257267730000001,,,
imu,500.315383,0.2326814392,-9.849184004800001,1.994839588,3.731085559999999,32.80817107,-6.80865313,,,
imu,500.324186,0.2410555784,-9.803126239200001,1.9607448784,3.69370101,31.1856816,-6.33013089,,,
imu,500.332988,0.2733558296,-9.740918348000001,1.935024308,3.7609932,29.29402337,-5.65720899,,,
imu,500.34179,0.305057928,-9.719983000000001,1.9326316968,3.88062376,27.2229193,-5.32074804,,,
imu,500.350593,0.3325729568,-9.749890640000002,1.9069111264,4.34419218,25.00227703,-5.26840967,,,
imu,500.359395,0.3158246784000001,-9.76484446,1.8889665424,4.62083785,22.75920403,-5.11139456,,,
imu,500.368197,0.2954874832,-9.793555794400001,1.8919573064,4.89000661,20.82268434,-4.647826139999999,,,
imu,500.377,0.3008708584000001,-9.790565030400002,1.8770034864,4.94234498,18.96841066,-4.40108811,,,
imu,500.385802,0.3044597752,-9.779200127200001,1.8506847632,4.91991425,17.00946024,-4.49828794,,,
imu,500.394604,0.305057928,-9.751685098400001,1.8441050824,4.99468335,15.13275583,-4.430995749999999,,,
imu,500.403079,0.2847207328,-9.746301723200002,1.848292152,5.01711408,13.48783563,-4.21416536,,,
imu,500.411554,0.2691687600000001,-9.743909112,1.8387217072,5.21151374,12.00740745,-3.93751969,,,
imu,500.420029,0.2500278704,-9.7361331256,1.8315438736,5.37600576,10.48959472,-3.70573548,,,
imu,500.428504,0.2398592728,-9.728955292000002,1.8267586512,5.35357503,9.009166539999999,-3.58610492,,,
imu,500.436979,0.2201202304,-9.7301515976,1.8351327904,5.34609812,7.767999479999999,-3.4216129,,,
imu,500.445454,0.185427368,-9.767237071200002,1.860255208,5.248898290000001,6.35486349,-3.36179762,,,
imu,500.453929,0.1238176296,-9.817481906400001,1.8447032352,4.87505279,5.33800373,-3.22721324,,,
imu,500.462404,0.07177833600000001,-9.8264541984,1.8267586512,4.50120729,4.74732784,-2.99542903,,,
imu,500.470879,0.03110394560000001,-9.8234634344,1.8022343864,3.94043904,4.171605769999999,-2.98795212,,,
imu,499.066161,,,,,,,70.6918844,-43.43935160000001,109.846504
imu,499.167723,,,,,,,72.52296439999999,-43.90322520000001,112.8250608
imu,499.269286,,,,,,,77.88192519999998,-43.74453160000002,119.1728048
imu,499.370818,,,,,,,87.81858600000001,-44.19619800000001,124.128928
imu,499.472411,,,,,,,95.7654732,-42.13318120000002,127.1318992
imu,499.573973,,,,,,,109.4009156,-40.98570440000002,121.3334792
imu,499.675536,,,,,,,109.6816812,-38.7762012,120.7231192
imu,499.777098,,,,,,,109.9380324,-38.86165160000002,118.0985712
imu,500.479354,-0.023926112,-9.818678212000002,1.7842898024,3.43200916,3.67812971,-2.93561375,,,
imu,500.487829,-0.0681894192,-9.802528086400002,1.7501950928,3.03573293,3.40148404,-3.08515195,,,
imu,500.496304,-0.1082656568,-9.800733628000001,1.7244745224,2.75161035,3.34914567,-3.23469015,,,
imu,500.504779,-0.1483418944,-9.7534795568,1.7011465632,2.67684125,3.57345297,-3.08515195,,,
imu,500.513254,-0.1722680064,-9.7283571392,1.6855945904,2.81142563,3.85757555,-2.94309066,,,
imu,500.521729,-0.1896144376,-9.725366375200002,1.6820056736,2.92357928,4.15665195,-2.95056757,,,
imu,500.530204,-0.2015774936,-9.724768222400002,1.6622666312,3.34976315,4.63517419,-2.85336774,,,
imu,500.538679,-0.2201202304,-9.7163940832,1.6640610896,3.67874719,5.20341935,-2.87579847,,,
imu,500.547154,-0.2308869808,-9.746301723200002,1.6503035752,3.96286977,5.73427996,-2.80102937,,,
imu,500.555629,-0.2326814392,-9.801929933600002,1.6455183528,4.15726943,6.138033099999999,-2.77859864,,,
imu,500.564104,-0.230288828,-9.832435726400002,1.6317608384,4.03016196,6.71375517,-2.86832156,,,
imu,500.572579,-0.2296906752000001,-9.886269478400003,1.6323589912,3.70117792,7.25209269,-3.1973056,,,
imu,500.581054,-0.2117460912,-9.920364188,1.6341534496,3.40210152,7.61098437,-3.36179762,,,
imu,500.589529,-0.1836329096,-9.955655203200001,1.62996638,2.82637945,7.89510695,-3.60853565,,,
imu,500.598004,-0.1567160336,-9.9365143136,1.6042458096,2.28804193,8.20913717,-3.7954584,,,
imu,500.606471,-0.1268083936,-9.8982325344,1.6227885464,1.71979677,8.32129082,-3.93004278,,,
imu,500.614939,-0.07716171120000001,-9.859950755200002,1.6431257416,0.91229049,8.29138318,-4.17678081,,,
imu,500.623406,-0.1040785872,-9.882680561600003,1.656883256,0.47862971,8.26147554,-4.19921154,,,
imu,500.631873,-0.09510629520000001,-9.880886103200002,1.6766222984,-0.02232326000000001,8.463352109999999,-4.11696553,,,
imu,500.640341,-0.1028822816,-9.8820824088,1.6891835072,-0.51579932,8.33624464,-4.22911918,,,
imu,500.648808,-0.1214250184,-9.886867631200001,1.7184929944,-0.9644139199999999,8.306337,-4.386134289999999,,,
imu,500.657275,-0.1082656568,-9.881484256,1.7388301896,-1.39059779,8.612890310000001,-4.363703559999999,,,
imu,500.665743,-0.1178361016,-9.8402117128,1.7430172592,-1.8466893,8.65775177,-4.49081103,,,
imu,500.67421,-0.11963056,-9.785181655200002,1.7501950928,-2.0709966,8.89701289,-4.57305704,,,
imu,500.682678,-0.092713684,-9.7295534448,1.7537840096,-2.1457657,9.098889459999999,-4.602964679999999,,,
imu,500.691145,-0.07955432240000002,-9.714001472000001,1.7513913984,-1.87659694,9.18113547,-4.79736434,,,
imu,500.699612,-0.1232194768,-9.687084596000002,1.743615412,-1.49527453,9.40544277,-4.94690254,,,
imu,500.70808,-0.1411640608,-9.673925234400002,1.7807008856,-1.08404448,9.711996079999999,-4.83474889,,,
imu,500.716547,-0.1579123392,-9.730749750400001,1.8267586512,-0.79244499,10.00359557,-4.82727198,,,
imu,500.725014,-0.2290925224000001,-9.8132948368,1.8668348888,-0.68776825,10.37744107,-4.92447181,,,
imu,500.733482,-0.2817299688000001,-9.8719138112,1.8590589024,-0.93450628,11.26719336,-5.16373293,,,
imu,500.741949,-0.2763465936,-9.8479876992,1.8375254016,-1.38312088,12.20180711,-5.58243989,,,
imu,500.750416,-0.2619909264,-9.801929933600002,1.8345346376,-1.76444329,13.27100524,-6.098346680000001,,,
imu,500.758884,-0.2225128416,-9.7845835024,1.833338332,-2.09342733,14.23552663,-6.838560769999999,,,
imu,500.767351,-0.1692772424,-9.739722042400002,1.8237678872,-2.16071952,14.91592544,-7.518959579999999,,,
imu,500.775818,-0.08792846160000001,-9.685290137600001,1.8225715816,-2.01865823,15.50660133,-8.019912549999999,,,
imu,500.784286,-0.0197390424,-9.6745233872,1.851282916,-1.78687402,15.67109335,-8.371327319999999,,,
imu,500.792753,0.0143556672,-9.6637566368,1.85427368,-1.12142903,15.76829318,-8.304035129999999,,,
imu,500.801221,0.0352910152,-9.573435564,1.806421456,-0.40364567,15.64118571,-7.92271272,,,
imu,500.80968,0.03887993200000001,-9.481918185600001,1.7842898024,0.2468455,15.27481712,-7.780651429999999,,,
imu,500.81814,0.04964668240000001,-9.514218436800002,1.7633544544,1.13659779,14.75143342,-7.586251770000001,,,
imu,500.8266,0.0221316536,-9.533957479200001,1.7232782168,2.116073,14.07851152,-7.586251770000001,,,
imu,500.835059,0.009570444800000001,-9.529770409600001,1.722680064,2.75161035,13.41306653,-7.46662121,,,
imu,500.843519,-0.002990764,-9.505844297600001,1.707726244,3.5366859,12.50088351,-7.65354396,,,
imu,500.851979,-0.004187069600000001,-9.512423978400001,1.6891835072,4.35166909,11.50645448,-7.847943620000001,,,
imu,500.860439,-0.0065796808,-9.549509452,1.680809368,5.21899065,10.51202545,-8.07225092,,,
imu,500.868898,-0.0065796808,-9.554892827200002,1.6431257416,6.16108131,9.4278735,-8.019912549999999,,,
imu,500.877358,-0.017944584,-9.522592576000001,1.620994088,7.00597214,8.59045958,-7.646067049999999,,,
imu,500.885818,-0.0215335008,-9.4633754488,1.6072365736,7.85833988,7.64089201,-7.09277571,,,
imu,500.894278,-0.04007623760000001,-9.4496179344,1.5964698232,8.87519964,6.48197096,-6.54696128,,,
imu,500.902737,-0.07058203040000001,-9.495077547200001,1.5540009744,10.1163667,5.33800373,-6.34508471,,,
imu,500.911197,-0.0933118368,-9.527377798400002,1.5480194464,11.3874414,4.388436159999999,-5.93385466,,,
imu,500.919657,-0.1064711984,-9.5632669664,1.5294767096,12.59122391,3.28933039,-5.612347529999999,,,
imu,500.928116,-0.146547436,-9.589585689600002,1.5211025704,13.7800526,2.44443956,-5.522624609999999,,,
imu,500.936576,-0.200381188,-9.627867468800002,1.501363528,14.79691236,1.71917929,-5.31327113,,,
imu,500.945036,-0.230288828,-9.6290637744,1.4732503464,15.79134139,1.2780416,-4.759979789999999,,,
imu,500.953496,-0.2338777448,-9.599754287200001,1.417622136,16.85306261,0.9640113799999996,-4.02724261,,,
imu,500.961955,-0.2428500368,-9.673925234400002,1.4379593312,17.97459911,0.8219500899999996,-3.47395127,,,
imu,500.970415,-0.2607946208,-9.718786694400002,1.4373611784,18.60265955,0.56025824,-3.07019813,,,
imu,500.978875,-0.2380648144,-9.783985349600002,1.4672688184,19.00641269,0.4032431299999999,-2.50942988,,,
imu,500.987335,-0.2027737992,-9.860548908000002,1.4571002208,18.90921286,0.2611818399999999,-2.47204533,,,
imu,500.995794,-0.1902125904,-9.9012232984,1.423603664,18.4157368,0.09668981999999993,-2.3748455,,,
imu,501.004254,-0.191408896,-9.963431189600001,1.3769477456,17.80263018,0.06678217999999969,-2.09819983,,,
imu,501.012734,-0.2129423968,-10.00410558,1.3273010632,16.93530862,-0.04537147000000008,-1.94866163,,,
imu,501.021214,-0.230288828,-10.03401322,1.277056228,15.97078723,0.06678217999999969,-1.76921579,,,
imu,501.029694,-0.233279592,-10.0238446224,1.2280076984,15.13337331,0.1714589200000001,-1.65706214,,,
imu,501.038174,-0.2434481896,-10.0166667888,1.1789591688,14.43054377,0.4555814999999996,-1.50752394,,,
imu,501.046654,-0.2290925224000001,-10.016068636,1.1406773896,13.69780659,0.66493498,-1.54490849,,,
imu,501.055134,-0.2296906752000001,-10.0172649416,1.1221346528,12.85291576,0.9191499199999997,-1.5523854,,,
imu,501.063614,-0.2344758976,-10.0094889552,1.0880399432,12.32205515,1.32290306,-1.29069355,,,
imu,501.072095,-0.2284943696,-9.9933388296,1.0635156784,11.26781084,1.63693328,-1.22340136,,,
imu,501.080575,-0.2099516328,-9.989151760000002,1.0683009008,10.43787383,1.9509635,-0.79721749,,,
imu,501.089055,-0.1848292152,-10.0023111216,1.0605249144,9.82476721,2.39210119,-0.4532796299999999,,,
imu,501.097535,-0.1800439928,-10.0322187616,1.0629175256,8.912584189999999,2.61640849,-0.2214954199999999,,,
imu,501.106015,-0.1477437416,-10.0705005408,1.0569359976,8.13498555,2.85566961,0.002811879999999878,,,
imu,501.114495,-0.1112564208,-10.0950248056,1.0443747888,7.34991,3.04259236,0.08505788999999986,,,
imu,501.122975,-0.09869521200000002,-10.0705005408,1.0276265104,6.49006535,3.00520781,0.002811879999999878,,,
imu,501.131455,-0.09211553120000002,-10.04896704,1.0180560656,5.60778997,2.8481927,-0.26635688,,,
imu,501.139935,-0.08314323920000001,-9.9969277464,0.9977188704000002,4.92739116,2.84071579,-0.51309491,,,
imu,501.148415,-0.06400234960000001,-9.953262592000002,0.9869521200000001,4.55354566,2.51920866,-1.05890934,,,
imu,501.156835,-0.05742266880000001,-9.920364188,0.9755872168000002,4.40400746,2.31733209,-1.31312428,,,
imu,501.165315,-0.0532355992,-9.864137824800002,0.9606333968,4.26942308,2.1005017,-1.55986231,,,
imu,501.173795,-0.0490485296,-9.820472670400001,0.9570444800000002,4.26942308,1.85376367,-1.78416961,,,
imu,501.182275,-0.0532355992,-9.798341016800002,0.9594370912000001,4.46382274,1.70422547,-1.9262309,,,
imu,501.190756,-0.0550300576,-9.786377960800001,0.9582407856000001,4.69560695,1.56216418,-2.09072292,,,
imu,501.199236,-0.06460050240000001,-9.796546558400001,0.9791761336000001,4.79280678,1.31542615,-2.40475314,,,
imu,501.207716,-0.0735727944,-9.803126239200001,0.9845595088000001,4.81523751,1.11354958,-2.49447606,,,
imu,501.216519,-0.0634041968,-9.840809865600002,0.998915176,4.55354566,0.9116730099999999,-2.44213769,,,
imu,501.225323,-0.0663949608,-9.893447312000001,1.0096819264,4.29933072,0.8144731799999998,-2.47204533,,,
imu,501.234127,-0.0735727944,-9.920364188,0.9983170232,3.86566994,0.8369039099999998,-2.35989168,,,
imu,501.24293,-0.08733030880000002,-9.912588201600002,0.9857558144000002,3.28994787,0.70231953,-2.38232241,,,
imu,501.251734,-0.0933118368,-9.895839923200002,0.9983170232,2.87871782,0.7995193599999997,-2.23278421,,,
imu,501.260538,-0.0861340032,-9.874306422400002,0.9935318008000001,2.60954906,0.9640113799999996,-2.21035348,,,
imu,501.269341,-0.08374139200000001,-9.8479876992,0.9881484256000002,2.39271867,1.21074941,-2.04586146,,,
imu,501.278145,-0.08254508640000002,-9.810304072800001,0.9977188704000002,2.33290339,1.27056469,-2.06829219,,,
imu,501.286949,-0.09091922560000001,-9.802528086400002,0.9947281064000002,2.07121154,1.32290306,-2.20287657,,,
imu,499.878661,,,,,,,108.692898,-38.76399400000001,121.9560464
imu,499.980223,,,,,,,106.7641604,-39.20345320000001,123.274424
imu,500.081908,,,,,,,98.92713799999999,-39.93588520000002,126.9243768
imu,500.183379,,,,,,,91.175566,-39.60629080000002,126.814512
imu,500.285003,,,,,,,86.353722,-38.33674200000002,124.6904592
imu,500.386504,,,,,,,84.79120040000001,-38.17804840000001,124.6538376
imu,500.488067,,,,,,,86.0241276,-38.3123276,123.1645592
imu,500.589629,,,,,,,85.9508844,-38.71516520000002,121.1259568
imu,501.295752,-0.08433954480000001,-9.803126239200001,1.0001114816,2.21327283,1.61450255,-2.18792275,,,
imu,501.304556,-0.07596540560000001,-9.803724392000001,0.9797742864000001,2.48244159,1.69674856,-2.32998404,,,
imu,501.31336,-0.06699311360000001,-9.803126239200001,0.9953262592000002,2.74413344,1.92853277,-2.34493786,,,
imu,501.322163,-0.0663949608,-9.802528086400002,0.9971207176000002,3.0133022,2.04816333,-2.23278421,,,
imu,501.330967,-0.0663949608,-9.824659740000001,0.9923354952000002,3.20022495,2.03320951,-2.18792275,,,
imu,501.339771,-0.05981528000000001,-9.869521200000003,1.00190594,3.37967079,2.25751681,-1.99352309,,,
imu,501.348574,-0.05383375200000001,-9.904214062400001,0.9965225648000002,3.36471697,2.27994754,-2.04586146,,,
imu,501.357378,-0.0340947096,-9.911990048800002,0.9971207176000002,3.28994787,2.27247063,-2.18792275,,,
imu,501.366182,-0.03349655680000001,-9.9239531048,1.0001114816,3.27499405,2.15284007,-2.56924516,,,
imu,501.374985,-0.04187069600000001,-9.931729091200001,0.9893447312000001,2.96096383,2.01077878,-3.00290594,,,
imu,501.383789,-0.04486146000000001,-9.904214062400001,0.9815687448000001,2.68431816,1.89862513,-3.22721324,,,
imu,501.392592,-0.0352910152,-9.8778953392,0.9803724392000001,2.50487232,1.89862513,-3.39170526,,,
imu,501.401396,-0.0293094872,-9.831239420800001,0.9863539672000001,2.25065738,1.84628676,-3.40665908,,,
imu,501.4102,-0.0281131816,-9.828846809600002,0.9917373424000001,2.04878081,1.90610204,-3.24964397,,,
imu,501.418682,-0.01495382,-9.828846809600002,0.9881484256000002,1.88428879,1.81637912,-3.02533667,,,
imu,501.427165,-0.002990764,-9.8330338792,0.9815687448000001,1.88428879,1.93600968,-2.80102937,,,
imu,501.435648,-0.0005981528000000001,-9.835426490400001,0.9618297024000001,1.7422275,1.83880985,-2.68887572,,,
imu,501.44413,0.0053833752,-9.8168837536,0.9546518688000002,1.78708896,1.69674856,-2.77859864,,,
imu,501.452613,0.005981528000000001,-9.8043225448,0.9367072848000002,1.77961205,1.74908693,-2.78607555,,,
imu,501.461096,0.007775986400000001,-9.803126239200001,0.9145756312000002,1.8169966,1.80890221,-2.8234601,,,
imu,501.469578,0.0197390424,-9.801929933600002,0.8960328944000001,1.92915025,1.77899457,-2.98047521,,,
imu,501.478061,0.0191408896,-9.797742864000002,0.8816772272000001,1.95905789,1.66684092,-3.11505959,,,
imu,501.486543,0.01495382,-9.794752100000002,0.8679197128000001,2.07868845,1.76404075,-3.1225365,,,
imu,501.495026,0.0137575144,-9.802528086400002,0.8595455736000001,2.24318047,1.62197946,-3.13749032,,,
imu,501.503509,0.023926112,-9.812696684000002,0.8481806704000001,2.3403803,1.60702564,-3.04029049,,,
imu,501.511991,0.0376836264,-9.806715156000001,0.8481806704000001,2.20579592,1.577118,-3.21225942,,,
imu,501.520474,0.020935348,-9.840809865600002,0.86732156,2.06373463,1.53225654,-3.31693616,,,
imu,501.528956,0.0173464312,-9.873708269600002,0.8619381848000001,2.01139626,1.5023489,-3.35432071,,,
imu,501.537439,0.0233279592,-9.8916528536,0.8810790744000001,1.9665348,1.48739508,-3.2720747,,,
imu,501.545922,0.0227298064,-9.9329253968,0.8984255056000002,1.64502767,1.43505671,-3.30198234,,,
imu,501.554404,0.0215335008,-10.00410558,0.9121830200000002,1.2936129,1.27056469,-3.45899745,,,
imu,501.562887,0.009570444800000001,-10.054948568,0.9265386872000001,0.73284465,1.30047233,-3.60853565,,,
imu,501.57137,0.007775986400000001,-10.0573411792,0.9432869656,0.03749201999999999,1.21074941,-3.75807385,,,
imu,501.579852,0.002990764,-10.0334150672,0.9594370912000001,-0.73262971,1.16588795,-3.95247351,,,
imu,501.588335,0.002990764,-10.0346113728,0.9821668976000001,-1.40555161,1.21822632,-3.81041222,,,
imu,501.596817,-0.0107667504,-10.0178630944,0.9743909112000002,-2.10838115,1.30047233,-3.6459202,,,
imu,501.6053,-0.0293094872,-9.980777620800001,0.9719983000000001,-2.54951884,1.7266562,-3.31693616,,,
imu,501.613783,-0.0191408896,-9.9401032304,0.9708019944000001,-3.06542563,1.90610204,-3.1973056,,,
imu,501.622244,0.0011963056,-9.9101955904,0.9881484256000002,-3.40188658,2.04816333,-3.20478251,,,
imu,501.630705,-0.0023926112,-9.8749045752,1.00190594,-3.52151714,2.28742445,-3.21973633,,,
imu,501.639166,-0.0065796808,-9.890456548000001,1.0072893152,-3.65610152,2.39210119,-3.42908981,,,
imu,501.647627,-0.0251224176,-9.941897688800001,1.0365988024,-3.82059354,2.46687029,-3.62348947,,,
imu,501.656088,-0.04127254320000001,-9.992142524000002,1.0748805816,-4.24677741,2.56407012,-3.75807385,,,
imu,501.664549,-0.04366515440000001,-10.0166667888,1.0629175256,-4.800068749999999,2.93791562,-3.83284295,,,
imu,501.67301,-0.0562263632,-10.0154704832,1.0581323032,-5.63748267,3.1472691,-3.93004278,,,
imu,501.681471,-0.06041343280000001,-9.989151760000002,1.064711984,-6.430035129999999,3.33419185,-4.169303899999999,,,
imu,501.689932,-0.05981528000000001,-10.0202557056,1.0515526224,-7.17772613,3.56597606,-4.28145755,,,
imu,501.698393,-0.06101158560000001,-10.0382002896,1.0503563168,-7.940370949999999,3.6706528,-4.22911918,,,
imu,501.706854,-0.0275150288,-10.04896704,1.0539452336,-8.7254465,3.5958837,-4.318842099999999,,,
imu,501.715315,-0.023926112,-10.0268353864,1.0611230672,-9.34603003,3.46877623,-4.35622665,,,
imu,501.723776,-0.0263187232,-9.9915443712,1.064711984,-10.08624412,3.34166876,-4.453426479999999,,,
imu,501.732237,-0.0275150288,-9.953860744800002,1.0545433864,-10.75168911,3.21456129,-4.47585721,,,
imu,501.740698,-0.0466559184,-9.858754449600001,1.0342061912,-11.05076551,3.21456129,-4.22911918,,,
imu,501.749159,-0.0490485296,-9.802528086400002,1.0533470808,-11.15544225,3.08745382,-4.124442439999999,,,
imu,501.75762,-0.0490485296,-9.752881404000002,1.0808621096,-10.88627349,3.13979219,-4.0197657,,,
imu,501.766081,-0.0323002512,-9.708019944000002,1.073684276,-10.65448928,3.15474601,-3.88518132,,,
imu,501.774542,-0.04545961280000001,-9.667943706400001,1.1023956104,-10.16849013,3.23699202,-3.69825857,,,
imu,501.783003,-0.03947808480000001,-9.6470083584,1.1520422928,-9.56286042,3.1472691,-3.58610492,,,
imu,501.791464,-0.0376836264,-9.6494009696,1.2040815864,-8.85255397,3.19213056,-3.44404363,,,
imu,501.799925,-0.04725407120000001,-9.657775108800001,1.2244187816,-8.20953971,3.24446893,-3.45152054,,,
imu,501.808386,-0.0442633072,-9.654186192000001,1.2315966152,-7.55157163,3.17717674,-3.40665908,,,
imu,501.816847,-0.04246884880000001,-9.638036066400002,1.2597097968,-6.998280289999999,3.07997691,-3.54872037,,,
imu,501.825365,-0.0406743904,-9.6326526912,1.2692802416,-6.31788148,3.11736146,-3.6459202,,,
imu,501.833883,-0.0346928624,-9.656578803200002,1.2728691584,-5.5851443,3.13979219,-3.66835093,,,
imu,501.842401,-0.0317020984,-9.6535880392,1.2692802416,-5.129052789999999,3.06502309,-3.82536604,,,
imu,501.850919,-0.0275150288,-9.644615747200001,1.2734673112,-4.56828454,2.96034635,-3.88518132,,,
imu,501.859438,-0.0143556672,-9.625474857600002,1.2644950192,-3.77573208,2.85566961,-3.90013514,,,
imu,501.867956,-0.0023926112,-9.597361676,1.268083936,-3.06542563,2.68370068,-3.90761205,,,
imu,501.876474,0.0005981528000000001,-9.588389384000001,1.2818414504,-2.39998064,2.64631613,-3.68330475,,,
imu,501.884992,0.0,-9.6075302736,1.274065464,-1.3980747,2.54163939,-3.50385891,,,
imu,501.893511,0.005981528000000001,-9.5985579816,1.2842340616,-0.65786061,2.54163939,-3.27955161,,,
imu,501.902029,0.0215335008,-9.588389384000001,1.2955989648,-0.08961545,2.21265535,-3.11505959,,,
imu,501.910547,0.0107667504,-9.612913648800001,1.3147398544,0.68798319,1.98834805,-3.01038285,,,
imu,501.919065,0.017944584,-9.639232372,1.3344788968,1.33847436,1.90610204,-3.06272122,,,
imu,501.927583,-0.0023926112,-9.6703363176,1.339862272,1.64502767,1.61450255,-3.1225365,,,
imu,501.936102,-0.002990764,-9.7403201952,1.3542179392,1.93662716,1.30794924,-3.28702852,,,
imu,501.94462,-0.007177833600000002,-9.827650504000003,1.3440493416,2.16841137,1.01634975,-3.39170526,,,
imu,501.953138,-0.03110394560000001,-9.8749045752,1.3326844384,2.17588828,0.6873657099999999,-3.74312003,,,
imu,501.961656,-0.05383375200000001,-9.867726741600002,1.3255066048,2.07121154,0.6948426199999997,-3.72816621,,,
imu,501.970174,-0.068787572,-9.868923047200001,1.3296936744,1.9665348,0.7696117199999999,-3.33188998,,,
imu,501.978693,-0.07955432240000002,-9.889260242400002,1.3063657152,1.86933497,0.9939190199999999,-2.92813684,,,
imu,501.987211,-0.09630260080000001,-9.8946436176,1.2914118952,1.62259694,1.13598031,-2.65896808,,,
imu,501.995729,-0.0753672528,-9.8683248944,1.2926082008,1.39081273,1.40514907,-2.64401426,,,
imu,502.004247,-0.0514411408,-9.843800629600002,1.2932063536,1.36090509,1.62945637,-2.748691,,,
imu,502.012766,-0.03648732080000001,-9.827650504000003,1.3051694096,1.27865908,1.62945637,-2.92813684,,,
imu,502.021284,-0.0275150288,-9.824659740000001,1.3207213824,0.94967504,1.58459491,-3.39918217,,,
imu,502.02969,-0.0275150288,-9.803126239200001,1.3045712568,0.88985976,1.74161002,-3.60853565,,,
imu,502.038096,-0.008972292000000002,-9.772620446400001,1.3267029104,0.82256757,1.74908693,-3.78050458,,,
imu,502.046503,0.0011963056,-9.7612555432,1.3470401056,0.56087572,1.78647148,-3.88518132,,,
imu,502.054909,0.0053833752,-9.755274015200001,1.3482364112,0.5459219,1.74161002,-4.00481188,,,
imu,502.063315,0.0185427368,-9.7492924872,1.3464419528,0.47862971,1.89114822,-3.90013514,,,
imu,502.071722,0.0167482784,-9.7576666264,1.3590031616,0.51601426,1.94348659,-3.69078166,,,
imu,502.080128,0.0053833752,-9.7636481544,1.351825328,0.81509066,2.01825569,-3.63844329,,,
imu,502.088534,-0.0017944584,-9.772620446400001,1.372760676,0.8973366700000001,1.98087114,-3.65339711,,,
imu,502.096941,0.0017944584,-9.7959484056,1.3691717592,0.8449983,1.91357895,-3.71321239,,,
imu,502.105347,-0.004187069600000001,-9.803126239200001,1.37575144,0.9272443100000001,1.99582496,-3.73564312,,,
imu,500.691144,,,,,,,82.752598,-37.18926520000001,123.579604
imu,500.792706,,,,,,,82.508454,-37.32354440000001,120.649876
imu,500.894269,,,,,,,81.73940040000001,-37.15264360000001,122.5786136
imu,500.995831,,,,,,,81.9103012,-37.43340920000002,122.7495144
imu,501.097363,,,,,,,82.59390440000001,-37.79962520000002,122.6762712
imu,501.198926,,,,,,,82.26431000000001,-37.6897604,123.2866312
imu,501.30061,,,,,,,82.2765172,-37.44561640000001,123.3720816
imu,501.402081,,,,,,,82.25210279999999,-37.88507560000001,122.8715864
imu,502.113753,-0.0101685976,-9.803126239200001,1.3811348152,1.00201341,1.88367131,-3.81788913,,,
imu,502.12216,0.0,-9.8043225448,1.3871163432,0.8375213899999999,1.71170238,-3.8702275,,,
imu,502.130566,0.0101685976,-9.806715156000001,1.3901071072,0.78518302,1.65936401,-3.90761205,,,
imu,502.138972,0.0005981528000000001,-9.822267128800002,1.3972849408,0.81509066,1.58459491,-3.71321239,,,
imu,502.147379,0.004187069600000001,-9.836024643200002,1.4020701632,0.65807555,1.42010289,-3.71321239,,,
imu,502.155785,-0.0011963056,-9.844398782400003,1.402668316,0.5010604399999999,1.34533379,-3.43656672,,,
imu,502.164191,-0.008972292000000002,-9.869521200000003,1.3841255792,0.4861066199999999,1.24065705,-3.16739796,,,
imu,502.172598,-0.0197390424,-9.886269478400003,1.3709662176,0.3739529699999999,1.32290306,-3.07019813,,,
imu,502.181004,-0.0263187232,-9.879689797600001,1.3679754536,0.14216876,1.33785688,-2.95804448,,,
imu,502.18941,-0.0293094872,-9.9000269928,1.3649846896,0.05992275,1.38271834,-2.89075229,,,
imu,502.197817,-0.0346928624,-9.907204826400001,1.3494327168,-0.10456927,1.47244126,-2.9729983,,,
imu,502.206223,-0.03947808480000001,-9.879091644800003,1.3470401056,-0.24663056,1.47991817,-3.01785976,,,
imu,502.214629,-0.0502448352,-9.840809865600002,1.3524234808,-0.47841477,1.50982581,-3.06272122,,,
imu,502.223036,-0.0526374464,-9.817481906400001,1.3554142448,-0.68029134,1.85376367,-2.94309066,,,
imu,502.231913,-0.0532355992,-9.803126239200001,1.3500308696,-0.64290679,2.13040934,-2.748691,,,
imu,502.240791,-0.06101158560000001,-9.794752100000002,1.3506290224,-0.58309151,2.31733209,-2.53186061,,,
imu,502.249604,-0.04785222400000001,-9.786377960800001,1.3536197864,-0.55318387,2.52668557,-2.58419898,,,
imu,502.258482,-0.0442633072,-9.776209363200001,1.363788384,-0.37373803,2.6986545,-2.72626027,,,
imu,502.26736,-0.03588916800000001,-9.786976113600002,1.372760676,-0.3513073,2.91548489,-2.98795212,,,
imu,502.276238,-0.0221316536,-9.766040765600001,1.3572087032,-0.39616876,2.96034635,-3.31693616,,,
imu,502.285116,-0.0245242648,-9.756470320800002,1.3572087032,-0.29149202,2.99025399,-3.6459202,,,
imu,502.293994,-0.0245242648,-9.7540777096,1.363788384,-0.08213854000000001,3.1472691,-3.91508896,,,
imu,502.302872,-0.0191408896,-9.767835224,1.3679754536,-0.05970781,3.19213056,-4.15435008,,,
imu,502.31175,-0.004187069600000001,-9.805518850400002,1.3901071072,0.19450713,3.19213056,-4.23659609,,,
imu,502.320628,0.0,-9.850978463200002,1.3913034128,0.1720764,3.21456129,-4.34874974,,,
imu,502.329505,-0.004187069600000001,-9.898830687200002,1.4038646216,-0.02980017,3.28933039,-4.341272829999999,,,
imu,502.338383,-0.0173464312,-9.9197660352,1.4182202888,-0.50832241,3.43886859,-4.22164227,,,
imu,502.347261,-0.04246884880000001,-9.957449661600002,1.4403519424,-1.12890594,3.40896095,-4.27398064,,,
imu,502.356139,-0.068787572,-9.977786856800002,1.4487260816,-1.65228964,3.55849915,-4.28893446,,,
imu,502.365017,-0.1303973104,-10.0064981912,1.495382,-2.36259609,4.05197521,-4.11696553,,,
imu,502.373895,-0.248233412,-10.0914358888,1.534261932,-3.32711748,4.76975857,-4.10948862,,,
imu,502.382773,-0.4372496968000001,-10.1769717392,1.5599825024,-4.62062291,6.00344872,-4.19173463,,,
imu,502.391651,-0.6783052752000002,-10.2870318544,1.6036476568,-6.40012749,8.21661408,-4.44594957,,,
imu,502.400529,-0.9450814240000001,-10.4449441936,1.6634629368,-8.40393937,11.57374667,-4.954379449999999,,,
imu,502.409407,-1.184342544,-10.5855101016,1.653892492,-10.95356568,15.88044683,-6.180592689999999,,,
imu,502.418285,-1.4313796504,-10.64711984,1.6802112152,-14.06396024,21.05446855,-8.00495873,,,
imu,502.427163,-1.671837076,-10.7446187464,1.7131096192,-17.50333884,27.33507295,-10.39009302,,,
imu,502.43558,-1.8076177616,-10.9115033776,1.7519895512,-21.44367041,34.4007529,-13.65750269,,,
imu,502.443996,-1.8147955952,-11.044891452,1.7274652864,-25.65317074,41.8776629,-17.56792662,,,
imu,502.452413,-1.8028325392,-10.9725149632,1.671837076,-30.46082387,49.45924964,-21.70265785,,,
imu,502.460829,-1.728661592,-10.9264571976,1.6772204512,-35.24604627,57.08569783999999,-25.60560487,,,
imu,502.469246,-1.6066384208,-10.868436376,1.7053336328,-39.52283879,64.42802346,-28.76086089,,,
imu,502.477662,-1.4559039152,-10.6955702168,1.65987402,-43.76972367,71.20210392,-31.36282557,,,
imu,502.486079,-1.3374696608,-10.5460320168,1.707726244,-47.34368665,77.52009287,-33.08251487,,,
imu,502.494495,-1.2268113928,-10.3827363024,1.6574814088,-50.21482009,83.26983666000001,-33.80777514,,,
imu,502.502912,-1.070693512,-10.0531541096,1.582114156,-52.3906009,88.06253597,-33.7030984,,,
imu,502.511328,-0.9289312984000001,-9.7074217912,1.579123392,-53.80373689,91.89819080000001,-33.78534441,,,
imu,502.519745,-0.7177833600000001,-9.437654878400002,1.620994088,-53.70653706,94.82166261,-33.95731334,,,
imu,502.528161,-0.5335522976000001,-9.352717180800001,1.7322505088,-52.37564708,96.81799758,-34.01712861999999,,,
imu,502.536577,-0.4294737104000001,-9.249834899200001,1.74959694,-50.5961425,98.08907228,-33.56851402,,,
imu,502.544994,-0.3397507904000001,-9.114054213600001,1.7687378296,-48.60728444,98.47039469,-32.29743932,,,
imu,502.55341,-0.1698753952,-8.868213412800001,1.7777101216,-46.14738105,98.1787952,-30.95907243,,,
imu,502.561827,0.05682451600000001,-8.633139362400001,1.8530773744,-43.1940016,97.04230488,-30.42821182,,,
imu,502.570243,0.2344758976,-8.575118540800002,2.0468788816,-39.26114694,95.13569283,-29.90482812,,,
imu,502.57866,0.331974804,-8.7760978816,2.2604194312,-35.16380026,92.39166686,-28.97769128,,,
imu,502.587076,0.4504090584,-9.009975626400001,2.3962001168,-31.88891368,89.06444191,-27.72904731,,,
imu,502.595493,0.6160973840000001,-9.114652366400001,2.5176251352,-29.45144102,85.19887944,-26.27852677,,,
imu,502.603909,0.7542706808000001,-9.011770084800002,2.554112456,-27.31304476,80.74264108,-25.11212881,,,
imu,502.612326,0.8110951968000001,-8.85266144,2.634264931200001,-24.88304901,75.65086537,-24.01302304,,,
imu,502.620742,0.8350213088000001,-8.8083981328,2.7233896984,-22.01939248,70.62638185,-22.36810284,,,
imu,502.629159,0.8416009896000001,-8.8777838576,2.820290452000001,-18.84918264,65.53460614,-20.34933714,,,
imu,502.63762,0.8242545584000001,-9.0087793208,2.9153967472,-16.06777212,60.3456306,-18.2258947,,,
imu,502.646081,0.7662337368000001,-9.0925207128,2.948893304,-13.64525328,55.29123944,-16.33423647,,,
imu,502.654542,0.6926609424000001,-9.083548420800001,2.9656415824,-11.7909796,50.48358631,-14.58463953,,,
imu,502.663003,0.6573699272000001,-9.0925207128,3.030840237600001,-10.16849013,45.74322537,-13.02944225,,,
imu,502.671464,0.6448087184,-9.1684861184,3.0858702952,-8.52356993,41.17483335999999,-11.68359845,,,
imu,502.679925,0.5963583416000001,-9.271368400000002,3.156452325600001,-7.01323411,36.80084101,-10.59196959,,,
imu,502.688386,0.5072335744,-9.288714831200002,3.123553921600001,-6.13095873,32.62872523,-9.61249438,,,
imu,502.696847,0.4432312248,-9.272564705600002,3.159443089600001,-5.061760599999999,28.86036259,-8.326465859999999,,,
imu,502.705308,0.3690602776000001,-9.2899111368,3.1779858264,-4.33650033,25.30135343,-7.36942138,,,
imu,501.503613,,,,,,,85.12079480000001,-37.98273320000001,123.1035232
imu,501.605176,,,,,,,82.94791319999999,-37.38458040000001,123.6650544
imu,501.706708,,,,,,,85.34052439999999,-37.94611160000001,120.8085696
imu,501.808301,,,,,,,82.36196760000001,-36.89629240000001,123.0424872
imu,501.909863,,,,,,,82.08120199999999,-37.20147240000002,120.7841552
imu,502.012799,,,,,,,82.02016599999999,-36.76201320000001,122.7495144
imu,502.113019,,,,,,,82.32534600000001,-36.72539160000001,122.969244
imu,502.214612,,,,,,,82.3009316,-36.28593240000002,123.6284328
imu,502.316045,,,,,,,82.31313879999999,-36.67656280000002,122.7617216
imu,502.417607,,,,,,,81.9957516,-36.24931080000002,122.4565416
imu,502.519414,,,,,,,80.4210228,-36.05399560000002,121.1869928
imu,502.620763,,,,,,,77.503502,-34.74782520000002,115.889068
