Type,Timestamp,Data Accelerometer X,Data Accelerometer Y,Data Accelerometer Z,Data Gyroscope X,Data Gyroscope Y,Data Gyroscope Z,Data Magnetometer X,Data Magnetometer Y,Data Magnetometer Z
imu,366.264841,-0.2913004136,-9.758264779200001,1.9176778768,1.33847436,2.37714737,-2.95804448,,,
imu,366.273319,-0.2679724544000001,-9.762451848800001,1.9266501688,1.28613599,2.324809,-2.83093701,,,
imu,366.281796,-0.2625890792,-9.767835224,1.92904278,1.07678251,2.36219355,-2.91318302,,,
imu,366.290274,-0.2536167872,-9.768433376800001,1.9266501688,0.8973366700000001,2.3995781,-3.07767504,,,
imu,366.298751,-0.245242648,-9.779200127200001,1.9356224608,0.9347212199999999,2.53416248,-3.09262886,,,
imu,366.307229,-0.2284943696,-9.780396432800002,1.9445947528,0.8674290299999999,2.50425484,-3.22721324,,,
imu,366.315707,-0.2207183832,-9.775611210400001,1.9451929056,0.81509066,2.45939338,-3.53376655,,,
imu,366.324184,-0.2189239248,-9.788770572,1.9487818224,0.74779847,2.324809,-3.60853565,,,
imu,366.332662,-0.2111479384,-9.786976113600002,1.9553615032,0.77770611,2.14536316,-3.80293531,,,
imu,366.341139,-0.2207183832,-9.768433376800001,1.9583522672,0.65807555,1.90610204,-3.8702275,,,
imu,366.349617,-0.2308869808,-9.746899876,1.9463892112,0.7702292,1.77899457,-3.63096638,,,
imu,366.358094,-0.2386629672,-9.746301723200002,1.9463892112,0.8823828499999999,1.70422547,-3.54872037,,,
imu,366.366572,-0.2404574256,-9.739123889600002,1.9457910584,0.73284465,1.48739508,-3.45152054,,,
imu,366.375049,-0.2518223288000001,-9.739123889600002,1.9493799752,0.97958268,1.41262598,-3.30198234,,,
imu,366.383527,-0.2685706072,-9.7331423616,1.9475855168,1.15902852,1.40514907,-3.50385891,,,
imu,366.392004,-0.2643835376,-9.715795930400002,1.9463892112,1.25622835,1.41262598,-3.61601256,,,
imu,366.400482,-0.2727576768,-9.7074217912,1.949978128,1.38333582,1.39019525,-3.71321239,,,
imu,366.408944,-0.2703650656,-9.688280901600002,1.9374169192,1.40576655,1.38271834,-3.82536604,,,
imu,366.417406,-0.2781410520000001,-9.697851346400002,1.9332298496,1.43567419,1.49487199,-3.96742733,,,
imu,366.425869,-0.2859170384,-9.684093832000002,1.9344261552,1.48801256,1.45748744,-4.13939626,,,
imu,366.434331,-0.3032634696000001,-9.678710456800001,1.9392113776,1.51044329,1.59954873,-4.19173463,,,
imu,366.442793,-0.2942911776,-9.697253193600002,1.9398095304,1.65250458,1.62197946,-4.0945348,,,
imu,366.451255,-0.2907022608000001,-9.7086180968,1.9404076832,1.77213514,1.76404075,-4.18425772,,,
imu,366.459718,-0.2853188856,-9.714001472000001,1.941005836,1.90671952,1.8761944,-4.057150249999999,,,
imu,366.46818,-0.2966837888,-9.725964528,1.9398095304,1.93662716,1.77899457,-4.13191935,,,
imu,366.476642,-0.28412258,-9.7403201952,1.932033544,1.95905789,1.81637912,-4.19173463,,,
imu,366.485105,-0.2865151912,-9.7474980288,1.941005836,1.95158098,1.89114822,-4.079580979999999,,,
imu,366.493567,-0.2847207328,-9.741516500800001,1.9254538632,1.99644244,1.86871749,-4.07210407,,,
imu,366.502029,-0.2847207328,-9.717590388800001,1.9218649464,2.12354991,1.95844041,-3.97490424,,,
imu,366.510491,-0.2883096496000001,-9.710412555200001,1.9003314456,2.33290339,1.93600968,-3.88518132,,,
imu,366.518954,-0.281131816,-9.70502918,1.8949480704,2.40019558,2.0257326,-3.74312003,,,
imu,366.527416,-0.2787392048,-9.718188541600002,1.8865739312,2.60207215,2.07807097,-3.50385891,,,
imu,366.535878,-0.2757484408,-9.7361331256,1.8746108752,2.96096383,2.20517844,-3.41413599,,,
imu,366.54434,-0.257205704,-9.748694334400001,1.8787979448,3.15536349,2.07807097,-3.44404363,,,
imu,366.552803,-0.236270356,-9.7911631832,1.8787979448,3.1628404,1.99582496,-3.60853565,,,
imu,366.561265,-0.2225128416,-9.803126239200001,1.8680311944,3.02077911,2.09302479,-3.71321239,,,
imu,366.569727,-0.2249054528,-9.8168837536,1.8710219584,2.9385331,1.92853277,-3.95995042,,,
imu,366.57819,-0.218325772,-9.8234634344,1.8734145696,2.81142563,1.82385603,-4.19173463,,,
imu,366.586652,-0.2314851336,-9.8264541984,1.8674330416,2.48244159,1.53973345,-4.244073,,,
imu,366.595114,-0.2308869808,-9.815089295200002,1.8530773744,2.32542648,1.36028761,-4.244073,,,
imu,366.603576,-0.2434481896,-9.8228652816,1.866236736,2.01887317,1.07616503,-4.146873169999999,,,
imu,366.612033,-0.2655798432,-9.825856045600002,1.8746108752,1.71979677,1.00887284,-4.169303899999999,,,
imu,366.620491,-0.275150288,-9.821668976000002,1.8829850144,1.41324346,0.86681155,-4.244073,,,
imu,366.628948,-0.2907022608000001,-9.797742864000002,1.9039203624,0.9347212199999999,0.78456554,-4.3936112,,,
imu,366.637405,-0.3182172896000001,-9.802528086400002,1.9224630992,0.5459219,0.8518577299999999,-4.363703559999999,,,
imu,366.645862,-0.3570972216000001,-9.8162856008,1.917079724,0.25432241,0.8892422799999999,-4.42351884,,,
imu,366.654319,-0.3923882368,-9.792957641600001,1.911098196,0.01506129,0.9415806499999997,-4.4683803,,,
imu,366.662777,-0.3876030144000001,-9.719983000000001,1.9116963488,-0.18681528,1.16588795,-4.34874974,,,
imu,366.671234,-0.3822196392,-9.687084596000002,1.9105000432,-0.19429219,1.577118,-4.18425772,,,
imu,366.679691,-0.3893974728000001,-9.699047652,1.896144376,-0.007369440000000005,1.88367131,-3.78050458,,,
imu,366.688148,-0.3786307224000001,-9.689477207200001,1.8793960976,0.25432241,2.30985518,-3.14496723,,,
imu,366.696605,-0.3523119992,-9.6799067624,1.88418132,0.56835263,2.78090051,-2.92065993,,,
imu,366.705063,-0.3104413032000001,-9.6918698184,1.8847794728,0.9048135799999999,3.04259236,-2.86832156,,,
imu,366.71352,-0.2769447464000001,-9.697851346400002,1.8770034864,1.24127453,3.23699202,-3.10758268,,,
imu,366.721977,-0.2619909264,-9.708019944000002,1.8716201112,1.58521239,3.25194584,-3.46647436,,,
imu,366.730434,-0.2458408008,-9.727160833600001,1.881190556,1.97401171,3.2968073,-3.87770441,,,
imu,366.738891,-0.230288828,-9.746899876,1.8823868616,2.08616536,3.19213056,-4.21416536,,,
imu,366.747348,-0.2201202304,-9.7702278352,1.8853776256,2.28056502,2.96782326,-4.244073,,,
imu,366.755806,-0.2105497856,-9.7959484056,1.8847794728,2.2656112,2.69117759,-4.28145755,,,
imu,366.764263,-0.2201202304,-9.801929933600002,1.8895646952,2.23570356,2.52668557,-3.92256587,,,
imu,366.77272,-0.218325772,-9.802528086400002,1.88418132,2.0413039,2.27994754,-3.65339711,,,
imu,366.781177,-0.230288828,-9.800135475200001,1.881190556,1.82447351,1.98834805,-3.69078166,,,
imu,366.789634,-0.2494297176,-9.801929933600002,1.8859757784,1.65998149,1.7266562,-3.83284295,,,
imu,366.798092,-0.2643835376,-9.7845835024,1.8853776256,1.45062801,1.52477963,-3.9449966,,,
imu,366.806549,-0.281131816,-9.766040765600001,1.8913591536,1.28613599,1.37524143,-3.99733497,,,
imu,366.815012,-0.2930948720000001,-9.7570684736,1.8865739312,1.13659779,1.36028761,-4.124442439999999,,,
imu,366.823476,-0.2930948720000001,-9.7427128064,1.8913591536,0.9870595899999999,1.27056469,-4.28145755,,,
imu,366.831939,-0.3080486920000001,-9.737329431200001,1.902125904,0.9646288599999999,1.45748744,-4.25154991,,,
imu,366.840403,-0.3086468448,-9.737927584000001,1.8949480704,0.70293701,1.37524143,-4.5431494,,,
imu,366.848866,-0.3164228312,-9.727758986400001,1.9087055848,0.65807555,1.37524143,-4.453426479999999,,,
imu,366.85733,-0.3164228312,-9.744507264800001,1.91408896,0.63564482,1.37524143,-4.50576485,,,
imu,366.865794,-0.3170209840000001,-9.746301723200002,1.917079724,0.68050628,1.30047233,-4.453426479999999,,,
imu,366.874257,-0.3194135952000001,-9.7504887928,1.9122945016,0.57582954,1.3528107,-4.32631901,,,
imu,366.882721,-0.3265914288,-9.725964528,1.9099018904,0.76275229,1.29299542,-4.19173463,,,
imu,366.891184,-0.3206099008000001,-9.727160833600001,1.9278464744,0.8674290299999999,1.42010289,-4.13939626,,,
imu,366.899648,-0.3385544848000001,-9.786976113600002,1.9511744336,0.82256757,1.36028761,-4.06462716,,,
imu,366.908111,-0.3325729568,-9.8294449624,1.9368187664,1.00201341,1.40514907,-4.012288789999999,,,
imu,366.916575,-0.34393786,-9.810304072800001,1.9517725864,0.94967504,1.53973345,-4.146873169999999,,,
imu,366.925038,-0.3535083048,-9.7534795568,1.9451929056,0.8375213899999999,1.46496435,-4.20668845,,,
imu,366.933502,-0.3277877344,-9.730749750400001,1.9302390856,0.80761375,1.30794924,-4.27398064,,,
imu,366.941965,-0.3367600264,-9.734338667200001,1.923061252,0.9197674,1.45748744,-4.21416536,,,
imu,366.950429,-0.3559009160000001,-9.7193848472,1.9284446272,1.23379762,1.42010289,-4.012288789999999,,,
imu,366.958892,-0.3726491944000001,-9.678710456800001,1.9122945016,1.42819728,1.56216418,-3.63844329,,,
imu,366.967356,-0.3624805968,-9.654784344800001,1.9087055848,1.43567419,1.78647148,-3.53376655,,,
imu,366.97582,-0.3612842912,-9.6499991224,1.9069111264,1.84690424,1.96591732,-3.45899745,,,
imu,366.984283,-0.3672658192000001,-9.663158484000002,1.9146871128,2.116073,2.13040934,-3.56367419,,,
imu,366.992747,-0.3738455000000001,-9.654186192000001,1.908107432,2.29551884,2.22760917,-3.84031986,,,
imu,367.00121,-0.3535083048,-9.657176956,1.908107432,2.58711833,2.29490136,-4.04967334,,,
imu,367.009674,-0.3499193880000001,-9.661962178400001,1.9087055848,2.74413344,2.40705501,-4.31136519,,,
imu,367.018499,-0.3355637208,-9.672130776000001,1.91408896,2.90862546,2.52668557,-4.19173463,,,
imu,367.027324,-0.3080486920000001,-9.675121540000001,1.9152852656,3.05068675,2.57154703,-4.28145755,,,
imu,367.036148,-0.305057928,-9.6846919848,1.9122945016,3.37219388,2.58650085,-4.15435008,,,
imu,367.044973,-0.2948893304,-9.711608860800002,1.9009295984,3.56659354,2.48182411,-3.97490424,,,
imu,367.053798,-0.2936930248,-9.734936820000001,1.8925554592,3.44696298,2.35471664,-3.74312003,,,
imu,367.062623,-0.2769447464000001,-9.756470320800002,1.9009295984,3.45443989,2.13040934,-3.59358183,,,
imu,367.071448,-0.2781410520000001,-9.773218599200002,1.9033222096,3.55911663,1.82385603,-3.60105874,,,
imu,367.080273,-0.2829262744000001,-9.7911631832,1.8895646952,3.589024269999999,1.60702564,-3.66835093,,,
imu,367.089098,-0.2966837888,-9.794153947200002,1.8889665424,3.55163972,1.51730272,-3.70573548,,,
imu,367.097923,-0.3104413032000001,-9.794153947200002,1.8805924032,3.50677826,1.40514907,-3.75807385,,,
imu,367.106747,-0.3265914288,-9.777405668800002,1.8740127224,3.50677826,1.30794924,-3.75059694,,,
imu,367.115572,-0.3241988176,-9.7845835024,1.8680311944,3.37219388,1.14345722,-3.75059694,,,
imu,367.124397,-0.3170209840000001,-9.8013317808,1.860255208,3.37219388,1.18831868,-3.84031986,,,
imu,367.133222,-0.3343674152,-9.788770572,1.851282916,3.37967079,1.21074941,-3.81041222,,,
imu,367.142047,-0.3331711096,-9.782789044000001,1.8435069296,3.36471697,1.30047233,-3.98985806,,,
imu,367.150872,-0.331974804,-9.776209363200001,1.830347568,3.32733242,1.40514907,-4.102011709999999,,,
imu,366.290721,,,,,,,71.5952172,1.739495599999996,-2.349871200000009
imu,366.392253,,,,,,,71.4853524,1.397693999999983,-3.216582400000012
imu,366.493846,,,,,,,71.338866,1.544180399999995,-2.349871200000009
imu,367.159795,-0.3301803456000001,-9.767237071200002,1.8369272488,3.22265568,1.30794924,-4.21416536,,,
imu,367.16862,-0.3397507904000001,-9.779200127200001,1.8207771232,3.3871477,1.51730272,-4.06462716,,,
imu,367.177445,-0.3379563320000001,-9.755274015200001,1.8219734288,3.11797894,1.68927165,-4.034719519999999,,,
imu,367.18627,-0.3277877344,-9.736731278400002,1.8201789704,3.08059439,1.7266562,-4.012288789999999,,,
imu,367.195095,-0.3313766512,-9.7295534448,1.8141974424,3.11050203,1.86124058,-3.93751969,,,
imu,367.20392,-0.340947096,-9.727160833600001,1.8028325392,3.19274804,1.98087114,-3.84779677,,,
imu,367.212745,-0.3367600264,-9.725366375200002,1.7896731776,3.21517877,2.01077878,-3.69078166,,,
imu,367.221236,-0.3206099008000001,-9.723571916800001,1.8076177616,3.29742478,2.0257326,-3.75059694,,,
imu,367.229728,-0.3212080536,-9.731946056000002,1.800439928,3.28994787,2.11545552,-3.90761205,,,
imu,367.238219,-0.3128339144,-9.752881404000002,1.8010380808,3.46939371,2.1752708,-3.90013514,,,
imu,367.246711,-0.3224043592,-9.766638918400002,1.806421456,3.54416281,2.20517844,-3.88518132,,,
imu,367.255202,-0.3367600264,-9.785779808000001,1.797449164,3.589024269999999,2.30985518,-3.78050458,,,
imu,367.263694,-0.3403489432000001,-9.802528086400002,1.788476872,3.44696298,2.34723973,-3.69825857,,,
imu,367.272185,-0.3648732080000001,-9.801929933600002,1.7830934968,3.3871477,2.23508608,-3.81788913,,,
imu,367.280677,-0.3636769024000001,-9.788770572,1.7549803152,3.36471697,2.41453192,-3.80293531,,,
imu,367.289168,-0.361882444,-9.7780038216,1.7484006344,3.37967079,2.5491163,-3.67582784,,,
imu,367.29766,-0.3541064576,-9.7750130576,1.7358394256,3.34976315,2.87062343,-3.54124346,,,
imu,367.306151,-0.3559009160000001,-9.776807516000002,1.7292597448,3.51425517,3.03511545,-3.45899745,,,
imu,367.314643,-0.3457323184,-9.770825988000002,1.7196893,3.589024269999999,3.33419185,-3.496382,,,
imu,367.323134,-0.3295821928000001,-9.7845835024,1.716698536,3.75351629,3.47625314,-3.4216129,,,
imu,367.331626,-0.3224043592,-9.803126239200001,1.7119133136,3.67874719,3.57345297,-3.59358183,,,
imu,367.340117,-0.3032634696000001,-9.800135475200001,1.716698536,3.49182444,3.55102224,-3.8702275,,,
imu,367.348609,-0.2978800944000001,-9.802528086400002,1.7113151608,3.52173208,3.56597606,-3.95995042,,,
imu,367.3571,-0.2865151912,-9.806715156000001,1.7101188552,3.48434753,3.64822207,-3.93751969,,,
imu,367.365592,-0.2805336632,-9.803126239200001,1.7059317856,3.43200916,3.64074516,-3.93004278,,,
imu,367.374083,-0.2793373576,-9.7989391696,1.6963613408,3.30490169,3.48373005,-4.10948862,,,
imu,367.382575,-0.28412258,-9.7845835024,1.686790896,3.12545585,3.28185348,-4.18425772,,,
imu,367.391066,-0.2948893304,-9.8013317808,1.6885853544,3.15536349,3.31923803,-3.93751969,,,
imu,367.399558,-0.2829262744000001,-9.803724392000001,1.6915761184,3.20770186,3.27437657,-3.7954584,,,
imu,367.408049,-0.287113344,-9.789368724800001,1.6784167568,3.23013259,3.13979219,-3.70573548,,,
imu,367.416541,-0.287113344,-9.7636481544,1.6969594936,2.7889949,2.80333124,-4.00481188,,,
imu,367.424987,-0.3074505392,-9.803126239200001,1.6903798128,2.82637945,2.58650085,-4.0945348,,,
imu,367.433432,-0.3146283728000001,-9.8043225448,1.6826038264,2.74413344,2.53416248,-4.13939626,,,
imu,367.441878,-0.3289840400000001,-9.786377960800001,1.6849964376,2.57216451,2.2500399,-4.28145755,,,
imu,367.450324,-0.3265914288,-9.760059237600002,1.6712389232,2.60954906,2.06311715,-4.26650373,,,
imu,367.45877,-0.340947096,-9.800733628000001,1.6694444648,2.55721069,1.84628676,-3.9449966,,,
imu,367.467215,-0.3612842912,-9.8198745176,1.6712389232,2.70674889,1.9509635,-3.24216706,,,
imu,367.475661,-0.3804251808,-9.8330338792,1.665855548,2.77404108,2.1005017,-2.65149117,,,
imu,367.484107,-0.3636769024000001,-9.840809865600002,1.668846312,2.60954906,2.22760917,-2.60662971,,,
imu,367.492553,-0.3570972216000001,-9.8461932408,1.6664537008,2.58711833,2.3995781,-2.63653735,,,
imu,367.500998,-0.3648732080000001,-9.849184004800001,1.6610703256,2.52730305,2.60145467,-2.8234601,,,
imu,367.509444,-0.3535083048,-9.840809865600002,1.6586777144,2.30299575,2.89305416,-3.07767504,,,
imu,367.51789,-0.3367600264,-9.8264541984,1.6580795616,2.21327283,3.26689966,-3.39918217,,,
imu,367.526336,-0.3361618736,-9.818678212000002,1.6532943392,1.95905789,3.32671494,-3.74312003,,,
imu,367.534781,-0.3068523864000001,-9.805518850400002,1.650901728,1.95158098,3.24446893,-3.97490424,,,
imu,367.543227,-0.290104108,-9.7989391696,1.6407331304,1.79456587,3.25194584,-3.9449966,,,
imu,367.551673,-0.2673743016,-9.796546558400001,1.6353497552,1.65998149,3.2220382,-3.80293531,,,
imu,367.560119,-0.2506260232,-9.788172419200002,1.6413312832,1.65250458,3.04259236,-3.71321239,,,
imu,367.568564,-0.245242648,-9.775611210400001,1.638938672,1.7422275,2.87810034,-3.4216129,,,
imu,367.57701,-0.2625890792,-9.7815927384,1.635947908,1.85438115,2.57154703,-3.18982869,,,
imu,367.585456,-0.2613927736,-9.762451848800001,1.6413312832,1.6674584,2.25751681,-3.32441307,,,
imu,367.593902,-0.2715613712,-9.7570684736,1.6413312832,1.53287402,1.99582496,-3.44404363,,,
imu,367.602347,-0.2954874832,-9.759461084800002,1.6526961864,1.49548947,1.77151766,-3.52628964,,,
imu,367.610793,-0.3098431504,-9.7780038216,1.6544906448,1.56278166,1.60702564,-3.45899745,,,
imu,367.619239,-0.3206099008000001,-9.789966877600001,1.6610703256,1.58521239,1.58459491,-3.30945925,,,
imu,367.627711,-0.3289840400000001,-9.797144711200001,1.6742296872,1.27118217,1.66684092,-3.32441307,,,
imu,367.636184,-0.334965568,-9.803724392000001,1.6742296872,1.18145925,1.74908693,-3.18982869,,,
imu,367.644656,-0.3236006648,-9.821668976000002,1.6706407704,1.12164397,1.86124058,-3.16739796,,,
imu,367.653129,-0.3253951232,-9.8228652816,1.6772204512,0.9945364999999999,1.89862513,-3.10010577,,,
imu,367.661601,-0.3236006648,-9.815089295200002,1.6742296872,0.81509066,1.80890221,-3.22721324,,,
imu,367.670073,-0.3014690112,-9.7995373224,1.6730333816,1.11416706,1.94348659,-3.2720747,,,
imu,367.678546,-0.3146283728000001,-9.803724392000001,1.6891835072,1.16650543,2.05564024,-3.38422835,,,
imu,367.687018,-0.334965568,-9.859950755200002,1.7053336328,1.07678251,2.09302479,-3.25712088,,,
imu,367.695491,-0.31403022,-9.862343366400001,1.7035391744,1.10669015,2.1752708,-3.06272122,,,
imu,367.703963,-0.3176191368,-9.824659740000001,1.7101188552,0.97210577,2.1752708,-3.02533667,,,
imu,367.712436,-0.3164228312,-9.798341016800002,1.7011465632,0.77770611,2.06311715,-2.92813684,,,
imu,367.720908,-0.3038616224,-9.782789044000001,1.6849964376,0.63564482,2.04068642,-2.91318302,,,
imu,367.72938,-0.3128339144,-9.759461084800002,1.6879872016,0.65807555,2.04068642,-2.89075229,,,
imu,367.737853,-0.3415452488,-9.7331423616,1.6873890488,0.80013684,2.13788625,-2.54681443,,,
imu,367.746325,-0.334965568,-9.739123889600002,1.6820056736,1.08425942,2.34723973,-2.2253073,,,
imu,367.754798,-0.3152265256,-9.7403201952,1.6861927432,1.12164397,2.48930102,-2.26269185,,,
imu,367.76327,-0.2996745528,-9.731946056000002,1.6820056736,1.09921324,2.54163939,-2.56924516,,,
imu,367.771743,-0.2936930248,-9.727758986400001,1.686790896,1.25622835,2.68370068,-2.83841392,,,
imu,367.780215,-0.2697669128,-9.728955292000002,1.6772204512,1.33099745,2.66874686,-3.16739796,,,
imu,367.788688,-0.2673743016,-9.743310959200002,1.683800132,1.51044329,2.7734236,-3.38422835,,,
imu,367.79716,-0.2595983152,-9.7217774584,1.6861927432,1.67493531,2.74351596,-3.52628964,,,
imu,367.805632,-0.2416537312,-9.7283571392,1.6814075208,1.64502767,2.71360832,-3.48142818,,,
imu,367.814105,-0.2290925224000001,-9.748694334400001,1.6754259928,1.9665348,2.55659321,-3.33188998,,,
imu,367.822577,-0.2326814392,-9.768433376800001,1.671837076,2.12354991,2.42948574,-3.10758268,,,
imu,367.831031,-0.251224176,-9.772022293600001,1.6724352288,1.97401171,2.37714737,-3.00290594,,,
imu,367.839484,-0.251224176,-9.787574266400002,1.6616684784,2.04878081,2.30237827,-2.78607555,,,
imu,367.847937,-0.2560093984,-9.798341016800002,1.6682481592,2.0413039,2.23508608,-2.62906044,,,
imu,367.856391,-0.2685706072,-9.794153947200002,1.6640610896,1.9665348,2.27994754,-2.59167589,,,
imu,367.864844,-0.2649816904,-9.785181655200002,1.6556869504,1.86933497,2.36219355,-2.78607555,,,
imu,367.873298,-0.2727576768,-9.790565030400002,1.6580795616,1.8917657,2.44443956,-3.02533667,,,
imu,367.881751,-0.2655798432,-9.802528086400002,1.6503035752,1.80204278,2.42948574,-3.27955161,,,
imu,367.890204,-0.2380648144,-9.808509614400002,1.6550887976,1.86933497,2.56407012,-3.30198234,,,
imu,367.898658,-0.2129423968,-9.808509614400002,1.662864784,1.77213514,2.78837742,-3.41413599,,,
imu,367.907111,-0.20935348,-9.821668976000002,1.665855548,1.71979677,2.60145467,-3.68330475,,,
imu,367.915564,-0.1878199792,-9.818678212000002,1.6664537008,1.76465823,2.41453192,-3.96742733,,,
imu,367.924018,-0.1890162848,-9.807313308800001,1.6670518536,1.68241222,2.30985518,-3.91508896,,,
imu,367.932471,-0.1908107432,-9.806715156000001,1.665855548,1.50296638,2.12293243,-3.93751969,,,
imu,367.940925,-0.1866236736,-9.802528086400002,1.6580795616,1.42072037,1.86124058,-3.95995042,,,
imu,367.949378,-0.197390424,-9.791761336000002,1.6485091168,1.55530475,1.67431783,-3.74312003,,,
imu,367.957831,-0.2117460912,-9.786976113600002,1.6514998808,1.48053565,1.48739508,-3.75059694,,,
imu,367.966285,-0.233279592,-9.783985349600002,1.647910964,1.61512003,1.3528107,-3.66835093,,,
imu,366.5955,,,,,,,74.23197239999999,1.00706359999998,-3.717077600000007
imu,366.69691,,,,,,,71.6928748,1.43431559999998,-1.531988800000006
imu,366.798473,,,,,,,74.26859400000001,0.5553971999999963,-3.631627200000009
imu,366.900035,,,,,,,71.55859559999999,1.312243599999996,-0.8239712000000066
imu,367.001628,,,,,,,71.094722,1.165757199999984,-3.497348000000011
imu,367.103191,,,,,,,71.460938,1.470937199999978,-1.324466400000002
imu,367.204753,,,,,,,71.21679400000001,1.263414799999985,-1.763925600000005
imu,367.306316,,,,,,,71.2900372,0.9582347999999907,-1.336673600000005
imu,367.974738,-0.2386629672,-9.786377960800001,1.647910964,1.54035093,1.09111885,-3.75807385,,,
imu,367.983191,-0.2494297176,-9.7744149048,1.6503035752,1.51044329,1.15841104,-3.72816621,,,
imu,367.991645,-0.260196468,-9.763050001600002,1.6485091168,1.54035093,1.23318014,-3.90761205,,,
imu,368.000098,-0.2679724544000001,-9.7750130576,1.656883256,1.43567419,0.9565344699999998,-3.98238115,,,
imu,368.008551,-0.287113344,-9.7750130576,1.6592758672,1.50296638,1.17336486,-3.93004278,,,
imu,368.017005,-0.2918985664000001,-9.7815927384,1.6556869504,1.50296638,1.30047233,-3.75807385,,,
imu,368.025458,-0.2918985664000001,-9.7780038216,1.656883256,1.50296638,1.36028761,-3.71321239,,,
imu,368.034276,-0.2948893304,-9.7809945856,1.6610703256,1.53287402,1.43505671,-3.54872037,,,
imu,368.043095,-0.2990764,-9.786377960800001,1.6616684784,1.48801256,1.59954873,-3.40665908,,,
imu,368.051913,-0.2948893304,-9.779200127200001,1.6550887976,1.45810492,1.62197946,-3.39170526,,,
imu,368.060731,-0.2781410520000001,-9.7845835024,1.6544906448,1.48801256,1.70422547,-3.31693616,,,
imu,368.069549,-0.2781410520000001,-9.793555794400001,1.6431257416,1.5179202,1.7266562,-3.47395127,,,
imu,368.078368,-0.2703650656,-9.788172419200002,1.6425275888,1.60016621,1.7266562,-3.45152054,,,
imu,368.087186,-0.2739539824000001,-9.782789044000001,1.635947908,1.74970441,1.68927165,-3.51133582,,,
imu,368.096004,-0.2769447464000001,-9.7786019744,1.6407331304,1.80951969,1.62945637,-3.45899745,,,
imu,368.104823,-0.2727576768,-9.800135475200001,1.6461165056,1.91419643,1.63693328,-3.40665908,,,
imu,368.113641,-0.2775428992,-9.803126239200001,1.638938672,2.00391935,1.66684092,-3.35432071,,,
imu,368.122459,-0.2924967192,-9.801929933600002,1.6401349776,1.87681188,1.63693328,-3.32441307,,,
imu,368.131277,-0.2966837888,-9.803724392000001,1.6401349776,1.88428879,1.71170238,-3.22721324,,,
imu,368.140096,-0.2781410520000001,-9.802528086400002,1.6377423664,1.80951969,1.8014253,-3.29450543,,,
imu,368.148914,-0.2655798432,-9.803126239200001,1.62996638,1.71231986,1.86124058,-3.26459779,,,
imu,368.157732,-0.2625890792,-9.789966877600001,1.6263774632,1.62259694,1.93600968,-3.29450543,,,
imu,368.16655,-0.2314851336,-9.785181655200002,1.62996638,1.57773548,1.98834805,-3.18982869,,,
imu,368.175369,-0.2099516328,-9.772620446400001,1.6186014768,1.65998149,2.07059406,-3.2720747,,,
imu,368.184187,-0.2284943696,-9.772620446400001,1.61501256,1.71979677,1.91357895,-3.33188998,,,
imu,368.193005,-0.2141387024,-9.800733628000001,1.6281719216,1.95158098,1.8014253,-3.32441307,,,
imu,368.201823,-0.1902125904,-9.792957641600001,1.632957144,1.94410407,1.75656384,-3.39918217,,,
imu,368.210642,-0.1920070488,-9.7504887928,1.6347516024,1.78708896,1.5023489,-3.59358183,,,
imu,368.21946,-0.2159331608,-9.7606573904,1.647910964,1.69736604,1.23318014,-3.63844329,,,
imu,368.228278,-0.2266999112,-9.802528086400002,1.641929436,1.6674584,0.8144731799999998,-3.87770441,,,
imu,368.236752,-0.2637853848,-9.7995373224,1.6407331304,1.5926893,0.6873657099999999,-3.95247351,,,
imu,368.245225,-0.2918985664000001,-9.748096181600001,1.6377423664,1.37585891,0.56025824,-3.93004278,,,
imu,368.253623,-0.290104108,-9.740918348000001,1.632957144,1.37585891,0.5079198699999998,-3.70573548,,,
imu,368.262097,-0.3008708584000001,-9.789966877600001,1.6341534496,1.76465823,0.7097964399999999,-3.33936689,,,
imu,368.270571,-0.3218062064,-9.802528086400002,1.6347516024,1.99644244,0.9714882899999999,-2.91318302,,,
imu,368.279045,-0.3194135952000001,-9.802528086400002,1.6317608384,2.05625772,1.27056469,-2.38232241,,,
imu,368.287518,-0.2877114968,-9.802528086400002,1.62996638,2.116073,1.62197946,-2.21783039,,,
imu,368.295992,-0.2494297176,-9.802528086400002,1.609031032,2.16093446,1.92105586,-2.45709151,,,
imu,368.304466,-0.2338777448,-9.796546558400001,1.6012550456,2.17588828,2.1005017,-2.94309066,,,
imu,368.312939,-0.2105497856,-9.794752100000002,1.597067976,2.29551884,2.15284007,-3.32441307,,,
imu,368.321413,-0.1961941184,-9.786377960800001,1.5898901424,2.28804193,2.04068642,-3.74312003,,,
imu,368.329887,-0.1758569232,-9.786377960800001,1.5898901424,2.31794957,1.93600968,-3.98985806,,,
imu,368.338361,-0.1782495344,-9.7953502528,1.582114156,2.28056502,1.81637912,-3.95247351,,,
imu,368.346834,-0.1531271168,-9.789368724800001,1.5743381696,2.28804193,1.5023489,-3.70573548,,,
imu,368.355308,-0.158510492,-9.801929933600002,1.5743381696,2.32542648,1.1285034,-3.56367419,,,
imu,368.363782,-0.1782495344,-9.800733628000001,1.5839086144,2.25065738,0.8967191899999998,-3.46647436,,,
imu,368.372255,-0.2045682576000001,-9.7995373224,1.5892919896,2.30299575,0.5752120599999997,-3.55619728,,,
imu,368.380729,-0.2314851336,-9.802528086400002,1.5767307808,2.20579592,0.4256738599999998,-3.60853565,,,
imu,368.389203,-0.2703650656,-9.7989391696,1.5707492528,2.00391935,0.2462280199999998,-3.80293531,,,
imu,368.397677,-0.290104108,-9.789966877600001,1.5623751136,1.83195042,0.3658585799999998,-3.88518132,,,
imu,368.40615,-0.3002727056,-9.7845835024,1.5683566416,1.7422275,0.58268897,-4.102011709999999,,,
imu,368.414624,-0.3092449976000001,-9.783387196800001,1.5677584888,1.70484295,0.7770886299999997,-4.16182699,,,
imu,368.423098,-0.3104413032000001,-9.788770572,1.5557954328,1.57773548,1.00887284,-4.28893446,,,
imu,368.431571,-0.2990764,-9.796546558400001,1.5486175992,1.61512003,1.4275798,-4.22911918,,,
imu,368.440107,-0.2877114968,-9.7995373224,1.5474212936,1.60764312,1.76404075,-4.26650373,,,
imu,368.448644,-0.272159524,-9.803724392000001,1.54024346,1.68241222,1.92853277,-4.19173463,,,
imu,368.45718,-0.2709632184,-9.805518850400002,1.54024346,1.7422275,2.07059406,-4.124442439999999,,,
imu,368.465716,-0.2566075512,-9.802528086400002,1.5306730152,1.84690424,2.05564024,-4.04967334,,,
imu,368.474252,-0.2374666616,-9.7923594888,1.5408416128,1.68988913,2.19770153,-4.146873169999999,,,
imu,368.482788,-0.2380648144,-9.844996935200001,1.5444305296,1.65250458,2.22760917,-3.95995042,,,
imu,368.491324,-0.2380648144,-9.88447502,1.5480194464,1.77961205,2.24256299,-3.6459202,,,
imu,368.49986,-0.2243073,-9.8647359776,1.5587861968,1.64502767,2.38462428,-3.61601256,,,
imu,368.508396,-0.2261017584,-9.8617452136,1.5557954328,1.43567419,2.33976282,-3.77302767,,,
imu,368.516932,-0.20935348,-9.8617452136,1.567160336,1.21136689,2.14536316,-4.13191935,,,
imu,368.525468,-0.221316536,-9.8581562968,1.5701511,1.12912088,2.27994754,-4.169303899999999,,,
imu,368.534004,-0.2314851336,-9.8653341304,1.5683566416,0.85995212,2.23508608,-4.057150249999999,,,
imu,368.54254,-0.2434481896,-9.837220948800002,1.5743381696,0.58330645,2.36967046,-3.88518132,,,
imu,368.551076,-0.2296906752000001,-9.8228652816,1.5683566416,0.4711528,2.31733209,-3.69825857,,,
imu,368.559612,-0.2320832864,-9.820472670400001,1.5779270864,0.27675314,2.33976282,-3.84779677,,,
imu,368.568148,-0.2249054528,-9.8162856008,1.5809178504,0.14216876,2.30985518,-4.13191935,,,
imu,368.576684,-0.20935348,-9.809107767200002,1.5898901424,-0.06718472,2.22013226,-4.49828794,,,
imu,368.58522,-0.2308869808,-9.801929933600002,1.6006568928,-0.2017691,2.13040934,-4.90204108,,,
imu,368.593756,-0.236270356,-9.769031529600001,1.5964698232,-0.38121494,1.95844041,-5.14877911,,,
imu,368.602292,-0.2380648144,-9.7403201952,1.6066384208,-0.34383039,1.68179474,-5.22354821,,,
imu,368.610828,-0.2386629672,-9.713403319200001,1.6018531984,-0.34383039,1.5023489,-5.11139456,,,
imu,368.619364,-0.245242648,-9.7163940832,1.6096291848,-0.44850713,1.25561087,-4.81979507,,,
imu,368.6279,-0.2679724544000001,-9.724768222400002,1.620994088,-0.26906129,1.03130357,-4.40108811,,,
imu,368.636436,-0.2667761488000001,-9.739123889600002,1.626975616,-0.02980017,0.7920424499999998,-4.102011709999999,,,
imu,368.644837,-0.287113344,-9.746899876,1.6323589912,0.11226112,0.3882893099999998,-4.057150249999999,,,
imu,368.653238,-0.3092449976000001,-9.765442612800001,1.6395368248,0.20198404,0.2686587499999997,-4.11696553,,,
imu,368.66164,-0.3313766512,-9.787574266400002,1.6556869504,0.29918387,0.19388965,-3.99733497,,,
imu,368.670041,-0.3582935272000001,-9.802528086400002,1.6640610896,0.42629134,0.3733354899999997,-3.82536604,,,
imu,368.678442,-0.3720510416,-9.803126239200001,1.6640610896,0.38142988,0.4854891399999999,-3.72816621,,,
imu,368.686843,-0.3792288752000001,-9.8043225448,1.671837076,0.33656842,0.6125966099999998,-3.63096638,,,
imu,368.695245,-0.3702565832000001,-9.808509614400002,1.6646592424,0.2468455,1.08364194,-3.69078166,,,
imu,368.703646,-0.3570972216000001,-9.8061170032,1.6586777144,0.33656842,1.48739508,-3.496382,,,
imu,368.712047,-0.3337692624,-9.809107767200002,1.6586777144,0.27675314,1.60702564,-3.57862801,,,
imu,368.720448,-0.3128339144,-9.802528086400002,1.6682481592,0.35152224,1.8761944,-3.81788913,,,
imu,368.72885,-0.3026653168,-9.7959484056,1.6604721728,0.41133752,1.96591732,-3.81041222,,,
imu,368.737251,-0.2918985664000001,-9.783387196800001,1.65987402,0.53844499,2.15284007,-3.66835093,,,
imu,368.745652,-0.2679724544000001,-9.788770572,1.6610703256,0.60573718,2.21265535,-3.69825857,,,
imu,368.754053,-0.2619909264,-9.789368724800001,1.6574814088,0.620691,2.16779389,-3.76555076,,,
imu,368.762454,-0.2613927736,-9.788770572,1.6676500064,0.67302937,2.10797861,-3.61601256,,,
imu,368.770856,-0.2691687600000001,-9.763050001600002,1.6652573952,0.58330645,1.95844041,-3.58610492,,,
imu,368.779257,-0.2560093984,-9.735534972800002,1.6670518536,0.55339881,2.00330187,-3.57862801,,,
imu,368.787658,-0.2607946208,-9.727160833600001,1.6622666312,0.6954601,1.83133294,-3.76555076,,,
imu,367.407743,,,,,,,71.53418119999999,0.9948563999999882,-1.336673600000005
imu,367.509367,,,,,,,71.66846039999999,0.7873339999999951,-1.763925600000005
imu,367.610899,,,,,,,70.97264999999999,0.9094059999999793,-1.348880800000007
imu,367.712461,,,,,,,73.9145852,-0.3113140000000181,-2.008069600000006
imu,367.814268,,,,,,,71.1801724,0.9216131999999932,-1.678475200000007
imu,367.915647,,,,,,,73.48733320000001,0.07931639999998463,-3.973428800000012
imu,368.017179,,,,,,,71.094722,0.8849915999999958,-1.26343040000001
imu,368.118711,,,,,,,71.155758,0.7262979999999919,-3.839149600000002
imu,368.796059,-0.2829262744000001,-9.7361331256,1.6532943392,0.85995212,1.82385603,-3.69078166,,,
imu,368.804461,-0.2793373576,-9.736731278400002,1.6503035752,0.8823828499999999,1.88367131,-3.7206893,,,
imu,368.812862,-0.2673743016,-9.718188541600002,1.6592758672,1.00949032,1.78647148,-3.81041222,,,
imu,368.821263,-0.2637853848,-9.710412555200001,1.6407331304,1.15155161,1.79394839,-3.93004278,,,
imu,368.829664,-0.2727576768,-9.722973764,1.6407331304,1.24875144,1.74908693,-4.102011709999999,,,
imu,368.838066,-0.2733558296,-9.7283571392,1.6371442136,1.4431511,1.91357895,-4.102011709999999,,,
imu,368.846562,-0.2673743016,-9.7403201952,1.6383405192,1.63755076,1.98087114,-4.13191935,,,
imu,368.855059,-0.2667761488000001,-9.741516500800001,1.6263774632,1.82447351,1.73413311,-4.13191935,,,
imu,368.863555,-0.2649816904,-9.749890640000002,1.6263774632,2.00391935,1.65936401,-4.102011709999999,,,
imu,368.872052,-0.2673743016,-9.767237071200002,1.62996638,2.22074974,1.56964109,-4.04967334,,,
imu,368.880549,-0.2673743016,-9.783387196800001,1.6215922408,2.2656112,1.55468727,-3.96742733,,,
imu,368.889045,-0.2667761488000001,-9.789368724800001,1.6186014768,2.34785721,1.36028761,-3.83284295,,,
imu,368.897542,-0.2691687600000001,-9.800135475200001,1.6114236432,2.46748777,1.21822632,-3.83284295,,,
imu,368.906038,-0.2763465936,-9.8061170032,1.61501256,2.47496468,1.15093413,-3.86275059,,,
imu,368.914535,-0.3002727056,-9.8294449624,1.6036476568,2.54225687,1.02382666,-3.98985806,,,
imu,368.923032,-0.2913004136,-9.8300431152,1.61501256,2.4899185,1.06121121,-4.06462716,,,
imu,368.931528,-0.2829262744000001,-9.831837573600001,1.6048439624,2.43010322,1.21822632,-4.146873169999999,,,
imu,368.940025,-0.3343674152,-9.835426490400001,1.5898901424,2.13102682,1.0537343,-4.28893446,,,
imu,368.948521,-0.3355637208,-9.841408018400001,1.5874975312,1.77961205,1.00139593,-4.386134289999999,,,
imu,368.957018,-0.3385544848000001,-9.8402117128,1.579123392,1.5179202,1.4275798,-4.19921154,,,
imu,368.965515,-0.3385544848000001,-9.8198745176,1.5982642816,1.40576655,1.76404075,-4.04219643,,,
imu,368.974011,-0.3373581792000001,-9.818080059200001,1.5964698232,1.30108981,1.98087114,-3.9449966,,,
imu,368.982508,-0.3313766512,-9.812098531200002,1.5845067672,1.13659779,2.04816333,-3.98985806,,,
imu,368.991004,-0.2913004136,-9.7989391696,1.5815160032,1.24875144,2.18274771,-4.079580979999999,,,
imu,368.999501,-0.2757484408,-9.787574266400002,1.582114156,1.18145925,2.10797861,-4.21416536,,,
imu,369.007998,-0.2763465936,-9.805518850400002,1.5904882952,1.368382,2.07059406,-4.13191935,,,
imu,369.016494,-0.2554112456,-9.803126239200001,1.5958716704,1.27118217,1.92105586,-4.012288789999999,,,
imu,369.024991,-0.251224176,-9.765442612800001,1.5868993784,1.03192105,1.82385603,-4.06462716,,,
imu,369.033487,-0.28412258,-9.769031529600001,1.6168070184,0.7403215599999999,1.80890221,-3.98238115,,,
imu,369.041984,-0.3032634696000001,-9.802528086400002,1.6203959352,0.5982602699999999,1.6518871,-3.84779677,,,
imu,369.05076,-0.3194135952000001,-9.824659740000001,1.6114236432,0.57582954,1.40514907,-3.95247351,,,
imu,369.059536,-0.3451341656,-9.7780038216,1.6108254904,0.41881443,1.24813396,-4.25902682,,,
imu,369.068311,-0.3666676664,-9.743310959200002,1.606040268,0.3739529699999999,1.18831868,-4.33379592,,,
imu,369.077087,-0.35889168,-9.765442612800001,1.5982642816,0.68798319,1.30794924,-4.06462716,,,
imu,369.085863,-0.3798270280000001,-9.796546558400001,1.576132628,1.11416706,1.56964109,-3.496382,,,
imu,369.094639,-0.3923882368,-9.789368724800001,1.5695529472,1.39828964,1.85376367,-2.98795212,,,
imu,369.103415,-0.3810233336,-9.802528086400002,1.5719455584,1.65250458,2.25751681,-2.79355246,,,
imu,369.11219,-0.3505175408000001,-9.8234634344,1.5827123088,1.88428879,2.53416248,-2.87579847,,,
imu,369.120966,-0.3122357616,-9.845595088000001,1.5767307808,1.89924261,2.80333124,-3.32441307,,,
imu,369.129742,-0.2889078024000001,-9.861147060800002,1.5857030728,1.86933497,2.8481927,-3.82536604,,,
imu,369.138518,-0.2578038568000001,-9.856959991200002,1.5701511,1.6674584,2.6986545,-4.146873169999999,,,
imu,369.147294,-0.2458408008,-9.832435726400002,1.5749363224,1.42819728,2.45939338,-4.28893446,,,
imu,369.156069,-0.2314851336,-9.8043225448,1.5707492528,1.28613599,2.26499372,-4.20668845,,,
imu,369.164845,-0.2326814392,-9.801929933600002,1.5665621832,1.17398234,1.8761944,-3.84779677,,,
imu,369.173621,-0.2404574256,-9.783985349600002,1.5647677248,1.09921324,1.54721036,-3.53376655,,,
imu,369.182397,-0.2679724544000001,-9.775611210400001,1.5629732664,0.91229049,1.25561087,-3.30945925,,,
imu,369.191173,-0.2930948720000001,-9.776807516000002,1.5707492528,0.8823828499999999,1.06121121,-3.14496723,,,
imu,369.199948,-0.3325729568,-9.7612555432,1.5809178504,0.97958268,0.9714882899999999,-3.0477674,,,
imu,369.208724,-0.3576953744,-9.7510869456,1.582114156,0.71789083,0.94905756,-2.99542903,,,
imu,369.2175,-0.3606861384,-9.769031529600001,1.5904882952,0.63564482,1.18084177,-3.00290594,,,
imu,369.226276,-0.3624805968,-9.7953502528,1.6024513512,0.49358353,1.32290306,-3.21225942,,,
imu,369.235052,-0.3612842912,-9.803126239200001,1.6126199488,0.46367589,1.54721036,-3.39170526,,,
imu,369.243827,-0.3600879856,-9.810902225600001,1.6233866992,0.5010604399999999,1.74908693,-3.58610492,,,
imu,369.252306,-0.3445360128,-9.8300431152,1.623984852,0.26927623,1.98087114,-3.66835093,,,
imu,369.260785,-0.3355637208,-9.824061587200001,1.6281719216,0.0001074699999999984,2.1752708,-3.59358183,,,
imu,369.269264,-0.3176191368,-9.8294449624,1.6323589912,-0.17933837,2.30237827,-3.58610492,,,
imu,369.277743,-0.2966837888,-9.8168837536,1.6323589912,-0.28401511,2.28742445,-3.50385891,,,
imu,369.286221,-0.2954874832,-9.7959484056,1.632957144,-0.23167674,2.35471664,-3.43656672,,,
imu,369.2947,-0.2918985664000001,-9.7989391696,1.6514998808,-0.29896893,2.48930102,-3.27955161,,,
imu,369.303179,-0.2984782472,-9.8467913936,1.6700426176,-0.40364567,2.60893158,-2.99542903,,,
imu,369.311658,-0.2930948720000001,-9.830641268,1.6772204512,-0.44103022,2.65379304,-2.81598319,,,
imu,369.320137,-0.2913004136,-9.7923594888,1.67482784,-0.5008455,2.69117759,-2.8234601,,,
imu,369.328615,-0.2775428992,-9.7606573904,1.6616684784,-0.44103022,2.52668557,-3.1225365,,,
imu,369.337094,-0.2679724544000001,-9.767237071200002,1.6724352288,-0.47841477,2.36219355,-3.32441307,,,
imu,369.345493,-0.2942911776,-9.783387196800001,1.6861927432,-0.46346095,2.33228591,-3.07019813,,,
imu,369.353972,-0.3128339144,-9.782789044000001,1.6802112152,-0.54570696,2.27994754,-2.85336774,,,
imu,369.362451,-0.3146283728000001,-9.758862932000001,1.6736315344,-0.5681376899999999,2.26499372,-2.71130645,,,
imu,369.37093,-0.3122357616,-9.746899876,1.6736315344,-0.36626112,2.38462428,-2.51690679,,,
imu,369.379408,-0.3152265256,-9.7570684736,1.65987402,-0.21672292,2.33976282,-2.72626027,,,
imu,369.387887,-0.3152265256,-9.786976113600002,1.6730333816,-0.19429219,2.4743472,-2.76364482,,,
imu,369.396366,-0.3038616224,-9.761853696000001,1.6742296872,-0.2765382,2.63136231,-2.78607555,,,
imu,369.404845,-0.2883096496000001,-9.731347903200001,1.6843982848,-0.15690764,2.72856214,-2.98795212,,,
imu,369.413324,-0.2817299688000001,-9.722973764,1.695763188,0.02253820000000001,2.75846978,-3.21225942,,,
imu,369.421802,-0.2554112456,-9.7128051664,1.6694444648,0.08235347999999998,2.72108523,-3.31693616,,,
imu,369.430281,-0.23926112,-9.735534972800002,1.6652573952,0.2468455,2.83323888,-3.1225365,,,
imu,369.43876,-0.218325772,-9.7295534448,1.6790149096,0.25432241,2.74351596,-2.92065993,,,
imu,369.447239,-0.212344244,-9.745703570400002,1.668846312,0.65059864,2.6986545,-2.76364482,,,
imu,369.455711,-0.1991848824,-9.759461084800002,1.665855548,0.8749059399999999,2.48930102,-2.83841392,,,
imu,369.464184,-0.200381188,-9.763050001600002,1.6700426176,1.18893616,2.35471664,-2.74121409,,,
imu,369.472656,-0.2087553272,-9.783387196800001,1.6724352288,1.22632071,2.20517844,-2.85336774,,,
imu,369.481129,-0.1979885768,-9.7953502528,1.668846312,1.10669015,2.13040934,-2.80102937,,,
imu,369.489601,-0.1991848824,-9.785181655200002,1.6772204512,1.06182869,2.11545552,-2.81598319,,,
imu,369.498073,-0.1902125904,-9.789966877600001,1.6843982848,1.22632071,2.2500399,-2.85336774,,,
imu,369.506546,-0.1848292152,-9.7959484056,1.6843982848,1.07678251,1.98087114,-2.94309066,,,
imu,369.515018,-0.167482784,-9.786976113600002,1.6903798128,1.0693056,1.75656384,-3.07767504,,,
imu,369.523491,-0.1519308112,-9.7809945856,1.67482784,1.2188438,1.65936401,-3.31693616,,,
imu,369.531963,-0.1483418944,-9.785779808000001,1.6784167568,1.21136689,1.6518871,-3.45152054,,,
imu,369.540436,-0.1423603664,-9.755872168000002,1.665855548,1.23379762,1.42010289,-3.53376655,,,
imu,369.548908,-0.1411640608,-9.76484446,1.6700426176,1.18893616,1.21074941,-3.60853565,,,
imu,369.557381,-0.1453511304,-9.769031529600001,1.6634629368,1.36090509,1.08364194,-3.66087402,,,
imu,369.565853,-0.1579123392,-9.773218599200002,1.6670518536,1.41324346,0.8144731799999998,-3.69078166,,,
imu,369.574325,-0.155519728,-9.7989391696,1.65987402,1.33099745,0.66493498,-3.89265823,,,
imu,369.582798,-0.1758569232,-9.794752100000002,1.6730333816,1.35342818,0.5453044199999999,-3.95995042,,,
imu,369.59127,-0.1686790896,-9.8013317808,1.6556869504,1.48801256,0.4331507699999997,-4.13939626,,,
imu,369.599743,-0.19439966,-9.7815927384,1.6532943392,1.33847436,0.29856639,-4.386134289999999,,,
imu,369.608215,-0.2243073,-9.777405668800002,1.6586777144,1.32352054,0.1415512799999998,-4.6179185,,,
imu,368.220335,,,,,,,71.3632804,1.019270799999994,-1.251223200000007
imu,368.321867,,,,,,,71.4243164,0.5920187999999937,-1.373295200000002
imu,368.423429,,,,,,,71.2412084,0.4211179999999981,-1.153565600000006
imu,368.525266,,,,,,,71.08251480000001,0.9216131999999932,-0.7263136000000059
imu,368.626524,,,,,,,71.53418119999999,1.043685199999977,-1.226808800000001
imu,368.729429,,,,,,,71.03368599999999,0.8239555999999926,-0.8972144000000015
imu,368.829771,,,,,,,73.4629188,0.2380099999999885,-1.934826400000011
imu,368.931242,,,,,,,71.4121092,0.8727843999999818,-0.8850072000000098
imu,369.616688,-0.2171294664,-9.794752100000002,1.6520980336,1.39828964,0.2237972899999998,-4.64034923,,,
imu,369.62516,-0.2075590216,-9.7744149048,1.6622666312,1.24127453,0.21632038,-4.63287232,,,
imu,369.633633,-0.236270356,-9.762451848800001,1.6491072696,1.25622835,0.3509047599999997,-4.50576485,,,
imu,369.642105,-0.2428500368,-9.788172419200002,1.6485091168,1.28613599,0.3434278499999999,-4.5431494,,,
imu,369.650577,-0.2374666616,-9.7989391696,1.6371442136,1.17398234,0.5079198699999998,-4.49828794,,,
imu,369.659036,-0.2488315648,-9.797144711200001,1.662864784,1.04687487,0.6350273399999997,-4.34874974,,,
imu,369.667494,-0.242251884,-9.785779808000001,1.6562851032,0.97210577,0.6499811599999998,-4.386134289999999,,,
imu,369.675953,-0.2530186344000001,-9.802528086400002,1.6616684784,1.15902852,0.58268897,-4.47585721,,,
imu,369.684411,-0.2590001624000001,-9.803724392000001,1.6664537008,1.27865908,0.5527813299999997,-4.65530305,,,
imu,369.69287,-0.2703650656,-9.802528086400002,1.6574814088,1.40576655,0.4854891399999999,-4.81231816,,,
imu,369.701328,-0.2733558296,-9.802528086400002,1.6491072696,1.23379762,0.44062768,-4.96933327,,,
imu,369.709787,-0.28412258,-9.800733628000001,1.656883256,1.24875144,0.5079198699999998,-4.90204108,,,
imu,369.718245,-0.3014690112,-9.802528086400002,1.6622666312,1.30108981,0.3882893099999998,-4.931948719999999,,,
imu,369.726704,-0.3092449976000001,-9.8049206976,1.6610703256,1.18145925,0.5079198699999998,-4.85717962,,,
imu,369.735162,-0.3164228312,-9.80970592,1.647910964,1.15902852,0.62007352,-4.78241052,,,
imu,369.74362,-0.3265914288,-9.8168837536,1.6580795616,1.06182869,0.7322271699999998,-4.55062631,,,
imu,369.752079,-0.323002512,-9.825856045600002,1.653892492,1.03939796,0.9116730099999999,-4.3936112,,,
imu,369.760537,-0.3170209840000001,-9.837220948800002,1.6550887976,0.7403215599999999,1.00139593,-4.52071867,,,
imu,369.768996,-0.3128339144,-9.862343366400001,1.6616684784,0.65059864,1.04625739,-4.77493361,,,
imu,369.777454,-0.3241988176,-9.860548908000002,1.662864784,0.41881443,1.07616503,-4.89456417,,,
imu,369.785913,-0.3337692624,-9.861147060800002,1.6694444648,0.31413769,1.07616503,-4.74502597,,,
imu,369.794371,-0.3182172896000001,-9.845595088000001,1.6634629368,-0.01484635000000001,1.03878048,-4.87213344,,,
imu,369.80283,-0.3092449976000001,-9.8210708232,1.6670518536,-0.32139966,1.21822632,-4.715118329999999,,,
imu,369.811288,-0.3170209840000001,-9.800135475200001,1.6700426176,-0.43355331,1.26308778,-4.59548777,,,
imu,369.819747,-0.3271895816000001,-9.7540777096,1.6754259928,-0.61299915,1.13598031,-4.4683803,,,
imu,369.828205,-0.3271895816000001,-9.718188541600002,1.6843982848,-0.79244499,1.00887284,-4.453426479999999,,,
imu,369.836663,-0.34393786,-9.703832874400002,1.6993521048,-0.8821679099999999,1.04625739,-4.37865738,,,
imu,369.845122,-0.3361618736,-9.744507264800001,1.7208856056,-0.89712173,0.94905756,-4.59548777,,,
imu,369.85358,-0.3630787496,-9.798341016800002,1.7220819112,-0.71019898,1.09111885,-4.670256869999999,,,
imu,369.862388,-0.3786307224000001,-9.769031529600001,1.7172966888,-0.59056842,0.94905756,-4.70016451,,,
imu,369.871196,-0.3505175408000001,-9.725366375200002,1.70473548,-0.5681376899999999,0.7696117199999999,-4.87961035,,,
imu,369.880003,-0.361882444,-9.735534972800002,1.7065299384,0.0001074699999999984,0.8593346399999997,-4.65530305,,,
imu,369.888811,-0.3995660704000001,-9.742114653600002,1.6969594936,0.41881443,1.01634975,-4.11696553,,,
imu,369.897619,-0.4031549872,-9.741516500800001,1.6975576464,0.83004448,1.22570323,-3.53376655,,,
imu,369.906426,-0.3756399584,-9.709216249600003,1.6855945904,1.12164397,1.33785688,-3.33936689,,,
imu,369.915234,-0.3564990688,-9.7265626808,1.7005484104,1.57773548,1.52477963,-3.46647436,,,
imu,369.924041,-0.35889168,-9.745703570400002,1.6903798128,2.04878081,1.67431783,-3.76555076,,,
imu,369.932849,-0.3511156936,-9.7570684736,1.698753952,2.15345755,1.97339423,-3.80293531,,,
imu,369.941657,-0.3403489432000001,-9.7301515976,1.7131096192,2.16841137,2.01825569,-3.78050458,,,
imu,369.950464,-0.3158246784000001,-9.744507264800001,1.7101188552,2.09364227,1.99582496,-3.75059694,,,
imu,369.959272,-0.2984782472,-9.7570684736,1.6993521048,2.01887317,1.94348659,-3.63844329,,,
imu,369.96808,-0.2853188856,-9.7337405144,1.686790896,1.92915025,2.08554788,-3.48890509,,,
imu,369.976887,-0.2667761488000001,-9.7217774584,1.6849964376,1.83195042,1.79394839,-3.40665908,,,
imu,369.985695,-0.2757484408,-9.724170069600001,1.6909779656,1.98896553,1.577118,-3.24964397,,,
imu,369.994503,-0.2733558296,-9.7283571392,1.6832019792,2.14598064,1.42010289,-3.23469015,,,
imu,370.00331,-0.2787392048,-9.737329431200001,1.6855945904,2.16093446,1.18084177,-3.39918217,,,
imu,370.012118,-0.3014690112,-9.759461084800002,1.695763188,2.28804193,0.9789651999999998,-3.44404363,,,
imu,370.020925,-0.3158246784000001,-9.7809945856,1.6879872016,2.25065738,0.8369039099999998,-3.48890509,,,
imu,370.029733,-0.3241988176,-9.7953502528,1.6963613408,2.10111918,0.7696117199999999,-3.68330475,,,
imu,370.038541,-0.3307784984000001,-9.803126239200001,1.6981557992,1.98896553,0.8144731799999998,-3.75059694,,,
imu,370.047348,-0.3307784984000001,-9.8234634344,1.7155022304,1.93662716,0.8518577299999999,-3.90013514,,,
imu,370.056156,-0.3421434016,-9.8270523512,1.7125114664,1.75718132,0.9415806499999997,-3.93004278,,,
imu,370.064654,-0.3463304712,-9.831239420800001,1.70473548,1.70484295,0.9939190199999999,-3.82536604,,,
imu,370.073152,-0.3427415544,-9.8234634344,1.7071280912,1.57025857,1.06121121,-3.84779677,,,
imu,370.08165,-0.3445360128,-9.802528086400002,1.695763188,1.5926893,1.29299542,-3.87770441,,,
imu,370.090148,-0.3433397072,-9.765442612800001,1.6963613408,1.5926893,1.29299542,-3.93004278,,,
imu,370.098645,-0.3427415544,-9.800135475200001,1.7149040776,1.58521239,1.36776452,-3.8702275,,,
imu,370.107143,-0.3343674152,-9.83961356,1.7125114664,1.60764312,1.49487199,-3.83284295,,,
imu,370.115641,-0.3236006648,-9.801929933600002,1.6843982848,1.55530475,1.45748744,-3.90761205,,,
imu,370.124139,-0.3295821928000001,-9.739123889600002,1.6969594936,1.39828964,1.53973345,-3.97490424,,,
imu,370.132637,-0.3271895816000001,-9.731347903200001,1.6879872016,1.56278166,1.577118,-3.93004278,,,
imu,370.141135,-0.3367600264,-9.748694334400001,1.6766222984,1.63755076,1.53973345,-3.63844329,,,
imu,370.149633,-0.3570972216000001,-9.755274015200001,1.671837076,1.77213514,1.60702564,-3.13749032,,,
imu,370.158131,-0.340947096,-9.7540777096,1.6694444648,1.92167334,1.68927165,-2.88327538,,,
imu,370.166628,-0.3307784984000001,-9.767237071200002,1.6586777144,2.13102682,1.77151766,-2.88327538,,,
imu,370.175126,-0.3331711096,-9.769031529600001,1.6497054224,2.25813429,1.83880985,-2.98795212,,,
imu,370.183624,-0.3301803456000001,-9.7845835024,1.653892492,2.29551884,1.86871749,-3.10758268,,,
imu,370.192122,-0.3212080536,-9.793555794400001,1.6473128112,2.27308811,1.9509635,-3.26459779,,,
imu,370.20062,-0.3086468448,-9.772620446400001,1.653892492,2.25813429,1.89114822,-3.40665908,,,
imu,370.209118,-0.2954874832,-9.785181655200002,1.6377423664,2.3403803,1.92105586,-3.3468438,,,
imu,370.217616,-0.2990764,-9.787574266400002,1.6413312832,2.08616536,1.83133294,-3.31693616,,,
imu,370.226114,-0.3080486920000001,-9.7570684736,1.6443220472,1.9665348,1.8014253,-3.06272122,,,
imu,370.234611,-0.3188154424,-9.764246307200002,1.6347516024,1.91419643,1.8761944,-2.71130645,,,
imu,370.243109,-0.2984782472,-9.768433376800001,1.6395368248,1.89924261,1.98834805,-2.54681443,,,
imu,370.251607,-0.2924967192,-9.7815927384,1.6425275888,1.74970441,2.14536316,-2.38979932,,,
imu,370.260105,-0.305057928,-9.789368724800001,1.6305645328,1.83942733,2.40705501,-2.24026112,,,
imu,370.268549,-0.3080486920000001,-9.789368724800001,1.6335552968,1.65250458,2.50425484,-2.36736859,,,
imu,370.276994,-0.2972819416,-9.800733628000001,1.6371442136,1.65998149,2.58650085,-2.55429134,,,
imu,370.285438,-0.2853188856,-9.800135475200001,1.6347516024,1.73475059,2.73603905,-2.83093701,,,
imu,370.293883,-0.2715613712,-9.8043225448,1.6293682272,1.79456587,2.83323888,-3.15992105,,,
imu,370.302327,-0.263187232,-9.836622796,1.647910964,1.69736604,2.98277708,-3.36927453,,,
imu,370.310772,-0.2350740504,-9.844996935200001,1.641929436,1.71979677,3.07997691,-3.46647436,,,
imu,370.319216,-0.2141387024,-9.842604324000002,1.6413312832,1.62259694,3.00520781,-3.50385891,,,
imu,370.327661,-0.2141387024,-9.831239420800001,1.6407331304,1.60016621,2.78090051,-3.5711511,,,
imu,370.336105,-0.206362716,-9.824061587200001,1.6347516024,1.45062801,2.66126995,-3.65339711,,,
imu,370.34455,-0.197390424,-9.824061587200001,1.632957144,1.2936129,2.46687029,-3.67582784,,,
imu,370.352994,-0.1872218264,-9.8264541984,1.6323589912,1.16650543,2.15284007,-3.93004278,,,
imu,370.361439,-0.200381188,-9.8330338792,1.6215922408,1.12912088,1.9509635,-3.99733497,,,
imu,370.369883,-0.200381188,-9.811500378400002,1.6263774632,1.07678251,1.79394839,-4.22164227,,,
imu,370.378328,-0.2201202304,-9.802528086400002,1.6401349776,0.79265993,1.50982581,-4.341272829999999,,,
imu,370.386772,-0.2488315648,-9.7953502528,1.6311626856,0.7702292,1.34533379,-4.31136519,,,
imu,370.395217,-0.257205704,-9.769629682400002,1.6311626856,0.7253677399999999,1.18831868,-4.13191935,,,
imu,370.403661,-0.275150288,-9.772620446400001,1.6311626856,0.6132140899999999,1.07616503,-4.13191935,,,
imu,370.412105,-0.3002727056,-9.765442612800001,1.6215922408,0.58330645,0.98644211,-4.13939626,,,
imu,370.42055,-0.3068523864000001,-9.758264779200001,1.6257793104,0.68050628,1.00887284,-3.97490424,,,
imu,370.428994,-0.3152265256,-9.7534795568,1.6383405192,0.67302937,0.98644211,-4.034719519999999,,,
imu,369.03301,,,,,,,73.6826484,-0.05496280000001352,-3.314240000000002
imu,369.134389,,,,,,,71.43652359999999,1.00706359999998,-0.8728000000000069
imu,369.235982,,,,,,,71.97364040000001,0.1403523999999878,-3.643834400000001
imu,369.337636,,,,,,,70.9360284,1.153549999999992,-1.324466400000002
imu,369.439107,,,,,,,71.4853524,0.7262979999999919,-1.165772800000009
imu,369.540639,,,,,,,71.521974,0.8483699999999983,-1.080322400000011
imu,369.642202,,,,,,,71.26562279999999,0.7995411999999869,-1.531988800000006
imu,369.743764,,,,,,,71.6562532,0.7385051999999837,-0.6408632000000081
imu,370.437495,-0.3224043592,-9.7540777096,1.6461165056,0.68050628,0.9640113799999996,-4.07210407,,,
imu,370.44594,-0.3415452488,-9.783985349600002,1.6503035752,0.71789083,1.02382666,-3.99733497,,,
imu,370.454384,-0.3421434016,-9.782789044000001,1.6550887976,0.7403215599999999,1.18831868,-3.8702275,,,
imu,370.462829,-0.3361618736,-9.773816752000002,1.6485091168,0.8749059399999999,1.38271834,-3.8702275,,,
imu,370.471338,-0.3385544848000001,-9.773218599200002,1.6616684784,0.80013684,1.46496435,-3.98238115,,,
imu,370.479847,-0.3535083048,-9.7780038216,1.6706407704,0.6281679099999999,1.58459491,-4.04219643,,,
imu,370.488356,-0.352910152,-9.787574266400002,1.65987402,0.55339881,1.62945637,-3.91508896,,,
imu,370.496866,-0.3553027632,-9.767237071200002,1.6694444648,0.64312173,1.7266562,-3.75059694,,,
imu,370.505375,-0.3606861384,-9.752881404000002,1.665855548,0.7552753799999999,1.71170238,-3.75807385,,,
imu,370.513884,-0.3642750552,-9.760059237600002,1.6586777144,0.79265993,1.95844041,-3.51881273,,,
imu,370.522394,-0.3624805968,-9.758862932000001,1.6694444648,0.91229049,2.25751681,-3.33936689,,,
imu,370.530903,-0.340947096,-9.7815927384,1.656883256,1.07678251,2.21265535,-3.38422835,,,
imu,370.539412,-0.3379563320000001,-9.791761336000002,1.6520980336,1.2936129,2.30985518,-3.2720747,,,
imu,370.547922,-0.3241988176,-9.797742864000002,1.6640610896,1.26370526,2.43696265,-3.26459779,,,
imu,370.556431,-0.3104413032000001,-9.803126239200001,1.6664537008,1.11416706,2.46687029,-3.1225365,,,
imu,370.56494,-0.2978800944000001,-9.8049206976,1.65987402,1.15902852,2.4743472,-3.01038285,,,
imu,370.57345,-0.281131816,-9.783387196800001,1.650901728,1.33099745,2.46687029,-2.92065993,,,
imu,370.581959,-0.272159524,-9.791761336000002,1.6736315344,1.2936129,2.34723973,-3.02533667,,,
imu,370.590468,-0.2733558296,-9.797742864000002,1.6826038264,1.1440747,2.16031698,-3.04029049,,,
imu,370.598978,-0.2793373576,-9.773816752000002,1.677818604,1.15155161,2.07059406,-3.02533667,,,
imu,370.607487,-0.272159524,-9.7217774584,1.6796130624,1.05435178,1.81637912,-3.21973633,,,
imu,370.615996,-0.2859170384,-9.744507264800001,1.6772204512,0.97958268,1.59954873,-3.45899745,,,
imu,370.624506,-0.3116376088,-9.763050001600002,1.6772204512,1.05435178,1.58459491,-3.43656672,,,
imu,370.633015,-0.3385544848000001,-9.745703570400002,1.6724352288,1.21136689,1.45001053,-3.30198234,,,
imu,370.641524,-0.3188154424,-9.715795930400002,1.6706407704,1.30108981,1.5023489,-3.18982869,,,
imu,370.650034,-0.3283858872000001,-9.721179305600002,1.6514998808,1.43567419,1.43505671,-3.10010577,,,
imu,370.658543,-0.3499193880000001,-9.752283251200002,1.6503035752,1.73475059,1.66684092,-2.71878336,,,
imu,370.667052,-0.3457323184,-9.762451848800001,1.6574814088,2.05625772,2.00330187,-2.24773803,,,
imu,370.675469,-0.3331711096,-9.773816752000002,1.641929436,2.22822665,2.03320951,-2.11315365,,,
imu,370.683885,-0.3128339144,-9.803126239200001,1.6431257416,2.34785721,2.14536316,-2.36736859,,,
imu,370.692302,-0.3008708584000001,-9.8043225448,1.62996638,2.59459524,2.27994754,-2.80102937,,,
imu,370.700718,-0.296085636,-9.8061170032,1.6251811576,2.58711833,2.27994754,-3.18982869,,,
imu,370.709135,-0.2865151912,-9.8079114616,1.6263774632,2.53477996,2.27247063,-3.33188998,,,
imu,370.717551,-0.2655798432,-9.815687448000002,1.6138162544,2.46001086,2.30985518,-3.35432071,,,
imu,370.725968,-0.2679724544000001,-9.8079114616,1.6203959352,2.45253395,2.22013226,-3.38422835,,,
imu,370.734384,-0.2619909264,-9.803126239200001,1.6108254904,2.31047266,2.16031698,-3.29450543,,,
imu,370.742801,-0.263187232,-9.801929933600002,1.6012550456,2.17588828,2.00330187,-3.02533667,,,
imu,370.751217,-0.2673743016,-9.798341016800002,1.6018531984,2.08616536,1.9509635,-2.72626027,,,
imu,370.759634,-0.2703650656,-9.801929933600002,1.6072365736,2.07868845,1.89114822,-2.45709151,,,
imu,370.76805,-0.3032634696000001,-9.780396432800002,1.603049504,1.94410407,1.86124058,-2.3000764,,,
imu,370.776467,-0.3014690112,-9.779798280000001,1.6012550456,1.7422275,1.93600968,-2.25521494,,,
imu,370.784883,-0.2966837888,-9.769031529600001,1.6078347264,1.73475059,2.15284007,-2.29259949,,,
imu,370.7933,-0.3026653168,-9.7576666264,1.6072365736,1.63755076,2.05564024,-2.53933752,,,
imu,370.801716,-0.296085636,-9.779798280000001,1.6054421152,1.54035093,2.20517844,-2.68887572,,,
imu,370.810133,-0.2942911776,-9.7959484056,1.6054421152,1.49548947,2.49677793,-2.59167589,,,
imu,370.818549,-0.2673743016,-9.800733628000001,1.6245830048,1.43567419,2.5491163,-2.69635263,,,
imu,370.826966,-0.2476352592,-9.803126239200001,1.6251811576,1.30856672,2.65379304,-2.8234601,,,
imu,370.835382,-0.23926112,-9.821668976000002,1.6233866992,1.24875144,2.63883922,-2.95804448,,,
imu,370.843799,-0.2338777448,-9.810304072800001,1.62996638,1.32352054,2.61640849,-2.90570611,,,
imu,370.852215,-0.2225128416,-9.802528086400002,1.6096291848,1.33847436,2.65379304,-2.89075229,,,
imu,370.860631,-0.2177276192,-9.766638918400002,1.618003324,1.46558183,2.57154703,-2.78607555,,,
imu,370.869048,-0.2290925224000001,-9.794153947200002,1.6425275888,1.33847436,2.43696265,-2.60662971,,,
imu,370.877865,-0.2201202304,-9.857558144000002,1.641929436,1.40576655,2.41453192,-2.33746095,,,
imu,370.886682,-0.2045682576000001,-9.8467913936,1.6371442136,1.5179202,2.41453192,-2.32250713,,,
imu,370.895499,-0.2278962168,-9.7911631832,1.6383405192,1.31604363,2.324809,-2.5991528,,,
imu,370.904316,-0.2069608688,-9.7534795568,1.6221903936,1.27865908,2.22013226,-2.76364482,,,
imu,370.913133,-0.2171294664,-9.767835224,1.603049504,1.368382,2.1005017,-2.64401426,,,
imu,370.92195,-0.2446444952,-9.783387196800001,1.6066384208,1.55530475,2.19022462,-2.29259949,,,
imu,370.930766,-0.2458408008,-9.759461084800002,1.6024513512,1.71979677,2.324809,-1.91127708,,,
imu,370.939583,-0.2290925224000001,-9.7702278352,1.594077212,1.86185806,2.48182411,-1.81407725,,,
imu,370.9484,-0.2165313136,-9.7815927384,1.5916846008,1.89924261,2.45191647,-2.12063056,,,
imu,370.957217,-0.2057645632,-9.7815927384,1.5928809064,2.01887317,2.58650085,-2.29259949,,,
imu,370.966034,-0.185427368,-9.798341016800002,1.5958716704,2.07868845,2.67622377,-2.47952224,,,
imu,370.974851,-0.1782495344,-9.802528086400002,1.5892919896,1.78708896,2.60893158,-2.95804448,,,
imu,370.983668,-0.1788476872,-9.801929933600002,1.5773289336,1.68241222,2.60145467,-3.22721324,,,
imu,370.992485,-0.1782495344,-9.782789044000001,1.5874975312,1.57025857,2.6238854,-3.32441307,,,
imu,371.001302,-0.1722680064,-9.7750130576,1.579123392,1.54035093,2.51173175,-2.98795212,,,
imu,371.010119,-0.173464312,-9.789368724800001,1.5845067672,1.28613599,2.42948574,-2.83841392,,,
imu,371.018936,-0.1597067976,-9.7923594888,1.5773289336,1.26370526,2.40705501,-2.53933752,,,
imu,371.027753,-0.1591086448,-9.803126239200001,1.5946753648,1.28613599,2.28742445,-2.3000764,,,
imu,371.03657,-0.1740624648,-9.812696684000002,1.582114156,1.33847436,2.20517844,-2.1505382,,,
imu,371.045387,-0.1818384512,-9.821668976000002,1.5809178504,1.26370526,2.1752708,-2.1505382,,,
imu,371.054203,-0.1788476872,-9.822267128800002,1.6024513512,1.19641307,2.22013226,-2.35989168,,,
imu,371.06302,-0.1758569232,-9.835426490400001,1.6036476568,1.2936129,2.37714737,-2.42718387,,,
imu,371.071837,-0.1597067976,-9.839015407200002,1.6006568928,1.28613599,2.64631613,-2.69635263,,,
imu,371.080375,-0.1453511304,-9.841408018400001,1.5958716704,1.18893616,2.64631613,-2.90570611,,,
imu,371.088912,-0.1321917688,-9.844996935200001,1.6072365736,1.15155161,2.54163939,-3.02533667,,,
imu,371.097449,-0.1064711984,-9.825257892800002,1.5988624344,1.11416706,2.7734236,-3.14496723,,,
imu,371.105986,-0.09151737840000002,-9.807313308800001,1.5958716704,0.8973366700000001,2.75846978,-3.23469015,,,
imu,371.114524,-0.07596540560000001,-9.803724392000001,1.597067976,0.81509066,2.66874686,-3.27955161,,,
imu,371.123061,-0.04845037680000001,-9.802528086400002,1.6012550456,0.71789083,2.64631613,-3.10758268,,,
imu,371.131598,-0.0430670016,-9.794752100000002,1.5928809064,0.65807555,2.45939338,-3.11505959,,,
imu,371.140136,-0.05084298800000001,-9.7809945856,1.5934790592,0.620691,2.23508608,-3.16739796,,,
imu,371.148673,-0.07297464160000001,-9.751685098400001,1.5857030728,0.65059864,1.89862513,-3.24216706,,,
imu,371.15721,-0.080750628,-9.7492924872,1.588095684,0.8823828499999999,1.79394839,-3.22721324,,,
imu,371.165748,-0.1034804344,-9.748694334400001,1.582114156,0.8449983,1.56964109,-3.28702852,,,
imu,371.174285,-0.1238176296,-9.744507264800001,1.5904882952,0.91229049,1.56216418,-3.51881273,,,
imu,371.182822,-0.1417622136,-9.748096181600001,1.5767307808,0.85995212,1.6518871,-3.76555076,,,
imu,371.191359,-0.1477437416,-9.754675862400001,1.5779270864,0.9347212199999999,1.75656384,-3.84031986,,,
imu,371.199897,-0.1453511304,-9.776209363200001,1.5713474056,1.2188438,1.76404075,-4.00481188,,,
imu,371.208434,-0.155519728,-9.787574266400002,1.573141864,1.26370526,1.91357895,-4.04219643,,,
imu,371.216971,-0.1561178808,-9.787574266400002,1.5815160032,1.30108981,1.96591732,-4.10948862,,,
imu,371.225509,-0.1567160336,-9.7923594888,1.5827123088,1.25622835,2.10797861,-4.27398064,,,
imu,371.234046,-0.1710717008,-9.812098531200002,1.60005874,1.30108981,2.16031698,-4.26650373,,,
imu,371.242583,-0.1668846312,-9.8264541984,1.5964698232,1.23379762,2.29490136,-4.169303899999999,,,
imu,371.25112,-0.173464312,-9.828248656800001,1.5982642816,1.0693056,2.16031698,-4.169303899999999,,,
imu,369.845357,,,,,,,72.95021639999999,0.9582347999999907,-1.959240800000006
imu,369.94692,,,,,,,71.04589320000001,1.165757199999984,-1.654060800000001
imu,370.048452,,,,,,,73.8657564,0.2624243999999942,-4.180951200000004
imu,370.150045,,,,,,,71.21679400000001,0.933820399999985,-0.2624400000000082
imu,370.25176,,,,,,,73.71927000000001,0.2624243999999942,-3.619420000000007
imu,370.353139,,,,,,,70.9238212,0.8361627999999843,-1.251223200000007
imu,370.454732,,,,,,,71.57080280000001,0.8483699999999983,-0.860592800000004
imu,370.556295,,,,,,,71.55859559999999,0.5065683999999848,-0.2624400000000082
imu,371.259658,-0.1836329096,-9.828846809600002,1.5922827536,0.97210577,2.08554788,-4.26650373,,,
imu,370.657728,,,,,,,71.338866,0.7385051999999837,-1.055908000000005
imu,370.759321,,,,,,,71.4243164,0.4821539999999791,-0.8239712000000066
imu,370.860884,,,,,,,71.55859559999999,0.7385051999999837,-1.36108800000001
imu,370.962416,,,,,,,72.1445412,0.9948563999999882,-1.776132800000008
imu,371.063978,,,,,,,71.2290012,0.6652619999999887,-1.055908000000005
imu,371.165541,,,,,,,73.8169276,0.1891811999999771,-3.375276000000005
