Type,Timestamp,Data Accelerometer X,Data Accelerometer Y,Data Accelerometer Z,Data Gyroscope X,Data Gyroscope Y,Data Gyroscope Z,Data Magnetometer X,Data Magnetometer Y,Data Magnetometer Z
imu,184.925529,-0.4779240872000001,-9.748096181600001,1.5755344752,1.50296638,1.50982581,-3.05524431,,,
imu,184.934359,-0.4827093096,-9.828248656800001,1.5892919896,1.56278166,1.59954873,-2.96552139,,,
imu,184.943189,-0.472540712,-9.903615909600001,1.60005874,1.53287402,1.76404075,-2.72626027,,,
imu,184.952019,-0.4761296288000001,-9.904214062400001,1.6114236432,1.38333582,1.98834805,-2.56924516,,,
imu,184.960849,-0.4528016696000001,-9.865932283200001,1.6287700744,1.06182869,2.07059406,-2.60662971,,,
imu,184.96968,-0.4348570856000001,-9.836024643200002,1.6233866992,0.7403215599999999,2.25751681,-2.77112173,,,
imu,184.97851,-0.4115291264,-9.803126239200001,1.6102273376,0.47862971,2.30237827,-2.79355246,,,
imu,184.98734,-0.4055475984,-9.7750130576,1.6072365736,0.47862971,2.38462428,-2.71130645,,,
imu,184.995809,-0.3893974728000001,-9.7474980288,1.612021796,0.47862971,2.27247063,-2.8234601,,,
imu,185.004277,-0.3684621248000001,-9.743909112,1.5898901424,0.4711528,2.36219355,-2.6739219,,,
imu,185.012746,-0.3732473472,-9.731946056000002,1.6048439624,0.66555246,2.16779389,-2.90570611,,,
imu,185.021214,-0.3816214864,-9.7283571392,1.6096291848,0.82256757,2.1005017,-3.10758268,,,
imu,185.029683,-0.3846122504,-9.748694334400001,1.597067976,1.20388998,2.18274771,-3.1225365,,,
imu,185.038152,-0.376836264,-9.766638918400002,1.603049504,1.34595127,2.11545552,-3.13749032,,,
imu,185.04662,-0.3840140976,-9.782789044000001,1.6084328792,1.56278166,2.13040934,-3.08515195,,,
imu,185.055089,-0.3744436528,-9.8013317808,1.6203959352,1.69736604,2.16779389,-3.1225365,,,
imu,185.063558,-0.3726491944000001,-9.812098531200002,1.6341534496,1.65998149,2.13040934,-3.10758268,,,
imu,185.072026,-0.3523119992,-9.839015407200002,1.6377423664,1.63755076,2.22013226,-3.11505959,,,
imu,185.080495,-0.3517138464,-9.853371074400002,1.6520980336,1.36090509,2.03320951,-3.15244414,,,
imu,185.088963,-0.3564990688,-9.852174768800001,1.668846312,1.25622835,1.95844041,-2.98047521,,,
imu,185.097432,-0.3535083048,-9.836622796,1.6640610896,0.81509066,1.74908693,-2.96552139,,,
imu,185.105901,-0.367863972,-9.800733628000001,1.656883256,0.44872207,1.62197946,-2.88327538,,,
imu,185.114369,-0.3780325696000001,-9.745105417600001,1.6431257416,0.34404533,1.53225654,-2.98795212,,,
imu,185.122838,-0.3864067088000001,-9.6912716656,1.6365460608,0.23936859,1.54721036,-3.24964397,,,
imu,185.131307,-0.4097346680000001,-9.668541859200001,1.6197977824,0.29170696,1.43505671,-3.48890509,,,
imu,185.139775,-0.4432312248,-9.640428677600001,1.6012550456,0.56835263,1.37524143,-3.69825857,,,
imu,185.148244,-0.46356842,-9.633250844,1.5892919896,0.97958268,1.47991817,-3.75807385,,,
imu,185.156712,-0.4695499480000001,-9.648802816800002,1.573141864,1.52539711,1.74908693,-3.5711511,,,
imu,185.165181,-0.4677554896000001,-9.676317845600002,1.5713474056,2.07868845,1.92105586,-3.77302767,,,
imu,185.17365,-0.4671573368000001,-9.724768222400002,1.567160336,2.70674889,2.3995781,-3.5711511,,,
imu,185.182118,-0.4462219888000001,-9.797144711200001,1.5803196976,2.95348692,2.6238854,-3.35432071,,,
imu,185.190587,-0.4091365152000001,-9.8497821576,1.5964698232,3.20770186,2.73603905,-3.21225942,,,
imu,185.199051,-0.3887993200000001,-9.905410368000002,1.6018531984,3.23013259,2.95286944,-2.95804448,,,
imu,185.207514,-0.34393786,-9.924551257600003,1.6042458096,2.93105619,2.96034635,-2.86832156,,,
imu,185.215978,-0.3176191368,-9.900625145600001,1.6048439624,2.57964142,2.89305416,-3.00290594,,,
imu,185.224441,-0.2990764,-9.874306422400002,1.5982642816,2.20579592,2.57154703,-3.17487487,,,
imu,185.232905,-0.2954874832,-9.851576616000001,1.5958716704,1.8169966,2.1005017,-3.36927453,,,
imu,185.241368,-0.3068523864000001,-9.810902225600001,1.5773289336,1.49548947,1.71170238,-3.62348947,,,
imu,185.249832,-0.3343674152,-9.7911631832,1.5725437112,1.34595127,1.34533379,-3.72816621,,,
imu,185.258295,-0.3576953744,-9.7510869456,1.5605806552,1.08425942,1.18831868,-3.81788913,,,
imu,185.266759,-0.3840140976,-9.722973764,1.558188044,0.8973366700000001,0.86681155,-3.85527368,,,
imu,185.275222,-0.415716196,-9.710412555200001,1.5348600848,1.23379762,0.8593346399999997,-3.66835093,,,
imu,185.283686,-0.4294737104000001,-9.700243957600001,1.5390471544,1.48053565,0.9714882899999999,-3.59358183,,,
imu,185.292149,-0.4480164472000001,-9.719983000000001,1.5390471544,1.84690424,1.08364194,-3.53376655,,,
imu,185.300613,-0.451605364,-9.752283251200002,1.5444305296,1.91419643,1.24813396,-3.48142818,,,
imu,185.309077,-0.4330626272,-9.791761336000002,1.5599825024,2.15345755,1.50982581,-3.32441307,,,
imu,185.31754,-0.4282774048000001,-9.807313308800001,1.5653658776,2.16841137,1.65936401,-3.45152054,,,
imu,185.326004,-0.4163143488000001,-9.8264541984,1.5725437112,2.09364227,1.83133294,-3.46647436,,,
imu,185.334467,-0.4043512928,-9.844398782400003,1.579123392,1.86933497,1.77151766,-3.61601256,,,
imu,185.342931,-0.3935845424,-9.837819101600003,1.5815160032,1.55530475,1.8014253,-3.68330475,,,
imu,185.351394,-0.391790084,-9.8234634344,1.5743381696,1.34595127,1.73413311,-3.77302767,,,
imu,185.359858,-0.382817792,-9.802528086400002,1.564169572,1.11416706,1.73413311,-3.71321239,,,
imu,185.368321,-0.3846122504,-9.798341016800002,1.55519728,0.9347212199999999,1.67431783,-3.73564312,,,
imu,185.376785,-0.3822196392,-9.7744149048,1.5557954328,1.02444414,1.78647148,-3.60105874,,,
imu,185.385248,-0.3744436528,-9.7780038216,1.5599825024,1.18893616,1.92105586,-3.38422835,,,
imu,185.393712,-0.3726491944000001,-9.812696684000002,1.5659640304,1.40576655,2.00330187,-3.18982869,,,
imu,185.402178,-0.3427415544,-9.828248656800001,1.567160336,1.33847436,1.95844041,-3.24216706,,,
imu,185.410644,-0.3397507904000001,-9.8079114616,1.5874975312,1.4431511,1.9509635,-3.42908981,,,
imu,185.41911,-0.3505175408000001,-9.802528086400002,1.5994605872,1.2936129,1.61450255,-3.78050458,,,
imu,185.427576,-0.3792288752000001,-9.812098531200002,1.60005874,1.15902852,1.58459491,-3.97490424,,,
imu,185.436042,-0.3935845424,-9.803126239200001,1.6078347264,0.8823828499999999,1.47991817,-4.034719519999999,,,
imu,185.444508,-0.3893974728000001,-9.7612555432,1.6096291848,0.58330645,1.39767216,-4.08705789,,,
imu,185.452975,-0.3911919312,-9.744507264800001,1.6251811576,0.43376825,1.36776452,-4.04219643,,,
imu,185.461441,-0.4258847936,-9.745105417600001,1.6048439624,0.44872207,1.33037997,-3.77302767,,,
imu,185.469907,-0.4557924336,-9.734936820000001,1.5946753648,0.620691,1.44253362,-3.24964397,,,
imu,185.478373,-0.472540712,-9.722973764,1.6102273376,0.85995212,1.67431783,-2.748691,,,
imu,185.486839,-0.4659610312,-9.741516500800001,1.5922827536,0.8749059399999999,2.06311715,-2.748691,,,
imu,185.495305,-0.4653628784000001,-9.766040765600001,1.5797215448,1.20388998,2.6238854,-2.61410662,,,
imu,185.503771,-0.4444275304,-9.7636481544,1.5725437112,1.23379762,2.97530017,-2.88327538,,,
imu,185.512237,-0.4055475984,-9.759461084800002,1.5683566416,1.39081273,3.37905331,-3.24964397,,,
imu,185.520703,-0.3714528888,-9.767237071200002,1.5629732664,1.68988913,3.5958837,-3.83284295,,,
imu,185.529169,-0.3295821928000001,-9.768433376800001,1.5647677248,1.90671952,3.62579134,-4.23659609,,,
imu,185.537635,-0.3014690112,-9.786976113600002,1.5563935856,2.17588828,3.5958837,-4.35622665,,,
imu,185.546102,-0.2667761488000001,-9.8061170032,1.5534028216,2.2656112,3.24446893,-4.28893446,,,
imu,185.554568,-0.2607946208,-9.803126239200001,1.5623751136,2.22822665,2.6986545,-4.08705789,,,
imu,185.563034,-0.2835244272,-9.818080059200001,1.5504120576,2.35533412,2.36219355,-3.81788913,,,
imu,185.5715,-0.2907022608000001,-9.819276364800002,1.5486175992,2.28804193,1.98834805,-3.62348947,,,
imu,185.579966,-0.3068523864000001,-9.821668976000002,1.5438323768,2.31794957,1.71917929,-3.57862801,,,
imu,185.588432,-0.3188154424,-9.8132948368,1.537252696,2.06373463,1.34533379,-3.60853565,,,
imu,185.596898,-0.3265914288,-9.803126239200001,1.5474212936,1.98896553,1.09111885,-3.74312003,,,
imu,185.60536,-0.3505175408000001,-9.8013317808,1.5450286824,1.82447351,0.94905756,-3.98238115,,,
imu,185.613823,-0.3744436528,-9.7923594888,1.543234224,1.70484295,0.84438082,-4.04219643,,,
imu,185.622285,-0.3929863896,-9.797742864000002,1.5426360712,1.56278166,0.7995193599999997,-4.16182699,,,
imu,185.630747,-0.3959771536000001,-9.800733628000001,1.5510102104,1.48801256,0.6873657099999999,-4.33379592,,,
imu,185.639209,-0.4073420568000001,-9.800135475200001,1.5456268352,1.39828964,0.6125966099999998,-4.37118047,,,
imu,185.647672,-0.424688488,-9.797742864000002,1.55519728,1.32352054,0.72475026,-4.29641137,,,
imu,185.656134,-0.442633072,-9.796546558400001,1.5623751136,1.2936129,0.64250425,-4.244073,,,
imu,185.664596,-0.4384460024000001,-9.802528086400002,1.552206516,1.30856672,0.8518577299999999,-3.93751969,,,
imu,185.673058,-0.4510072112,-9.782789044000001,1.5456268352,1.23379762,1.15093413,-3.90013514,,,
imu,185.681521,-0.4587831976000001,-9.7786019744,1.5737400168,1.2188438,1.30047233,-3.83284295,,,
imu,185.689983,-0.4617739616000001,-9.824659740000001,1.5827123088,1.18893616,1.56216418,-3.73564312,,,
imu,185.698445,-0.4563905864000001,-9.856959991200002,1.5827123088,0.8823828499999999,1.69674856,-3.69825857,,,
imu,185.706908,-0.4677554896000001,-9.818678212000002,1.5922827536,0.8449983,1.8014253,-3.82536604,,,
imu,185.71537,-0.4617739616000001,-9.777405668800002,1.5815160032,0.68798319,1.98834805,-3.92256587,,,
imu,185.723832,-0.4450256832000001,-9.7702278352,1.5815160032,0.7552753799999999,2.11545552,-4.0197657,,,
imu,185.732294,-0.4456238360000001,-9.755872168000002,1.5653658776,0.68050628,2.13040934,-3.87770441,,,
imu,185.740757,-0.4575868920000001,-9.748694334400001,1.5587861968,0.8674290299999999,2.31733209,-3.67582784,,,
imu,185.749219,-0.442633072,-9.752881404000002,1.5563935856,1.30108981,2.5491163,-3.31693616,,,
imu,185.757681,-0.4210995712,-9.762451848800001,1.5450286824,1.65250458,2.73603905,-3.17487487,,,
imu,185.766143,-0.3977716120000001,-9.7821908912,1.5330656264,1.91419643,2.78837742,-3.14496723,,,
imu,184.979441,,,,,,,72.19336999999999,0.5920187999999937,-4.05887920000001
imu,185.080942,,,,,,,71.97364040000001,1.605216399999998,-1.678475200000007
imu,185.774586,-0.3899956256000001,-9.798341016800002,1.5396453072,2.07868845,2.74351596,-3.39170526,,,
imu,185.783049,-0.3852104032000001,-9.818080059200001,1.5360563904,2.08616536,2.72108523,-3.74312003,,,
imu,185.791511,-0.3846122504,-9.837220948800002,1.5384490016,2.13102682,2.49677793,-3.99733497,,,
imu,185.799973,-0.3774344168000001,-9.841408018400001,1.5294767096,2.16841137,2.41453192,-4.0197657,,,
imu,185.808787,-0.3702565832000001,-9.828846809600002,1.5366545432,2.13102682,2.33228591,-3.77302767,,,
imu,185.817602,-0.3798270280000001,-9.820472670400001,1.5264859456,1.80951969,2.16031698,-3.48142818,,,
imu,185.826416,-0.3786307224000001,-9.805518850400002,1.528280404,1.63007385,1.99582496,-3.25712088,,,
imu,185.83523,-0.3935845424,-9.803126239200001,1.52528964,1.47305874,1.94348659,-3.1225365,,,
imu,185.844045,-0.3840140976,-9.803126239200001,1.5294767096,1.32352054,1.97339423,-2.98047521,,,
imu,185.852859,-0.3953790008,-9.800733628000001,1.5318693208,1.21136689,1.81637912,-2.9729983,,,
imu,185.861673,-0.4037531400000001,-9.786377960800001,1.5336637792,1.11416706,1.82385603,-2.98047521,,,
imu,185.870487,-0.4133235848,-9.7821908912,1.5258877928,0.97958268,1.88367131,-3.07767504,,,
imu,185.879302,-0.4073420568000001,-9.748096181600001,1.5330656264,1.03939796,1.76404075,-3.22721324,,,
imu,185.888116,-0.4103328208,-9.7301515976,1.537252696,0.9197674,1.77899457,-3.61601256,,,
imu,185.89693,-0.4121272792,-9.7283571392,1.5390471544,1.24127453,1.84628676,-3.69078166,,,
imu,185.905744,-0.4115291264,-9.7337405144,1.5360563904,1.41324346,1.85376367,-3.65339711,,,
imu,185.914559,-0.4181088072000001,-9.7510869456,1.5330656264,1.48053565,2.07059406,-3.5711511,,,
imu,185.923373,-0.3971734592000001,-9.7606573904,1.5420379184,1.57025857,2.13040934,-3.35432071,,,
imu,185.932187,-0.3642750552,-9.794752100000002,1.5516083632,1.80204278,2.24256299,-3.31693616,,,
imu,185.941002,-0.3415452488,-9.825856045600002,1.561178808,1.98148862,2.19022462,-3.43656672,,,
imu,185.949816,-0.3271895816000001,-9.839015407200002,1.5713474056,1.9665348,2.1005017,-3.40665908,,,
imu,185.95863,-0.3116376088,-9.844996935200001,1.5773289336,1.83942733,1.83133294,-3.58610492,,,
imu,185.967444,-0.3038616224,-9.8402117128,1.5767307808,1.80204278,1.73413311,-3.81041222,,,
imu,185.976259,-0.3158246784000001,-9.825257892800002,1.5695529472,1.69736604,1.40514907,-3.85527368,,,
imu,185.985073,-0.3373581792000001,-9.807313308800001,1.5563935856,1.77213514,1.21822632,-3.91508896,,,
imu,185.993887,-0.3511156936,-9.775611210400001,1.5384490016,1.63755076,0.94905756,-3.93004278,,,
imu,186.002701,-0.3738455000000001,-9.746899876,1.5360563904,1.6674584,0.8144731799999998,-3.95995042,,,
imu,186.01116,-0.3834159448,-9.739123889600002,1.5211025704,1.67493531,0.6873657099999999,-4.0945348,,,
imu,186.019618,-0.406743904,-9.743909112,1.519308112,1.8169966,0.58268897,-4.012288789999999,,,
imu,186.028076,-0.4025568344,-9.7576666264,1.5205044176,2.14598064,0.66493498,-4.00481188,,,
imu,186.036534,-0.4133235848,-9.7780038216,1.5151210424,2.31794957,0.8742884599999998,-3.93751969,,,
imu,186.044993,-0.4264829464000001,-9.7953502528,1.5234951816,2.28804193,0.9939190199999999,-3.81041222,,,
imu,186.053451,-0.4181088072000001,-9.8144911424,1.5276822512,2.35533412,1.0537343,-3.89265823,,,
imu,186.061909,-0.4163143488000001,-9.841408018400001,1.5270840984,2.40019558,1.19579559,-3.74312003,,,
imu,186.070367,-0.4121272792,-9.859950755200002,1.531271168,2.13102682,1.23318014,-3.67582784,,,
imu,186.078826,-0.4019586816,-9.8629415192,1.5318693208,1.8917657,1.32290306,-3.70573548,,,
imu,186.087284,-0.4031549872,-9.836622796,1.5456268352,1.46558183,1.18084177,-3.73564312,,,
imu,186.095742,-0.4061457512000001,-9.8144911424,1.52528964,1.16650543,1.30794924,-3.6459202,,,
imu,186.1042,-0.406743904,-9.7923594888,1.5187099592,1.00201341,1.38271834,-3.56367419,,,
imu,186.112659,-0.4187069600000001,-9.749890640000002,1.5037561392,1.16650543,1.21074941,-3.50385891,,,
imu,186.121117,-0.4432312248,-9.7151977776,1.5079432088,1.30108981,1.19579559,-3.47395127,,,
imu,186.129575,-0.4498109056,-9.708019944000002,1.4882041664,1.53287402,1.42010289,-3.53376655,,,
imu,186.138034,-0.4587831976000001,-9.711010708000002,1.4929893888,1.7422275,1.49487199,-3.65339711,,,
imu,186.146492,-0.4653628784000001,-9.741516500800001,1.4876060136,1.89924261,1.8014253,-3.496382,,,
imu,186.15495,-0.4539979752000001,-9.7815927384,1.486409708,2.116073,1.99582496,-3.45899745,,,
imu,186.163408,-0.430670016,-9.798341016800002,1.4905967776,2.4151494,2.34723973,-3.43656672,,,
imu,186.171867,-0.4049494456000001,-9.806715156000001,1.5031579864,2.50487232,2.60145467,-3.39170526,,,
imu,186.180325,-0.3636769024000001,-9.831239420800001,1.486409708,2.51982614,2.69117759,-3.57862801,,,
imu,186.188783,-0.3236006648,-9.8593526024,1.486409708,2.66188743,2.70613141,-3.69078166,,,
imu,186.197241,-0.3014690112,-9.865932283200001,1.4911949304,2.80394872,2.5491163,-3.81041222,,,
imu,186.2057,-0.2835244272,-9.879689797600001,1.4941856944,2.61702597,2.37714737,-3.89265823,,,
imu,186.214158,-0.2595983152,-9.866530436000001,1.5001672224,2.22074974,1.94348659,-3.95247351,,,
imu,186.222619,-0.2697669128,-9.8270523512,1.5061487504,1.92915025,1.69674856,-3.81041222,,,
imu,186.23108,-0.2847207328,-9.8049206976,1.5055505976,1.43567419,1.24813396,-3.85527368,,,
imu,186.239541,-0.3188154424,-9.810902225600001,1.4935875416,1.09921324,0.64250425,-3.98985806,,,
imu,186.248002,-0.3564990688,-9.7815927384,1.468465124,0.85995212,0.2686587499999997,-4.16182699,,,
imu,186.256463,-0.391790084,-9.7086180968,1.4702595824,0.78518302,0.07425908999999997,-4.37118047,,,
imu,186.264924,-0.439642308,-9.683495679200002,1.4816244856,0.9870595899999999,0.07425908999999997,-4.35622665,,,
imu,186.273385,-0.5012520464000001,-9.7331423616,1.4690632768,1.49548947,0.2312741999999997,-3.93004278,,,
imu,186.281846,-0.5144114080000001,-9.782789044000001,1.459492832,1.77961205,0.6350273399999997,-3.44404363,,,
imu,186.290307,-0.505439116,-9.801929933600002,1.4762411104,2.08616536,1.32290306,-3.03281358,,,
imu,186.298768,-0.4731388648000001,-9.811500378400002,1.4738484992,2.24318047,1.77899457,-2.8234601,,,
imu,186.307229,-0.4276792520000001,-9.856959991200002,1.4726521936,2.407672489999999,2.31733209,-2.87579847,,,
imu,186.31569,-0.3893974728000001,-9.870717505600002,1.4720540408,2.2656112,2.64631613,-3.1973056,,,
imu,186.324151,-0.3421434016,-9.868923047200001,1.4786337216,1.98148862,2.6238854,-3.63096638,,,
imu,186.332612,-0.3164228312,-9.85456738,1.483418944,1.65998149,2.48182411,-4.146873169999999,,,
imu,186.341073,-0.3128339144,-9.828248656800001,1.4840170968,1.51044329,2.2500399,-4.56558013,,,
imu,186.349534,-0.3331711096,-9.808509614400002,1.4708577352,1.24127453,1.77151766,-4.61044159,,,
imu,186.357995,-0.3612842912,-9.798341016800002,1.4708577352,0.94967504,1.23318014,-4.430995749999999,,,
imu,186.366456,-0.4181088072000001,-9.760059237600002,1.4798300272,0.79265993,0.86681155,-4.16182699,,,
imu,186.374917,-0.4845037680000001,-9.7570684736,1.4840170968,0.66555246,0.6873657099999999,-3.90013514,,,
imu,186.383378,-0.5395338256000001,-9.776209363200001,1.4822226384,0.7702292,0.8967191899999998,-3.496382,,,
imu,186.391839,-0.55329134,-9.798341016800002,1.5097376672,0.80761375,1.26308778,-3.24964397,,,
imu,186.4003,-0.5335522976000001,-9.802528086400002,1.513326584,0.85995212,1.6518871,-3.37675144,,,
imu,186.408761,-0.5227855472,-9.803126239200001,1.513326584,0.8973366700000001,2.22013226,-3.77302767,,,
imu,186.417222,-0.5042428104000001,-9.803724392000001,1.5270840984,0.78518302,2.72108523,-4.06462716,,,
imu,186.425678,-0.4707462536000001,-9.801929933600002,1.52528964,0.79265993,3.19213056,-4.169303899999999,,,
imu,186.434134,-0.4264829464000001,-9.797742864000002,1.5306730152,0.67302937,3.79028336,-4.04219643,,,
imu,186.442589,-0.382817792,-9.786976113600002,1.5456268352,0.71789083,4.06692903,-3.97490424,,,
imu,186.451045,-0.3385544848000001,-9.7911631832,1.537252696,0.63564482,4.126744309999999,-3.93751969,,,
imu,186.459501,-0.2984782472,-9.775611210400001,1.5318693208,0.68050628,3.85009864,-4.00481188,,,
imu,186.467957,-0.275150288,-9.7714241408,1.5228970288,0.58330645,3.3715764,-4.11696553,,,
imu,186.476413,-0.2853188856,-9.752283251200002,1.5067469032,0.9347212199999999,3.02016163,-4.057150249999999,,,
imu,186.484869,-0.3008708584000001,-9.7361331256,1.5115321256,1.21136689,2.57154703,-4.08705789,,,
imu,186.493325,-0.3158246784000001,-9.788172419200002,1.5264859456,1.48801256,2.21265535,-3.84779677,,,
imu,186.501781,-0.3146283728000001,-9.836622796,1.507345056,1.87681188,1.77151766,-3.65339711,,,
imu,186.510237,-0.323002512,-9.839015407200002,1.5217007232,2.05625772,1.37524143,-3.57862801,,,
imu,186.518693,-0.3547046104000001,-9.815687448000002,1.522298876,1.93662716,0.84438082,-3.78798149,,,
imu,186.527149,-0.3780325696000001,-9.803724392000001,1.5217007232,2.01887317,0.6051196999999999,-3.87770441,,,
imu,186.535605,-0.4109309736,-9.825257892800002,1.5175136536,2.07868845,0.5378275100000001,-3.8702275,,,
imu,186.54406,-0.4539979752000001,-9.806715156000001,1.5097376672,2.05625772,0.6125966099999998,-3.51881273,,,
imu,186.552516,-0.4868963792000001,-9.818080059200001,1.5019616808,1.86933497,0.9640113799999996,-3.14496723,,,
imu,186.560972,-0.454596128,-9.821668976000002,1.5025598336,1.78708896,1.28551851,-2.81598319,,,
imu,186.569428,-0.4121272792,-9.831837573600001,1.5025598336,1.80951969,1.6518871,-2.748691,,,
imu,186.577884,-0.3810233336,-9.822267128800002,1.498372764,1.6674584,1.85376367,-2.92065993,,,
imu,186.58634,-0.3642750552,-9.800135475200001,1.4917930832,1.60016621,1.8761944,-3.08515195,,,
imu,185.182504,,,,,,,71.79053239999999,1.800531599999977,-1.324466400000002
imu,185.284158,,,,,,,72.0468836,1.922603599999984,-1.715096800000004
imu,185.385629,,,,,,,72.08350519999999,1.544180399999995,-2.142348800000005
imu,185.487161,,,,,,,71.66846039999999,1.690666799999985,-1.69068240000001
imu,185.588846,,,,,,,74.17093640000002,1.739495599999996,-2.642844000000011
imu,185.690317,,,,,,,71.83936120000001,1.605216399999998,-1.177980000000012
imu,185.792001,,,,,,,74.47611640000001,1.214585999999995,-4.05887920000001
imu,185.893716,,,,,,,71.7539108,1.605216399999998,-1.568610400000003
imu,186.594796,-0.3463304712,-9.766040765600001,1.4840170968,1.46558183,1.83880985,-3.30945925,,,
imu,186.603252,-0.3403489432000001,-9.744507264800001,1.4678669712,1.46558183,1.6518871,-3.61601256,,,
imu,186.611708,-0.35889168,-9.721179305600002,1.4606891376,1.48801256,1.31542615,-3.75807385,,,
imu,186.620164,-0.3911919312,-9.7163940832,1.4409500952,1.57773548,1.16588795,-3.55619728,,,
imu,186.628805,-0.4276792520000001,-9.7193848472,1.4379593312,1.71231986,1.09859576,-3.25712088,,,
imu,186.637447,-0.4677554896000001,-9.731347903200001,1.4313796504,2.0413039,1.24065705,-2.85336774,,,
imu,186.646088,-0.5012520464000001,-9.7786019744,1.4487260816,2.20579592,1.39019525,-2.81598319,,,
imu,186.65473,-0.520392936,-9.819276364800002,1.438557484,2.40019558,1.92105586,-2.46456842,,,
imu,186.663371,-0.5114206440000001,-9.842604324000002,1.4487260816,2.22822665,2.30985518,-2.56176825,,,
imu,186.672013,-0.4809148512,-9.8647359776,1.4553057624,2.18336519,2.81828506,-2.69635263,,,
imu,186.680655,-0.4408386136,-9.8946436176,1.4708577352,1.95158098,3.34166876,-2.8234601,,,
imu,186.689296,-0.3876030144000001,-9.911990048800002,1.474446652,1.61512003,3.56597606,-3.14496723,,,
imu,186.697938,-0.3481249296000001,-9.9000269928,1.4702595824,1.28613599,3.69308353,-3.33936689,,,
imu,186.706579,-0.2942911776,-9.8647359776,1.4726521936,0.9571519499999999,3.58092988,-3.55619728,,,
imu,186.715221,-0.2691687600000001,-9.834230184800003,1.4541094568,0.5982602699999999,3.05754618,-3.8702275,,,
imu,186.723862,-0.2560093984,-9.7995373224,1.447529776,0.41133752,2.72108523,-3.81041222,,,
imu,186.732504,-0.2709632184,-9.772620446400001,1.4439408592,0.43376825,2.33228591,-3.61601256,,,
imu,186.741145,-0.2942911776,-9.752881404000002,1.4307814976,0.7552753799999999,1.83133294,-3.46647436,,,
imu,186.749787,-0.3122357616,-9.7427128064,1.4206129,0.97210577,1.56216418,-3.33936689,,,
imu,186.758429,-0.3307784984000001,-9.752283251200002,1.4301833448,1.26370526,1.16588795,-3.1973056,,,
imu,186.76707,-0.370854736,-9.797144711200001,1.4421464008,1.54035093,0.98644211,-3.07019813,,,
imu,186.775712,-0.370854736,-9.818080059200001,1.4517168456,1.63755076,1.08364194,-3.16739796,,,
imu,186.784353,-0.406743904,-9.842604324000002,1.4630817488,1.71979677,1.08364194,-3.36927453,,,
imu,186.792995,-0.4025568344,-9.8467913936,1.4576983736,1.57025857,1.00139593,-3.57862801,,,
imu,186.801636,-0.3977716120000001,-9.833632032,1.456502068,1.28613599,1.16588795,-3.7206893,,,
imu,186.810278,-0.3977716120000001,-9.8228652816,1.4606891376,1.09921324,1.3528107,-3.81041222,,,
imu,186.81892,-0.4013605288,-9.803724392000001,1.4511186928,0.85995212,1.45001053,-3.93751969,,,
imu,186.827561,-0.3971734592000001,-9.802528086400002,1.447529776,0.57582954,1.60702564,-3.91508896,,,
imu,186.836202,-0.3792288752000001,-9.785181655200002,1.4547076096,0.50853735,1.91357895,-3.71321239,,,
imu,186.844842,-0.3553027632,-9.790565030400002,1.4576983736,0.44124516,1.93600968,-3.50385891,,,
imu,186.853482,-0.3433397072,-9.8013317808,1.4708577352,0.45619898,1.93600968,-3.4216129,,,
imu,186.862123,-0.3194135952000001,-9.812696684000002,1.4660725128,0.4861066199999999,1.88367131,-3.3468438,,,
imu,186.870882,-0.3086468448,-9.834230184800003,1.4762411104,0.57582954,1.92853277,-3.36179762,,,
imu,186.879523,-0.2996745528,-9.839015407200002,1.4822226384,0.6954601,1.74908693,-3.44404363,,,
imu,186.888163,-0.2889078024000001,-9.8234634344,1.4965783056,0.4711528,1.38271834,-3.80293531,,,
imu,186.896803,-0.3008708584000001,-9.806715156000001,1.495382,0.34404533,1.12102649,-3.90013514,,,
imu,186.905444,-0.3134320672,-9.793555794400001,1.4989709168,0.14216876,0.9191499199999997,-3.93751969,,,
imu,186.914084,-0.3325729568,-9.765442612800001,1.489400472,0.04496892999999999,0.8892422799999999,-3.9449966,,,
imu,186.922725,-0.3481249296000001,-9.731946056000002,1.4840170968,0.04496892999999999,0.6724118899999998,-3.87770441,,,
imu,186.931365,-0.3798270280000001,-9.7283571392,1.4810263328,0.2468455,0.7397040799999997,-3.84031986,,,
imu,186.940006,-0.4115291264,-9.721179305600002,1.477437416,0.33656842,0.6499811599999998,-3.92256587,,,
imu,186.948646,-0.4354552384000001,-9.735534972800002,1.495382,0.6132140899999999,0.78456554,-3.82536604,,,
imu,186.957287,-0.4360533912000001,-9.7714241408,1.498372764,1.07678251,1.18084177,-3.69825857,,,
imu,186.965927,-0.424688488,-9.801929933600002,1.51033582,1.15902852,1.47991817,-3.71321239,,,
imu,186.974568,-0.4145198904,-9.839015407200002,1.5025598336,1.26370526,1.83133294,-3.95247351,,,
imu,186.983208,-0.4073420568000001,-9.867726741600002,1.5199062648,1.25622835,2.16779389,-4.04219643,,,
imu,186.991848,-0.3792288752000001,-9.883876867200001,1.5187099592,1.18893616,2.57154703,-3.97490424,,,
imu,187.000489,-0.3397507904000001,-9.862343366400001,1.504354292,1.00949032,2.66874686,-3.98238115,,,
imu,187.009129,-0.340947096,-9.807313308800001,1.5055505976,0.80013684,2.72856214,-4.18425772,,,
imu,187.01777,-0.3247969704000001,-9.786976113600002,1.5067469032,0.63564482,2.75846978,-4.11696553,,,
imu,187.02641,-0.3074505392,-9.756470320800002,1.5019616808,0.46367589,2.54163939,-4.04967334,,,
imu,187.03488,-0.3241988176,-9.694860582400002,1.4899986248,0.3739529699999999,2.36967046,-4.102011709999999,,,
imu,187.04335,-0.3475267768,-9.668541859200001,1.5145228896,0.35152224,2.07059406,-4.29641137,,,
imu,187.05182,-0.3523119992,-9.7295534448,1.5169155008,0.53096808,1.81637912,-4.41604193,,,
imu,187.06029,-0.3846122504,-9.7923594888,1.5049524448,0.80013684,1.76404075,-4.408565019999999,,,
imu,187.06876,-0.4282774048000001,-9.7815927384,1.519308112,0.9272443100000001,1.62945637,-4.49828794,,,
imu,187.07723,-0.4318663216,-9.767237071200002,1.516317348,1.20388998,1.6518871,-4.44594957,,,
imu,187.0857,-0.4300718632,-9.7989391696,1.5145228896,1.52539711,1.77151766,-4.29641137,,,
imu,187.09417,-0.4264829464000001,-9.828846809600002,1.5037561392,1.68988913,2.01077878,-4.0197657,,,
imu,187.102639,-0.4294737104000001,-9.8432024768,1.4905967776,1.83942733,2.43696265,-3.60105874,,,
imu,187.111109,-0.4079402096,-9.818080059200001,1.4905967776,1.9665348,2.81080815,-3.15992105,,,
imu,187.119579,-0.3612842912,-9.8210708232,1.4786337216,1.95158098,2.71360832,-3.31693616,,,
imu,187.128049,-0.3253951232,-9.828846809600002,1.4576983736,1.89924261,2.68370068,-3.95995042,,,
imu,187.136519,-0.3080486920000001,-9.807313308800001,1.46547436,1.80951969,2.51173175,-4.49828794,,,
imu,187.144989,-0.2978800944000001,-9.8049206976,1.4612872904,1.69736604,2.1752708,-4.78241052,,,
imu,187.153459,-0.2865151912,-9.8043225448,1.4708577352,1.65998149,1.75656384,-4.89456417,,,
imu,187.161929,-0.3008708584000001,-9.802528086400002,1.4571002208,1.42819728,1.32290306,-4.93942563,,,
imu,187.170399,-0.3313766512,-9.801929933600002,1.474446652,1.51044329,0.8817653699999997,-4.52819558,,,
imu,187.178868,-0.3559009160000001,-9.802528086400002,1.4738484992,1.4431511,0.4630584099999999,-4.28145755,,,
imu,187.187338,-0.4037531400000001,-9.806715156000001,1.4696614296,1.45062801,0.3882893099999998,-3.92256587,,,
imu,187.195808,-0.4378478496000001,-9.801929933600002,1.4696614296,1.2188438,0.3060432999999998,-3.87770441,,,
imu,187.204278,-0.4510072112,-9.793555794400001,1.4690632768,1.03192105,0.4929660499999997,-3.78050458,,,
imu,187.212748,-0.4827093096,-9.772620446400001,1.4708577352,0.91229049,0.78456554,-3.84779677,,,
imu,187.221218,-0.4845037680000001,-9.770825988000002,1.4708577352,0.9646288599999999,1.15093413,-3.97490424,,,
imu,187.229688,-0.4575868920000001,-9.7786019744,1.4816244856,0.94219813,1.25561087,-4.16182699,,,
imu,187.23815,-0.4414367664,-9.785779808000001,1.48042818,0.6954601,1.47991817,-4.363703559999999,,,
imu,187.246612,-0.4282774048000001,-9.801929933600002,1.4876060136,0.80761375,1.68927165,-4.4683803,,,
imu,187.255075,-0.4169125016,-9.802528086400002,1.4911949304,0.97958268,1.80890221,-4.47585721,,,
imu,187.263537,-0.4025568344,-9.803126239200001,1.4917930832,0.9048135799999999,1.8761944,-4.55810322,,,
imu,187.271999,-0.3983697648000001,-9.812696684000002,1.4941856944,0.9272443100000001,1.8761944,-4.4683803,,,
imu,187.280462,-0.4049494456000001,-9.805518850400002,1.4816244856,1.13659779,1.77899457,-4.37865738,,,
imu,187.288924,-0.4145198904,-9.7845835024,1.4738484992,0.97210577,1.49487199,-4.48333412,,,
imu,187.297386,-0.439642308,-9.786976113600002,1.5097376672,1.12164397,1.42010289,-4.341272829999999,,,
imu,187.305848,-0.4390441552000001,-9.857558144000002,1.5145228896,1.19641307,1.62945637,-4.034719519999999,,,
imu,187.314311,-0.4312681688,-9.886867631200001,1.5019616808,1.19641307,1.61450255,-3.97490424,,,
imu,187.322773,-0.4222958768,-9.828846809600002,1.5234951816,1.15902852,1.58459491,-4.04967334,,,
imu,187.331235,-0.4240903352000001,-9.803126239200001,1.5234951816,0.8375213899999999,1.56964109,-4.28893446,,,
imu,187.339697,-0.4222958768,-9.821668976000002,1.501363528,0.97210577,1.577118,-4.27398064,,,
imu,187.34816,-0.4222958768,-9.8234634344,1.5085413616,0.94219813,1.49487199,-4.146873169999999,,,
imu,187.356622,-0.4282774048000001,-9.7995373224,1.5187099592,0.73284465,1.34533379,-4.034719519999999,,,
imu,187.365084,-0.4300718632,-9.785181655200002,1.5121302784,0.83004448,1.36776452,-4.012288789999999,,,
imu,187.373546,-0.439642308,-9.768433376800001,1.498372764,0.8375213899999999,1.31542615,-4.13191935,,,
imu,187.382009,-0.4551942808000001,-9.7492924872,1.4882041664,1.13659779,1.36776452,-4.23659609,,,
imu,187.390471,-0.4683536424000001,-9.744507264800001,1.4929893888,1.24875144,1.47991817,-4.0945348,,,
imu,187.398933,-0.4689517952000001,-9.746301723200002,1.4929893888,1.33099745,1.45748744,-4.19921154,,,
imu,187.407396,-0.4719425592000001,-9.7325442088,1.486409708,1.368382,1.36776452,-4.18425772,,,
imu,185.995004,,,,,,,73.41409000000002,0.6896763999999944,-3.765906400000008
imu,186.104379,,,,,,,71.54638840000001,1.544180399999995,-1.129151200000011
imu,186.205911,,,,,,,71.97364040000001,1.519765999999989,-1.556403200000012
imu,186.307474,,,,,,,72.1567484,1.751702799999988,-1.275637600000001
imu,186.40925,,,,,,,71.9370188,1.690666799999985,-1.068115200000008
imu,186.510599,,,,,,,71.80273960000001,1.373279599999977,-1.824961600000008
imu,186.612161,,,,,,,71.8637756,1.971432399999995,-1.26343040000001
imu,186.713724,,,,,,,73.5117476,1.324450799999988,-1.678475200000007
imu,187.415858,-0.4737370176,-9.746301723200002,1.4899986248,1.62259694,1.47991817,-3.98985806,,,
imu,187.42432,-0.4713444064,-9.783985349600002,1.4917930832,1.63007385,1.71170238,-3.496382,,,
imu,187.432782,-0.4743351704000001,-9.803126239200001,1.486409708,1.53287402,1.88367131,-3.03281358,,,
imu,187.441245,-0.4533998224,-9.8049206976,1.4858115552,1.39081273,2.04068642,-2.8982292,,,
imu,187.449707,-0.4390441552000001,-9.8132948368,1.4822226384,1.39081273,2.16031698,-2.89075229,,,
imu,187.458169,-0.4121272792,-9.8210708232,1.4810263328,1.18893616,2.16779389,-2.92065993,,,
imu,187.466631,-0.4091365152000001,-9.825856045600002,1.4870078608,1.11416706,1.96591732,-3.30198234,,,
imu,187.475094,-0.4079402096,-9.831239420800001,1.483418944,0.97210577,1.98834805,-3.59358183,,,
imu,187.483556,-0.4037531400000001,-9.8270523512,1.4726521936,0.9347212199999999,1.92853277,-3.91508896,,,
imu,187.492018,-0.4294737104000001,-9.819276364800002,1.4846152496,0.9048135799999999,1.83133294,-3.97490424,,,
imu,187.500481,-0.4228940296000001,-9.8264541984,1.4852134024,0.94967504,1.89114822,-3.81788913,,,
imu,187.508943,-0.4169125016,-9.831837573600001,1.4786337216,0.74779847,1.90610204,-3.73564312,,,
imu,187.517405,-0.430670016,-9.831239420800001,1.4846152496,0.68798319,1.94348659,-3.63096638,,,
imu,187.525867,-0.4312681688,-9.819276364800002,1.4840170968,0.58330645,2.09302479,-3.4216129,,,
imu,187.53433,-0.4234921824,-9.8043225448,1.4810263328,0.6954601,2.12293243,-3.1973056,,,
imu,187.542792,-0.4222958768,-9.794153947200002,1.4780355688,0.45619898,2.22013226,-3.1225365,,,
imu,187.551254,-0.4276792520000001,-9.796546558400001,1.4660725128,0.53096808,2.2500399,-3.24216706,,,
imu,187.559716,-0.4258847936,-9.801929933600002,1.4810263328,0.67302937,2.25751681,-3.29450543,,,
imu,187.568179,-0.4073420568000001,-9.800135475200001,1.4858115552,0.65059864,2.26499372,-3.31693616,,,
imu,187.576641,-0.4043512928,-9.802528086400002,1.4840170968,0.73284465,2.29490136,-3.43656672,,,
imu,187.585103,-0.3810233336,-9.8049206976,1.486409708,0.70293701,2.26499372,-3.48142818,,,
imu,187.593566,-0.3810233336,-9.803126239200001,1.4935875416,0.76275229,2.31733209,-3.45899745,,,
imu,187.602028,-0.3612842912,-9.797742864000002,1.4917930832,0.7552753799999999,2.29490136,-3.45152054,,,
imu,187.61049,-0.3624805968,-9.797144711200001,1.4971764584,0.70293701,2.24256299,-3.42908981,,,
imu,187.618952,-0.3535083048,-9.800135475200001,1.5055505976,0.58330645,2.08554788,-3.45152054,,,
imu,187.627415,-0.3517138464,-9.802528086400002,1.5001672224,0.620691,1.96591732,-3.5711511,,,
imu,187.635877,-0.3648732080000001,-9.802528086400002,1.5085413616,0.53096808,1.86871749,-3.6459202,,,
imu,187.64447,-0.3666676664,-9.803126239200001,1.5258877928,0.67302937,1.90610204,-3.48890509,,,
imu,187.653063,-0.376836264,-9.8162856008,1.531271168,0.55339881,1.74908693,-3.39170526,,,
imu,187.661657,-0.4055475984,-9.828846809600002,1.534261932,0.35152224,1.66684092,-3.51133582,,,
imu,187.67025,-0.3971734592000001,-9.849184004800001,1.5408416128,0.22441477,1.62945637,-3.57862801,,,
imu,187.678843,-0.3953790008,-9.8234634344,1.54024346,0.04496892999999999,1.62945637,-3.67582784,,,
imu,187.687436,-0.4151180432000001,-9.803126239200001,1.5468231408,0.007584380000000002,1.63693328,-3.63096638,,,
imu,187.69603,-0.3983697648000001,-9.786976113600002,1.528280404,-0.28401511,1.77151766,-3.69078166,,,
imu,187.704623,-0.3774344168000001,-9.7534795568,1.522298876,-0.22419983,1.77151766,-3.70573548,,,
imu,187.713216,-0.3720510416,-9.739123889600002,1.537252696,0.08235347999999998,1.81637912,-3.48890509,,,
imu,187.721809,-0.3750418056000001,-9.7612555432,1.5366545432,0.14964567,1.80890221,-3.39918217,,,
imu,187.730403,-0.3385544848000001,-9.780396432800002,1.5384490016,0.38142988,1.83133294,-3.26459779,,,
imu,187.738996,-0.3301803456000001,-9.783985349600002,1.5450286824,0.53844499,1.66684092,-3.41413599,,,
imu,187.747589,-0.3367600264,-9.779200127200001,1.534261932,0.64312173,1.59954873,-3.48890509,,,
imu,187.756182,-0.3427415544,-9.789368724800001,1.5366545432,0.81509066,1.40514907,-3.68330475,,,
imu,187.764775,-0.3690602776000001,-9.8013317808,1.5444305296,0.82256757,1.15093413,-3.90013514,,,
imu,187.773369,-0.3846122504,-9.803126239200001,1.5354582376,1.00949032,1.2032725,-3.85527368,,,
imu,187.781962,-0.3798270280000001,-9.810902225600001,1.5324674736,1.02444414,1.03130357,-4.04967334,,,
imu,187.790555,-0.3780325696000001,-9.801929933600002,1.5330656264,0.9870595899999999,0.9041961000000001,-4.28145755,,,
imu,187.799148,-0.382817792,-9.8013317808,1.534261932,0.94219813,0.9191499199999997,-4.34874974,,,
imu,187.807742,-0.3947808480000001,-9.7995373224,1.5354582376,1.05435178,0.8144731799999998,-4.16182699,,,
imu,187.816335,-0.4163143488000001,-9.765442612800001,1.5414397656,0.8449983,0.8294269999999999,-3.93004278,,,
imu,187.824928,-0.4312681688,-9.7534795568,1.5360563904,0.66555246,0.84438082,-3.91508896,,,
imu,187.833521,-0.4504090584,-9.7612555432,1.543234224,0.44872207,0.9415806499999997,-3.98985806,,,
imu,187.842115,-0.46356842,-9.786976113600002,1.5378508488,0.40386061,1.01634975,-3.83284295,,,
imu,187.850802,-0.4456238360000001,-9.7750130576,1.5300748624,0.45619898,1.22570323,-3.69078166,,,
imu,187.859488,-0.4324644744,-9.7295534448,1.52528964,0.6132140899999999,1.31542615,-3.81041222,,,
imu,187.868175,-0.4264829464000001,-9.719983000000001,1.513326584,1.00201341,1.50982581,-4.012288789999999,,,
imu,187.876862,-0.4258847936,-9.766040765600001,1.5211025704,1.2936129,1.54721036,-4.02724261,,,
imu,187.885549,-0.4169125016,-9.800733628000001,1.5169155008,1.77213514,1.59954873,-3.80293531,,,
imu,187.894236,-0.3989679176000001,-9.803724392000001,1.519308112,1.9665348,1.79394839,-3.63096638,,,
imu,187.902923,-0.3780325696000001,-9.8228652816,1.5294767096,2.1908421,1.70422547,-3.78050458,,,
imu,187.91161,-0.3714528888,-9.858754449600001,1.5264859456,2.08616536,1.65936401,-4.08705789,,,
imu,187.920297,-0.3666676664,-9.864137824800002,1.5276822512,1.87681188,1.50982581,-4.28145755,,,
imu,187.928984,-0.3666676664,-9.866530436000001,1.5258877928,1.67493531,1.51730272,-4.28145755,,,
imu,187.93767,-0.3559009160000001,-9.862343366400001,1.5240933344,1.49548947,1.24065705,-4.28893446,,,
imu,187.946357,-0.3732473472,-9.828248656800001,1.5246914872,1.2936129,1.10607267,-4.11696553,,,
imu,187.955044,-0.3804251808,-9.801929933600002,1.5169155008,1.00201341,0.9640113799999996,-3.9449966,,,
imu,187.963611,-0.3816214864,-9.7750130576,1.5175136536,0.60573718,0.6499811599999998,-3.9449966,,,
imu,187.972298,-0.4115291264,-9.756470320800002,1.5181118064,0.620691,0.4555814999999996,-3.93751969,,,
imu,187.980985,-0.4533998224,-9.7534795568,1.5294767096,0.63564482,0.4854891399999999,-3.98985806,,,
imu,187.989672,-0.4528016696000001,-9.743909112,1.522298876,0.7552753799999999,0.5901658799999998,-4.10948862,,,
imu,187.998359,-0.4689517952000001,-9.725366375200002,1.5276822512,0.76275229,0.6724118899999998,-4.057150249999999,,,
imu,188.007046,-0.4761296288000001,-9.7086180968,1.5288785568,0.9870595899999999,0.98644211,-4.102011709999999,,,
imu,188.015733,-0.4611758088,-9.7265626808,1.5246914872,1.07678251,1.08364194,-4.363703559999999,,,
imu,188.02442,-0.4587831976000001,-9.748096181600001,1.5234951816,1.15155161,1.28551851,-4.28145755,,,
imu,188.033107,-0.4444275304,-9.7570684736,1.5294767096,1.21136689,1.4275798,-4.40108811,,,
imu,188.041794,-0.4348570856000001,-9.788172419200002,1.5324674736,1.48801256,1.58459491,-4.22164227,,,
imu,188.050338,-0.4444275304,-9.8013317808,1.5336637792,1.42072037,1.48739508,-4.37865738,,,
imu,188.058883,-0.4408386136,-9.8049206976,1.534261932,1.368382,1.53225654,-4.18425772,,,
imu,188.067428,-0.4240903352000001,-9.824659740000001,1.5300748624,1.41324346,1.67431783,-4.19921154,,,
imu,188.075973,-0.4300718632,-9.803724392000001,1.5288785568,1.30108981,1.577118,-4.318842099999999,,,
imu,188.084518,-0.4408386136,-9.800733628000001,1.5396453072,1.368382,1.47991817,-4.35622665,,,
imu,188.093063,-0.4468201416000001,-9.842006171200001,1.5528046688,1.39081273,1.40514907,-4.37118047,,,
imu,188.101608,-0.4575868920000001,-9.8982325344,1.5378508488,1.55530475,1.33037997,-4.40108811,,,
imu,188.110153,-0.472540712,-9.842006171200001,1.5486175992,1.4431511,1.36028761,-4.37865738,,,
imu,188.118698,-0.4767277816000001,-9.783387196800001,1.543234224,1.31604363,1.30794924,-4.55810322,,,
imu,188.127243,-0.5006538936,-9.773816752000002,1.5276822512,1.26370526,1.31542615,-4.58801086,,,
imu,188.135788,-0.5078317272000001,-9.787574266400002,1.5067469032,1.35342818,1.46496435,-4.386134289999999,,,
imu,188.144333,-0.5018501992000001,-9.788770572,1.5061487504,1.49548947,1.577118,-4.07210407,,,
imu,188.152878,-0.5072335744,-9.786976113600002,1.4995690696,1.53287402,1.86124058,-3.7954584,,,
imu,188.161422,-0.5102243384,-9.783985349600002,1.4876060136,1.53287402,2.03320951,-3.7206893,,,
imu,188.169967,-0.4845037680000001,-9.7780038216,1.4947838472,1.65250458,2.29490136,-3.6459202,,,
imu,188.178512,-0.4743351704000001,-9.796546558400001,1.4882041664,1.77961205,2.37714737,-3.72816621,,,
imu,188.187057,-0.4833074624000001,-9.803126239200001,1.4786337216,1.80951969,2.48930102,-4.07210407,,,
imu,188.195602,-0.4677554896000001,-9.801929933600002,1.4768392632,1.84690424,2.44443956,-4.18425772,,,
imu,188.204147,-0.4713444064,-9.789966877600001,1.4762411104,1.68241222,2.42948574,-4.11696553,,,
imu,188.212692,-0.4701481008,-9.796546558400001,1.4738484992,1.5179202,2.3995781,-3.93751969,,,
imu,188.221237,-0.4719425592000001,-9.798341016800002,1.4726521936,1.39828964,2.36219355,-3.69078166,,,
imu,188.229782,-0.4647647256,-9.801929933600002,1.48042818,1.368382,2.33976282,-3.28702852,,,
imu,186.815193,,,,,,,71.80273960000001,1.239000399999979,-1.837168800000011
imu,186.916878,,,,,,,73.95120680000001,0.5187755999999766,-3.692663200000001
imu,187.018288,,,,,,,71.8149468,1.556387599999987,-1.385502400000005
imu,187.11985,,,,,,,74.3784588,0.4577395999999956,-4.58378880000001
imu,187.221474,,,,,,,71.705082,1.336657999999979,-1.226808800000001
imu,187.322975,,,,,,,71.1679652,2.056882799999982,-1.861583200000005
imu,187.424507,,,,,,,71.7172892,1.580801999999992,-1.873790400000008
imu,187.526283,,,,,,,71.949226,1.177964399999998,-1.849376000000003
imu,188.238327,-0.451605364,-9.806715156000001,1.4828207912,1.2936129,2.42948574,-2.95056757,,,
imu,188.246872,-0.4468201416000001,-9.818678212000002,1.4882041664,1.05435178,2.324809,-2.81598319,,,
imu,188.255278,-0.4480164472000001,-9.8228652816,1.4905967776,1.01696723,2.30237827,-2.8234601,,,
imu,188.263684,-0.4348570856000001,-9.818678212000002,1.4792318744,0.8823828499999999,2.19770153,-2.84589083,,,
imu,188.272091,-0.4330626272,-9.8079114616,1.489400472,0.7702292,2.10797861,-2.95056757,,,
imu,188.280497,-0.4366515440000001,-9.803126239200001,1.4870078608,0.80013684,2.07807097,-3.08515195,,,
imu,188.288903,-0.4438293776000001,-9.803126239200001,1.483418944,0.8449983,2.14536316,-3.2720747,,,
imu,188.29731,-0.4402404608,-9.803126239200001,1.4816244856,1.00949032,2.18274771,-3.21973633,,,
imu,188.305716,-0.4181088072000001,-9.821668976000002,1.4870078608,1.09921324,2.36219355,-3.13001341,,,
imu,188.314122,-0.3971734592000001,-9.832435726400002,1.4882041664,1.11416706,2.42200883,-3.11505959,,,
imu,188.322529,-0.3774344168000001,-9.847389546400002,1.4929893888,1.15902852,2.51920866,-3.10010577,,,
imu,188.330935,-0.361882444,-9.8432024768,1.4876060136,1.05435178,2.49677793,-3.09262886,,,
imu,188.339341,-0.331974804,-9.859950755200002,1.4989709168,0.9347212199999999,2.52668557,-3.20478251,,,
imu,188.347748,-0.3158246784000001,-9.858754449600001,1.5121302784,0.68050628,2.33976282,-3.44404363,,,
imu,188.356154,-0.3241988176,-9.842006171200001,1.5049524448,0.5982602699999999,2.10797861,-3.40665908,,,
imu,188.36456,-0.3241988176,-9.817481906400001,1.522298876,0.35899915,1.8014253,-3.46647436,,,
imu,188.372966,-0.3218062064,-9.803126239200001,1.5145228896,0.35152224,1.62197946,-3.47395127,,,
imu,188.381373,-0.3188154424,-9.773816752000002,1.5019616808,0.20946095,1.23318014,-3.77302767,,,
imu,188.389779,-0.3295821928000001,-9.739123889600002,1.5139247368,0.26179932,1.10607267,-3.83284295,,,
imu,188.398185,-0.3523119992,-9.7283571392,1.5139247368,0.21693786,0.86681155,-4.034719519999999,,,
imu,188.406592,-0.382817792,-9.7325442088,1.5157191952,0.35152224,0.5303505999999998,-4.08705789,,,
imu,188.414998,-0.3911919312,-9.739722042400002,1.5228970288,0.44872207,0.5079198699999998,-4.012288789999999,,,
imu,188.423404,-0.4061457512000001,-9.7331423616,1.5234951816,0.66555246,0.7097964399999999,-3.96742733,,,
imu,188.431811,-0.4234921824,-9.745703570400002,1.5258877928,0.66555246,0.7172733499999997,-3.99733497,,,
imu,188.440217,-0.4330626272,-9.7612555432,1.5354582376,0.9945364999999999,0.6499811599999998,-4.124442439999999,,,
imu,188.448623,-0.4348570856000001,-9.793555794400001,1.528280404,1.08425942,0.7696117199999999,-4.04219643,,,
imu,188.457078,-0.4384460024000001,-9.801929933600002,1.5366545432,1.04687487,0.6275504299999999,-4.169303899999999,,,
imu,188.465533,-0.4474182944000001,-9.805518850400002,1.5504120576,1.00201341,0.76213481,-4.19173463,,,
imu,188.473987,-0.4767277816000001,-9.8043225448,1.5516083632,1.07678251,0.8144731799999998,-4.20668845,,,
imu,188.482442,-0.4695499480000001,-9.802528086400002,1.5480194464,0.8674290299999999,0.7920424499999998,-4.22911918,,,
imu,188.490897,-0.4653628784000001,-9.788770572,1.55519728,0.85995212,0.9939190199999999,-4.15435008,,,
imu,188.499351,-0.4665591840000001,-9.800135475200001,1.543234224,0.9048135799999999,0.9789651999999998,-3.99733497,,,
imu,188.507806,-0.4599795032,-9.794752100000002,1.5438323768,0.9870595899999999,1.06121121,-4.11696553,,,
imu,188.516261,-0.4486146000000001,-9.7989391696,1.543234224,1.00201341,1.2032725,-4.102011709999999,,,
imu,188.524715,-0.4629702672000001,-9.7995373224,1.546224988,0.9870595899999999,1.2780416,-4.16182699,,,
imu,188.53317,-0.4874945320000001,-9.805518850400002,1.5575898912,1.17398234,1.36028761,-4.0945348,,,
imu,188.541624,-0.4749333232000001,-9.8210708232,1.5480194464,1.12164397,1.53973345,-3.84031986,,,
imu,188.550079,-0.4767277816000001,-9.819276364800002,1.5516083632,1.20388998,1.67431783,-3.6459202,,,
imu,188.558534,-0.4623721144,-9.824659740000001,1.55519728,1.09921324,1.75656384,-3.52628964,,,
imu,188.566988,-0.4504090584,-9.8210708232,1.5486175992,1.00201341,1.86871749,-3.51133582,,,
imu,188.575443,-0.4402404608,-9.800135475200001,1.543234224,0.9048135799999999,1.83880985,-3.60853565,,,
imu,188.583898,-0.4264829464000001,-9.786976113600002,1.55519728,0.9197674,1.77899457,-3.73564312,,,
imu,188.592352,-0.4318663216,-9.783985349600002,1.546224988,0.8973366700000001,1.59207182,-3.9449966,,,
imu,188.600807,-0.4462219888000001,-9.745105417600001,1.543234224,0.73284465,1.4275798,-4.13191935,,,
imu,188.609262,-0.4695499480000001,-9.70502918,1.5438323768,0.77770611,1.33037997,-4.057150249999999,,,
imu,188.617716,-0.4988594352000001,-9.719983000000001,1.5384490016,0.88985976,1.3528107,-4.0945348,,,
imu,188.626171,-0.5233837000000001,-9.755872168000002,1.5474212936,1.09173633,1.37524143,-3.90013514,,,
imu,188.634625,-0.5550857984,-9.7325442088,1.5294767096,1.39081273,1.40514907,-3.62348947,,,
imu,188.64308,-0.5467116592000001,-9.690075360000002,1.5217007232,1.41324346,1.56964109,-3.48890509,,,
imu,188.651535,-0.535346756,-9.720581152800001,1.519308112,1.61512003,1.78647148,-3.20478251,,,
imu,188.659993,-0.5419264368000001,-9.769031529600001,1.519308112,1.79456587,1.94348659,-3.03281358,,,
imu,188.668452,-0.5395338256000001,-9.801929933600002,1.5145228896,2.16841137,2.39210119,-2.42718387,,,
imu,188.67691,-0.4928779072000001,-9.839015407200002,1.52528964,2.24318047,2.73603905,-2.32250713,,,
imu,188.685369,-0.4462219888000001,-9.876699033600001,1.5330656264,2.19831901,3.11736146,-2.39727623,,,
imu,188.693827,-0.3995660704000001,-9.8982325344,1.5187099592,2.12354991,3.28185348,-2.61410662,,,
imu,188.702286,-0.3732473472,-9.901821451200002,1.5288785568,1.8917657,3.27437657,-2.83841392,,,
imu,188.710744,-0.3475267768,-9.907204826400001,1.5330656264,1.56278166,2.98277708,-3.42908981,,,
imu,188.719202,-0.3218062064,-9.9000269928,1.5306730152,1.30108981,2.6238854,-3.85527368,,,
imu,188.727661,-0.331974804,-9.8653341304,1.5360563904,0.9272443100000001,2.28742445,-4.124442439999999,,,
imu,188.736119,-0.3564990688,-9.822267128800002,1.5336637792,0.56835263,1.84628676,-4.16182699,,,
imu,188.744578,-0.3744436528,-9.797144711200001,1.516317348,0.35899915,1.2780416,-3.96742733,,,
imu,188.753036,-0.4001642232,-9.745703570400002,1.5300748624,0.56087572,1.21822632,-3.54124346,,,
imu,188.761495,-0.4378478496000001,-9.708019944000002,1.516317348,0.6132140899999999,1.08364194,-3.26459779,,,
imu,188.769953,-0.4539979752000001,-9.694860582400002,1.5139247368,0.67302937,1.03878048,-3.10758268,,,
imu,188.778412,-0.4438293776000001,-9.7122070136,1.5181118064,0.8823828499999999,1.23318014,-2.8982292,,,
imu,188.78687,-0.4240903352000001,-9.720581152800001,1.5091395144,1.368382,1.59207182,-2.92813684,,,
imu,188.795329,-0.406743904,-9.724170069600001,1.5187099592,1.54035093,1.54721036,-3.39918217,,,
imu,188.803787,-0.3905937784,-9.744507264800001,1.5187099592,1.63755076,1.62945637,-3.89265823,,,
imu,188.812245,-0.3816214864,-9.765442612800001,1.5187099592,1.64502767,1.5023489,-4.19921154,,,
imu,188.820704,-0.3923882368,-9.7953502528,1.5306730152,1.65998149,1.24065705,-4.363703559999999,,,
imu,188.829162,-0.4127254320000001,-9.8270523512,1.5234951816,1.48801256,0.9939190199999999,-4.49081103,,,
imu,188.837621,-0.4312681688,-9.844398782400003,1.5228970288,1.53287402,1.07616503,-4.21416536,,,
imu,188.846079,-0.4462219888000001,-9.8300431152,1.5318693208,1.38333582,1.10607267,-4.0197657,,,
imu,188.854538,-0.4623721144,-9.835426490400001,1.5211025704,1.26370526,1.15841104,-3.77302767,,,
imu,188.863357,-0.4689517952000001,-9.825257892800002,1.5091395144,1.27865908,1.33037997,-3.48890509,,,
imu,188.872177,-0.4701481008,-9.802528086400002,1.5187099592,1.10669015,1.60702564,-3.39170526,,,
imu,188.880996,-0.4707462536000001,-9.807313308800001,1.5258877928,0.9945364999999999,1.81637912,-3.36927453,,,
imu,188.889816,-0.4486146000000001,-9.859950755200002,1.519308112,1.18893616,2.03320951,-3.37675144,,,
imu,188.898636,-0.4210995712,-9.8479876992,1.5288785568,1.22632071,2.1752708,-3.44404363,,,
imu,188.907455,-0.3887993200000001,-9.812098531200002,1.5300748624,1.04687487,2.1752708,-3.73564312,,,
imu,188.916275,-0.3684621248000001,-9.820472670400001,1.5378508488,0.9945364999999999,1.95844041,-3.96742733,,,
imu,188.925094,-0.3535083048,-9.828248656800001,1.5486175992,1.09173633,1.77151766,-3.95995042,,,
imu,188.933914,-0.3505175408000001,-9.818080059200001,1.5330656264,1.00949032,1.61450255,-3.82536604,,,
imu,188.942734,-0.3792288752000001,-9.8013317808,1.5474212936,0.8749059399999999,1.2780416,-3.48142818,,,
imu,188.951553,-0.3792288752000001,-9.785181655200002,1.534261932,0.8823828499999999,1.00887284,-3.21225942,,,
imu,188.960373,-0.3977716120000001,-9.779798280000001,1.5234951816,0.9197674,0.8817653699999997,-3.22721324,,,
imu,188.969192,-0.4366515440000001,-9.7702278352,1.5306730152,0.9272443100000001,0.8369039099999998,-3.33188998,,,
imu,188.978012,-0.4701481008,-9.7534795568,1.51033582,0.9945364999999999,0.80699627,-3.37675144,,,
imu,188.986831,-0.4719425592000001,-9.734338667200001,1.4959801528,1.08425942,1.0537343,-3.60105874,,,
imu,188.995651,-0.4641665728000001,-9.730749750400001,1.5091395144,1.18145925,1.29299542,-3.75059694,,,
imu,189.004471,-0.4557924336,-9.745703570400002,1.507345056,1.368382,1.39767216,-3.78798149,,,
imu,189.01329,-0.4366515440000001,-9.7612555432,1.5079432088,1.60016621,1.60702564,-3.75807385,,,
imu,189.02211,-0.4240903352000001,-9.788770572,1.5091395144,1.61512003,1.76404075,-3.61601256,,,
imu,189.030929,-0.4121272792,-9.8049206976,1.513326584,1.4431511,1.92105586,-3.496382,,,
imu,189.039749,-0.4013605288,-9.8198745176,1.5258877928,1.31604363,1.96591732,-3.41413599,,,
imu,189.048568,-0.3965753064,-9.825257892800002,1.5294767096,1.15155161,1.92105586,-3.40665908,,,
imu,187.627663,,,,,,,71.21679400000001,1.568594799999978,-1.800547200000002
imu,187.729347,,,,,,,71.54638840000001,1.397693999999983,-1.385502400000005
imu,187.833931,,,,,,,72.36427080000001,1.544180399999995,-2.178970400000002
imu,187.93235,,,,,,,71.83936120000001,1.605216399999998,-0.9460432000000019
imu,188.034065,,,,,,,71.9858476,1.812738799999991,-1.641853600000009
imu,188.135475,,,,,,,73.95120680000001,0.4577395999999956,-3.533969600000009
imu,188.238625,,,,,,,71.3876948,1.409901199999997,-1.885997600000011
imu,188.338875,,,,,,,71.3876948,1.641837999999995,-1.78834000000001
imu,189.057363,-0.3905937784,-9.825257892800002,1.5306730152,1.12164397,2.03320951,-3.38422835,,,
imu,189.065835,-0.3816214864,-9.803126239200001,1.5354582376,0.9197674,1.96591732,-3.36927453,,,
imu,189.074308,-0.3852104032000001,-9.801929933600002,1.54024346,0.80013684,1.68927165,-3.43656672,,,
imu,189.08278,-0.3798270280000001,-9.8049206976,1.5330656264,0.8674290299999999,1.81637912,-3.41413599,,,
imu,189.091252,-0.3732473472,-9.794752100000002,1.5348600848,0.83004448,1.6518871,-3.73564312,,,
imu,189.099725,-0.3702565832000001,-9.790565030400002,1.546224988,0.9048135799999999,1.58459491,-3.90761205,,,
imu,189.108197,-0.3893974728000001,-9.797144711200001,1.5384490016,0.8674290299999999,1.40514907,-3.98985806,,,
imu,189.11667,-0.4085383624000001,-9.803126239200001,1.5575898912,0.91229049,1.37524143,-4.19173463,,,
imu,189.125142,-0.4109309736,-9.803126239200001,1.5563935856,0.9197674,1.34533379,-4.28145755,,,
imu,189.133615,-0.4037531400000001,-9.803126239200001,1.5528046688,1.10669015,1.45001053,-4.29641137,,,
imu,189.142087,-0.4210995712,-9.801929933600002,1.5486175992,1.20388998,1.4275798,-4.16182699,,,
imu,189.15056,-0.4228940296000001,-9.801929933600002,1.5324674736,1.00949032,1.33037997,-4.124442439999999,,,
imu,189.159032,-0.4037531400000001,-9.801929933600002,1.5324674736,1.03192105,1.17336486,-4.06462716,,,
imu,189.167504,-0.385808556,-9.801929933600002,1.537252696,1.1440747,1.16588795,-3.98238115,,,
imu,189.175977,-0.3732473472,-9.800135475200001,1.5384490016,1.12164397,1.11354958,-3.80293531,,,
imu,189.184449,-0.3666676664,-9.797144711200001,1.5408416128,1.04687487,0.9415806499999997,-3.81041222,,,
imu,189.192922,-0.3744436528,-9.7750130576,1.5330656264,0.9646288599999999,0.78456554,-3.8702275,,,
imu,189.201394,-0.3941826952,-9.7714241408,1.5246914872,1.18145925,0.5153967799999997,-3.89265823,,,
imu,189.209867,-0.4240903352000001,-9.7612555432,1.5139247368,1.18893616,0.2836125699999998,-3.81788913,,,
imu,189.218339,-0.4450256832000001,-9.766040765600001,1.5199062648,1.26370526,0.21632038,-3.70573548,,,
imu,189.226812,-0.4689517952000001,-9.7815927384,1.5145228896,1.28613599,0.47801223,-3.54124346,,,
imu,189.235284,-0.4701481008,-9.8013317808,1.5211025704,1.35342818,0.7322271699999998,-3.27955161,,,
imu,189.243756,-0.4623721144,-9.802528086400002,1.5240933344,1.20388998,1.07616503,-3.17487487,,,
imu,189.252229,-0.4366515440000001,-9.779200127200001,1.522298876,1.09173633,1.53225654,-3.1225365,,,
imu,189.260701,-0.3864067088000001,-9.756470320800002,1.5240933344,1.10669015,1.89862513,-3.17487487,,,
imu,189.269166,-0.3499193880000001,-9.76484446,1.519308112,1.18145925,2.03320951,-3.54124346,,,
imu,189.277631,-0.3385544848000001,-9.780396432800002,1.5294767096,1.18893616,1.98834805,-3.98985806,,,
imu,189.286096,-0.305057928,-9.797742864000002,1.5414397656,1.30856672,1.89114822,-4.26650373,,,
imu,189.294561,-0.2948893304,-9.802528086400002,1.5390471544,1.32352054,1.40514907,-4.625395409999999,,,
imu,189.303025,-0.3188154424,-9.80970592,1.5366545432,1.30856672,0.86681155,-4.89456417,,,
imu,189.31149,-0.35889168,-9.822267128800002,1.5336637792,1.30856672,0.3135202100000001,-4.909517989999999,,,
imu,189.319955,-0.400762376,-9.828248656800001,1.5444305296,1.2936129,0.006966899999999665,-4.86465653,,,
imu,189.32842,-0.4342589328000001,-9.8432024768,1.5474212936,1.24875144,-0.0603252900000002,-4.72259524,,,
imu,189.336885,-0.4737370176,-9.818678212000002,1.5498139048,1.23379762,-0.1425713000000002,-4.647826139999999,,,
imu,189.345349,-0.5168040192000001,-9.802528086400002,1.534261932,1.07678251,-0.03041764999999996,-4.50576485,,,
imu,189.353814,-0.5359449088000001,-9.787574266400002,1.5264859456,1.00201341,0.1639820099999998,-4.47585721,,,
imu,189.362279,-0.5413282840000001,-9.779200127200001,1.5199062648,1.09173633,0.4929660499999997,-4.37865738,,,
imu,189.370744,-0.5299633808,-9.7534795568,1.516317348,1.15902852,0.6948426199999997,-4.50576485,,,
imu,189.379209,-0.5132151024,-9.7128051664,1.501363528,1.38333582,1.01634975,-4.73007215,,,
imu,189.387673,-0.5072335744,-9.690075360000002,1.519308112,1.65250458,1.17336486,-4.737549059999999,,,
imu,189.396138,-0.4964668240000001,-9.743310959200002,1.5211025704,1.74970441,1.15093413,-4.7674567,,,
imu,189.404603,-0.5084298800000001,-9.8061170032,1.5354582376,1.97401171,1.00139593,-4.670256869999999,,,
imu,189.413068,-0.5132151024,-9.802528086400002,1.5330656264,1.90671952,0.8219500899999996,-4.43847266,,,
imu,189.421533,-0.5215892416000001,-9.775611210400001,1.5246914872,1.84690424,0.7097964399999999,-4.386134289999999,,,
imu,189.429998,-0.5562821040000001,-9.775611210400001,1.5217007232,2.03382699,0.5527813299999997,-4.22164227,,,
imu,189.438462,-0.58319898,-9.803724392000001,1.516317348,2.18336519,0.5976427899999996,-3.75059694,,,
imu,189.446927,-0.5987509528,-9.821668976000002,1.507345056,2.00391935,0.7172733499999997,-3.05524431,,,
imu,189.455392,-0.6154992312,-9.822267128800002,1.5091395144,1.93662716,1.06868812,-2.62158353,,,
imu,189.463857,-0.6029380224,-9.822267128800002,1.4911949304,1.91419643,1.71917929,-2.47952224,,,
imu,189.47232,-0.5778156048000002,-9.8228652816,1.4905967776,1.83195042,2.31733209,-2.59167589,,,
imu,189.480784,-0.5323559920000001,-9.8049206976,1.4840170968,1.73475059,2.75099287,-2.86832156,,,
imu,189.489247,-0.4773259344000001,-9.813892989600001,1.4660725128,1.85438115,3.19213056,-3.30198234,,,
imu,189.497711,-0.424688488,-9.80970592,1.4660725128,1.74970441,3.1472691,-3.93004278,,,
imu,189.506175,-0.3882011672000001,-9.824659740000001,1.4708577352,1.78708896,2.95286944,-4.22164227,,,
imu,189.514638,-0.3594898328000001,-9.8210708232,1.4696614296,1.91419643,2.6986545,-4.25154991,,,
imu,189.523102,-0.3517138464,-9.818678212000002,1.4690632768,1.95158098,2.36219355,-3.90013514,,,
imu,189.531565,-0.3630787496,-9.80970592,1.4720540408,1.71231986,1.88367131,-3.496382,,,
imu,189.540029,-0.3965753064,-9.8234634344,1.4726521936,1.69736604,1.53225654,-3.24216706,,,
imu,189.548492,-0.4378478496000001,-9.8132948368,1.4636799016,1.5179202,1.09859576,-3.2720747,,,
imu,189.556956,-0.4563905864000001,-9.800135475200001,1.4810263328,1.30108981,0.9565344699999998,-3.26459779,,,
imu,189.565419,-0.4821111568000001,-9.789368724800001,1.4768392632,1.16650543,0.7696117199999999,-3.39918217,,,
imu,189.573883,-0.5138132552000001,-9.785181655200002,1.474446652,0.9646288599999999,0.6873657099999999,-3.74312003,,,
imu,189.582346,-0.5287670752,-9.766638918400002,1.4858115552,0.9571519499999999,0.8369039099999998,-3.7954584,,,
imu,189.59081,-0.5359449088000001,-9.767835224,1.4941856944,0.8823828499999999,1.15841104,-3.65339711,,,
imu,189.599273,-0.5287670752,-9.7750130576,1.5019616808,0.8375213899999999,1.45748744,-3.47395127,,,
imu,189.607737,-0.5000557408,-9.7989391696,1.5199062648,0.8524752099999999,1.71917929,-3.41413599,,,
imu,189.616201,-0.4809148512,-9.8079114616,1.5211025704,0.9197674,1.9509635,-3.29450543,,,
imu,189.624664,-0.4713444064,-9.8132948368,1.5211025704,0.8973366700000001,2.22760917,-3.13001341,,,
imu,189.633128,-0.4450256832000001,-9.822267128800002,1.5211025704,0.8674290299999999,2.29490136,-3.04029049,,,
imu,189.641591,-0.4468201416000001,-9.820472670400001,1.5348600848,0.8674290299999999,2.34723973,-2.96552139,,,
imu,189.650055,-0.4420349192,-9.802528086400002,1.5300748624,0.74779847,2.25751681,-2.92813684,,,
imu,189.658518,-0.4222958768,-9.825856045600002,1.5528046688,0.7253677399999999,2.27994754,-2.93561375,,,
imu,189.666982,-0.4049494456000001,-9.8886620896,1.546224988,0.8749059399999999,2.33976282,-2.88327538,,,
imu,189.675801,-0.4061457512000001,-9.870119352800002,1.5557954328,0.67302937,2.23508608,-2.90570611,,,
imu,189.684621,-0.400762376,-9.789966877600001,1.5426360712,0.43376825,2.09302479,-3.01038285,,,
imu,189.693441,-0.3923882368,-9.744507264800001,1.5450286824,0.3739529699999999,2.00330187,-3.21973633,,,
imu,189.70226,-0.3792288752000001,-9.731347903200001,1.5324674736,0.56835263,1.91357895,-3.33188998,,,
imu,189.71108,-0.4019586816,-9.709216249600003,1.5228970288,0.76275229,1.83133294,-3.20478251,,,
imu,189.719899,-0.4193051128000001,-9.714599624800002,1.537252696,1.03939796,1.71170238,-2.99542903,,,
imu,189.728719,-0.4019586816,-9.721179305600002,1.513326584,1.48053565,1.77899457,-2.86084465,,,
imu,188.440165,,,,,,,71.3632804,1.702873999999999,-1.385502400000005
imu,188.541697,,,,,,,71.460938,1.373279599999977,-1.593024800000009
imu,188.643351,,,,,,,71.80273960000001,1.629630799999982,-1.763925600000005
imu,188.745005,,,,,,,71.4487308,1.71508119999999,-1.73951120000001
imu,188.846445,,,,,,,71.4121092,1.86156759999998,-2.130141600000002
imu,188.947947,,,,,,,71.4121092,1.239000399999979,-1.129151200000011
imu,189.049509,,,,,,,73.78030600000001,0.7751267999999811,-3.631627200000009
imu,189.151072,,,,,,,71.66846039999999,1.739495599999996,-2.056898400000007
imu,189.737538,-0.391790084,-9.725366375200002,1.5187099592,1.68241222,1.86871749,-2.89075229,,,
imu,189.746358,-0.3941826952,-9.727758986400001,1.5205044176,2.00391935,1.86124058,-3.01785976,,,
imu,189.755178,-0.3870048616000001,-9.7612555432,1.5240933344,2.02635008,1.77151766,-3.32441307,,,
imu,189.763997,-0.3816214864,-9.7953502528,1.5181118064,2.13850373,1.71170238,-3.6459202,,,
imu,189.772817,-0.3816214864,-9.802528086400002,1.51033582,2.12354991,1.56964109,-3.90761205,,,
imu,189.781636,-0.3720510416,-9.802528086400002,1.498372764,2.13102682,1.55468727,-3.89265823,,,
imu,189.790456,-0.3810233336,-9.800135475200001,1.4852134024,1.95905789,1.44253362,-3.90013514,,,
imu,189.799276,-0.3882011672000001,-9.7845835024,1.486409708,1.92167334,1.31542615,-3.80293531,,,
imu,189.808095,-0.4091365152000001,-9.7786019744,1.4786337216,1.88428879,1.14345722,-3.76555076,,,
imu,189.816915,-0.4294737104000001,-9.779798280000001,1.474446652,1.98896553,0.9714882899999999,-3.81041222,,,
imu,189.825734,-0.4480164472000001,-9.794752100000002,1.4762411104,1.98148862,1.16588795,-3.78798149,,,
imu,189.834554,-0.4743351704000001,-9.803724392000001,1.4756429576,1.91419643,1.18831868,-3.73564312,,,
imu,189.843373,-0.4779240872000001,-9.8234634344,1.4780355688,1.91419643,1.29299542,-3.61601256,,,
imu,189.852193,-0.4958686712000001,-9.833632032,1.4810263328,1.86185806,1.52477963,-3.60105874,,,
imu,189.861013,-0.4928779072000001,-9.831239420800001,1.4840170968,1.83195042,1.8761944,-3.50385891,,,
imu,189.869832,-0.4857000736000001,-9.8198745176,1.4822226384,1.72727368,2.08554788,-3.54872037,,,
imu,189.878308,-0.4737370176,-9.822267128800002,1.4768392632,1.64502767,2.37714737,-3.57862801,,,
imu,189.886785,-0.4474182944000001,-9.824659740000001,1.4708577352,1.54782784,2.72108523,-3.66087402,,,
imu,189.895261,-0.4234921824,-9.8162856008,1.4576983736,1.47305874,2.79585433,-3.78798149,,,
imu,189.903737,-0.3887993200000001,-9.813892989600001,1.4571002208,1.56278166,2.87810034,-3.95247351,,,
imu,189.912213,-0.3559009160000001,-9.811500378400002,1.4660725128,1.62259694,2.86314652,-4.079580979999999,,,
imu,189.252604,,,,,,,74.1831436,0.567604399999988,-3.985636000000004
imu,189.354227,,,,,,,71.8637756,1.116928399999995,-1.568610400000003
imu,189.45579,,,,,,,71.7539108,1.458729999999986,-3.033474400000002
imu,189.557474,,,,,,,71.460938,1.409901199999997,-1.922619200000009
imu,189.658884,,,,,,,71.644046,1.666252399999979,-1.727304000000007
imu,189.760447,,,,,,,72.08350519999999,1.422108399999988,-0.8117640000000037
imu,189.862009,,,,,,,71.74170360000001,1.422108399999988,-1.751718400000002
