Type,Timestamp,Data Accelerometer X,Data Accelerometer Y,Data Accelerometer Z,Data Gyroscope X,Data Gyroscope Y,Data Gyroscope Z,Data Magnetometer X,Data Magnetometer Y,Data Magnetometer Z
imu,48.380361,0.04486146000000001,-9.600352440000002,2.462595077600001,1.85438115,0.07425908999999997,-4.3936112,,,
imu,48.388836,0.02871133440000001,-9.6224840936,2.4512301744,2.02635008,-0.1949096699999999,-4.31136519,,,
imu,48.397311,0.0185427368,-9.6296619272,2.4500338688,2.08616536,-0.15004821,-4.29641137,,,
imu,48.405785,0.017944584,-9.651195428000001,2.45242648,2.20579592,-0.2846325900000002,-4.318842099999999,,,
imu,48.41426,0.004785222400000001,-9.656578803200002,2.4512301744,2.04878081,-0.2248173100000002,-4.453426479999999,,,
imu,48.422735,-0.0005981528000000001,-9.642223136000002,2.4422578824,1.77961205,-0.2846325900000002,-4.66277996,,,
imu,48.43121,-0.0065796808,-9.621287788000002,2.4332855904,1.70484295,-0.3594016900000003,-4.759979789999999,,,
imu,48.439685,-0.0323002512,-9.611119190400002,2.4189299232,1.63755076,-0.3444478700000002,-4.90204108,,,
imu,48.44816,-0.03648732080000001,-9.595567217600001,2.419528076,1.47305874,-0.1949096699999999,-5.11139456,,,
imu,48.456635,-0.0317020984,-9.591380148,2.4171354648,1.51044329,0.02939763000000006,-5.17868675,,,
imu,48.46511,-0.04366515440000001,-9.575828175200002,2.3991908808,1.72727368,0.21632038,-5.216071299999999,,,
imu,48.473585,-0.0430670016,-9.571042952800001,2.3914148944,1.74970441,0.44062768,-5.16373293,,,
imu,48.48206,-0.04127254320000001,-9.566257730400002,2.3920130472,1.95905789,0.58268897,-5.05157928,,,
imu,48.490535,-0.03349655680000001,-9.587193078400002,2.3800499912,2.22074974,0.7322271699999998,-4.80484125,,,
imu,48.49901,-0.0323002512,-9.588987536800001,2.3728721576,2.27308811,1.06121121,-4.72259524,,,
imu,48.507485,-0.0203371952,-9.5985579816,2.3764610744,2.52730305,1.09859576,-4.61044159,,,
imu,48.51596,-0.017944584,-9.6051376624,2.368685088,2.88619473,1.0537343,-4.37118047,,,
imu,48.524435,-0.003588916800000001,-9.627867468800002,2.3573201848,2.95348692,0.9565344699999998,-4.244073,,,
imu,48.53291,-0.0011963056,-9.6284656216,2.3423663648,3.19274804,0.8742884599999998,-4.27398064,,,
imu,48.541385,-0.004187069600000001,-9.662560331200002,2.3555257264,3.12545585,0.8892422799999999,-4.23659609,,,
imu,48.549957,0.0023926112,-9.6954587352,2.3615072544,2.83385636,0.6574580699999997,-4.057150249999999,,,
imu,48.558529,0.007177833600000002,-9.711010708000002,2.3698813936,2.60954906,0.6275504299999999,-3.78798149,,,
imu,48.5671,0.003588916800000001,-9.7163940832,2.389620436,2.27308811,0.6724118899999998,-3.48890509,,,
imu,48.575672,0.01495382,-9.7283571392,2.3938075056,1.71979677,0.6873657099999999,-3.39170526,,,
imu,48.584243,0.0191408896,-9.7331423616,2.409957631200001,1.368382,0.6574580699999997,-3.09262886,,,
imu,48.592815,0.0275150288,-9.740918348000001,2.4183317704,0.88985976,0.6499811599999998,-3.05524431,,,
imu,48.601387,0.0293094872,-9.717590388800001,2.42251884,0.47862971,0.5976427899999996,-2.9729983,,,
imu,48.609958,0.0257205704,-9.6775141512,2.4147428536,0.14964567,0.4854891399999999,-3.15992105,,,
imu,48.61853,0.0305057928,-9.636241608,2.416537312,-0.11204618,0.4331507699999997,-3.1973056,,,
imu,48.627102,0.0197390424,-9.594370912,2.4213225344,-0.20924601,0.35838167,-3.39170526,,,
imu,48.635673,0.0167482784,-9.585996772800002,2.4290985208,0.0001074699999999984,0.3733354899999997,-3.33188998,,,
imu,48.644245,0.0197390424,-9.5865949256,2.4422578824,0.14964567,0.5303505999999998,-3.22721324,,,
imu,48.652816,0.0257205704,-9.578220786400001,2.4488375632,0.40386061,0.56025824,-3.27955161,,,
imu,48.661388,0.0203371952,-9.5602762024,2.4566135496,0.56835263,0.5976427899999996,-3.41413599,,,
imu,48.66996,0.0215335008,-9.5566872856,2.4608006192,0.6132140899999999,0.6275504299999999,-3.53376655,,,
imu,48.678531,0.0227298064,-9.5865949256,2.4775488976,0.8375213899999999,0.8593346399999997,-3.53376655,,,
imu,48.687103,0.026916876,-9.6218859408,2.483530425600001,0.77770611,0.9565344699999998,-3.71321239,,,
imu,48.695675,0.0281131816,-9.6051376624,2.4721655224,0.620691,0.8967191899999998,-4.06462716,,,
imu,48.704246,0.03588916800000001,-9.595567217600001,2.4655858416,0.7253677399999999,0.8742884599999998,-4.408565019999999,,,
imu,48.712818,0.0233279592,-9.592576453600001,2.4530246328,0.94967504,0.8144731799999998,-4.64034923,,,
imu,48.721389,0.0305057928,-9.593772759200002,2.4416597296,1.23379762,0.7097964399999999,-4.64034923,,,
imu,48.729961,0.020935348,-9.6087265792,2.4261077568,1.52539711,0.5453044199999999,-4.70016451,,,
imu,48.738533,0.008374139200000002,-9.608128426400002,2.413546548,1.74970441,0.4929660499999997,-4.78988743,,,
imu,48.747104,0.004785222400000001,-9.618297024,2.3991908808,2.04878081,0.2462280199999998,-4.80484125,,,
imu,48.755469,0.003588916800000001,-9.620689635200002,2.3782555328,2.1908421,0.05930526999999985,-4.7674567,,,
imu,48.763833,-0.0011963056,-9.632054538400002,2.3758629216,2.29551884,0.06678217999999969,-4.58053395,,,
imu,48.772197,-0.01495382,-9.638036066400002,2.369283240800001,2.40019558,0.05182836000000002,-4.61044159,,,
imu,48.780562,-0.023926112,-9.668541859200001,2.3644980184,2.29551884,-0.007986920000000008,-4.50576485,,,
imu,48.788969,-0.03289840400000001,-9.667943706400001,2.3585164904,2.13102682,-0.02294074000000013,-4.40108811,,,
imu,48.797333,-0.03289840400000001,-9.6703363176,2.348347892800001,2.01139626,0.08173599999999981,-4.386134289999999,,,
imu,48.805697,-0.0442633072,-9.6745233872,2.3345903784,1.79456587,-0.01546383000000029,-4.43847266,,,
imu,48.814062,-0.0370854736,-9.667345553600002,2.331001461600001,1.60764312,-0.04537147000000008,-4.26650373,,,
imu,48.822426,-0.04486146000000001,-9.6733270816,2.3429645176,1.27865908,-0.09770984000000027,-4.30388828,,,
imu,48.83079,-0.06220789120000001,-9.6954587352,2.3603109488,1.17398234,-0.04537147000000008,-4.28893446,,,
imu,48.839155,-0.0634041968,-9.693066124000001,2.34774974,0.88985976,0.04435144999999974,-4.21416536,,,
imu,48.847519,-0.08015247520000002,-9.678710456800001,2.350740504,0.67302937,0.02192071999999978,-4.26650373,,,
imu,48.855884,-0.1028822816,-9.671532623200001,2.3435626704,0.56835263,0.07425908999999997,-4.37118047,,,
imu,48.864248,-0.1100601152,-9.676915998400002,2.362105407200001,0.42629134,0.1714589200000001,-4.363703559999999,,,
imu,48.872612,-0.09989151760000002,-9.679308609600001,2.3633017128,0.36647606,0.3135202100000001,-4.19173463,,,
imu,48.880977,-0.1082656568,-9.682897526400001,2.3650961712,0.11226112,0.19388965,-4.11696553,,,
imu,48.889341,-0.1010878232,-9.6745233872,2.3561238792,0.01506129,0.2237972899999998,-3.90013514,,,
imu,48.897705,-0.09570444800000001,-9.664952942400001,2.3603109488,-0.007369440000000005,0.4854891399999999,-3.51133582,,,
imu,48.90607,-0.08912476720000001,-9.669140012000002,2.3453571288,0.05244583999999999,0.6574580699999997,-3.27955161,,,
imu,48.914434,-0.0735727944,-9.6667474008,2.3459552816,-0.20924601,0.6499811599999998,-3.18982869,,,
imu,48.922798,-0.05802082160000001,-9.667943706400001,2.3525349624,-0.007369440000000005,0.7995193599999997,-2.86084465,,,
imu,48.931163,-0.04545961280000001,-9.667943706400001,2.3525349624,-0.08213854000000001,0.6724118899999998,-2.70382954,,,
imu,48.939527,-0.02990764000000001,-9.6667474008,2.3638998656,-0.26158438,0.6724118899999998,-2.62906044,,,
imu,48.947891,-0.0221316536,-9.631456385600002,2.329805156,-0.30644584,0.6125966099999998,-2.68887572,,,
imu,48.956355,-0.0221316536,-9.6218859408,2.3513386568,-0.23915365,0.5976427899999996,-2.58419898,,,
imu,48.964819,-0.017944584,-9.671532623200001,2.3722740048,-0.04475399000000001,0.5378275100000001,-2.60662971,,,
imu,48.973282,-0.026916876,-9.7193848472,2.3902185888,-0.28401511,0.41819695,-2.81598319,,,
imu,48.981746,-0.0233279592,-9.711608860800002,2.3973964224,-0.48589168,-0.01546383000000029,-3.10010577,,,
imu,48.990209,-0.02990764000000001,-9.688280901600002,2.410555784,-0.8672140899999999,-0.23229422,-3.48142818,,,
imu,48.998673,-0.04785222400000001,-9.7008421104,2.431491132,-1.16629049,-0.4715553400000001,-3.5711511,,,
imu,49.007136,-0.06220789120000001,-9.711010708000002,2.4446504936,-1.38312088,-0.43417079,-3.44404363,,,
imu,49.0156,-0.06998387760000001,-9.688879054400001,2.45242648,-1.87659694,-0.3070633200000001,-3.42908981,,,
imu,49.024063,-0.07656355840000001,-9.683495679200002,2.4566135496,-2.30278081,-0.2696787700000001,-3.24216706,,,
imu,49.032527,-0.07716171120000001,-9.6535880392,2.455417244,-2.4448421,-0.2023865800000002,-3.07767504,,,
imu,49.04099,-0.06519865520000001,-9.6290637744,2.450632021600001,-2.58690339,-0.007986920000000008,-2.88327538,,,
imu,49.049454,-0.06699311360000001,-9.5800152448,2.4446504936,-2.56447266,0.1265974599999997,-2.78607555,,,
imu,49.057917,-0.06041343280000001,-9.5381445488,2.45242648,-2.40745755,0.01444380999999995,-2.75616791,,,
imu,49.066381,-0.05682451600000001,-9.526779645600001,2.4356782016,-2.06351969,0.13407437,-2.89075229,,,
imu,49.074845,-0.05682451600000001,-9.507040603200002,2.4123502424,-1.6971511,0.2462280199999998,-2.71878336,,,
imu,49.083308,-0.04785222400000001,-9.532163020800002,2.413546548,-1.19619813,0.2836125699999998,-2.63653735,,,
imu,49.091772,-0.0376836264,-9.538742701600002,2.4350800488,-0.84478336,0.2611818399999999,-2.65149117,,,
imu,49.100235,-0.04605776560000001,-9.538742701600002,2.4679784528,-0.55318387,0.3284740299999998,-2.57672207,,,
imu,49.108699,-0.0352910152,-9.613511801600001,2.4679784528,-0.23167674,0.4929660499999997,-2.45709151,,,
imu,49.117162,-0.03648732080000001,-9.675121540000001,2.473959980800001,-0.10456927,0.6499811599999998,-2.24773803,,,
imu,49.125626,-0.04845037680000001,-9.688280901600002,2.4847267312,-0.38869185,0.72475026,-2.33746095,,,
imu,49.134089,-0.0406743904,-9.676915998400002,2.4829322728,-0.7401066199999999,0.7471809899999999,-2.57672207,,,
imu,49.142553,-0.04246884880000001,-9.667345553600002,2.4859230368,-0.90459864,0.8593346399999997,-2.72626027,,,
imu,49.151016,-0.0490485296,-9.665551095200001,2.4829322728,-1.15881358,1.08364194,-2.79355246,,,
imu,49.159877,-0.04187069600000001,-9.630260080000001,2.4847267312,-1.35321324,1.09859576,-2.95056757,,,
imu,49.168738,-0.0430670016,-9.627269316000001,2.4841285784,-1.40555161,1.22570323,-3.20478251,,,
imu,49.177599,-0.0382817792,-9.610521037600002,2.4847267312,-1.68219728,1.31542615,-3.38422835,,,
imu,49.186459,-0.03289840400000001,-9.602745051200001,2.500278704,-1.71210492,1.46496435,-3.33188998,,,
imu,49.19532,-0.023926112,-9.583006008800002,2.488315648,-1.73453565,1.6518871,-3.29450543,,,
imu,49.204181,-0.005981528000000001,-9.557285438400001,2.4978860928,-1.79435093,1.71917929,-3.33188998,,,
imu,49.213041,0.0005981528000000001,-9.558481744000002,2.5146343712,-1.9214584,1.8014253,-3.31693616,,,
imu,49.221902,0.01495382,-9.548313146400002,2.504465773600001,-2.01865823,1.80890221,-3.1973056,,,
imu,49.230763,0.0197390424,-9.5459205352,2.503269468,-2.17567334,1.78647148,-3.17487487,,,
imu,49.239624,0.0251224176,-9.545322382400002,2.5158306768,-2.12333497,1.78647148,-3.05524431,,,
imu,49.248484,0.04366515440000001,-9.5602762024,2.509250996,-1.98127368,1.69674856,-3.18982869,,,
imu,49.257345,0.0376836264,-9.569248494400002,2.5158306768,-1.86912003,1.62945637,-3.10010577,,,
imu,49.266206,0.0430670016,-9.571641105600001,2.518223288000001,-1.66724346,1.65936401,-2.93561375,,,
imu,49.275066,0.04785222400000001,-9.589585689600002,2.536167872,-1.6971511,1.28551851,-3.10010577,,,
imu,49.283927,0.026916876,-9.585996772800002,2.539158636000001,-1.622382,1.32290306,-3.21225942,,,
imu,49.292788,0.0143556672,-9.602146898400001,2.569066276,-1.79435093,1.29299542,-3.30945925,,,
imu,49.301649,0.0101685976,-9.635643455200002,2.5822256376,-1.95136604,1.30794924,-3.36179762,,,
imu,49.310509,-0.0017944584,-9.648204664000001,2.599572068800001,-2.06351969,1.29299542,-3.2720747,,,
imu,49.31937,-0.0143556672,-9.6703363176,2.606749902400001,-2.25044244,1.32290306,-3.30198234,,,
imu,49.328231,-0.01495382,-9.648204664000001,2.625890792,-2.69158013,1.47244126,-3.36179762,,,
imu,49.337091,-0.0352910152,-9.641624983200002,2.6450316816,-2.99065653,1.62945637,-3.48142818,,,
imu,49.345952,-0.0346928624,-9.606333968000001,2.6396483064,-3.23739456,1.98834805,-3.57862801,,,
imu,49.354813,-0.04007623760000001,-9.583604161600002,2.6420409176,-3.43927113,2.1005017,-3.66835093,,,
imu,49.363284,-0.0370854736,-9.562668813600002,2.638452000800001,-3.50656332,2.33228591,-3.7954584,,,
imu,49.371755,-0.0221316536,-9.5249851872,2.6330686256,-3.34954821,2.72108523,-3.66835093,,,
imu,49.380226,-0.007177833600000002,-9.516012895200001,2.628881556000001,-2.9682258,2.99025399,-3.69078166,,,
imu,49.388698,-0.0011963056,-9.481320032800001,2.6360593896,-2.8186876,3.09493073,-3.92256587,,,
imu,49.397169,0.0023926112,-9.469356976800002,2.628881556000001,-2.49718047,3.2968073,-3.96742733,,,
imu,49.40564,0.0167482784,-9.453805004000001,2.6432372232,-2.22801171,3.24446893,-4.17678081,,,
imu,49.414111,0.0221316536,-9.462777296000002,2.6510132096,-1.65228964,3.17717674,-4.34874974,,,
imu,49.422582,0.0215335008,-9.459786532,2.6444335288,-1.08404448,3.17717674,-4.58053395,,,
imu,49.431053,0.0191408896,-9.459786532,2.6396483064,-0.6503837,3.05754618,-4.82727198,,,
imu,49.439525,0.0161501256,-9.463973601600001,2.6474242928,-0.43355331,2.87062343,-5.05905619,,,
imu,49.447996,0.0107667504,-9.477132963200003,2.6546021264,0.03749201999999999,2.65379304,-5.238502029999999,,,
imu,49.456467,0.002990764,-9.498666464000001,2.6444335288,0.3963837,2.46687029,-5.283363489999999,,,
imu,49.464938,0.0023926112,-9.516012895200001,2.668957793600001,0.55339881,2.3995781,-5.12634838,,,
imu,49.473409,0.0011963056,-9.551303910400001,2.6719485576,0.7104139199999999,2.20517844,-5.044102369999999,,,
imu,49.48188,0.0,-9.550705757600001,2.6755374744,0.59078336,2.05564024,-4.94690254,,,
imu,49.490352,0.0017944584,-9.557883591200001,2.6892949888,0.68798319,1.98087114,-4.75250288,,,
imu,49.498823,-0.004187069600000001,-9.5602762024,2.692285752800001,0.3963837,1.86124058,-4.51324176,,,
imu,49.507294,-0.007775986400000001,-9.553696521600001,2.6910894472,0.2468455,1.81637912,-4.25902682,,,
imu,49.515765,-0.0251224176,-9.553696521600001,2.6821171552,0.1720764,1.66684092,-4.19921154,,,
imu,49.524236,-0.0221316536,-9.550705757600001,2.6928839056,-0.03727708,1.70422547,-4.21416536,,,
imu,49.532707,-0.03110394560000001,-9.537546396000002,2.688696836,0.03749201999999999,1.8014253,-4.29641137,,,
imu,49.541179,-0.0406743904,-9.538742701600002,2.6875005304,0.08235347999999998,1.78647148,-4.42351884,,,
imu,49.54965,-0.0376836264,-9.5381445488,2.697669128,0.20946095,1.79394839,-4.56558013,,,
imu,49.558121,-0.05383375200000001,-9.5489112992,2.6982672808,0.3889067899999999,1.74908693,-4.86465653,,,
imu,49.566546,-0.04785222400000001,-9.551902063200002,2.713221100800001,0.53096808,1.84628676,-4.96185636,,,
imu,49.574972,-0.05981528000000001,-9.536350090400001,2.7192026288,0.58330645,1.74908693,-5.15625602,,,
imu,49.583397,-0.0514411408,-9.5381445488,2.7180063232,0.59078336,1.89862513,-5.31327113,,,
imu,49.591823,-0.04127254320000001,-9.5393408544,2.72159524,0.74779847,1.78647148,-5.193640569999999,,,
imu,49.600248,-0.0406743904,-9.540537160000001,2.7150155592,0.9347212199999999,1.71917929,-4.954379449999999,,,
imu,49.608673,-0.017944584,-9.528574104,2.7102303368,0.85995212,1.62197946,-4.670256869999999,,,
imu,49.617099,-0.020935348,-9.519003659200001,2.713221100800001,0.81509066,1.41262598,-4.40108811,,,
imu,49.625524,-0.020935348,-9.5172092008,2.7114266424,0.6954601,1.15841104,-4.08705789,,,
imu,49.63395,-0.0155519728,-9.5184055064,2.7168100176,0.7702292,1.00139593,-3.7206893,,,
imu,49.642375,-0.0251224176,-9.510031367200002,2.7144174064,0.79265993,0.66493498,-3.43656672,,,
imu,49.6508,-0.023926112,-9.513022131200001,2.7078377256,0.85995212,0.4481045899999998,-3.33188998,,,
imu,49.659226,-0.04127254320000001,-9.519003659200001,2.7162118648,1.0693056,0.27613566,-3.08515195,,,
imu,49.667651,-0.05203929360000001,-9.5381445488,2.7317638376,1.19641307,0.02939763000000006,-3.01785976,,,
imu,49.676076,-0.07656355840000001,-9.551303910400001,2.722791545600001,1.30108981,-0.2397711300000003,-3.09262886,,,
imu,49.684502,-0.09869521200000002,-9.526181492800001,2.7192026288,1.60764312,-0.2921095,-3.14496723,,,
imu,49.692927,-0.1172379488,-9.5172092008,2.709632184,1.75718132,-0.2921095,-2.99542903,,,
imu,49.701353,-0.122621324,-9.5291722568,2.6910894472,2.00391935,0.01444380999999995,-2.86832156,,,
imu,49.709778,-0.1280046992,-9.546518688,2.679724544,2.22822665,0.3209971199999999,-2.36736859,,,
imu,49.718203,-0.1178361016,-9.5501076048,2.6749393216,2.31794957,0.6499811599999998,-2.27016876,,,
imu,49.726629,-0.113649032,-9.546518688,2.6623781128,2.51982614,1.08364194,-2.3000764,,,
imu,49.735054,-0.09690075360000001,-9.555490980000002,2.6510132096,2.66936434,1.43505671,-2.49447606,,,
imu,48.431722,,,,,,,85.194038,-42.21863160000001,124.7881168
imu,48.533284,,,,,,,85.9508844,-41.74255080000002,124.3242432
imu,48.634847,,,,,,,85.6334972,-41.91345160000002,124.7270808
imu,48.736623,,,,,,,87.9528652,-43.14637880000001,124.312036
imu,48.838002,,,,,,,85.8898484,-42.35291080000001,124.617216
imu,48.939534,,,,,,,88.14818040000002,-43.29286520000002,122.480956
imu,49.74348,-0.08194693360000001,-9.523190728800001,2.6306760144,2.70674889,1.86871749,-2.53186061,,,
imu,49.751905,-0.08972292000000001,-9.5154147424,2.628881556000001,2.77404108,2.11545552,-2.8982292,,,
imu,49.76033,-0.0675912664,-9.511227672800002,2.6193111112,2.96096383,2.36967046,-3.26459779,,,
imu,49.768793,-0.05802082160000001,-9.501657228000001,2.610936972000001,3.20770186,2.73603905,-3.36927453,,,
imu,49.777255,-0.0406743904,-9.512423978400001,2.5846182488,3.10302512,2.91548489,-3.53376655,,,
imu,49.785717,-0.0173464312,-9.511227672800002,2.578038568,3.26751714,3.13979219,-3.60105874,,,
imu,49.79418,-0.003588916800000001,-9.517807353600002,2.566673664800001,3.39462461,3.26689966,-3.45899745,,,
imu,49.802642,-0.0005981528000000001,-9.529770409600001,2.560093984,3.55911663,3.31176112,-3.39918217,,,
imu,49.811104,0.007177833600000002,-9.5381445488,2.5505235392,3.74603938,3.4463455,-3.38422835,,,
imu,49.819566,0.008972292000000002,-9.559678049600002,2.539158636000001,3.97782359,3.28933039,-3.44404363,,,
imu,49.828029,0.0137575144,-9.582407856000001,2.5158306768,4.00773123,3.36409949,-3.37675144,,,
imu,49.836491,0.007177833600000002,-9.6117173432,2.5164288296,4.02268505,3.32671494,-3.36179762,,,
imu,49.844953,0.007177833600000002,-9.6260730104,2.5164288296,3.94043904,3.31176112,-3.2720747,,,
imu,49.853415,0.02871133440000001,-9.654784344800001,2.522410357600001,3.85071612,3.3715764,-3.16739796,,,
imu,49.861878,0.04725407120000001,-9.669140012000002,2.51224176,3.82828539,3.30428421,-3.05524431,,,
imu,49.87034,0.05443190480000001,-9.686486443200002,2.5283918856,3.56659354,3.26689966,-2.99542903,,,
imu,49.878748,0.05443190480000001,-9.693066124000001,2.5325789552,3.26751714,3.16222292,-2.84589083,,,
imu,49.887211,0.0526374464,-9.703234721600001,2.541551247200001,2.85628709,3.01268472,-2.88327538,,,
imu,49.895673,0.0323002512,-9.711010708000002,2.536167872,2.44505704,2.91548489,-2.65896808,,,
imu,49.904135,0.008972292000000002,-9.675121540000001,2.521214052,2.07121154,2.78837742,-2.60662971,,,
imu,49.912598,-0.0221316536,-9.702038416,2.5170269824,1.98148862,2.81828506,-2.38232241,,,
imu,49.92106,-0.0352910152,-9.7128051664,2.494297176,1.77213514,3.05006927,-2.5243837,,,
imu,49.929522,-0.06041343280000001,-9.704431027200002,2.4841285784,1.62259694,3.19960747,-2.4496146,,,
imu,49.937984,-0.0663949608,-9.6703363176,2.4841285784,1.35342818,3.49868387,-2.3000764,,,
imu,49.946447,-0.0861340032,-9.6284656216,2.4805396616,1.00201341,3.94729847,-2.32250713,,,
imu,49.954909,-0.08015247520000002,-9.635643455200002,2.4960916344,0.78518302,4.30619015,-2.35989168,,,
imu,49.963371,-0.05802082160000001,-9.654784344800001,2.4931008704,0.57582954,4.567882,-2.3748455,,,
imu,49.971846,-0.0550300576,-9.644017594400001,2.5050639264,0.23936859,5.023973509999999,-2.39727623,,,
imu,49.980321,-0.0532355992,-9.618895176800002,2.5194195936,-0.10456927,5.36791137,-2.53933752,,,
imu,49.988796,-0.0466559184,-9.614708107200002,2.52719558,-0.2765382,5.69689541,-2.50195297,,,
imu,49.997271,-0.0275150288,-9.6218859408,2.520615899200001,-0.41112258,5.81652597,-2.62158353,,,
imu,50.005746,-0.0107667504,-9.610521037600002,2.529588191200001,-0.38121494,6.17541765,-2.54681443,,,
imu,50.014221,0.0023926112,-9.604539509600002,2.524204816,-0.39616876,6.444586409999999,-2.53186061,,,
imu,50.022696,0.03588916800000001,-9.604539509600002,2.5188214408,-0.48589168,6.40720186,-2.65149117,,,
imu,50.031171,0.0382817792,-9.578220786400001,2.525401121600001,-0.36626112,6.624032249999999,-2.72626027,,,
imu,50.039646,0.06041343280000001,-9.583006008800002,2.5176251352,-0.16438455,6.78852427,-2.68139881,,,
imu,50.048121,0.07656355840000001,-9.571042952800001,2.5200177464,-0.01484635000000001,6.90067792,-2.74121409,,,
imu,50.056596,0.08374139200000001,-9.566257730400002,2.5259992744,0.29918387,6.840862639999999,-2.83093701,,,
imu,50.065071,0.092713684,-9.562070660800002,2.5379623304,0.3216146,6.63898607,-3.10010577,,,
imu,50.073546,0.09630260080000001,-9.5393408544,2.5313826496,0.45619898,6.511878599999999,-3.24216706,,,
imu,50.082021,0.1040785872,-9.52558334,2.5385604832,0.42629134,6.39224804,-3.47395127,,,
imu,50.090496,0.09690075360000001,-9.5357519376,2.5505235392,0.3963837,6.063264,-3.83284295,,,
imu,50.098971,0.08374139200000001,-9.538742701600002,2.5517198448,0.56087572,5.921202709999999,-4.079580979999999,,,
imu,50.107446,0.09989151760000002,-9.5381445488,2.5403549416,0.66555246,5.82400288,-4.00481188,,,
imu,50.115921,0.09989151760000002,-9.5459205352,2.5493272336,0.8973366700000001,5.80904906,-3.90013514,,,
imu,50.124396,0.09510629520000001,-9.543527924000001,2.551121692,1.04687487,5.57726485,-3.95247351,,,
imu,50.132871,0.110658268,-9.5602762024,2.5409530944,1.2188438,5.51744957,-3.83284295,,,
imu,50.141346,0.1100601152,-9.5602762024,2.5289900384,1.60016621,5.33800373,-3.60853565,,,
imu,50.149821,0.1130508792,-9.562668813600002,2.529588191200001,1.73475059,5.10621952,-3.58610492,,,
imu,50.158296,0.107667504,-9.575828175200002,2.5218122048,1.82447351,4.814620029999999,-3.59358183,,,
imu,50.166771,0.1184342544,-9.594370912,2.529588191200001,1.85438115,4.717420199999999,-3.496382,,,
imu,50.175592,0.1220231712,-9.617698871200002,2.5343734136,1.80951969,4.523020539999999,-3.58610492,,,
imu,50.184413,0.1184342544,-9.6290637744,2.531980802400001,1.79456587,4.32114397,-3.56367419,,,
imu,50.193234,0.1082656568,-9.612913648800001,2.5373641776,1.64502767,3.99215993,-3.6459202,,,
imu,50.202054,0.1064711984,-9.606932120800002,2.5367660248,1.61512003,3.72299117,-3.72816621,,,
imu,50.210875,0.1040785872,-9.602745051200001,2.5349715664,1.39081273,3.63326825,-3.8702275,,,
imu,50.219696,0.092713684,-9.591978300800001,2.5265974272,1.42819728,3.43886859,-3.84779677,,,
imu,50.228517,0.08792846160000001,-9.5877912312,2.5218122048,1.37585891,3.30428421,-3.8702275,,,
imu,50.237338,0.080750628,-9.578818939200001,2.520615899200001,1.51044329,3.11736146,-3.77302767,,,
imu,50.246159,0.06519865520000001,-9.590183842400002,2.5355697192,1.70484295,2.87810034,-3.67582784,,,
imu,50.25498,0.0502448352,-9.603343204000002,2.5355697192,1.8169966,2.72856214,-3.66835093,,,
imu,50.263801,0.04964668240000001,-9.6117173432,2.5499253864,2.06373463,2.63136231,-3.63096638,,,
imu,50.272622,0.0203371952,-9.617100718400001,2.5696644288,2.24318047,2.74351596,-3.69078166,,,
imu,50.281443,0.004785222400000001,-9.623082246400001,2.5678699704,2.25065738,2.85566961,-3.63844329,,,
imu,50.290263,0.007775986400000001,-9.6117173432,2.5606921368,2.04878081,3.0725,-3.69825857,,,
imu,50.299084,0.007177833600000002,-9.6117173432,2.5672718176,1.88428879,3.31176112,-3.82536604,,,
imu,50.307905,0.007775986400000001,-9.595567217600001,2.57205704,1.68988913,3.57345297,-3.90013514,,,
imu,50.316726,0.0137575144,-9.573435564,2.5672718176,1.57773548,3.92486774,-4.102011709999999,,,
imu,50.325547,0.0155519728,-9.558481744000002,2.5672718176,1.57773548,4.30619015,-4.341272829999999,,,
imu,50.334368,0.02871133440000001,-9.533359326400001,2.57205704,1.57025857,4.37348234,-4.64034923,,,
imu,50.343189,0.0370854736,-9.524387034400002,2.566075512,1.56278166,4.73237402,-4.976810179999999,,,
imu,50.35201,0.0526374464,-9.541135312800002,2.566673664800001,1.70484295,4.837050759999999,-5.11139456,,,
imu,50.360831,0.0753672528,-9.569248494400002,2.5714588872,1.67493531,4.85200458,-5.350655679999999,,,
imu,50.369652,0.08673215600000002,-9.551902063200002,2.566075512,1.63755076,4.6426511,-5.5151477,,,
imu,50.378113,0.0980970592,-9.536948243200001,2.5744496512,1.63755076,4.40338998,-5.57496298,,,
imu,50.386574,0.1100601152,-9.530368562400001,2.5535143032,1.79456587,4.0444983,-5.42542478,,,
imu,50.395035,0.131593616,-9.545322382400002,2.5379623304,2.02635008,3.85757555,-5.021671639999999,,,
imu,50.403496,0.131593616,-9.557285438400001,2.527793732800001,2.39271867,3.70056044,-4.58053395,,,
imu,50.411957,0.1441548248,-9.5698466472,2.5146343712,2.4899185,3.32671494,-4.169303899999999,,,
imu,50.420418,0.1471455888,-9.5602762024,2.5104473016,2.74413344,3.03511545,-3.69825857,,,
imu,50.428879,0.1447529776,-9.554294674400001,2.4925027176,2.998348379999999,2.78090051,-3.22721324,,,
imu,50.43734,0.1411640608,-9.557883591200001,2.4895119536,3.17779422,2.42200883,-2.71130645,,,
imu,50.445801,0.1393696024,-9.576426328,2.4781470504,3.36471697,2.28742445,-2.32250713,,,
imu,50.454262,0.1297991576,-9.605735815200001,2.461398772,3.51425517,2.18274771,-1.94866163,,,
imu,50.462723,0.1297991576,-9.596763523200002,2.4512301744,3.56659354,1.93600968,-1.63463141,,,
imu,50.471184,0.1118545736,-9.591978300800001,2.443454188,3.67127028,1.71170238,-1.50752394,,,
imu,50.479645,0.09630260080000001,-9.592576453600001,2.431491132,3.64136264,1.66684092,-1.52247776,,,
imu,50.488106,0.09749890640000002,-9.613511801600001,2.425509604,3.72360865,1.67431783,-1.50004703,,,
imu,50.496567,0.0861340032,-9.617100718400001,2.4177336176,3.8357623,1.89114822,-1.51500085,,,
imu,50.505028,0.09749890640000002,-9.637437913600001,2.409957631200001,3.95539286,2.01825569,-1.55986231,,,
imu,50.513489,0.0903210728,-9.651195428000001,2.398592728,3.94043904,2.16779389,-1.91127708,,,
imu,50.52195,0.092713684,-9.669738164800002,2.4069668672,3.89557758,2.39210119,-1.94118472,,,
imu,50.530411,0.1112564208,-9.676915998400002,2.404574256,3.611455,2.64631613,-1.98604618,,,
imu,50.538872,0.125612088,-9.6745233872,2.3926112,3.32733242,3.02763854,-2.14306129,,,
imu,50.547333,0.1363788384,-9.689477207200001,2.398592728,3.07311748,3.28185348,-2.23278421,,,
imu,50.555794,0.1513326584,-9.703832874400002,2.389620436,2.7889949,3.49120696,-2.27016876,,,
imu,49.041219,,,,,,,85.9020556,-41.998902,125.3618552
imu,49.142659,,,,,,,85.7921908,-42.26746040000003,122.5541992
imu,49.244222,,,,,,,85.92647,-41.22984840000002,124.8369456
imu,49.345784,,,,,,,86.40255080000001,-41.21764120000002,124.922396
imu,49.447347,,,,,,,86.07295640000001,-40.92466840000002,125.4473056
imu,49.548909,,,,,,,85.99971319999999,-40.85142520000002,124.800324
imu,49.650533,,,,,,,86.32930759999999,-40.68052440000001,124.1533424
imu,49.752034,,,,,,,86.04854200000001,-40.66831720000002,125.0810896
imu,50.564255,0.1812402984,-9.7128051664,2.3979945752,2.43758013,3.75289881,-2.43466078,,,
imu,50.572716,0.1955959656,-9.7074217912,2.3734703104,1.75718132,3.6706528,-2.57672207,,,
imu,50.58144,0.203371952,-9.702636568800001,2.3710776992,1.38333582,3.64822207,-2.57672207,,,
imu,50.590164,0.2105497856,-9.714599624800002,2.3704795464,1.19641307,3.5211146,-2.5991528,,,
imu,50.598888,0.2141387024,-9.706823638400001,2.3698813936,0.7702292,3.28933039,-2.92813684,,,
imu,50.607612,0.2201202304,-9.7122070136,2.3633017128,0.44872207,3.01268472,-3.07767504,,,
imu,50.616337,0.2141387024,-9.743909112,2.3812462968,0.29170696,2.93043871,-3.1225365,,,
imu,50.625061,0.2231109944,-9.763050001600002,2.383040755200001,-0.02980017,2.72856214,-3.15244414,,,
imu,50.633785,0.2129423968,-9.754675862400001,2.3854333664,-0.5756146,2.36219355,-3.16739796,,,
imu,50.642509,0.1985867296,-9.720581152800001,2.3944056584,-1.03918302,2.16779389,-3.1225365,,,
imu,50.651234,0.1967922712,-9.6876827488,2.3854333664,-1.15133667,2.14536316,-2.77859864,,,
imu,50.659958,0.1896144376,-9.675719692800001,2.3752647688,-1.2485365,2.16779389,-2.26269185,,,
imu,50.668682,0.1955959656,-9.685888290400001,2.3722740048,-1.39059779,2.27247063,-1.90380017,,,
imu,50.677406,0.1836329096,-9.667943706400001,2.3752647688,-1.4728438,2.22013226,-1.79164652,,,
imu,50.68613,0.1830347568,-9.6470083584,2.3848352136,-1.72705874,2.07059406,-1.99352309,,,
imu,50.694855,0.173464312,-9.6290637744,2.3812462968,-1.82425857,2.08554788,-2.10567674,,,
imu,50.703579,0.1656883256,-9.606333968000001,2.3782555328,-1.95136604,2.07059406,-2.18044584,,,
imu,50.712303,0.1597067976,-9.614708107200002,2.389022283200001,-2.18315025,2.12293243,-2.35989168,,,
imu,50.721027,0.1501363528,-9.585398620000001,2.3979945752,-2.31773463,2.19022462,-2.55429134,,,
imu,50.729751,0.155519728,-9.588987536800001,2.3991908808,-2.39250373,2.13788625,-2.73373718,,,
imu,50.738476,0.1387714496,-9.585398620000001,2.3932093528,-2.37754991,2.27247063,-2.83093701,,,
imu,50.7472,0.137575144,-9.5776226336,2.4081631728,-2.37754991,2.45939338,-2.79355246,,,
imu,50.755924,0.131593616,-9.573435564,2.4147428536,-2.24296553,2.60893158,-2.78607555,,,
imu,50.764648,0.1363788384,-9.583006008800002,2.423715145600001,-2.12333497,2.93043871,-2.8234601,,,
imu,50.773373,0.1381732968,-9.582407856000001,2.4326874376,-2.13081188,3.04259236,-2.92813684,,,
imu,50.782097,0.158510492,-9.592576453600001,2.4476412576,-1.92893531,3.42391477,-2.92065993,,,
imu,50.790296,0.1573141864,-9.599156134400001,2.4530246328,-1.68967419,3.72299117,-2.85336774,,,
imu,50.798495,0.1632957144,-9.606333968000001,2.4667821472,-1.6971511,3.70803735,-3.0477674,,,
imu,50.806694,0.1818384512,-9.6290637744,2.4685766056,-1.86912003,3.70056044,-3.22721324,,,
imu,50.814893,0.1908107432,-9.632054538400002,2.4799415088,-2.00370441,3.81271409,-3.33188998,,,
imu,50.823092,0.2081571744,-9.6326526912,2.491306412,-2.05604278,3.80523718,-3.25712088,,,
imu,50.831291,0.2171294664,-9.627269316000001,2.4996805512,-2.23548862,3.76785263,-3.2720747,,,
imu,50.83949,0.2255036056,-9.6260730104,2.4984842456,-2.24296553,3.72299117,-3.36927453,,,
imu,50.847689,0.2350740504,-9.617698871200002,2.5080546904,-2.22801171,3.56597606,-3.23469015,,,
imu,50.855888,0.2464389536,-9.612315496,2.525401121600001,-2.25044244,3.5211146,-3.10758268,,,
imu,50.864087,0.2655798432,-9.6075302736,2.527793732800001,-2.18315025,3.3715764,-3.01785976,,,
imu,50.872286,0.2560093984,-9.5907819952,2.5230085104,-2.13828879,3.10240764,-2.87579847,,,
imu,50.880485,0.2536167872,-9.553696521600001,2.545738316800001,-2.33268845,2.93791562,-2.68887572,,,
imu,50.888684,0.260196468,-9.554294674400001,2.5672718176,-2.36259609,2.57902394,-2.72626027,,,
imu,50.896884,0.2649816904,-9.585398620000001,2.592992388,-2.31025772,2.37714737,-2.73373718,,,
imu,50.905083,0.2584020096,-9.612913648800001,2.5911979296,-2.46727283,2.23508608,-2.5991528,,,
imu,50.913282,0.2607946208,-9.564463272000001,2.5941886936,-2.47474974,2.00330187,-2.58419898,,,
imu,50.921481,0.2506260232,-9.529770409600001,2.606749902400001,-2.73644159,1.86124058,-2.66644499,,,
imu,50.92968,0.245242648,-9.524387034400002,2.628881556000001,-3.00561035,1.64441019,-2.5991528,,,
imu,50.937879,0.2476352592,-9.533957479200001,2.6240963336,-2.86354906,1.65936401,-2.33746095,,,
imu,50.946078,0.2458408008,-9.528574104,2.6360593896,-2.66167249,1.66684092,-2.23278421,,,
imu,50.954277,0.245242648,-9.516611048000001,2.640844612,-2.48222665,1.75656384,-2.11315365,,,
imu,50.962476,0.245242648,-9.5154147424,2.6444335288,-2.38502682,1.68179474,-2.15801511,,,
imu,50.970639,0.2458408008,-9.488497866400001,2.6474242928,-2.13828879,1.59954873,-2.21783039,,,
imu,50.978838,0.2578038568000001,-9.4801237272,2.6563965848,-1.95884295,1.49487199,-2.40475314,,,
imu,50.987307,0.2607946208,-9.464571754400001,2.6605836544,-1.70462801,1.51730272,-2.59167589,,,
imu,50.995777,0.2554112456,-9.4412437952,2.6635744184,-1.33825942,1.56216418,-2.77859864,,,
imu,51.004247,0.2470371064,-9.4250936696,2.6635744184,-0.97189083,1.58459491,-3.00290594,,,
imu,51.012717,0.257205704,-9.4215047528,2.6569947376,-0.60552224,1.60702564,-3.21973633,,,
imu,51.021187,0.2506260232,-9.426289975200001,2.6611818072,-0.38869185,1.66684092,-3.20478251,,,
imu,51.029657,0.2446444952,-9.434065961600002,2.6725467104,0.03001510999999998,1.74161002,-3.23469015,,,
imu,51.038127,0.2446444952,-9.447225323200001,2.673144863200001,0.42629134,2.03320951,-3.13749032,,,
imu,51.046597,0.2530186344000001,-9.459786532,2.678528238400001,0.71789083,2.05564024,-3.13001341,,,
imu,51.055067,0.263187232,-9.457992073600002,2.6743411688,1.13659779,2.13788625,-3.32441307,,,
imu,51.063537,0.2625890792,-9.4555994624,2.6719485576,1.56278166,2.14536316,-3.3468438,,,
imu,51.072006,0.2769447464000001,-9.4753385048,2.6665651824,1.86933497,2.28742445,-3.25712088,,,
imu,51.080476,0.2895059552,-9.5004609224,2.6665651824,2.01139626,2.28742445,-3.36179762,,,
imu,51.088946,0.3008708584000001,-9.520199964800002,2.6659670296,2.22822665,2.28742445,-3.496382,,,
imu,51.097416,0.3116376088,-9.5393408544,2.6653688768,2.51234923,2.25751681,-3.3468438,,,
imu,51.105886,0.3086468448,-9.559678049600002,2.652807668,2.4899185,2.16031698,-3.13001341,,,
imu,51.114356,0.3259932760000001,-9.548313146400002,2.631872320000001,2.4899185,2.06311715,-2.95804448,,,
imu,51.122826,0.334965568,-9.5459205352,2.6169185,2.51982614,2.06311715,-2.90570611,,,
imu,51.131296,0.3433397072,-9.5459205352,2.6121332776,2.61702597,1.91357895,-2.84589083,,,
imu,51.139766,0.3535083048,-9.539939007200001,2.6031609856,2.60207215,1.53973345,-2.87579847,,,
imu,51.148236,0.3564990688,-9.541733465600002,2.597179457600001,2.69927198,1.50982581,-2.84589083,,,
imu,51.156705,0.3343674152,-9.5429297712,2.587609012800001,2.6394567,1.2032725,-2.94309066,,,
imu,51.165175,0.3361618736,-9.553098368800002,2.576244109600001,2.75908726,0.92662683,-2.91318302,,,
imu,51.173645,0.3265914288,-9.5602762024,2.5696644288,2.58711833,0.6051196999999999,-3.01785976,,,
imu,51.182115,0.3289840400000001,-9.564463272000001,2.557103220000001,2.7889949,0.4331507699999997,-2.98795212,,,
imu,51.190975,0.3128339144,-9.575230022400001,2.5588976784,2.92357928,0.35838167,-3.11505959,,,
imu,51.199834,0.2966837888,-9.599754287200001,2.5505235392,2.97591765,0.35838167,-3.16739796,,,
imu,51.208693,0.2883096496000001,-9.603343204000002,2.5493272336,2.98339456,0.3658585799999998,-3.24964397,,,
imu,51.217553,0.2763465936,-9.613511801600001,2.541551247200001,2.88619473,0.52287369,-3.2720747,,,
imu,51.226412,0.2685706072,-9.618297024,2.530186344,2.83385636,0.76213481,-3.30198234,,,
imu,51.235271,0.2691687600000001,-9.627867468800002,2.5265974272,2.85628709,0.8817653699999997,-3.56367419,,,
imu,51.244131,0.2673743016,-9.631456385600002,2.5170269824,2.92357928,1.15093413,-3.7954584,,,
imu,51.25299,0.2739539824000001,-9.630858232800001,2.5056620792,2.64693361,1.21074941,-4.00481188,,,
imu,51.26185,0.2763465936,-9.631456385600002,2.5038676208,2.62450288,1.30794924,-4.26650373,,,
imu,51.270709,0.2799355104,-9.638634219200002,2.5026713152,2.43010322,1.41262598,-4.46090339,,,
imu,51.279568,0.2847207328,-9.634447149600001,2.4978860928,2.38524176,1.36028761,-4.67773378,,,
imu,51.288428,0.2942911776,-9.6087265792,2.4829322728,2.16841137,1.47991817,-4.81979507,,,
imu,51.297287,0.3056560808,-9.596763523200002,2.476352592,1.95158098,1.38271834,-4.90204108,,,
imu,51.306147,0.3146283728000001,-9.596165370400001,2.4799415088,1.8169966,1.07616503,-5.044102369999999,,,
imu,51.315006,0.3265914288,-9.603343204000002,2.473959980800001,1.76465823,0.80699627,-4.94690254,,,
imu,51.323865,0.3355637208,-9.6039413568,2.4721655224,1.70484295,0.5752120599999997,-4.84970271,,,
imu,51.332725,0.3176191368,-9.6039413568,2.471567369600001,1.5926893,0.21632038,-4.81231816,,,
imu,51.341584,0.3170209840000001,-9.602745051200001,2.4745581336,1.62259694,0.05182836000000002,-4.58053395,,,
imu,51.350443,0.3253951232,-9.597361676,2.4805396616,1.57773548,-0.17247894,-4.37118047,,,
imu,51.359303,0.3098431504,-9.597959828800002,2.4721655224,1.63007385,-0.4715553400000001,-4.20668845,,,
imu,51.368162,0.2847207328,-9.597361676,2.4727636752,1.67493531,-0.8304470200000003,-4.10948862,,,
imu,51.377022,0.2709632184,-9.595567217600001,2.473361828,1.55530475,-1.03232359,-4.146873169999999,,,
imu,49.853587,,,,,,,88.6608828,-41.51061400000003,124.5195584
imu,49.955272,,,,,,,85.81660520000001,-41.01011880000001,124.86136
imu,50.056743,,,,,,,87.8918292,-41.63268600000001,122.8227576
imu,50.158244,,,,,,,85.81660520000001,-40.72935320000002,124.7148736
imu,50.259837,,,,,,,85.70674039999999,-40.58286680000001,122.1635688
imu,50.361369,,,,,,,85.6090828,-40.24106520000002,124.4463152
imu,50.463206,,,,,,,85.29169560000001,-39.96029960000001,123.9214056
imu,50.564525,,,,,,,85.12079480000001,-40.03354280000002,123.8359552
imu,51.385881,0.2440463424,-9.606333968000001,2.4757544392,1.68241222,-1.08466196,-3.93004278,,,
imu,51.394315,0.2278962168,-9.614109954400002,2.4775488976,1.63755076,-1.30149235,-3.84031986,,,
imu,51.40275,0.2105497856,-9.619493329600001,2.4889138008,1.53287402,-1.36130763,-3.74312003,,,
imu,51.411184,0.1848292152,-9.612315496,2.4895119536,1.55530475,-1.22672325,-3.74312003,,,
imu,51.419618,0.1782495344,-9.6248767048,2.4966897872,1.43567419,-1.05475432,-3.78050458,,,
imu,51.428053,0.1603049504,-9.626671163200001,2.5020731624,1.20388998,-0.8080162900000003,-3.87770441,,,
imu,51.436487,0.1477437416,-9.618297024,2.4954934816,1.0693056,-0.5463244400000002,-3.95995042,,,
imu,51.444921,0.1507345056,-9.6075302736,2.4984842456,0.9646288599999999,-0.2397711300000003,-3.93751969,,,
imu,51.453355,0.1549215752,-9.6039413568,2.4931008704,1.03939796,0.1041667299999998,-4.04967334,,,
imu,51.46179,0.185427368,-9.594370912,2.4984842456,1.03192105,0.4032431299999999,-4.34874974,,,
imu,51.470224,0.1872218264,-9.596165370400001,2.4978860928,1.01696723,0.6873657099999999,-4.48333412,,,
imu,51.478658,0.191408896,-9.590183842400002,2.497287940000001,1.09173633,1.01634975,-4.670256869999999,,,
imu,51.487093,0.2057645632,-9.582407856000001,2.488315648,1.368382,1.07616503,-4.70764142,,,
imu,51.495527,0.215335008,-9.5949690648,2.4907082592,1.60764312,1.26308778,-4.78988743,,,
imu,51.503961,0.23926112,-9.594370912,2.4847267312,1.53287402,1.17336486,-4.94690254,,,
imu,51.512395,0.245242648,-9.609922884800001,2.4781470504,1.38333582,0.9415806499999997,-5.12634838,,,
imu,51.52083,0.2458408008,-9.623082246400001,2.4757544392,1.36090509,0.9341037399999998,-5.10391765,,,
imu,51.529264,0.2542149400000001,-9.612315496,2.4787452032,1.17398234,0.6350273399999997,-5.00671782,,,
imu,51.537698,0.2476352592,-9.613511801600001,2.4751562864,1.04687487,0.33595094,-4.87961035,,,
imu,51.546133,0.230288828,-9.618297024,2.4805396616,0.94967504,0.1041667299999998,-4.66277996,,,
imu,51.554567,0.2284943696,-9.608128426400002,2.4781470504,0.8449983,-0.20986349,-4.692687599999999,,,
imu,51.563001,0.2159331608,-9.594370912,2.4781470504,0.7253677399999999,-0.4192169699999999,-4.49828794,,,
imu,51.571436,0.206362716,-9.5949690648,2.4817359672,0.64312173,-0.6285704500000002,-4.31136519,,,
imu,51.57987,0.1938015072,-9.606333968000001,2.4847267312,0.8449983,-0.68090882,-4.0945348,,,
imu,51.588304,0.1806421456,-9.608128426400002,2.4865211896,0.6954601,-0.80053938,-4.00481188,,,
imu,51.597014,0.1626975616,-9.617100718400001,2.500278704,0.7104139199999999,-0.71829337,-3.8702275,,,
imu,51.605725,0.1531271168,-9.6326526912,2.518223288000001,0.73284465,-0.7556779200000001,-3.82536604,,,
imu,51.614435,0.1441548248,-9.644017594400001,2.527793732800001,0.53096808,-0.8154932000000001,-3.86275059,,,
imu,51.623145,0.1423603664,-9.623680399200001,2.527793732800001,0.29170696,-0.7930624700000002,-3.98238115,,,
imu,51.631855,0.1202287128,-9.594370912,2.522410357600001,0.30666078,-0.59866281,-3.83284295,,,
imu,51.640565,0.1142471848,-9.602745051200001,2.5146343712,0.44124516,-0.4117400600000001,-3.63844329,,,
imu,51.649276,0.1178361016,-9.597361676,2.5008768568,0.55339881,-0.07527911000000032,-3.33188998,,,
imu,51.657986,0.1220231712,-9.593772759200002,2.5008768568,0.7552753799999999,0.13407437,-3.20478251,,,
imu,51.666696,0.1274065464,-9.574631869600001,2.500278704,0.9646288599999999,0.47801223,-3.22721324,,,
imu,51.675406,0.1483418944,-9.568052188800001,2.487717495200001,1.09921324,0.7322271699999998,-3.35432071,,,
imu,51.684117,0.1507345056,-9.536350090400001,2.473361828,1.27865908,0.8892422799999999,-3.54124346,,,
imu,51.692827,0.1603049504,-9.5249851872,2.476352592,1.49548947,0.8593346399999997,-3.72816621,,,
imu,51.701537,0.1698753952,-9.5213962704,2.4709692168,1.65250458,0.9789651999999998,-3.89265823,,,
imu,51.710247,0.1698753952,-9.546518688,2.471567369600001,1.83942733,1.11354958,-4.057150249999999,,,
imu,51.718958,0.1836329096,-9.554294674400001,2.4709692168,1.86933497,1.1285034,-3.92256587,,,
imu,51.727668,0.1836329096,-9.572239258400002,2.464389536000001,1.84690424,1.19579559,-3.96742733,,,
imu,51.736378,0.203371952,-9.585996772800002,2.4608006192,1.87681188,1.18831868,-3.78798149,,,
imu,51.745088,0.2039701048,-9.585996772800002,2.4649876888,1.85438115,1.06868812,-3.74312003,,,
imu,51.753798,0.2147368552,-9.602146898400001,2.4530246328,1.83942733,1.02382666,-3.67582784,,,
imu,51.762509,0.2231109944,-9.631456385600002,2.4536227856,2.03382699,1.06868812,-3.53376655,,,
imu,51.771219,0.227298064,-9.635643455200002,2.45242648,1.8917657,0.84438082,-3.51881273,,,
imu,51.779929,0.2195220776,-9.6535880392,2.4536227856,1.8917657,0.7770886299999997,-3.54124346,,,
imu,51.788639,0.2278962168,-9.672130776000001,2.4536227856,1.70484295,0.6350273399999997,-3.68330475,,,
imu,51.79735,0.2147368552,-9.6733270816,2.45242648,1.60764312,0.56025824,-3.6459202,,,
imu,51.805563,0.2057645632,-9.669738164800002,2.4596043136,1.30856672,0.2910894799999997,-3.83284295,,,
imu,51.813776,0.206362716,-9.669738164800002,2.4655858416,1.12912088,0.3135202100000001,-3.80293531,,,
imu,51.821989,0.1949978128,-9.654784344800001,2.4560153968,0.8973366700000001,0.3135202100000001,-3.83284295,,,
imu,51.830202,0.188418132,-9.6458120528,2.4572117024,0.67302937,0.2387511099999999,-3.83284295,,,
imu,51.838415,0.1830347568,-9.644615747200001,2.4560153968,0.43376825,0.13407437,-3.82536604,,,
imu,51.846628,0.1722680064,-9.6296619272,2.4536227856,0.26179932,0.2387511099999999,-3.66087402,,,
imu,51.854841,0.1710717008,-9.609922884800001,2.4631932304,0.12721494,0.21632038,-3.60105874,,,
imu,51.863054,0.1680809368,-9.612315496,2.460202466400001,-0.08213854000000001,0.2611818399999999,-3.62348947,,,
imu,51.871267,0.1483418944,-9.602146898400001,2.454819091200001,0.10478421,0.3284740299999998,-3.54124346,,,
imu,51.87948,0.140565908,-9.571641105600001,2.450632021600001,0.13469185,0.5527813299999997,-3.496382,,,
imu,51.887693,0.125612088,-9.557883591200001,2.467380300000001,0.12721494,0.6125966099999998,-3.51133582,,,
imu,51.895906,0.1280046992,-9.595567217600001,2.481137814400001,0.09730729999999999,0.6798887999999996,-3.60853565,,,
imu,51.904119,0.1214250184,-9.593772759200002,2.4847267312,0.19450713,0.98644211,-3.54872037,,,
imu,51.912332,0.1208268656,-9.571042952800001,2.4859230368,0.18703022,1.23318014,-3.70573548,,,
imu,51.920545,0.1327899216,-9.554892827200002,2.5014750096,0.26179932,1.42010289,-3.69078166,,,
imu,51.928758,0.1357806856,-9.568052188800001,2.4841285784,0.25432241,1.71170238,-3.39170526,,,
imu,51.936971,0.1620994088,-9.5776226336,2.4847267312,0.29918387,1.88367131,-3.22721324,,,
imu,51.945184,0.167482784,-9.584800467200001,2.4996805512,0.4861066199999999,2.13040934,-2.99542903,,,
imu,51.953397,0.1890162848,-9.5776226336,2.481137814400001,0.44872207,2.2500399,-2.89075229,,,
imu,51.96161,0.20935348,-9.5907819952,2.4936990232,0.58330645,2.324809,-2.80850628,,,
imu,51.969823,0.23926112,-9.5907819952,2.479343356,0.77770611,2.42200883,-2.84589083,,,
imu,51.978036,0.2607946208,-9.612315496,2.4978860928,0.83004448,2.38462428,-2.91318302,,,
imu,51.98625,0.2757484408,-9.620091482400001,2.491306412,0.8449983,2.24256299,-3.01785976,,,
imu,51.994463,0.2859170384,-9.609324732000001,2.494895328800001,0.7104139199999999,2.18274771,-3.25712088,,,
imu,52.002924,0.3182172896000001,-9.606932120800002,2.4829322728,0.77770611,2.34723973,-3.15244414,,,
imu,52.011385,0.3307784984000001,-9.612913648800001,2.471567369600001,0.7104139199999999,2.18274771,-3.18235178,,,
imu,52.019846,0.3379563320000001,-9.6117173432,2.4661839944,0.56087572,1.8761944,-3.17487487,,,
imu,52.028307,0.3523119992,-9.6015487456,2.4566135496,0.55339881,1.56216418,-3.15992105,,,
imu,52.036768,0.3559009160000001,-9.6159044128,2.4518283272,0.53844499,1.18831868,-3.10758268,,,
imu,52.045229,0.3600879856,-9.614708107200002,2.460202466400001,0.53844499,0.7995193599999997,-2.93561375,,,
imu,52.05369,0.3499193880000001,-9.620689635200002,2.4560153968,0.65059864,0.3434278499999999,-2.91318302,,,
imu,52.062195,0.3277877344,-9.613511801600001,2.45242648,0.8749059399999999,0.08173599999999981,-2.748691,,,
imu,52.070656,0.3092449976000001,-9.613511801600001,2.4518283272,0.85995212,-0.4042631500000002,-2.5991528,,,
imu,52.079117,0.281131816,-9.611119190400002,2.4512301744,0.8524752099999999,-0.7407241,-2.53933752,,,
imu,52.087578,0.248233412,-9.602146898400001,2.4608006192,0.78518302,-0.8977392100000001,-2.5991528,,,
imu,52.096039,0.2320832864,-9.6039413568,2.454819091200001,0.71789083,-0.9799852200000005,-2.60662971,,,
imu,52.1045,0.2081571744,-9.593174606400002,2.460202466400001,0.6281679099999999,-1.12952342,-2.63653735,,,
imu,52.112961,0.1878199792,-9.576426328,2.470371064,0.3963837,-1.00241595,-2.62906044,,,
imu,52.121422,0.1692772424,-9.578220786400001,2.48233412,0.3739529699999999,-0.7706317400000002,-2.77112173,,,
imu,52.129883,0.1567160336,-9.5877912312,2.476352592,0.18703022,-0.4192169699999999,-3.02533667,,,
imu,52.138344,0.1441548248,-9.5865949256,2.4931008704,0.13469185,-0.07527911000000032,-3.45152054,,,
imu,52.146805,0.1447529776,-9.611119190400002,2.497287940000001,0.14216876,0.35838167,-3.7206893,,,
imu,52.155266,0.1303973104,-9.596165370400001,2.52719558,-0.08213854000000001,0.6125966099999998,-4.363703559999999,,,
imu,52.163727,0.1303973104,-9.594370912,2.5421494,-0.23167674,1.0537343,-4.80484125,,,
imu,52.172188,0.140565908,-9.6039413568,2.5523179976,-0.43355331,1.44253362,-5.44785551,,,
imu,52.180649,0.1483418944,-9.619493329600001,2.5535143032,-0.52327623,1.81637912,-5.71702427,,,
imu,52.18911,0.1501363528,-9.596165370400001,2.5559069144,-0.47093786,2.11545552,-5.918900839999999,,,
imu,50.666087,,,,,,,85.27948839999999,-40.08237160000001,123.8969912
imu,50.767711,,,,,,,85.6945332,-39.39876840000001,124.0312704
imu,50.869304,,,,,,,87.68430680000002,-40.41196600000001,122.7128928
imu,50.970744,,,,,,,85.2428668,-39.22786760000001,123.7993336
imu,51.072337,,,,,,,87.1716044,-39.72836280000001,120.8451912
imu,51.174022,,,,,,,84.4982276,-39.15462440000002,124.189964
imu,51.275432,,,,,,,84.94989399999999,-39.41097560000002,121.565416
imu,51.377025,,,,,,,85.2672812,-40.22885800000002,124.2876216
imu,52.197571,0.1603049504,-9.604539509600002,2.5618884424,-0.60552224,2.1752708,-6.135731229999999,,,
imu,52.206394,0.1890162848,-9.592576453600001,2.5672718176,-0.44850713,2.40705501,-6.068439039999999,,,
imu,52.215218,0.1979885768,-9.574631869600001,2.566673664800001,-0.29896893,2.36219355,-6.06096213,,,
imu,52.224041,0.1949978128,-9.5602762024,2.5654773592,-0.127,2.1752708,-5.99366994,,,
imu,52.232865,0.1890162848,-9.575230022400001,2.570860734400001,-0.15690764,1.94348659,-5.874039379999999,,,
imu,52.241688,0.1932033544,-9.5704448,2.563084748,0.1720764,1.53973345,-5.57496298,,,
imu,52.250512,0.1890162848,-9.558481744000002,2.5618884424,0.12721494,1.0537343,-5.34317877,,,
imu,52.259336,0.1638938672,-9.568650341600001,2.569066276,0.27675314,0.7920424499999998,-4.98428709,,,
imu,52.268159,0.1501363528,-9.5740337168,2.5588976784,0.3216146,0.5079198699999998,-4.81231816,,,
imu,52.276983,0.1262102408,-9.5590798968,2.566673664800001,0.38142988,0.2537049300000001,-4.42351884,,,
imu,52.285806,0.1130508792,-9.5566872856,2.5612902896,0.36647606,0.13407437,-4.37118047,,,
imu,52.29463,0.0903210728,-9.545322382400002,2.5475327752,0.6954601,0.1265974599999997,-4.02724261,,,
imu,52.303453,0.08194693360000001,-9.543527924000001,2.5582995256,0.57582954,0.2836125699999998,-3.81041222,,,
imu,52.312277,0.08493769760000001,-9.549509452,2.5547106088,0.46367589,0.4256738599999998,-3.73564312,,,
imu,52.3211,0.08254508640000002,-9.5489112992,2.548729080800001,0.64312173,0.7322271699999998,-3.63844329,,,
imu,52.329924,0.07775986400000001,-9.544126076800001,2.541551247200001,0.7702292,0.9341037399999998,-3.52628964,,,
imu,52.338748,0.08792846160000001,-9.534555632000002,2.5337752608,0.8823828499999999,1.3528107,-3.6459202,,,
imu,52.347571,0.107667504,-9.541135312800002,2.5146343712,1.11416706,1.74161002,-3.70573548,,,
imu,52.356395,0.1357806856,-9.540537160000001,2.5116436072,1.40576655,2.00330187,-3.62348947,,,
imu,52.365218,0.1597067976,-9.535153784800002,2.5020731624,1.51044329,2.20517844,-3.76555076,,,
imu,52.374042,0.1782495344,-9.560874355200001,2.506858384800001,1.8917657,2.33976282,-3.86275059,,,
imu,52.382865,0.2021756464,-9.580613397600002,2.5020731624,2.09364227,2.27247063,-3.98238115,,,
imu,52.391689,0.2099516328,-9.590183842400002,2.4859230368,2.116073,2.30237827,-4.15435008,,,
imu,52.400513,0.2249054528,-9.596165370400001,2.487717495200001,2.02635008,1.9509635,-4.37118047,,,
imu,52.409082,0.2404574256,-9.6015487456,2.4727636752,2.00391935,1.73413311,-4.25902682,,,
imu,52.417651,0.2308869808,-9.609922884800001,2.458408008,1.95905789,1.4275798,-4.31136519,,,
imu,52.42622,0.2368685088,-9.616502565600001,2.45242648,2.01139626,1.1285034,-4.16182699,,,
imu,52.434789,0.2261017584,-9.593772759200002,2.4518283272,2.08616536,0.9565344699999998,-3.96742733,,,
imu,52.443358,0.206362716,-9.5985579816,2.446444952,2.12354991,0.6948426199999997,-3.81788913,,,
imu,52.451927,0.1818384512,-9.613511801600001,2.4368745072,2.29551884,0.47801223,-3.86275059,,,
imu,52.460496,0.1656883256,-9.614708107200002,2.4350800488,2.25065738,0.1864127399999997,-3.92256587,,,
imu,52.469065,0.1411640608,-9.6218859408,2.4261077568,2.31047266,0.3284740299999998,-3.93004278,,,
imu,52.477634,0.1333880744,-9.6284656216,2.4386689656,2.27308811,0.2013665599999999,-3.95247351,,,
imu,52.486203,0.1124527264,-9.626671163200001,2.4332855904,2.13850373,0.35838167,-3.96742733,,,
imu,52.494772,0.09989151760000002,-9.6296619272,2.4320892848,2.08616536,0.6125966099999998,-3.90761205,,,
imu,52.503341,0.09749890640000002,-9.636839760800001,2.443454188,1.9665348,0.7920424499999998,-3.7954584,,,
imu,52.511911,0.09091922560000001,-9.638634219200002,2.4452486464,1.77961205,1.06868812,-3.84031986,,,
imu,52.52048,0.09570444800000001,-9.655980650400002,2.4488375632,1.48801256,1.29299542,-3.93004278,,,
imu,52.529049,0.1058730456,-9.640428677600001,2.4422578824,1.39081273,1.46496435,-3.75059694,,,
imu,52.537618,0.1112564208,-9.630260080000001,2.4452486464,1.07678251,1.77151766,-3.84779677,,,
imu,52.546187,0.1220231712,-9.600352440000002,2.4500338688,1.09173633,1.98087114,-3.71321239,,,
imu,52.554756,0.1381732968,-9.605735815200001,2.446444952,1.03192105,2.06311715,-3.75807385,,,
imu,52.563325,0.1507345056,-9.609922884800001,2.441061576800001,0.97210577,2.16779389,-3.83284295,,,
imu,52.571894,0.1650901728,-9.606932120800002,2.449435716,0.8674290299999999,2.1005017,-4.012288789999999,,,
imu,52.580463,0.1626975616,-9.632054538400002,2.450632021600001,0.7403215599999999,2.15284007,-4.04967334,,,
imu,52.589032,0.1806421456,-9.685888290400001,2.449435716,0.620691,2.12293243,-4.0197657,,,
imu,52.597601,0.1776513816,-9.709814402400001,2.4482394104,0.6954601,2.06311715,-4.07210407,,,
imu,52.60617,0.1908107432,-9.696655040800001,2.4482394104,0.59078336,2.08554788,-4.07210407,,,
imu,52.614537,0.1902125904,-9.6745233872,2.4608006192,0.29170696,2.1005017,-3.96742733,,,
imu,52.622904,0.1932033544,-9.676915998400002,2.4709692168,0.32909151,2.09302479,-3.41413599,,,
imu,52.631271,0.2099516328,-9.6954587352,2.4530246328,0.23189168,2.16779389,-3.15992105,,,
imu,52.639638,0.2231109944,-9.672728928800002,2.4362763544,0.12721494,2.06311715,-3.1225365,,,
imu,52.648005,0.2237091472,-9.6248767048,2.4476412576,-0.01484635000000001,1.89114822,-3.23469015,,,
imu,52.656372,0.2464389536,-9.610521037600002,2.4416597296,-0.11204618,1.71170238,-3.39170526,,,
imu,52.664739,0.257205704,-9.608128426400002,2.4422578824,-0.3513073,1.47991817,-3.54872037,,,
imu,52.673106,0.2464389536,-9.591380148,2.4356782016,-0.45598404,1.15093413,-3.85527368,,,
imu,52.681473,0.2404574256,-9.557883591200001,2.4320892848,-0.46346095,0.7770886299999997,-4.00481188,,,
imu,52.68984,0.2428500368,-9.560874355200001,2.443454188,-0.41859949,0.47801223,-4.06462716,,,
imu,52.698206,0.2261017584,-9.556089132800002,2.447043104800001,-0.32887657,0.3060432999999998,-4.11696553,,,
imu,52.706573,0.1997830352,-9.567454036,2.4518283272,-0.41112258,0.21632038,-4.04219643,,,
imu,52.71494,0.1908107432,-9.578818939200001,2.4560153968,-0.4260764,0.1041667299999998,-3.75059694,,,
imu,52.723307,0.1830347568,-9.599754287200001,2.458408008,-0.3513073,-0.007986920000000008,-3.75807385,,,
imu,52.731674,0.1638938672,-9.606932120800002,2.4709692168,-0.46346095,-0.0603252900000002,-3.74312003,,,
imu,52.740041,0.143556672,-9.617698871200002,2.4745581336,-0.65786061,-0.0603252900000002,-3.84779677,,,
imu,52.748408,0.128602852,-9.625474857600002,2.4781470504,-0.68029134,-0.0005100100000001717,-3.90013514,,,
imu,52.756775,0.1238176296,-9.632054538400002,2.4685766056,-0.69524516,0.07425908999999997,-3.87770441,,,
imu,52.765142,0.1184342544,-9.632054538400002,2.4805396616,-0.76253735,0.2537049300000001,-4.07210407,,,
imu,52.773509,0.1178361016,-9.630858232800001,2.464389536000001,-0.61299915,0.47801223,-4.07210407,,,
imu,52.781875,0.1040785872,-9.635045302400002,2.4667821472,-0.71019898,0.5079198699999998,-4.23659609,,,
imu,52.790242,0.1178361016,-9.6326526912,2.481137814400001,-0.56066078,0.7696117199999999,-4.23659609,,,
imu,52.798609,0.1214250184,-9.6470083584,2.4781470504,-0.53823005,0.86681155,-4.20668845,,,
imu,52.806976,0.1327899216,-9.6470083584,2.4769507448,-0.53823005,1.11354958,-3.98985806,,,
imu,52.815477,0.1351825328,-9.655382497600002,2.4919045648,-0.67281443,1.24065705,-3.90013514,,,
imu,52.823977,0.143556672,-9.680504915200002,2.4960916344,-0.7251528,1.39767216,-3.75059694,,,
imu,52.832477,0.146547436,-9.6918698184,2.5038676208,-0.874691,1.54721036,-3.66835093,,,
imu,52.840978,0.1632957144,-9.675121540000001,2.5020731624,-0.85973718,1.62197946,-3.70573548,,,
imu,52.849478,0.1543234224,-9.6470083584,2.5158306768,-1.07656757,1.577118,-3.66087402,,,
imu,52.857979,0.1609031032,-9.651793580800001,2.52719558,-1.33078251,1.47991817,-3.7954584,,,
imu,52.866479,0.1650901728,-9.6667474008,2.5409530944,-1.55508981,1.29299542,-3.95995042,,,
imu,52.874979,0.155519728,-9.6494009696,2.5373641776,-1.89902767,1.17336486,-4.07210407,,,
imu,51.478597,,,,,,,85.5968756,-39.75277720000001,124.0434776
imu,51.58019,,,,,,,85.02313720000001,-39.83822760000002,124.1167208
imu,51.681722,,,,,,,85.62129,-40.0579572,124.2143784
imu,51.783346,,,,,,,85.51142519999999,-39.48421880000001,123.6162256
imu,51.884847,,,,,,,85.02313720000001,-39.98471400000001,124.3364504
imu,51.98641,,,,,,,88.001694,-41.0467404,122.7495144
imu,52.087972,,,,,,,85.438182,-40.19223640000003,123.6894688
imu,52.189504,,,,,,,87.9528652,-40.289894,121.6630736
imu,52.88348,0.1549215752,-9.614109954400002,2.536167872,-2.13828879,1.06868812,-4.244073,,,
imu,52.89198,0.1327899216,-9.585398620000001,2.5343734136,-2.2205348,1.04625739,-4.18425772,,,
imu,52.900481,0.1160416432,-9.560874355200001,2.5439438584,-2.27287317,1.09111885,-3.84779677,,,
imu,52.908981,0.1208268656,-9.557883591200001,2.548130928,-2.26539626,1.14345722,-3.60853565,,,
imu,52.917482,0.107667504,-9.553696521600001,2.5618884424,-2.2205348,1.30047233,-3.45152054,,,
imu,52.925982,0.1160416432,-9.558481744000002,2.5594958312,-2.11585806,1.52477963,-3.18235178,,,
imu,52.934482,0.13458438,-9.5590798968,2.581029332,-2.07847351,1.71917929,-3.1225365,,,
imu,52.942983,0.143556672,-9.560874355200001,2.592992388,-2.01118132,1.88367131,-3.30945925,,,
imu,52.951483,0.1543234224,-9.552500216,2.6061517496,-2.16819643,1.79394839,-3.43656672,,,
imu,52.959984,0.1543234224,-9.554892827200002,2.6043572912,-2.20558098,1.83133294,-3.60853565,,,
imu,52.968484,0.1477437416,-9.528574104,2.6252926392,-2.1457657,1.7266562,-3.68330475,,,
imu,52.976984,0.1549215752,-9.519003659200001,2.6324704728,-2.11585806,1.7266562,-3.8702275,,,
imu,52.985485,0.1746606176,-9.512423978400001,2.6450316816,-2.08595042,1.65936401,-3.78798149,,,
imu,52.993985,0.1728661592,-9.510031367200002,2.643835376000001,-2.13828879,1.77151766,-3.63844329,,,
imu,53.002486,0.1656883256,-9.507040603200002,2.6629762656,-2.13828879,1.64441019,-3.62348947,,,
imu,53.010986,0.1710717008,-9.5237888816,2.6653688768,-2.0709966,1.55468727,-3.55619728,,,
imu,53.019564,0.1818384512,-9.5381445488,2.6749393216,-1.95136604,1.41262598,-3.52628964,,,
imu,53.028142,0.1872218264,-9.5154147424,2.686902377600001,-1.80930475,1.31542615,-3.35432071,,,
imu,53.03672,0.1788476872,-9.501657228000001,2.6916876,-1.76444329,1.33785688,-3.24964397,,,
imu,53.045298,0.1806421456,-9.516012895200001,2.6863042248,-1.65228964,1.19579559,-3.31693616,,,
imu,53.053876,0.1866236736,-9.499264616800001,2.7030525032,-1.36816706,1.21822632,-3.29450543,,,
imu,53.062454,0.1860255208,-9.501657228000001,2.7012580448,-1.28592105,1.16588795,-3.32441307,,,
imu,53.071032,0.1872218264,-9.507040603200002,2.7198007816,-1.01675229,1.06868812,-3.23469015,,,
imu,53.07961,0.1949978128,-9.510031367200002,2.7281749208,-0.82982954,1.08364194,-3.06272122,,,
imu,53.088188,0.1991848824,-9.513620284000002,2.718604476,-0.77001426,1.06868812,-3.07019813,,,
imu,53.096766,0.1979885768,-9.514218436800002,2.722791545600001,-0.59056842,1.13598031,-3.05524431,,,
imu,53.105344,0.2075590216,-9.513620284000002,2.722791545600001,-0.45598404,1.15093413,-3.05524431,,,
imu,53.113922,0.2165313136,-9.523190728800001,2.7203989344,-0.31392275,1.03878048,-3.16739796,,,
imu,53.1225,0.1991848824,-9.5172092008,2.7198007816,-0.04475399000000001,0.98644211,-3.16739796,,,
imu,53.131078,0.1967922712,-9.5148165896,2.718604476,0.007584380000000002,0.9041961000000001,-3.45899745,,,
imu,53.139656,0.188418132,-9.5172092008,2.7114266424,0.02253820000000001,0.9714882899999999,-3.63844329,,,
imu,53.148234,0.1872218264,-9.502853533600002,2.7114266424,0.03001510999999998,1.00139593,-3.72816621,,,
imu,53.156731,0.182436604,-9.504647992000002,2.7144174064,0.26179932,0.9939190199999999,-3.68330475,,,
imu,53.165309,0.176455076,-9.5010590752,2.7054451144,0.31413769,1.1285034,-3.81041222,,,
imu,53.173887,0.1519308112,-9.491488630400001,2.6928839056,0.5010604399999999,1.13598031,-3.88518132,,,
imu,53.182465,0.1477437416,-9.481918185600001,2.6791263912,0.66555246,1.24065705,-3.89265823,,,
imu,53.191043,0.1447529776,-9.481320032800001,2.686902377600001,0.97958268,1.37524143,-4.0197657,,,
imu,53.199621,0.13458438,-9.5148165896,2.686902377600001,1.12912088,1.59207182,-4.057150249999999,,,
imu,53.208199,0.1489400472,-9.519003659200001,2.6779300856,1.22632071,1.71917929,-4.17678081,,,
imu,53.216777,0.1632957144,-9.546518688,2.685706072000001,1.2936129,1.75656384,-4.19173463,,,
imu,53.225448,0.1668846312,-9.550705757600001,2.685706072000001,1.26370526,1.73413311,-4.341272829999999,,,
imu,53.234119,0.1650901728,-9.553696521600001,2.680920849600001,1.28613599,1.79394839,-4.33379592,,,
imu,53.24279,0.1878199792,-9.552500216,2.673743016,1.45062801,1.8014253,-4.23659609,,,
imu,53.251461,0.185427368,-9.552500216,2.6701540992,1.43567419,1.76404075,-4.20668845,,,
imu,53.260132,0.1908107432,-9.539939007200001,2.6653688768,1.368382,1.74161002,-4.20668845,,,
imu,53.268803,0.2039701048,-9.5501076048,2.6719485576,1.22632071,1.71917929,-4.20668845,,,
imu,53.277474,0.191408896,-9.536350090400001,2.668957793600001,1.23379762,1.70422547,-4.102011709999999,,,
imu,53.286145,0.1878199792,-9.539939007200001,2.6629762656,1.34595127,1.49487199,-3.99733497,,,
imu,53.294816,0.1872218264,-9.547116840800001,2.664770724000001,1.26370526,1.21074941,-4.22164227,,,
imu,53.303487,0.1806421456,-9.5213962704,2.6581910432,1.35342818,0.9640113799999996,-4.37865738,,,
imu,53.312157,0.16449202,-9.501657228000001,2.6569947376,1.2936129,0.9714882899999999,-4.386134289999999,,,
imu,53.320828,0.1513326584,-9.503451686400002,2.661779960000001,1.2936129,0.6873657099999999,-4.430995749999999,,,
imu,53.329499,0.137575144,-9.506442450400002,2.6665651824,1.42819728,0.6275504299999999,-4.42351884,,,
imu,53.33817,0.1381732968,-9.5184055064,2.6683596408,1.4431511,0.44062768,-4.341272829999999,,,
imu,53.346841,0.1184342544,-9.533359326400001,2.6665651824,1.55530475,0.4481045899999998,-4.28893446,,,
imu,53.355512,0.1124527264,-9.5237888816,2.667761488,1.62259694,0.5901658799999998,-4.25154991,,,
imu,53.364183,0.09869521200000002,-9.5327611736,2.6683596408,1.60764312,0.66493498,-4.16182699,,,
imu,53.372854,0.09749890640000002,-9.534555632000002,2.6581910432,1.83195042,0.6125966099999998,-3.95995042,,,
imu,52.291128,,,,,,,85.04755159999999,-39.55746200000001,124.617216
imu,52.39266,,,,,,,85.5968756,-40.07016440000002,121.7973528
imu,52.494375,,,,,,,85.2428668,-39.63070520000001,123.7749192
imu,52.595876,,,,,,,86.03633479999999,-39.74057000000002,124.189964
imu,52.697378,,,,,,,85.8532268,-39.63070520000001,124.4585224
imu,52.79891,,,,,,,85.92647,-39.27669640000002,124.2021712
imu,52.900503,,,,,,,85.77998360000001,-39.74057000000002,123.152352
imu,53.002035,,,,,,,85.5968756,-38.95930920000001,124.2143784
imu,53.103676,,,,,,,87.80637879999999,-39.26448920000001,123.7871264
imu,53.20884,,,,,,,85.35273160000001,-38.64192200000001,123.884784
imu,53.306832,,,,,,,88.1359732,-39.16683160000001,121.9072176
