Type,Timestamp,Data Accelerometer X,Data Accelerometer Y,Data Accelerometer Z,Data Gyroscope X,Data Gyroscope Y,Data Gyroscope Z,Data Magnetometer X,Data Magnetometer Y,Data Magnetometer Z
imu,287.737649,-1.3386659664,-9.5489112992,2.045682576,2.17588828,1.93600968,-3.50385891,,,
imu,287.746373,-1.3506290224,-9.579417092000002,2.0582437848,2.46748777,1.54721036,-3.4216129,,,
imu,287.755097,-1.3584050088,-9.609324732000001,2.069608688,2.60954906,1.27056469,-3.59358183,,,
imu,287.763822,-1.37575144,-9.6260730104,2.0594400904,2.79647181,1.15841104,-3.51881273,,,
imu,287.771976,-1.3930978712,-9.636839760800001,2.0612345488,2.87871782,1.06121121,-3.55619728,,,
imu,287.780131,-1.423603664,-9.636241608,2.054654868000001,2.89367164,0.9714882899999999,-3.47395127,,,
imu,287.788285,-1.4337722616,-9.648802816800002,2.0355139784,2.90114855,0.94905756,-3.26459779,,,
imu,287.79644,-1.4439408592,-9.648204664000001,2.0259435336,2.80394872,1.21822632,-3.09262886,,,
imu,287.804594,-1.4571002208,-9.644017594400001,2.027737992,2.80394872,1.53973345,-2.92813684,,,
imu,287.812749,-1.459492832,-9.639830524800002,2.0163730888,2.66188743,1.78647148,-2.95056757,,,
imu,287.820903,-1.4409500952,-9.641624983200002,2.0079989496,2.68431816,2.04816333,-2.92813684,,,
imu,287.829058,-1.4409500952,-9.6260730104,1.9984285048,2.68431816,2.27247063,-3.04029049,,,
imu,287.837213,-1.4319778032,-9.630858232800001,1.9990266576,2.75908726,2.48182411,-3.26459779,,,
imu,287.845367,-1.4110424552,-9.633250844,1.9870636016,2.863764,2.80333124,-3.33936689,,,
imu,287.853522,-1.384723732,-9.6494009696,1.9810820736,2.76656417,3.07997691,-3.62348947,,,
imu,287.861676,-1.3751532872,-9.6637566368,1.9870636016,2.79647181,3.19960747,-3.85527368,,,
imu,287.869831,-1.357806856,-9.6709344704,1.9751005456,2.75161035,3.0725,-3.95995042,,,
imu,287.877985,-1.3410585776,-9.6733270816,1.9774931568,2.7889949,3.05006927,-3.98985806,,,
imu,287.88614,-1.3386659664,-9.687084596000002,1.9613430312,2.81142563,2.9977309,-3.7954584,,,
imu,287.894294,-1.3255066048,-9.6876827488,1.9553615032,2.59459524,2.89305416,-3.74312003,,,
imu,287.902449,-1.3267029104,-9.6733270816,1.9607448784,2.54225687,2.70613141,-3.73564312,,,
imu,287.910603,-1.3344788968,-9.688879054400001,1.949978128,2.51234923,2.5491163,-3.78798149,,,
imu,287.918758,-1.3434511888,-9.70502918,1.9439966,2.2656112,2.21265535,-3.92256587,,,
imu,287.926913,-1.3356752024,-9.711608860800002,1.9481836696,2.10859609,1.99582496,-4.02724261,,,
imu,287.935067,-1.3362733552,-9.709814402400001,1.9422021416,1.90671952,1.91357895,-4.10948862,,,
imu,287.943222,-1.3201232296,-9.721179305600002,1.9475855168,1.75718132,1.83133294,-4.169303899999999,,,
imu,287.951376,-1.3386659664,-9.720581152800001,1.946987364,1.45810492,1.62197946,-4.15435008,,,
imu,287.959531,-1.3434511888,-9.737927584000001,1.9463892112,1.17398234,1.43505671,-4.04219643,,,
imu,287.967997,-1.3434511888,-9.709814402400001,1.9457910584,0.97210577,1.25561087,-3.95247351,,,
imu,287.976463,-1.3655828424,-9.70502918,1.9457910584,0.7552753799999999,1.14345722,-3.88518132,,,
imu,287.984929,-1.3793403568,-9.700243957600001,1.9433984472,0.5459219,0.9415806499999997,-3.75807385,,,
imu,287.993395,-1.3895089544,-9.7086180968,1.9433984472,0.3889067899999999,0.9191499199999997,-3.70573548,,,
imu,288.001861,-1.4044627744,-9.7265626808,1.9362206136,0.25432241,0.98644211,-3.78050458,,,
imu,288.010327,-1.4068553856,-9.727160833600001,1.932033544,0.26179932,1.03878048,-3.76555076,,,
imu,288.018793,-1.4182202888,-9.742114653600002,1.9362206136,0.19450713,1.18831868,-3.82536604,,,
imu,288.027259,-1.4313796504,-9.746899876,1.9386132248,-0.17186146,1.36776452,-3.8702275,,,
imu,288.035726,-1.4301833448,-9.763050001600002,1.9517725864,-0.52327623,1.50982581,-3.83284295,,,
imu,288.044192,-1.4152295248,-9.749890640000002,1.955959656,-0.80739881,1.76404075,-3.86275059,,,
imu,288.052658,-1.4158276776,-9.737329431200001,1.9535670448,-1.06161375,1.9509635,-3.86275059,,,
imu,288.061124,-1.4242018168,-9.719983000000001,1.9583522672,-1.27844414,2.19770153,-3.76555076,,,
imu,288.06959,-1.4152295248,-9.6846919848,1.9541651976,-1.54013599,2.19770153,-3.87770441,,,
imu,288.078056,-1.408649844,-9.663158484000002,1.9493799752,-1.74201256,2.25751681,-4.04219643,,,
imu,288.086522,-1.4128369136,-9.6428212888,1.9416039888,-1.86164312,2.49677793,-4.04967334,,,
imu,288.094988,-1.4002757048,-9.6284656216,1.9386132248,-1.83921239,2.56407012,-4.07210407,,,
imu,288.103454,-1.3924997184,-9.6224840936,1.9416039888,-1.74201256,2.60145467,-4.13939626,,,
imu,288.11192,-1.399677552,-9.631456385600002,1.9661282536,-1.68219728,2.71360832,-4.19921154,,,
imu,288.120386,-1.4050609272,-9.641026830400001,1.9792876152,-1.52518217,2.79585433,-4.23659609,,,
imu,288.128852,-1.4032664688,-9.669140012000002,1.9721097816,-1.50275144,2.9229618,-4.23659609,,,
imu,288.137319,-1.4164258304,-9.6799067624,1.9924469768,-1.61490509,2.90053107,-4.28893446,,,
imu,288.145785,-1.411640608,-9.685290137600001,2.000821116,-1.67472037,2.90800798,-4.46090339,,,
imu,288.154251,-1.4206129,-9.6775141512,2.0265416864,-1.65976655,2.89305416,-4.453426479999999,,,
imu,288.162717,-1.4122387608,-9.655980650400002,2.0379065896,-2.00370441,3.02016163,-4.48333412,,,
imu,288.171531,-1.4224073584,-9.657176956,2.039701048,-2.19810407,3.02016163,-4.51324176,,,
imu,288.180345,-1.4164258304,-9.630858232800001,2.0570474792,-2.16819643,3.25942275,-4.16182699,,,
imu,288.18916,-1.4182202888,-9.638634219200002,2.0618327016,-2.13828879,3.26689966,-4.079580979999999,,,
imu,288.197974,-1.4188184416,-9.6117173432,2.0737957576,-2.09342733,3.40148404,-4.02724261,,,
imu,288.206788,-1.411640608,-9.595567217600001,2.0869551192,-2.01865823,3.46877623,-4.07210407,,,
imu,288.215602,-1.4032664688,-9.6224840936,2.1108812312,-1.8466893,3.51363769,-4.13939626,,,
imu,288.224417,-1.4218092056,-9.661364025600001,2.1240405928,-1.82425857,3.52859151,-4.18425772,,,
imu,288.233231,-1.4319778032,-9.6667474008,2.133611037600001,-1.89902767,3.42391477,-4.22164227,,,
imu,288.242045,-1.4391556368,-9.636839760800001,2.1216479816,-1.92893531,3.53606842,-4.19921154,,,
imu,288.25086,-1.4588946792,-9.608128426400002,2.1168627592,-1.98875059,3.50616078,-4.27398064,,,
imu,288.259674,-1.456502068,-9.579417092000002,2.1096849256,-1.68967419,3.6706528,-3.9449966,,,
imu,288.268488,-1.4433427064,-9.5704448,2.102507092,-1.45041307,3.93982156,-3.57862801,,,
imu,288.277302,-1.4499223872,-9.547714993600001,2.1031052448,-1.20367504,4.08188285,-3.36927453,,,
imu,288.286117,-1.4289870392,-9.541135312800002,2.1001144808,-1.00179847,4.126744309999999,-3.44404363,,,
imu,288.294931,-1.4170239832,-9.527377798400002,2.1031052448,-0.71767589,4.37348234,-3.48142818,,,
imu,288.303745,-1.3984812464,-9.520199964800002,2.10848862,-0.43355331,4.552928179999999,-3.50385891,,,
imu,288.312559,-1.3679754536,-9.526181492800001,2.1120775368,-0.02232326000000001,4.54545127,-3.59358183,,,
imu,288.321374,-1.3512271752,-9.554892827200002,2.1168627592,0.26927623,4.53797436,-3.65339711,,,
imu,288.330188,-1.3362733552,-9.562668813600002,2.111479384,0.41881443,4.53797436,-3.74312003,,,
imu,288.338935,-1.3273010632,-9.571641105600001,2.1192553704,0.58330645,4.33609779,-3.78798149,,,
imu,288.347749,-1.3231139936,-9.572239258400002,2.1246387456,0.66555246,4.149175039999999,-3.71321239,,,
imu,288.356563,-1.3237121464,-9.593174606400002,2.1330128848,0.83004448,3.86505246,-3.71321239,,,
imu,288.365377,-1.318926924,-9.612913648800001,2.1288258152,0.77770611,3.5211146,-3.5711511,,,
imu,288.373941,-1.3165343128,-9.636839760800001,2.132414732,0.8674290299999999,3.43139168,-3.33188998,,,
imu,288.382505,-1.303973104,-9.6494009696,2.1461722464,0.76275229,3.17717674,-3.3468438,,,
imu,288.391069,-1.3075620208,-9.652989886400002,2.1599297608,0.7253677399999999,3.00520781,-3.30945925,,,
imu,288.399633,-1.3021786456,-9.6703363176,2.156340844,0.53096808,2.81080815,-3.36927453,,,
imu,288.408197,-1.2955989648,-9.662560331200002,2.1683039,0.26927623,2.63136231,-3.31693616,,,
imu,288.416761,-1.2866266728,-9.655382497600002,2.1748835808,0.08983038999999998,2.43696265,-3.40665908,,,
imu,288.425325,-1.2908137424,-9.634447149600001,2.1838558728,-0.08213854000000001,2.21265535,-3.50385891,,,
imu,288.433889,-1.2872248256,-9.6290637744,2.1910337064,-0.02232326000000001,1.96591732,-3.56367419,,,
imu,288.442453,-1.2914118952,-9.617100718400001,2.1898374008,-0.06718472,1.84628676,-3.70573548,,,
imu,288.451017,-1.3105527848,-9.600352440000002,2.1976133872,-0.18681528,1.59954873,-3.8702275,,,
imu,288.459581,-1.3225158408,-9.587193078400002,2.1868466368,-0.11952309,1.33037997,-3.9449966,,,
imu,288.468145,-1.3458438,-9.5877912312,2.174285428,-0.02232326000000001,1.18831868,-3.93004278,,,
imu,288.476709,-1.3512271752,-9.592576453600001,2.1850521784,0.30666078,1.15093413,-3.92256587,,,
imu,288.485273,-1.3685736064,-9.582407856000001,2.1748835808,0.56087572,1.01634975,-4.00481188,,,
imu,288.493837,-1.3775458984,-9.595567217600001,2.186248484,0.57582954,0.94905756,-4.00481188,,,
imu,288.502401,-1.3823311208,-9.604539509600002,2.1886410952,0.56087572,1.12102649,-3.91508896,,,
imu,288.510965,-1.3889108016,-9.638036066400002,2.1856503312,0.59078336,1.07616503,-4.079580979999999,,,
imu,288.519529,-1.4170239832,-9.651793580800001,2.1910337064,0.60573718,1.24813396,-4.07210407,,,
imu,288.528093,-1.4098461496,-9.633848996800001,2.189239248,0.68050628,1.36776452,-4.00481188,,,
imu,288.536657,-1.4200147472,-9.61530626,2.1748835808,0.4861066199999999,1.577118,-4.102011709999999,,,
imu,288.545221,-1.4188184416,-9.604539509600002,2.1635186776,0.3216146,1.67431783,-4.08705789,,,
imu,288.553785,-1.4134350664,-9.593772759200002,2.164714983200001,0.44124516,1.92105586,-3.74312003,,,
imu,288.562349,-1.4152295248,-9.593772759200002,2.1515556216,0.52349117,2.23508608,-3.40665908,,,
imu,288.570913,-1.4002757048,-9.594370912,2.1497611632,0.53096808,2.38462428,-3.29450543,,,
imu,288.57928,-1.3984812464,-9.5985579816,2.144377788,0.56087572,2.5491163,-3.05524431,,,
imu,288.587647,-1.3954904824,-9.6009505928,2.1222461344,0.65059864,2.67622377,-3.16739796,,,
imu,288.596013,-1.3865181904,-9.6087265792,2.112675689600001,0.7104139199999999,2.91548489,-3.24964397,,,
imu,288.60438,-1.3715643704,-9.6051376624,2.1228442872,0.94219813,2.93043871,-3.21225942,,,
imu,288.612747,-1.357806856,-9.6039413568,2.1180590648,0.8823828499999999,2.84071579,-3.35432071,,,
imu,288.621114,-1.3512271752,-9.595567217600001,2.1252368984,1.18145925,2.91548489,-3.28702852,,,
imu,288.62948,-1.3380678136,-9.605735815200001,2.1150683008,1.23379762,2.93043871,-3.3468438,,,
imu,288.637847,-1.342853036,-9.618895176800002,2.1228442872,1.27865908,2.81080815,-3.50385891,,,
imu,288.646214,-1.3476382584,-9.6499991224,2.1216479816,1.27118217,2.75099287,-3.41413599,,,
imu,288.65458,-1.3596013144,-9.656578803200002,2.1162646064,1.39828964,2.7734236,-3.43656672,,,
imu,288.662947,-1.3601994672,-9.665551095200001,2.120451676000001,1.18145925,2.69117759,-3.48890509,,,
imu,288.671314,-1.3721625232,-9.669140012000002,2.1240405928,0.9870595899999999,2.7734236,-3.48142818,,,
imu,288.67968,-1.3793403568,-9.6703363176,2.1192553704,0.7403215599999999,2.64631613,-3.57862801,,,
imu,288.688047,-1.3942941768,-9.676915998400002,2.1228442872,0.5982602699999999,2.60893158,-3.53376655,,,
imu,288.696414,-1.3924997184,-9.6709344704,2.1162646064,0.49358353,2.64631613,-3.47395127,,,
imu,288.704781,-1.3942941768,-9.671532623200001,2.1180590648,0.29170696,2.61640849,-3.54872037,,,
imu,288.713147,-1.3954904824,-9.672130776000001,2.129423968,0.10478421,2.70613141,-3.60853565,,,
imu,288.721514,-1.3978830936,-9.657775108800001,2.132414732,-0.127,2.75846978,-3.55619728,,,
imu,288.729881,-1.3871163432,-9.654784344800001,2.1330128848,-0.08213854000000001,2.78090051,-3.39918217,,,
imu,288.738247,-1.3835274264,-9.646410205600002,2.1348073432,-0.18681528,2.72108523,-3.46647436,,,
imu,288.746614,-1.3829292736,-9.640428677600001,2.1216479816,-0.2017691,2.84071579,-3.45152054,,,
imu,288.754981,-1.3721625232,-9.630260080000001,2.1360036488,-0.4260764,2.82576197,-3.3468438,,,
imu,288.763347,-1.363788384,-9.627269316000001,2.1497611632,-0.46346095,2.8481927,-3.3468438,,,
imu,288.771714,-1.3560123976,-9.630858232800001,2.150359316,-0.5008455,2.87062343,-3.36927453,,,
imu,288.780081,-1.3524234808,-9.640428677600001,2.150359316,-0.62047606,2.73603905,-3.50385891,,,
imu,288.788545,-1.3542179392,-9.648204664000001,2.156340844,-0.5756146,2.66126995,-3.56367419,,,
imu,288.797009,-1.363788384,-9.655382497600002,2.1730891224,-0.65786061,2.6238854,-3.55619728,,,
imu,288.805473,-1.3625920784,-9.651793580800001,2.178472497600001,-0.62047606,2.58650085,-3.52628964,,,
imu,288.813937,-1.372760676,-9.655382497600002,2.1820614144,-0.65786061,2.45191647,-3.5711511,,,
imu,288.822401,-1.3793403568,-9.651195428000001,2.180266956,-0.9644139199999999,2.58650085,-3.61601256,,,
imu,288.830865,-1.3793403568,-9.641026830400001,2.18325772,-1.11395212,2.75099287,-3.55619728,,,
imu,288.839329,-1.378742204,-9.630260080000001,2.2047912208,-1.08404448,2.94539253,-3.59358183,,,
imu,288.847793,-1.3715643704,-9.6087265792,2.201202304,-1.03170611,2.93043871,-3.61601256,,,
imu,288.856257,-1.363788384,-9.6015487456,2.1940244704,-1.18124431,3.09493073,-3.57862801,,,
imu,288.864721,-1.3554142448,-9.591978300800001,2.188042942400001,-1.15881358,3.06502309,-3.496382,,,
imu,288.873185,-1.3434511888,-9.591380148,2.1868466368,-1.00927538,3.00520781,-3.52628964,,,
imu,288.881649,-1.3440493416,-9.583604161600002,2.1958189288,-0.84478336,3.03511545,-3.59358183,,,
imu,288.890113,-1.3320862856,-9.5776226336,2.208978290400001,-0.8672140899999999,3.05006927,-3.66835093,,,
imu,288.898577,-1.3213195352,-9.5877912312,2.2185487352,-0.6503837,3.20708438,-3.56367419,,,
imu,288.907041,-1.3201232296,-9.5907819952,2.2299136384,-0.6503837,3.13231528,-3.5711511,,,
imu,288.915505,-1.3141417016,-9.5877912312,2.2346988608,-0.63542988,3.03511545,-3.56367419,,,
imu,288.923969,-1.3123472432,-9.594370912,2.2484563752,-0.61299915,2.90800798,-3.60105874,,,
imu,288.932433,-1.3105527848,-9.575230022400001,2.2454656112,-0.58309151,2.88557725,-3.51881273,,,
imu,288.940896,-1.3153380072,-9.579417092000002,2.2693917232,-0.54570696,2.76594669,-3.48890509,,,
imu,288.94936,-1.2991878816,-9.624278552000002,2.2646065008,-0.50832241,2.6986545,-3.40665908,,,
imu,288.957824,-1.2914118952,-9.656578803200002,2.2646065008,-0.58309151,2.56407012,-3.39170526,,,
imu,288.966288,-1.2848322144,-9.636241608,2.2765695568,-0.63542988,2.37714737,-3.47395127,,,
imu,288.974752,-1.2878229784,-9.6428212888,2.2795603208,-0.68776825,2.37714737,-3.50385891,,,
imu,288.983229,-1.2944026592,-9.661364025600001,2.2927196824,-0.9494601,2.23508608,-3.52628964,,,
imu,288.991705,-1.3081601736,-9.678710456800001,2.3082716552,-1.03918302,1.92853277,-3.61601256,,,
imu,289.000181,-1.33088998,-9.672728928800002,2.304084585600001,-1.21115195,1.95844041,-3.4216129,,,
imu,289.008657,-1.3225158408,-9.617100718400001,2.2975049048,-1.22610577,1.99582496,-3.22721324,,,
imu,289.017134,-1.3273010632,-9.591380148,2.2981030576,-1.36816706,1.89862513,-3.24964397,,,
imu,289.02561,-1.3296936744,-9.558481744000002,2.2837473904,-1.33825942,1.97339423,-3.1225365,,,
imu,289.034086,-1.3165343128,-9.545322382400002,2.2825510848,-1.0989983,2.16031698,-2.87579847,,,
imu,289.042563,-1.3003841872,-9.533957479200001,2.2873363072,-0.8672140899999999,2.19022462,-2.66644499,,,
imu,289.051039,-1.2955989648,-9.538742701600002,2.2687935704,-0.48589168,2.31733209,-2.68139881,,,
imu,289.059515,-1.2848322144,-9.536350090400001,2.2735787928,-0.44103022,2.42200883,-2.89075229,,,
imu,289.067991,-1.292010048,-9.5447242296,2.2723824872,-0.20924601,2.48182411,-3.00290594,,,
imu,289.076468,-1.2818414504,-9.559678049600002,2.2813547792,-0.03727708,2.41453192,-3.24216706,,,
imu,289.084944,-1.2908137424,-9.5566872856,2.2825510848,-0.02980017,2.3995781,-3.45152054,,,
imu,289.09342,-1.3087583264,-9.559678049600002,2.2873363072,0.20946095,2.324809,-3.63844329,,,
imu,289.101896,-1.3045712568,-9.568052188800001,2.2837473904,0.20946095,2.25751681,-3.78798149,,,
imu,289.110373,-1.3003841872,-9.5590798968,2.2915233768,0.26179932,2.27247063,-3.73564312,,,
imu,289.118849,-1.3063657152,-9.565061424800001,2.290925224,0.47862971,2.36219355,-3.66835093,,,
imu,289.127325,-1.2902155896,-9.554892827200002,2.2975049048,0.46367589,2.26499372,-3.6459202,,,
imu,289.135801,-1.28602852,-9.5632669664,2.296906752,0.56835263,2.27994754,-3.42908981,,,
imu,289.144278,-1.2878229784,-9.572837411200002,2.2992993632,0.63564482,2.18274771,-3.38422835,,,
imu,287.748514,,,,,,,70.03269560000001,-1.043746000000012,9.77187839999999
imu,287.85023,,,,,,,70.36229,-1.226854000000022,6.707871199999992
imu,287.951304,,,,,,,70.49656920000001,-0.9827100000000089,9.271383199999994
imu,288.052866,,,,,,,70.3744972,-0.8728452000000164,9.613184799999996
imu,288.15452,,,,,,,70.3378756,-0.9705028000000171,9.49111279999999
imu,288.255991,,,,,,,70.54539799999999,-0.7141516000000125,8.477915199999996
imu,288.357554,,,,,,,70.6918844,-0.7019444000000208,8.661023199999995
imu,288.459269,,,,,,,69.84958759999999,-0.1037916000000028,8.758680799999997
imu,289.152754,-1.2728691584,-9.581809703200001,2.3070753496,0.68050628,2.07807097,-3.24216706,,,
imu,289.16123,-1.283037756,-9.602745051200001,2.3136550304,0.55339881,2.15284007,-3.31693616,,,
imu,289.169706,-1.283037756,-9.6218859408,2.3184402528,0.47862971,2.0257326,-3.40665908,,,
imu,289.178183,-1.2878229784,-9.626671163200001,2.326814392,0.3963837,1.92105586,-3.69078166,,,
imu,289.186689,-1.2866266728,-9.633848996800001,2.325019933600001,0.25432241,1.97339423,-3.75059694,,,
imu,289.195196,-1.2854303672,-9.6290637744,2.3244217808,0.27675314,1.98087114,-3.78050458,,,
imu,289.203703,-1.2884211312,-9.633250844,2.3321977672,0.12721494,1.74908693,-4.10948862,,,
imu,289.21221,-1.292010048,-9.6248767048,2.331001461600001,0.10478421,1.7266562,-4.13191935,,,
imu,289.220716,-1.3033749512,-9.6015487456,2.331001461600001,-0.0522309,1.6518871,-4.11696553,,,
imu,289.229223,-1.3141417016,-9.593174606400002,2.3321977672,0.13469185,1.56216418,-4.07210407,,,
imu,289.23773,-1.3344788968,-9.587193078400002,2.3369829896,0.14216876,1.48739508,-4.08705789,,,
imu,289.246237,-1.3476382584,-9.5638651192,2.3196365584,0.29170696,1.51730272,-3.95247351,,,
imu,289.254744,-1.3524234808,-9.532163020800002,2.3393756008,0.35899915,1.64441019,-3.98985806,,,
imu,289.26325,-1.3440493416,-9.547714993600001,2.3381792952,0.35152224,1.74161002,-3.90761205,,,
imu,289.271757,-1.3410585776,-9.581809703200001,2.3393756008,0.3963837,1.81637912,-3.9449966,,,
imu,289.280264,-1.3320862856,-9.580613397600002,2.353731268,0.44124516,1.86124058,-3.99733497,,,
imu,289.288771,-1.3374696608,-9.576426328,2.3453571288,0.53096808,1.78647148,-4.02724261,,,
imu,289.297277,-1.3314881328,-9.566257730400002,2.3399737536,0.59078336,1.84628676,-3.96742733,,,
imu,289.305784,-1.3416567304,-9.564463272000001,2.3304033088,0.63564482,1.74908693,-4.04967334,,,
imu,289.314291,-1.342853036,-9.565061424800001,2.3333940728,0.78518302,1.81637912,-3.84779677,,,
imu,289.322798,-1.339862272,-9.5638651192,2.3351885312,0.6954601,2.05564024,-3.39170526,,,
imu,289.331305,-1.3410585776,-9.562070660800002,2.3333940728,0.66555246,2.12293243,-3.24216706,,,
imu,289.339811,-1.3284973688,-9.543527924000001,2.3381792952,0.83004448,2.21265535,-3.20478251,,,
imu,289.348318,-1.324908452,-9.5489112992,2.3226273224,0.9945364999999999,2.324809,-3.05524431,,,
imu,289.356825,-1.3267029104,-9.550705757600001,2.3202347112,1.1440747,2.31733209,-3.28702852,,,
imu,289.365332,-1.3225158408,-9.557285438400001,2.329805156,1.23379762,2.45191647,-3.43656672,,,
imu,289.373838,-1.3093564792,-9.566257730400002,2.320832864,1.43567419,2.55659321,-3.45899745,,,
imu,289.382345,-1.3093564792,-9.572837411200002,2.311860572000001,1.45810492,2.50425484,-3.68330475,,,
imu,289.391122,-1.3021786456,-9.5949690648,2.311262419200001,1.8169966,2.75846978,-3.68330475,,,
imu,289.399899,-1.2938045064,-9.602745051200001,2.3202347112,1.84690424,2.8481927,-3.7206893,,,
imu,289.408677,-1.2884211312,-9.61530626,2.3130568776,1.82447351,2.78090051,-3.73564312,,,
imu,289.417454,-1.2806451448,-9.631456385600002,2.3142531832,1.85438115,2.78837742,-3.67582784,,,
imu,289.426279,-1.2710747,-9.634447149600001,2.3052808912,1.61512003,2.66874686,-3.68330475,,,
imu,289.435056,-1.2632987136,-9.631456385600002,2.3136550304,1.57025857,2.73603905,-3.66087402,,,
imu,289.443833,-1.2627005608,-9.625474857600002,2.3004956688,1.27865908,2.5491163,-3.71321239,,,
imu,289.45261,-1.2674857832,-9.6015487456,2.2915233768,1.18145925,2.40705501,-3.68330475,,,
imu,289.461387,-1.2788506864,-9.595567217600001,2.293915988,1.1440747,2.36219355,-3.6459202,,,
imu,289.470164,-1.2722710056,-9.589585689600002,2.2945141408,1.12164397,2.324809,-3.73564312,,,
imu,289.478941,-1.2866266728,-9.5812115504,2.2921215296,1.08425942,2.24256299,-3.81041222,,,
imu,289.487718,-1.2902155896,-9.589585689600002,2.2915233768,1.17398234,2.07807097,-3.95995042,,,
imu,289.496496,-1.28602852,-9.583604161600002,2.299897516,1.13659779,2.11545552,-4.00481188,,,
imu,289.505273,-1.2908137424,-9.593772759200002,2.2957104464,1.00949032,2.21265535,-4.07210407,,,
imu,289.51405,-1.2842340616,-9.6075302736,2.3034864328,1.05435178,2.25751681,-3.90761205,,,
imu,289.522827,-1.274065464,-9.617100718400001,2.3010938216,1.15902852,2.26499372,-3.91508896,,,
imu,289.531604,-1.2752617696,-9.619493329600001,2.2992993632,1.07678251,2.19022462,-4.00481188,,,
imu,289.540381,-1.2609061024,-9.6218859408,2.2975049048,1.07678251,2.07059406,-3.91508896,,,
imu,289.549158,-1.2686820888,-9.6218859408,2.2987012104,0.97958268,1.98834805,-3.80293531,,,
imu,289.557935,-1.2662894776,-9.6296619272,2.3004956688,0.94219813,1.84628676,-3.84031986,,,
imu,289.566712,-1.2710747,-9.612315496,2.299897516,0.85995212,1.67431783,-3.95247351,,,
imu,289.57549,-1.2812432976,-9.614109954400002,2.293915988,0.8823828499999999,1.47244126,-3.96742733,,,
imu,289.584267,-1.2896174368,-9.609324732000001,2.2933178352,0.94967504,1.49487199,-3.90013514,,,
imu,289.59274,-1.2985897288,-9.627867468800002,2.3004956688,0.81509066,1.39767216,-3.86275059,,,
imu,289.601214,-1.3021786456,-9.620091482400001,2.3022901272,0.7253677399999999,1.28551851,-3.93751969,,,
imu,289.609688,-1.3141417016,-9.605735815200001,2.3004956688,0.60573718,1.32290306,-3.74312003,,,
imu,289.618162,-1.3117490904,-9.596165370400001,2.2951122936,0.620691,1.36028761,-3.69078166,,,
imu,289.626635,-1.3111509376,-9.6009505928,2.3052808912,0.5982602699999999,1.47991817,-3.81788913,,,
imu,289.635109,-1.3087583264,-9.596763523200002,2.305879044,0.5010604399999999,1.38271834,-3.81041222,,,
imu,289.643583,-1.3045712568,-9.5776226336,2.2951122936,0.7104139199999999,1.51730272,-3.77302767,,,
imu,289.652056,-1.3135435488,-9.557285438400001,2.2795603208,0.79265993,1.61450255,-3.85527368,,,
imu,289.66053,-1.312945396,-9.5566872856,2.275971404,0.8823828499999999,1.48739508,-3.85527368,,,
imu,289.669004,-1.321917688,-9.556089132800002,2.28793446,0.9347212199999999,1.61450255,-3.85527368,,,
imu,289.677478,-1.3171324656,-9.575230022400001,2.293915988,1.15902852,1.7266562,-3.78050458,,,
imu,289.685951,-1.3231139936,-9.596763523200002,2.2951122936,1.22632071,1.75656384,-3.95247351,,,
imu,289.694425,-1.3320862856,-9.625474857600002,2.2992993632,1.11416706,1.83133294,-4.08705789,,,
imu,289.702899,-1.324908452,-9.638036066400002,2.3154494888,1.08425942,1.84628676,-4.124442439999999,,,
imu,289.711372,-1.3380678136,-9.623082246400001,2.299897516,0.9945364999999999,1.7266562,-4.20668845,,,
imu,289.719846,-1.3225158408,-9.631456385600002,2.2987012104,0.7403215599999999,1.77151766,-4.21416536,,,
imu,289.72832,-1.3153380072,-9.630858232800001,2.299897516,0.66555246,1.70422547,-4.13939626,,,
imu,289.736794,-1.3153380072,-9.654186192000001,2.293915988,0.53096808,1.77899457,-4.07210407,,,
imu,289.745267,-1.2967952704,-9.633848996800001,2.304084585600001,0.41133752,1.77151766,-4.06462716,,,
imu,289.753741,-1.2896174368,-9.635643455200002,2.3232254752,0.26179932,1.68179474,-4.04219643,,,
imu,289.762215,-1.2908137424,-9.663158484000002,2.3315996144,0.01506129,1.46496435,-4.057150249999999,,,
imu,289.770688,-1.3081601736,-9.693066124000001,2.3513386568,-0.11204618,1.45001053,-4.07210407,,,
imu,289.779162,-1.3243102992,-9.678710456800001,2.3363848368,-0.44850713,1.47244126,-3.97490424,,,
imu,289.787636,-1.3356752024,-9.612913648800001,2.3202347112,-0.38869185,1.46496435,-3.86275059,,,
imu,289.79622,-1.3494327168,-9.5812115504,2.299897516,-0.41859949,1.34533379,-3.84779677,,,
imu,289.804805,-1.3530216336,-9.575828175200002,2.3094679608,-0.32139966,1.47991817,-3.60853565,,,
imu,289.813389,-1.3440493416,-9.572837411200002,2.2992993632,-0.127,1.71917929,-3.24964397,,,
imu,289.821973,-1.3410585776,-9.5602762024,2.2897289184,0.19450713,2.04068642,-2.89075229,,,
imu,289.830558,-1.3183287712,-9.552500216,2.2843455432,0.3963837,2.30237827,-2.74121409,,,
imu,289.839142,-1.2902155896,-9.565061424800001,2.2837473904,0.6281679099999999,2.42200883,-2.8982292,,,
imu,289.847726,-1.2632987136,-9.574631869600001,2.307673502400001,0.80761375,2.57902394,-3.13001341,,,
imu,289.856311,-1.2477467408,-9.588987536800001,2.3022901272,0.64312173,2.48182411,-3.39918217,,,
imu,289.864895,-1.247148588,-9.593772759200002,2.3136550304,0.5982602699999999,2.34723973,-3.72816621,,,
imu,289.873479,-1.2435596712,-9.595567217600001,2.2981030576,0.4711528,2.26499372,-4.00481188,,,
imu,289.882064,-1.244157824,-9.602146898400001,2.3064771968,0.35899915,2.30985518,-4.146873169999999,,,
imu,289.890648,-1.2435596712,-9.597959828800002,2.2975049048,0.25432241,2.24256299,-4.19921154,,,
imu,289.899232,-1.2417652128,-9.590183842400002,2.290327071200001,0.38142988,2.06311715,-4.079580979999999,,,
imu,289.907817,-1.2483448936,-9.585996772800002,2.2945141408,0.28423005,1.92853277,-3.93004278,,,
imu,289.916401,-1.2477467408,-9.588389384000001,2.3154494888,0.29170696,1.83880985,-3.95995042,,,
imu,289.924985,-1.2495411992,-9.606932120800002,2.3232254752,0.11226112,1.80890221,-3.95995042,,,
imu,289.93357,-1.2549245744,-9.602745051200001,2.3411700592,-0.03727708,1.65936401,-3.99733497,,,
imu,289.942154,-1.2585134912,-9.613511801600001,2.353731268,0.01506129,1.68179474,-3.90761205,,,
imu,289.950738,-1.2644950192,-9.6284656216,2.3591146432,-0.15690764,1.48739508,-4.0197657,,,
imu,289.959323,-1.2632987136,-9.6290637744,2.3633017128,-0.32139966,1.50982581,-4.06462716,,,
imu,289.967907,-1.2597097968,-9.640428677600001,2.3740684632,-0.38121494,1.41262598,-4.19921154,,,
imu,288.560679,,,,,,,70.02048839999999,0.04269479999998715,8.73426639999999
imu,288.662272,,,,,,,72.1079196,-0.8850524000000082,5.853367199999992
imu,288.77125,,,,,,,69.8251732,0.3600819999999949,8.25818559999999
imu,288.865397,,,,,,,70.31346119999999,0.04269479999998715,5.926610399999999
imu,288.966898,,,,,,,69.80075880000001,0.6652619999999887,8.282599999999995
imu,289.068491,,,,,,,70.1059388,0.7507123999999976,8.392464799999999
imu,289.170084,,,,,,,69.99607400000001,0.7995411999999869,8.062870399999989
imu,289.271616,,,,,,,70.31346119999999,0.9216131999999932,8.099491999999998
imu,289.976491,-1.2698783944,-9.638634219200002,2.383040755200001,-0.43355331,1.29299542,-4.34874974,,,
imu,289.985076,-1.2752617696,-9.623680399200001,2.3973964224,-0.56066078,1.1285034,-4.48333412,,,
imu,289.99366,-1.277056228,-9.5985579816,2.3920130472,-0.50832241,1.13598031,-4.46090339,,,
imu,290.00237,-1.2788506864,-9.594370912,2.3860315192,-0.48589168,1.07616503,-4.52071867,,,
imu,290.011081,-1.2914118952,-9.579417092000002,2.383040755200001,-0.51579932,0.9789651999999998,-4.64034923,,,
imu,290.019791,-1.2985897288,-9.5566872856,2.3842370608,-0.52327623,0.7546578999999998,-4.74502597,,,
imu,290.028501,-1.2985897288,-9.5237888816,2.3938075056,-0.46346095,0.6873657099999999,-4.68521069,,,
imu,290.037211,-1.3087583264,-9.5237888816,2.414144700800001,-0.36626112,0.62007352,-4.65530305,,,
imu,290.045921,-1.3063657152,-9.557883591200001,2.4207243816,-0.24663056,0.6574580699999997,-4.65530305,,,
imu,290.054632,-1.3261047576,-9.568650341600001,2.4129483952,-0.17933837,0.5976427899999996,-4.75250288,,,
imu,290.063342,-1.3273010632,-9.584800467200001,2.425509604,-0.03727708,0.5677351499999999,-4.759979789999999,,,
imu,290.072052,-1.3350770496,-9.5566872856,2.414144700800001,-0.10456927,0.5153967799999997,-4.64034923,,,
imu,290.080762,-1.3685736064,-9.541135312800002,2.406368714400001,-0.11952309,0.4107200399999997,-4.70764142,,,
imu,290.089473,-1.37575144,-9.546518688,2.409957631200001,-0.007369440000000005,0.4854891399999999,-4.6179185,,,
imu,290.098183,-1.369769912,-9.538742701600002,2.404574256,0.06739966,0.58268897,-4.31136519,,,
imu,290.106893,-1.3679754536,-9.5447242296,2.4087613256,0.06739966,0.9041961000000001,-3.90761205,,,
imu,290.115603,-1.3673773008,-9.526779645600001,2.4057705616,0.10478421,1.02382666,-3.81788913,,,
imu,290.124313,-1.354816092,-9.529770409600001,2.3962001168,0.22441477,1.2032725,-3.63096638,,,
imu,290.133024,-1.3416567304,-9.533957479200001,2.3902185888,0.35152224,1.34533379,-3.69078166,,,
imu,290.141734,-1.3440493416,-9.531564868,2.3860315192,0.56087572,1.42010289,-3.95247351,,,
imu,290.150444,-1.3512271752,-9.523190728800001,2.3902185888,0.78518302,1.60702564,-4.18425772,,,
imu,290.159154,-1.339862272,-9.533957479200001,2.3926112,1.19641307,1.8014253,-4.22164227,,,
imu,290.167865,-1.3422548832,-9.559678049600002,2.3842370608,1.2188438,1.92105586,-4.430995749999999,,,
imu,290.176575,-1.342853036,-9.5656595776,2.380648144,1.12164397,1.9509635,-4.57305704,,,
imu,290.185285,-1.3350770496,-9.575828175200002,2.383040755200001,1.45810492,1.94348659,-4.51324176,,,
imu,290.193995,-1.324908452,-9.5877912312,2.3842370608,1.56278166,1.99582496,-4.43847266,,,
imu,290.202705,-1.3243102992,-9.594370912,2.37765738,1.57025857,1.82385603,-4.37865738,,,
imu,290.21114,-1.3225158408,-9.611119190400002,2.383040755200001,1.4431511,1.90610204,-4.31136519,,,
imu,290.219575,-1.3255066048,-9.6015487456,2.3728721576,1.2936129,1.85376367,-4.29641137,,,
imu,290.22801,-1.3141417016,-9.6087265792,2.365694324000001,1.32352054,1.82385603,-4.0945348,,,
imu,290.236445,-1.3147398544,-9.604539509600002,2.3555257264,1.12912088,1.78647148,-4.04967334,,,
imu,290.244879,-1.3213195352,-9.596165370400001,2.3615072544,1.01696723,1.77151766,-4.07210407,,,
imu,290.253314,-1.3201232296,-9.587193078400002,2.3609091016,0.88985976,1.7266562,-4.00481188,,,
imu,290.261749,-1.3183287712,-9.589585689600002,2.3680869352,0.9646288599999999,1.73413311,-3.88518132,,,
imu,290.270184,-1.3135435488,-9.593772759200002,2.368685088,0.8524752099999999,1.7266562,-3.98238115,,,
imu,290.278619,-1.3105527848,-9.578220786400001,2.3662924768,0.81509066,1.75656384,-4.04219643,,,
imu,290.287053,-1.3105527848,-9.5776226336,2.368685088,0.7702292,1.82385603,-3.99733497,,,
imu,290.295488,-1.3045712568,-9.575828175200002,2.3704795464,0.66555246,1.8014253,-4.07210407,,,
imu,290.303923,-1.3003841872,-9.594370912,2.3710776992,0.64312173,1.84628676,-4.057150249999999,,,
imu,290.312358,-1.2997860344,-9.582407856000001,2.3698813936,0.46367589,1.73413311,-4.18425772,,,
imu,290.320793,-1.3027767984,-9.5865949256,2.3764610744,0.44872207,1.70422547,-4.17678081,,,
imu,290.329227,-1.3063657152,-9.592576453600001,2.368685088,0.35152224,1.61450255,-4.244073,,,
imu,290.337662,-1.3183287712,-9.587193078400002,2.3848352136,0.35152224,1.49487199,-4.40108811,,,
imu,290.346097,-1.336871508,-9.593772759200002,2.396798269600001,0.42629134,1.33785688,-4.25154991,,,
imu,290.354532,-1.3344788968,-9.593174606400002,2.395601964,0.35899915,1.29299542,-4.26650373,,,
imu,290.362967,-1.3410585776,-9.602745051200001,2.3962001168,0.31413769,1.33785688,-4.16182699,,,
imu,290.371401,-1.3470401056,-9.599156134400001,2.413546548,0.43376825,1.41262598,-4.13191935,,,
imu,290.379836,-1.3572087032,-9.597959828800002,2.4057705616,0.28423005,1.30047233,-4.13939626,,,
imu,290.388271,-1.348834564,-9.591978300800001,2.406368714400001,0.40386061,1.33785688,-4.13191935,,,
imu,290.396706,-1.3613957728,-9.5740337168,2.4189299232,0.40386061,1.42010289,-4.28145755,,,
imu,290.405181,-1.3446474944,-9.583604161600002,2.4087613256,0.22441477,1.34533379,-4.318842099999999,,,
imu,290.413656,-1.3452456472,-9.574631869600001,2.4171354648,0.29170696,1.2780416,-4.33379592,,,
imu,290.422131,-1.3458438,-9.560874355200001,2.429696673600001,0.44124516,1.33037997,-4.37865738,,,
imu,290.430606,-1.351825328,-9.5656595776,2.423715145600001,0.50853735,1.17336486,-4.41604193,,,
imu,290.439081,-1.3584050088,-9.565061424800001,2.4261077568,0.4711528,1.08364194,-4.41604193,,,
imu,290.447556,-1.3613957728,-9.5698466472,2.4452486464,0.68798319,0.9116730099999999,-4.40108811,,,
imu,290.456031,-1.3619939256,-9.572239258400002,2.45242648,0.53096808,0.6350273399999997,-4.48333412,,,
imu,290.464506,-1.3673773008,-9.558481744000002,2.449435716,0.67302937,0.66493498,-4.27398064,,,
imu,290.472981,-1.3769477456,-9.551303910400001,2.4356782016,0.80013684,0.5976427899999996,-4.16182699,,,
imu,290.481456,-1.387714496,-9.541733465600002,2.4428560352,0.7702292,0.4256738599999998,-3.93751969,,,
imu,290.489931,-1.3978830936,-9.5632669664,2.441061576800001,0.80761375,0.4630584099999999,-3.70573548,,,
imu,290.498406,-1.4008738576,-9.578220786400001,2.4446504936,0.80013684,0.5453044199999999,-3.47395127,,,
imu,290.506881,-1.3930978712,-9.558481744000002,2.4488375632,0.7104139199999999,0.5153967799999997,-3.35432071,,,
imu,290.515355,-1.4014720104,-9.554294674400001,2.4572117024,0.65059864,0.64250425,-3.54124346,,,
imu,290.523739,-1.4212110528,-9.581809703200001,2.4685766056,0.58330645,0.6873657099999999,-3.62348947,,,
imu,290.532214,-1.4230055112,-9.599754287200001,2.4685766056,0.44124516,0.7995193599999997,-3.51881273,,,
imu,290.540689,-1.4230055112,-9.5800152448,2.4619969248,0.44124516,1.06868812,-3.32441307,,,
imu,290.549164,-1.4194165944,-9.530966715200002,2.4649876888,0.33656842,1.19579559,-3.48142818,,,
imu,290.557639,-1.4200147472,-9.490292324800002,2.4428560352,0.4861066199999999,1.2780416,-3.62348947,,,
imu,290.566114,-1.4050609272,-9.468758824,2.4171354648,0.9272443100000001,1.51730272,-3.44404363,,,
imu,290.574589,-1.4074535384,-9.4765348104,2.413546548,1.30108981,1.66684092,-3.27955161,,,
imu,290.583064,-1.4032664688,-9.4962738528,2.4033779504,1.5926893,1.8014253,-3.21973633,,,
imu,290.591539,-1.3883126488,-9.505844297600001,2.3902185888,1.92167334,2.07059406,-3.21225942,,,
imu,290.600014,-1.3643865368,-9.52558334,2.3932093528,2.29551884,2.21265535,-3.2720747,,,
imu,290.608523,-1.3512271752,-9.554294674400001,2.3860315192,2.47496468,2.15284007,-3.44404363,,,
imu,290.617033,-1.3320862856,-9.560874355200001,2.3752647688,2.49739541,2.30237827,-3.59358183,,,
imu,290.625542,-1.3290955216,-9.580613397600002,2.379451838400001,2.50487232,2.18274771,-3.78050458,,,
imu,290.634051,-1.3362733552,-9.6087265792,2.3740684632,2.44505704,2.05564024,-3.91508896,,,
imu,290.642561,-1.3243102992,-9.632054538400002,2.383638908,2.17588828,1.9509635,-3.95247351,,,
imu,290.65107,-1.327899216,-9.6284656216,2.3848352136,1.95905789,1.9509635,-3.84031986,,,
imu,290.659579,-1.336871508,-9.633250844,2.371675852,1.92167334,1.85376367,-3.61601256,,,
imu,290.668089,-1.336871508,-9.633250844,2.3662924768,1.88428879,1.89862513,-3.32441307,,,
imu,290.676598,-1.3320862856,-9.6284656216,2.369283240800001,1.5179202,1.79394839,-3.20478251,,,
imu,290.685107,-1.3314881328,-9.618297024,2.3734703104,1.35342818,1.64441019,-3.11505959,,,
imu,290.693617,-1.3416567304,-9.619493329600001,2.3728721576,1.18145925,1.59954873,-3.28702852,,,
imu,290.702126,-1.3404604248,-9.605735815200001,2.383638908,1.20388998,1.65936401,-3.24216706,,,
imu,290.710635,-1.3374696608,-9.602745051200001,2.3872278248,1.0693056,1.65936401,-3.24964397,,,
imu,290.719145,-1.3362733552,-9.591978300800001,2.383040755200001,0.8823828499999999,1.71170238,-3.42908981,,,
imu,290.727654,-1.3314881328,-9.588987536800001,2.3902185888,1.00949032,1.83133294,-3.36927453,,,
imu,290.736163,-1.3302918272,-9.5865949256,2.3860315192,0.9870595899999999,1.88367131,-3.68330475,,,
imu,290.744672,-1.3261047576,-9.593174606400002,2.3926112,0.88985976,1.9509635,-3.87770441,,,
imu,290.753182,-1.3302918272,-9.591978300800001,2.3926112,0.9870595899999999,1.86124058,-3.93004278,,,
imu,290.761691,-1.336871508,-9.585398620000001,2.3848352136,1.00201341,1.83133294,-3.86275059,,,
imu,290.7702,-1.3231139936,-9.578220786400001,2.380648144,1.03939796,1.78647148,-3.95995042,,,
imu,290.77871,-1.3117490904,-9.5602762024,2.380648144,1.15902852,1.76404075,-3.89265823,,,
imu,290.787219,-1.321917688,-9.551303910400001,2.398592728,1.2936129,1.94348659,-3.81041222,,,
imu,289.374035,,,,,,,69.80075880000001,1.165757199999984,8.050663199999997
imu,289.474682,,,,,,,70.1303532,0.6652619999999887,8.343635999999998
imu,289.576214,,,,,,,72.0468836,0.3478747999999809,7.537960799999999
imu,289.67799,,,,,,,69.935038,1.031477999999986,8.197149599999998
imu,289.779339,,,,,,,71.949226,0.01828039999998143,5.13314239999999
imu,289.880902,,,,,,,69.7153084,0.9094059999999793,7.367059999999992
imu,289.982464,,,,,,,69.2270204,0.2990459999999917,5.291835999999995
imu,290.084057,,,,,,,69.92283079999999,1.055892399999991,8.429086399999996
imu,290.795728,-1.3003841872,-9.577024480800002,2.414144700800001,1.1440747,1.94348659,-3.80293531,,,
imu,290.804238,-1.2991878816,-9.596165370400001,2.409957631200001,1.15902852,1.63693328,-3.8702275,,,
imu,290.812662,-1.2955989648,-9.616502565600001,2.4087613256,1.24875144,1.45001053,-3.93004278,,,
imu,290.821086,-1.2932063536,-9.591978300800001,2.404574256,1.09921324,1.31542615,-3.99733497,,,
imu,290.82951,-1.3213195352,-9.5638651192,2.3979945752,1.06182869,1.24813396,-3.91508896,,,
imu,290.837934,-1.342853036,-9.5638651192,2.3848352136,1.09173633,1.07616503,-3.91508896,,,
imu,290.846358,-1.3512271752,-9.571042952800001,2.3902185888,1.10669015,1.18084177,-3.5711511,,,
imu,290.854782,-1.3691717592,-9.558481744000002,2.3842370608,1.23379762,1.09111885,-3.27955161,,,
imu,290.863207,-1.378742204,-9.5704448,2.3878259776,1.09921324,1.33037997,-3.15992105,,,
imu,290.871631,-1.3655828424,-9.565061424800001,2.3764610744,1.06182869,1.45001053,-3.1225365,,,
imu,290.880055,-1.3655828424,-9.556089132800002,2.3860315192,1.10669015,1.49487199,-3.13749032,,,
imu,290.888479,-1.3601994672,-9.555490980000002,2.3758629216,1.26370526,1.61450255,-3.31693616,,,
imu,290.896903,-1.3470401056,-9.554892827200002,2.3674887824,1.32352054,1.71917929,-3.60105874,,,
imu,290.905327,-1.3261047576,-9.5429297712,2.3704795464,1.42072037,1.75656384,-3.80293531,,,
imu,290.913751,-1.3296936744,-9.555490980000002,2.3555257264,1.7422275,1.89862513,-4.10948862,,,
imu,290.922175,-1.3201232296,-9.562070660800002,2.3633017128,1.86185806,1.83133294,-4.28893446,,,
imu,290.9306,-1.3063657152,-9.5740337168,2.3644980184,1.88428879,1.71170238,-4.453426479999999,,,
imu,290.939024,-1.3207213824,-9.590183842400002,2.3591146432,1.99644244,1.69674856,-4.408565019999999,,,
imu,290.947448,-1.3225158408,-9.593174606400002,2.3603109488,1.87681188,1.68179474,-4.363703559999999,,,
imu,290.955872,-1.3404604248,-9.609324732000001,2.3662924768,1.83942733,1.43505671,-4.25902682,,,
imu,290.964296,-1.3434511888,-9.619493329600001,2.3501423512,1.78708896,1.42010289,-4.102011709999999,,,
imu,290.97272,-1.3601994672,-9.6218859408,2.3561238792,1.55530475,1.15093413,-4.10948862,,,
imu,290.981144,-1.372760676,-9.6326526912,2.3441608232,1.33099745,1.16588795,-4.08705789,,,
imu,290.989568,-1.3811348152,-9.633848996800001,2.3423663648,1.28613599,1.15841104,-3.97490424,,,
imu,290.997993,-1.3859200376,-9.635643455200002,2.3423663648,0.9646288599999999,1.2032725,-3.98985806,,,
imu,291.006417,-1.393696024,-9.6224840936,2.3286088504,0.9272443100000001,1.28551851,-3.92256587,,,
imu,291.014873,-1.4008738576,-9.612315496,2.341768212,0.80761375,1.37524143,-3.90013514,,,
imu,291.023328,-1.3960886352,-9.6039413568,2.3345903784,0.73284465,1.45748744,-3.85527368,,,
imu,291.031784,-1.3889108016,-9.6075302736,2.3399737536,0.55339881,1.78647148,-3.75807385,,,
imu,291.04024,-1.3841255792,-9.594370912,2.3644980184,0.47862971,1.74161002,-3.69825857,,,
imu,291.048696,-1.3835274264,-9.580613397600002,2.3591146432,0.44872207,1.83880985,-3.63844329,,,
imu,291.057152,-1.3799385096,-9.593174606400002,2.3555257264,0.49358353,2.04068642,-3.48142818,,,
imu,291.065608,-1.369769912,-9.575230022400001,2.3603109488,0.58330645,2.13788625,-3.42908981,,,
imu,291.074064,-1.3542179392,-9.577024480800002,2.3650961712,0.6132140899999999,2.22013226,-3.54124346,,,
imu,291.08252,-1.3452456472,-9.5704448,2.3704795464,0.6954601,2.20517844,-3.45899745,,,
imu,291.090976,-1.3434511888,-9.5704448,2.3872278248,0.80013684,2.30237827,-3.46647436,,,
imu,291.099432,-1.3255066048,-9.580613397600002,2.389620436,0.64312173,2.21265535,-3.53376655,,,
imu,291.107888,-1.3141417016,-9.592576453600001,2.383638908,0.7702292,2.19770153,-3.46647436,,,
imu,291.116343,-1.3051694096,-9.585996772800002,2.3842370608,0.8674290299999999,2.09302479,-3.496382,,,
imu,291.124799,-1.3093564792,-9.577024480800002,2.3824426024,0.68798319,2.08554788,-3.51881273,,,
imu,291.133255,-1.3105527848,-9.5704448,2.3788536856,0.64312173,1.94348659,-3.63096638,,,
imu,291.141711,-1.303973104,-9.564463272000001,2.3800499912,0.57582954,1.89114822,-3.83284295,,,
imu,291.150167,-1.309954632,-9.554294674400001,2.3782555328,0.64312173,1.7266562,-3.90013514,,,
imu,291.158623,-1.3141417016,-9.557285438400001,2.374666616,0.7104139199999999,1.61450255,-3.85527368,,,
imu,291.167079,-1.3231139936,-9.5602762024,2.3728721576,0.7552753799999999,1.53225654,-3.90761205,,,
imu,291.175535,-1.3273010632,-9.564463272000001,2.3722740048,0.82256757,1.62945637,-3.89265823,,,
imu,291.183991,-1.333880744,-9.593174606400002,2.3860315192,0.8375213899999999,1.56964109,-4.079580979999999,,,
imu,291.192447,-1.3422548832,-9.606333968000001,2.3860315192,0.85995212,1.53225654,-4.0945348,,,
imu,291.200903,-1.3314881328,-9.6051376624,2.3872278248,0.7552753799999999,1.5023489,-4.17678081,,,
imu,291.209359,-1.333880744,-9.6015487456,2.37765738,0.68798319,1.47991817,-4.32631901,,,
imu,291.218178,-1.3296936744,-9.5907819952,2.383040755200001,0.50853735,1.53973345,-4.20668845,,,
imu,291.226998,-1.3320862856,-9.6015487456,2.3680869352,0.3963837,1.53973345,-4.0945348,,,
imu,291.235817,-1.33088998,-9.624278552000002,2.374666616,0.40386061,1.43505671,-3.95995042,,,
imu,291.244637,-1.3273010632,-9.610521037600002,2.3824426024,0.30666078,1.3528107,-3.90013514,,,
imu,291.253456,-1.3273010632,-9.6051376624,2.3944056584,0.10478421,1.33037997,-4.06462716,,,
imu,291.262276,-1.3332825912,-9.6260730104,2.4081631728,-0.02232326000000001,1.18831868,-4.26650373,,,
imu,291.271096,-1.3512271752,-9.661364025600001,2.4231169928,-0.11204618,1.09111885,-4.16182699,,,
imu,291.279915,-1.357806856,-9.636839760800001,2.427304062400001,-0.29896893,1.13598031,-4.00481188,,,
imu,291.288735,-1.3649846896,-9.5800152448,2.416537312,-0.45598404,1.18831868,-3.90761205,,,
imu,291.297554,-1.3745551344,-9.539939007200001,2.3979945752,-0.49336859,1.15093413,-3.93004278,,,
imu,291.306374,-1.3649846896,-9.5249851872,2.389620436,-0.35878421,1.09111885,-3.84779677,,,
imu,291.315193,-1.3703680648,-9.5148165896,2.3788536856,-0.02980017,1.24813396,-3.62348947,,,
imu,291.324013,-1.3691717592,-9.510031367200002,2.3812462968,0.11973803,1.30794924,-3.3468438,,,
imu,291.332833,-1.3721625232,-9.5213962704,2.3764610744,0.46367589,1.39019525,-3.25712088,,,
imu,291.341652,-1.351825328,-9.5213962704,2.371675852,0.68798319,1.53225654,-3.35432071,,,
imu,291.350472,-1.3422548832,-9.536948243200001,2.3728721576,0.97210577,1.53973345,-3.46647436,,,
imu,291.359291,-1.3386659664,-9.553098368800002,2.374666616,1.18893616,1.52477963,-3.70573548,,,
imu,291.368111,-1.3267029104,-9.5740337168,2.3854333664,1.2936129,1.50982581,-3.95995042,,,
imu,291.376931,-1.3320862856,-9.593772759200002,2.380648144,1.2188438,1.59954873,-4.079580979999999,,,
imu,291.38575,-1.3261047576,-9.6039413568,2.379451838400001,1.17398234,1.44253362,-4.02724261,,,
imu,291.39457,-1.3213195352,-9.609922884800001,2.3782555328,0.94967504,1.21074941,-4.124442439999999,,,
imu,291.403389,-1.3207213824,-9.606333968000001,2.3788536856,0.9347212199999999,1.08364194,-3.90761205,,,
imu,291.412209,-1.3213195352,-9.617698871200002,2.380648144,0.68050628,0.9939190199999999,-3.78050458,,,
imu,291.420686,-1.3284973688,-9.624278552000002,2.3842370608,0.4861066199999999,0.9116730099999999,-3.52628964,,,
imu,291.429164,-1.336871508,-9.626671163200001,2.3818444496,0.20946095,0.6574580699999997,-3.58610492,,,
imu,291.437641,-1.3482364112,-9.6326526912,2.3902185888,0.02253820000000001,0.5453044199999999,-3.63096638,,,
imu,291.446119,-1.354816092,-9.614109954400002,2.3944056584,-0.14943073,0.66493498,-3.57862801,,,
imu,291.454597,-1.3619939256,-9.596763523200002,2.3997890336,-0.20924601,0.8892422799999999,-3.57862801,,,
imu,291.463074,-1.3601994672,-9.5907819952,2.410555784,-0.39616876,0.9116730099999999,-3.69078166,,,
imu,291.471552,-1.3416567304,-9.5800152448,2.419528076,-0.5756146,0.8967191899999998,-3.85527368,,,
imu,291.480029,-1.3494327168,-9.574631869600001,2.4159391592,-0.51579932,1.06121121,-3.99733497,,,
imu,291.488507,-1.3458438,-9.568650341600001,2.4302948264,-0.62047606,1.03878048,-4.079580979999999,,,
imu,291.496984,-1.3374696608,-9.560874355200001,2.419528076,-0.4260764,0.98644211,-4.06462716,,,
imu,291.505462,-1.3201232296,-9.558481744000002,2.431491132,-0.45598404,0.78456554,-4.35622665,,,
imu,291.513939,-1.309954632,-9.572837411200002,2.4386689656,-0.41859949,0.6724118899999998,-4.35622665,,,
imu,291.522417,-1.2973934232,-9.584800467200001,2.4398652712,-0.29896893,0.62007352,-4.23659609,,,
imu,291.530894,-1.2926082008,-9.552500216,2.4500338688,-0.44103022,0.5079198699999998,-4.244073,,,
imu,291.539372,-1.28602852,-9.5459205352,2.446444952,-0.44103022,0.2013665599999999,-4.22911918,,,
imu,291.547849,-1.2806451448,-9.573435564,2.469772911200001,-0.48589168,-0.09023292999999999,-4.146873169999999,,,
imu,291.556327,-1.28602852,-9.613511801600001,2.4631932304,-0.52327623,-0.3893093300000001,-4.16182699,,,
imu,291.564804,-1.2842340616,-9.620091482400001,2.4685766056,-0.5681376899999999,-0.6136166300000001,-4.19921154,,,
imu,291.573282,-1.2884211312,-9.593772759200002,2.481137814400001,-0.82982954,-1.03232359,-4.25154991,,,
imu,291.581759,-1.2914118952,-9.559678049600002,2.4691747584,-0.8522602699999999,-1.15195415,-4.29641137,,,
imu,291.590237,-1.3027767984,-9.541135312800002,2.4572117024,-0.76253735,-1.30149235,-4.363703559999999,,,
imu,291.598714,-1.2997860344,-9.533957479200001,2.4530246328,-0.88964482,-1.52579965,-4.20668845,,,
imu,291.607192,-1.3111509376,-9.520798117600002,2.455417244,-0.6503837,-1.62299948,-4.04219643,,,
imu,290.186535,,,,,,,69.6420652,1.397693999999983,8.282599999999995
imu,290.287182,,,,,,,69.53220040000001,1.446522799999994,7.904176799999996
imu,290.388714,,,,,,,69.45895719999999,0.9948563999999882,8.197149599999998
imu,290.490277,,,,,,,69.6542724,1.104721199999981,7.537960799999999
imu,290.591839,,,,,,,70.0449028,0.8849915999999958,8.172735199999991
imu,290.693554,,,,,,,72.0468836,0.3722891999999867,7.17174479999999
imu,290.794995,,,,,,,69.44675000000001,1.239000399999979,7.843140799999992
imu,290.896649,,,,,,,72.05909079999999,0.3600819999999949,5.181971199999991
imu,291.615593,-1.3195250768,-9.51062952,2.4530246328,-0.51579932,-1.69776858,-3.8702275,,,
imu,291.624207,-1.3231139936,-9.4873015608,2.4566135496,-0.38121494,-1.66038403,-3.7206893,,,
imu,291.632822,-1.3267029104,-9.486105255200002,2.4536227856,-0.11952309,-1.77253768,-3.76555076,,,
imu,291.641436,-1.3380678136,-9.481918185600001,2.4542209384,0.25432241,-1.72767622,-3.81788913,,,
imu,291.650051,-1.3494327168,-9.488497866400001,2.449435716,0.3739529699999999,-1.72019931,-4.012288789999999,,,
imu,291.658665,-1.3596013144,-9.495675700000001,2.4428560352,0.6281679099999999,-1.66038403,-4.19921154,,,
imu,291.66728,-1.3841255792,-9.508835061600001,2.4416597296,0.79265993,-1.59309184,-4.386134289999999,,,
imu,291.675894,-1.4044627744,-9.5154147424,2.449435716,1.20388998,-1.43607673,-4.46090339,,,
imu,291.684509,-1.4253981224,-9.530966715200002,2.4482394104,1.26370526,-1.30149235,-4.5431494,,,
imu,291.693123,-1.4361648728,-9.547116840800001,2.4398652712,1.11416706,-1.23420016,-4.670256869999999,,,
imu,291.701738,-1.4409500952,-9.558481744000002,2.4446504936,1.26370526,-0.8753084800000002,-4.647826139999999,,,
imu,291.710352,-1.453511304,-9.5812115504,2.447043104800001,1.31604363,-0.6136166300000001,-4.80484125,,,
imu,291.718967,-1.4409500952,-9.576426328,2.4518283272,1.10669015,-0.4192169699999999,-4.81979507,,,
imu,291.727582,-1.4391556368,-9.576426328,2.4518283272,1.01696723,-0.3668786000000002,-4.72259524,,,
imu,291.736196,-1.4271925808,-9.572239258400002,2.4512301744,0.85995212,-0.09770984000000027,-4.670256869999999,,,
imu,291.744811,-1.4247999696,-9.5638651192,2.449435716,0.81509066,0.04435144999999974,-4.625395409999999,,,
imu,291.753425,-1.4283888864,-9.5704448,2.4416597296,0.9048135799999999,0.02939763000000006,-4.5431494,,,
imu,291.76204,-1.4259962752,-9.557883591200001,2.4350800488,0.79265993,-0.08275602000000015,-4.41604193,,,
imu,291.770654,-1.4307814976,-9.557285438400001,2.4488375632,0.68798319,0.0368745399999999,-4.26650373,,,
imu,291.779269,-1.4212110528,-9.558481744000002,2.454819091200001,0.78518302,0.1415512799999998,-4.22911918,,,
imu,291.787883,-1.4289870392,-9.559678049600002,2.4500338688,0.80761375,0.1714589200000001,-4.06462716,,,
imu,291.796498,-1.426594428,-9.5393408544,2.454819091200001,0.80761375,0.1041667299999998,-4.012288789999999,,,
imu,291.805112,-1.429585192,-9.535153784800002,2.4500338688,0.8375213899999999,0.08173599999999981,-4.057150249999999,,,
imu,291.813727,-1.444539012,-9.534555632000002,2.4512301744,0.82256757,-0.07527911000000032,-4.16182699,,,
imu,291.822341,-1.4588946792,-9.5429297712,2.4398652712,0.88985976,-0.05284837999999992,-4.057150249999999,,,
imu,291.830956,-1.4618854432,-9.533957479200001,2.4488375632,1.00201341,-0.04537147000000008,-4.124442439999999,,,
imu,291.83924,-1.4690632768,-9.547116840800001,2.446444952,1.02444414,-0.09770984000000027,-4.18425772,,,
imu,291.847524,-1.4810263328,-9.551902063200002,2.4482394104,0.9870595899999999,-0.08275602000000015,-4.124442439999999,,,
imu,291.855808,-1.4899986248,-9.564463272000001,2.4422578824,1.11416706,0.04435144999999974,-4.04967334,,,
imu,291.864093,-1.495382,-9.5704448,2.4440523408,0.9870595899999999,0.08921290999999965,-4.15435008,,,
imu,291.872377,-1.4959801528,-9.558481744000002,2.450632021600001,0.94219813,0.1639820099999998,-4.15435008,,,
imu,291.880661,-1.4905967776,-9.571042952800001,2.4500338688,1.09173633,0.4256738599999998,-4.07210407,,,
imu,291.888945,-1.4917930832,-9.558481744000002,2.4500338688,0.9048135799999999,0.5378275100000001,-3.95247351,,,
imu,291.89723,-1.4911949304,-9.5566872856,2.449435716,0.71789083,0.6574580699999997,-4.00481188,,,
imu,291.905514,-1.48042818,-9.551303910400001,2.4476412576,0.76275229,0.84438082,-3.90013514,,,
imu,291.913798,-1.4840170968,-9.528574104,2.4356782016,1.00201341,1.01634975,-3.53376655,,,
imu,291.922082,-1.4756429576,-9.52558334,2.4380708128,1.18893616,1.00139593,-3.44404363,,,
imu,291.930367,-1.4750448048,-9.544126076800001,2.4458467992,1.12912088,1.17336486,-3.26459779,,,
imu,291.938651,-1.4756429576,-9.550705757600001,2.447043104800001,1.2188438,1.26308778,-3.33188998,,,
imu,291.946935,-1.4720540408,-9.558481744000002,2.446444952,1.27118217,1.36028761,-3.31693616,,,
imu,291.955219,-1.4780355688,-9.555490980000002,2.4446504936,1.28613599,1.55468727,-3.39918217,,,
imu,291.963504,-1.4618854432,-9.557883591200001,2.4428560352,1.27118217,1.79394839,-3.35432071,,,
imu,291.971788,-1.462483596,-9.5740337168,2.4422578824,1.18893616,1.85376367,-3.39918217,,,
imu,291.980072,-1.4433427064,-9.585996772800002,2.4428560352,1.17398234,1.96591732,-3.58610492,,,
imu,291.988356,-1.4457353176,-9.5632669664,2.437472660000001,1.08425942,2.06311715,-3.5711511,,,
imu,291.996641,-1.4313796504,-9.575230022400001,2.4368745072,0.94219813,2.16031698,-3.48890509,,,
imu,292.004925,-1.4259962752,-9.576426328,2.4368745072,1.02444414,2.30985518,-3.41413599,,,
imu,292.013209,-1.4110424552,-9.6087265792,2.437472660000001,0.9272443100000001,2.3995781,-3.53376655,,,
imu,292.021493,-1.3913034128,-9.596165370400001,2.4518283272,0.77770611,2.34723973,-3.52628964,,,
imu,292.029778,-1.3853218848,-9.614109954400002,2.460202466400001,0.7702292,2.39210119,-3.66835093,,,
imu,292.038592,-1.3859200376,-9.635643455200002,2.464389536000001,0.60573718,2.3995781,-3.69078166,,,
imu,292.047406,-1.3930978712,-9.652989886400002,2.4727636752,0.16459949,2.22013226,-3.66835093,,,
imu,292.05622,-1.3930978712,-9.6009505928,2.4661839944,-0.01484635000000001,2.16031698,-3.60105874,,,
imu,292.065035,-1.3924997184,-9.554294674400001,2.4536227856,-0.13447691,2.15284007,-3.54124346,,,
imu,292.073849,-1.4050609272,-9.5357519376,2.4386689656,0.06739966,2.05564024,-3.50385891,,,
imu,292.082663,-1.3984812464,-9.530368562400001,2.441061576800001,0.14216876,1.93600968,-3.30945925,,,
imu,292.091477,-1.408649844,-9.5213962704,2.446444952,0.33656842,1.98834805,-3.01785976,,,
imu,292.100292,-1.3972849408,-9.505844297600001,2.4428560352,0.7552753799999999,2.13040934,-2.86084465,,,
imu,292.109106,-1.393696024,-9.501657228000001,2.4362763544,0.8823828499999999,2.21265535,-2.77859864,,,
imu,292.11792,-1.37575144,-9.4974701584,2.4308929792,0.97958268,2.28742445,-2.98047521,,,
imu,292.126735,-1.3566105504,-9.517807353600002,2.4320892848,1.02444414,2.22760917,-3.30945925,,,
imu,292.135549,-1.3661809952,-9.523190728800001,2.429696673600001,1.12912088,2.09302479,-3.48142818,,,
imu,292.144363,-1.36079762,-9.537546396000002,2.428500368,1.22632071,2.06311715,-3.62348947,,,
imu,292.153177,-1.3566105504,-9.550705757600001,2.434481896,1.37585891,2.04068642,-3.78050458,,,
imu,292.161992,-1.3542179392,-9.559678049600002,2.4338837432,1.33847436,2.06311715,-3.85527368,,,
imu,292.170806,-1.3601994672,-9.5656595776,2.4308929792,1.30108981,2.09302479,-3.7206893,,,
imu,292.17962,-1.3625920784,-9.569248494400002,2.4368745072,1.00201341,1.98834805,-3.74312003,,,
imu,292.188434,-1.3631902312,-9.5865949256,2.434481896,1.01696723,1.98087114,-3.6459202,,,
imu,292.197249,-1.3596013144,-9.592576453600001,2.443454188,0.83004448,1.92105586,-3.36927453,,,
imu,292.206063,-1.3601994672,-9.593174606400002,2.4452486464,0.7552753799999999,1.83880985,-3.35432071,,,
imu,292.214877,-1.3601994672,-9.583604161600002,2.4452486464,0.65807555,1.68927165,-3.45899745,,,
imu,292.223692,-1.3584050088,-9.569248494400002,2.4500338688,0.620691,1.68927165,-3.54124346,,,
imu,292.232506,-1.3613957728,-9.574631869600001,2.4578098552,0.41881443,1.41262598,-3.71321239,,,
imu,292.240981,-1.3769477456,-9.572837411200002,2.4542209384,0.20946095,1.53973345,-3.78798149,,,
imu,292.249456,-1.3889108016,-9.564463272000001,2.458408008,0.35899915,1.41262598,-3.89265823,,,
imu,292.257931,-1.3942941768,-9.5776226336,2.4751562864,0.41133752,1.33037997,-3.9449966,,,
imu,292.266406,-1.4020701632,-9.565061424800001,2.471567369600001,0.43376825,1.28551851,-4.146873169999999,,,
imu,292.274881,-1.4092479968,-9.557285438400001,2.473361828,0.64312173,1.27056469,-4.13939626,,,
imu,292.283356,-1.4122387608,-9.554294674400001,2.473361828,0.46367589,1.16588795,-4.18425772,,,
imu,292.291831,-1.4140332192,-9.551303910400001,2.4727636752,0.41133752,1.1285034,-4.169303899999999,,,
imu,292.300306,-1.4188184416,-9.534555632000002,2.479343356,0.43376825,1.09859576,-4.146873169999999,,,
imu,292.308781,-1.4331741088,-9.516611048000001,2.4691747584,0.45619898,1.03878048,-4.012288789999999,,,
imu,292.317256,-1.4319778032,-9.505844297600001,2.4889138008,0.3963837,1.06121121,-3.84779677,,,
imu,292.325731,-1.4409500952,-9.520798117600002,2.4996805512,0.32909151,1.01634975,-3.91508896,,,
imu,292.334206,-1.4582965264,-9.541733465600002,2.5008768568,0.38142988,0.9789651999999998,-3.95995042,,,
imu,292.342681,-1.4636799016,-9.534555632000002,2.5008768568,0.45619898,0.94905756,-3.95247351,,,
imu,292.351156,-1.4612872904,-9.511227672800002,2.5008768568,0.52349117,1.15093413,-3.66835093,,,
imu,292.359631,-1.4870078608,-9.484908949600001,2.4895119536,0.68798319,1.31542615,-3.62348947,,,
imu,292.368106,-1.4941856944,-9.479525574400002,2.485324884000001,0.83004448,1.32290306,-3.63844329,,,
imu,292.376581,-1.4899986248,-9.484908949600001,2.4907082592,1.05435178,1.44253362,-3.41413599,,,
imu,292.385056,-1.504354292,-9.492684936000002,2.4787452032,1.08425942,1.49487199,-3.14496723,,,
imu,292.393531,-1.4899986248,-9.513620284000002,2.479343356,1.30108981,1.83880985,-3.06272122,,,
imu,292.402006,-1.4798300272,-9.5393408544,2.4781470504,1.47305874,2.15284007,-2.86084465,,,
imu,292.410481,-1.477437416,-9.552500216,2.4649876888,1.64502767,2.21265535,-2.96552139,,,
imu,292.418956,-1.444539012,-9.565061424800001,2.467380300000001,1.65250458,2.42948574,-3.06272122,,,
imu,292.42743,-1.4379593312,-9.564463272000001,2.4667821472,1.68988913,2.68370068,-3.0477674,,,
imu,290.998014,,,,,,,70.25242519999999,1.275621999999998,8.136113599999995
imu,291.099577,,,,,,,69.92283079999999,0.6042259999999855,5.072106399999998
imu,291.201139,,,,,,,69.4223356,1.654045199999987,8.477915199999996
imu,291.302732,,,,,,,70.21580359999999,1.409901199999997,8.099491999999998
imu,291.404295,,,,,,,69.385714,0.8483699999999983,7.586789599999999
imu,291.505827,,,,,,,69.49557879999999,0.933820399999985,7.696654399999991
imu,291.60742,,,,,,,69.92283079999999,1.275621999999998,8.062870399999989
imu,291.716825,,,,,,,72.42530680000002,0.3722891999999867,7.269402399999992
imu,292.435905,-1.4110424552,-9.555490980000002,2.4518283272,1.63755076,2.75099287,-3.21225942,,,
imu,292.444369,-1.4002757048,-9.548313146400002,2.440463424,1.62259694,2.86314652,-3.26459779,,,
imu,292.452833,-1.3739569816,-9.554294674400001,2.4368745072,1.76465823,2.96782326,-3.21225942,,,
imu,292.461296,-1.3673773008,-9.557883591200001,2.4422578824,1.67493531,2.81828506,-3.33936689,,,
imu,292.46976,-1.3356752024,-9.562070660800002,2.4326874376,1.68241222,2.81080815,-3.21973633,,,
imu,292.478223,-1.318926924,-9.576426328,2.4386689656,1.5926893,2.6986545,-3.13749032,,,
imu,292.486687,-1.3081601736,-9.578818939200001,2.4368745072,1.48053565,2.57154703,-3.21225942,,,
imu,292.49515,-1.3147398544,-9.5865949256,2.434481896,1.45062801,2.60145467,-3.17487487,,,
imu,292.503614,-1.31593616,-9.588389384000001,2.4398652712,1.57773548,2.42200883,-3.22721324,,,
imu,292.512077,-1.3105527848,-9.596763523200002,2.4452486464,1.33099745,2.28742445,-3.24216706,,,
imu,292.520541,-1.3087583264,-9.599156134400001,2.440463424,1.18893616,2.12293243,-3.3468438,,,
imu,292.529004,-1.3171324656,-9.594370912,2.443454188,1.04687487,2.06311715,-3.52628964,,,
imu,292.537468,-1.3183287712,-9.591978300800001,2.4261077568,1.04687487,1.99582496,-3.55619728,,,
imu,292.545932,-1.318926924,-9.577024480800002,2.419528076,0.81509066,1.92853277,-3.58610492,,,
imu,292.554395,-1.333880744,-9.573435564,2.429696673600001,0.85995212,1.83880985,-3.58610492,,,
imu,292.562859,-1.3512271752,-9.581809703200001,2.4362763544,0.97210577,1.90610204,-3.57862801,,,
imu,292.571322,-1.3590031616,-9.577024480800002,2.4398652712,0.82256757,1.77899457,-3.56367419,,,
imu,292.579786,-1.3613957728,-9.571641105600001,2.4368745072,0.63564482,1.75656384,-3.57862801,,,
imu,292.588249,-1.3596013144,-9.575230022400001,2.4416597296,0.52349117,1.73413311,-3.62348947,,,
imu,292.596713,-1.3631902312,-9.575230022400001,2.4392671184,0.57582954,1.91357895,-3.68330475,,,
imu,292.605176,-1.3512271752,-9.575828175200002,2.4536227856,0.60573718,1.88367131,-3.81788913,,,
imu,292.61364,-1.3566105504,-9.5865949256,2.4572117024,0.6281679099999999,1.9509635,-3.92256587,,,
imu,292.622103,-1.3584050088,-9.584800467200001,2.4560153968,0.6132140899999999,1.92105586,-3.95247351,,,
imu,292.630567,-1.3530216336,-9.577024480800002,2.461398772,0.5010604399999999,1.93600968,-3.95995042,,,
imu,292.63903,-1.3590031616,-9.572239258400002,2.473959980800001,0.41133752,1.83880985,-4.00481188,,,
imu,292.647495,-1.3601994672,-9.5698466472,2.462595077600001,0.3889067899999999,1.56964109,-4.11696553,,,
imu,292.65596,-1.3572087032,-9.578818939200001,2.4721655224,0.22441477,1.49487199,-4.17678081,,,
imu,292.664425,-1.3590031616,-9.557285438400001,2.473361828,0.22441477,1.40514907,-4.07210407,,,
imu,292.67289,-1.3566105504,-9.553696521600001,2.479343356,0.30666078,1.34533379,-3.81041222,,,
imu,292.681355,-1.3590031616,-9.529770409600001,2.4727636752,0.28423005,1.22570323,-3.84779677,,,
imu,292.689819,-1.3554142448,-9.512423978400001,2.4745581336,0.41133752,1.21074941,-3.61601256,,,
imu,292.698284,-1.3745551344,-9.5118258256,2.4781470504,0.32909151,1.12102649,-3.65339711,,,
imu,292.706703,-1.384723732,-9.509433214400001,2.4727636752,0.4711528,1.00139593,-3.50385891,,,
imu,292.715167,-1.3829292736,-9.502853533600002,2.4805396616,0.56087572,1.09111885,-3.52628964,,,
imu,292.723632,-1.4032664688,-9.507638756,2.473361828,0.7104139199999999,1.13598031,-3.48890509,,,
imu,292.732097,-1.399677552,-9.510031367200002,2.469772911200001,0.8749059399999999,1.09111885,-3.53376655,,,
imu,291.818357,,,,,,,70.1913892,1.300036399999982,7.623411199999996
imu,291.919889,,,,,,,72.5107572,0.0915235999999986,5.36507919999999
imu,292.021635,,,,,,,69.8984164,1.19017159999999,8.392464799999999
imu,292.123014,,,,,,,70.1303532,0.8727843999999818,5.755709599999992
imu,292.224638,,,,,,,70.15476759999999,1.153549999999992,8.612194399999995
imu,292.32617,,,,,,,70.08152439999999,1.104721199999981,8.624401599999999
imu,292.427732,,,,,,,70.54539799999999,1.397693999999983,7.989627199999994
imu,292.530485,,,,,,,70.09373160000001,1.446522799999994,7.830933599999989
imu,292.630781,,,,,,,70.301254,1.348865199999993,8.160527999999989
imu,292.733625,,,,,,,70.4355332,1.361072399999985,8.453500799999992
