Type,Timestamp,Data Accelerometer X,Data Accelerometer Y,Data Accelerometer Z,Data Gyroscope X,Data Gyroscope Y,Data Gyroscope Z,Data Magnetometer X,Data Magnetometer Y,Data Magnetometer Z
imu,474.936998,-1.2908137424,-9.451412392800002,2.8286645912,1.5926893,3.03511545,-3.66087402,,,
imu,474.945462,-1.2896174368,-9.458590226400002,2.8370387304,1.54035093,3.10988455,-3.75059694,,,
imu,474.953927,-1.2752617696,-9.4729458936,2.853188856,1.64502767,3.11736146,-3.88518132,,,
imu,474.962392,-1.2794488392,-9.4974701584,2.8657500648,1.76465823,3.11736146,-3.90013514,,,
imu,474.970857,-1.2662894776,-9.502853533600002,2.8687408288,1.7422275,3.20708438,-3.84031986,,,
imu,474.979322,-1.262102408,-9.482516338400002,2.8717315928,1.69736604,3.22951511,-3.90013514,,,
imu,474.987786,-1.2507375048,-9.474142199200001,2.8789094264,1.64502767,3.10988455,-3.78050458,,,
imu,474.996251,-1.262102408,-9.459786532,2.875918662400001,1.45062801,3.06502309,-3.77302767,,,
imu,475.004716,-1.2686820888,-9.4412437952,2.874124204,1.54782784,3.06502309,-3.71321239,,,
imu,475.013181,-1.2812432976,-9.426289975200001,2.8609648424,1.30856672,2.93791562,-3.54124346,,,
imu,475.021646,-1.2932063536,-9.410139849600002,2.8585722312,1.33847436,2.94539253,-3.43656672,,,
imu,475.03011,-1.2944026592,-9.399971252000002,2.8585722312,1.46558183,2.87062343,-3.39918217,,,
imu,475.038575,-1.2884211312,-9.398774946400001,2.853188856,1.54782784,3.18465365,-3.28702852,,,
imu,475.04704,-1.2896174368,-9.382624820800002,2.8507962448,1.80951969,3.23699202,-3.25712088,,,
imu,475.055505,-1.292010048,-9.378437751200002,2.85617962,2.00391935,3.33419185,-3.33936689,,,
imu,475.06397,-1.2728691584,-9.382026668000002,2.8507962448,2.07868845,3.43886859,-3.29450543,,,
imu,475.072435,-1.292010048,-9.398176793600001,2.856777772800001,2.29551884,3.57345297,-3.37675144,,,
imu,475.080899,-1.283037756,-9.404756474400001,2.8436184112,2.49739541,3.85757555,-3.5711511,,,
imu,475.089364,-1.280046992,-9.420906600000002,2.841225800000001,2.64693361,4.03702139,-3.62348947,,,
imu,475.097829,-1.2878229784,-9.448421628800002,2.847207328000001,2.82637945,4.16412886,-3.87770441,,,
imu,475.106294,-1.2674857832,-9.4873015608,2.853188856,2.85628709,4.32862088,-4.22911918,,,
imu,475.114759,-1.2585134912,-9.5219944232,2.863955606400001,2.7889949,4.35105161,-4.48333412,,,
imu,475.123223,-1.2393726016,-9.527975951200002,2.8555814672,2.66936434,4.523020539999999,-4.67773378,,,
imu,475.131688,-1.2106612672,-9.536350090400001,2.8669463704,2.52730305,4.694989469999999,-4.602964679999999,,,
imu,475.14065,-1.1861370024,-9.555490980000002,2.843020258400001,2.29551884,4.68003565,-4.49081103,,,
imu,475.149612,-1.1675942656,-9.553696521600001,2.8370387304,2.19831901,4.58283582,-4.28893446,,,
imu,475.158574,-1.1652016544,-9.506442450400002,2.825075674400001,1.82447351,4.20899032,-4.44594957,,,
imu,475.167536,-1.1717813352,-9.505246144800001,2.8364405776,1.77213514,3.70056044,-4.70016451,,,
imu,475.176513,-1.1849406968,-9.4962738528,2.8364405776,1.60764312,3.43139168,-4.66277996,,,
imu,475.185475,-1.208268656,-9.4980683112,2.833449813600001,1.75718132,3.26689966,-4.58053395,,,
imu,475.194437,-1.229204004,-9.485507102400002,2.820290452000001,1.54782784,3.02763854,-4.41604193,,,
imu,475.203399,-1.253130116,-9.455001309600002,2.8047384792,1.38333582,2.87062343,-4.30388828,,,
imu,475.212361,-1.2668876304,-9.4412437952,2.802345868,1.51044329,2.90053107,-4.169303899999999,,,
imu,475.221323,-1.2752617696,-9.453805004000001,2.8005514096,1.54035093,2.82576197,-4.19173463,,,
imu,475.230285,-1.2908137424,-9.4526086984,2.7951680344,1.71979677,2.98277708,-4.02724261,,,
imu,475.239247,-1.2896174368,-9.450216087200001,2.7760271448,1.69736604,3.09493073,-3.87770441,,,
imu,475.248209,-1.2938045064,-9.435262267200002,2.762269630400001,1.95905789,3.24446893,-3.7954584,,,
imu,475.257171,-1.2824396032,-9.443038253600001,2.7688493112,2.30299575,3.37905331,-3.75807385,,,
imu,475.266133,-1.2722710056,-9.474740352000001,2.773634533600001,2.43010322,3.48373005,-3.81788913,,,
imu,475.275095,-1.2812432976,-9.495077547200001,2.761671477600001,2.57216451,3.64822207,-3.98238115,,,
imu,475.284057,-1.2842340616,-9.4980683112,2.7646622416,2.76656417,3.69308353,-4.04219643,,,
imu,475.293019,-1.2985897288,-9.4962738528,2.750306574400001,2.82637945,3.78280645,-4.10948862,,,
imu,475.301981,-1.2973934232,-9.4735440464,2.75150288,2.81890254,3.85757555,-4.31136519,,,
imu,475.310943,-1.2818414504,-9.472347740800002,2.7329601432,2.89367164,3.87252937,-4.28893446,,,
imu,475.319905,-1.2782525336,-9.477132963200003,2.7323619904,2.90862546,4.08935976,-4.17678081,,,
imu,475.328867,-1.2734673112,-9.484908949600001,2.7180063232,2.69179507,4.17908268,-4.06462716,,,
imu,475.337829,-1.265093172,-9.483712644000002,2.7072395728,2.51234923,4.126744309999999,-3.96742733,,,
imu,475.346791,-1.2429615184,-9.477731116000001,2.7180063232,2.35533412,4.20151341,-3.75059694,,,
imu,475.354762,-1.2363818376,-9.4801237272,2.7102303368,2.01887317,4.20899032,-3.8702275,,,
imu,475.362734,-1.2238206288,-9.4801237272,2.7102303368,1.88428879,4.05197521,-3.85527368,,,
imu,475.370705,-1.2178391008,-9.48072188,2.713221100800001,1.70484295,4.00711375,-3.80293531,,,
imu,475.378677,-1.22621324,-9.474142199200001,2.7180063232,1.46558183,3.8949601,-3.78798149,,,
imu,475.386648,-1.22621324,-9.462777296000002,2.740736129600001,1.06182869,3.90243701,-3.92256587,,,
imu,475.39462,-1.2220261704,-9.460982837600001,2.7323619904,1.03192105,3.75289881,-4.034719519999999,,,
imu,475.402591,-1.2369799904,-9.4735440464,2.7359509072,0.9048135799999999,3.71551426,-4.25902682,,,
imu,475.410563,-1.2423633656,-9.447225323200001,2.733558296,0.94967504,3.61831443,-4.46090339,,,
imu,475.418534,-1.2477467408,-9.443636406400001,2.740736129600001,0.9945364999999999,3.5958837,-4.66277996,,,
imu,475.426505,-1.2435596712,-9.481320032800001,2.7550917968,1.15155161,3.58840679,-4.87961035,,,
imu,475.434477,-1.2519338104,-9.537546396000002,2.7682511584,1.27118217,3.49868387,-5.021671639999999,,,
imu,475.442448,-1.2453541296,-9.5842023144,2.79636434,1.33847436,3.37905331,-4.92447181,,,
imu,475.45042,-1.2405689072,-9.623680399200001,2.8029440208,1.36090509,3.23699202,-4.74502597,,,
imu,475.458391,-1.2399707544,-9.632054538400002,2.8238793688,1.26370526,3.06502309,-4.68521069,,,
imu,475.466363,-1.2447559768,-9.6505972752,2.854983314400001,1.33099745,2.95286944,-4.6179185,,,
imu,475.474334,-1.2465504352,-9.7008421104,2.873526051200001,1.01696723,2.81080815,-4.59548777,,,
imu,475.482306,-1.2668876304,-9.727160833600001,2.877713120800001,1.02444414,2.49677793,-4.72259524,,,
imu,475.490277,-1.2746636168,-9.6984494992,2.895059552,0.77770611,2.04816333,-4.89456417,,,
imu,475.498248,-1.3111509376,-9.638634219200002,2.9034336912,0.52349117,1.83133294,-5.03662546,,,
imu,475.50622,-1.3404604248,-9.606333968000001,2.896854010400001,0.43376825,1.62945637,-4.94690254,,,
imu,475.514191,-1.354816092,-9.567454036,2.9034336912,0.30666078,1.63693328,-4.430995749999999,,,
imu,475.522163,-1.3643865368,-9.540537160000001,2.914798594400001,0.31413769,1.58459491,-4.04219643,,,
imu,475.530134,-1.3745551344,-9.5291722568,2.924369039200001,0.22441477,1.70422547,-3.6459202,,,
imu,475.538106,-1.3685736064,-9.5148165896,2.9183875112,0.20946095,1.90610204,-3.09262886,,,
imu,475.54692,-1.3566105504,-9.448421628800002,2.8938632464,0.26179932,2.11545552,-2.71878336,,,
imu,475.555734,-1.3542179392,-9.393391571200002,2.8795075792,0.41881443,2.18274771,-2.41223005,,,
imu,475.564548,-1.3422548832,-9.352119028,2.859170384,0.7702292,2.36967046,-2.27764567,,,
imu,475.573363,-1.3177306184,-9.318024318400001,2.831655355200001,1.15902852,2.54163939,-2.16549202,,,
imu,475.582177,-1.3123472432,-9.265386872,2.814308924,1.48053565,2.72856214,-2.13558438,,,
imu,475.590991,-1.289019284,-9.261199802400002,2.792177270400001,2.06373463,2.95286944,-1.95613854,,,
imu,475.599806,-1.2752617696,-9.2827333032,2.7879902008,2.48244159,3.19213056,-1.70940051,,,
imu,475.60862,-1.2375781432,-9.309650179200002,2.7772234504,2.7889949,3.47625314,-1.61967759,,,
imu,475.617434,-1.2136520312,-9.3443430416,2.7628677832,3.07311748,3.5958837,-1.6271545,,,
imu,475.626248,-1.1687905712,-9.3975786408,2.761671477600001,3.46939371,3.86505246,-1.52247776,,,
imu,475.635063,-1.1263217224,-9.471151435200001,2.7700456168,3.589024269999999,3.75289881,-1.73930815,,,
imu,475.643877,-1.0910307072,-9.52558334,2.775428992000001,3.44696298,3.73794499,-1.93370781,,,
imu,475.652691,-1.0659082896,-9.545322382400002,2.7682511584,3.24508641,3.5958837,-2.30755331,,,
imu,475.661505,-1.0509544696,-9.558481744000002,2.778419756,2.87871782,3.19960747,-2.71878336,,,
imu,475.67032,-1.0485618584,-9.575828175200002,2.762269630400001,2.50487232,2.83323888,-3.0477674,,,
imu,475.679134,-1.06172122,-9.591978300800001,2.7592788664,2.01887317,2.33976282,-3.39918217,,,
imu,475.687948,-1.0724879704,-9.597361676,2.769447464,1.72727368,1.8014253,-3.63844329,,,
imu,475.696763,-1.088638096,-9.6039413568,2.7670548528,1.55530475,1.51730272,-3.77302767,,,
imu,475.705577,-1.1131623608,-9.608128426400002,2.7778216032,1.33099745,1.18084177,-3.69825857,,,
imu,475.714391,-1.1299106392,-9.61530626,2.7730363808,1.20388998,0.86681155,-3.57862801,,,
imu,475.723205,-1.1598182792,-9.625474857600002,2.7682511584,1.04687487,0.7696117199999999,-3.5711511,,,
imu,475.73202,-1.178361016,-9.619493329600001,2.763465936,1.15902852,0.5378275100000001,-3.496382,,,
imu,475.740834,-1.2094649616,-9.617698871200002,2.7670548528,1.23379762,0.3434278499999999,-3.50385891,,,
imu,475.749306,-1.2304003096,-9.618895176800002,2.759877019200001,1.18893616,0.29856639,-3.55619728,,,
imu,475.757779,-1.2465504352,-9.596763523200002,2.7700456168,1.30856672,0.4481045899999998,-3.43656672,,,
imu,475.766251,-1.2728691584,-9.573435564,2.763465936,1.25622835,0.3808123999999999,-3.50385891,,,
imu,475.774724,-1.2926082008,-9.5566872856,2.7467176576,1.21136689,0.47801223,-3.51881273,,,
imu,475.783196,-1.2997860344,-9.540537160000001,2.729371226400001,1.2936129,0.7696117199999999,-3.45152054,,,
imu,475.791669,-1.3123472432,-9.508835061600001,2.731165684800001,1.33847436,1.16588795,-3.44404363,,,
imu,475.800141,-1.3302918272,-9.470553282400001,2.7084358784,1.60764312,1.42010289,-3.496382,,,
imu,475.808613,-1.3237121464,-9.4382530312,2.6940802112,1.75718132,1.78647148,-3.5711511,,,
imu,475.817086,-1.3171324656,-9.408943544000001,2.689893141600001,1.77961205,2.11545552,-3.66835093,,,
imu,475.825558,-1.309954632,-9.376045140000002,2.6863042248,1.84690424,2.41453192,-3.96742733,,,
imu,475.834031,-1.283037756,-9.4005694048,2.6863042248,1.94410407,2.66126995,-4.02724261,,,
imu,475.842503,-1.2585134912,-9.444234559200002,2.6892949888,2.05625772,2.98277708,-3.99733497,,,
imu,475.850976,-1.2399707544,-9.472347740800002,2.6982672808,1.95158098,3.17717674,-4.18425772,,,
imu,475.859448,-1.2118575728,-9.507638756,2.712622948,1.77961205,3.20708438,-4.19173463,,,
imu,475.867921,-1.190324072,-9.544126076800001,2.7108284896,1.36090509,2.97530017,-4.25154991,,,
imu,475.876393,-1.1825480856,-9.5632669664,2.722791545600001,1.12912088,2.90053107,-4.08705789,,,
imu,475.884865,-1.1831462384,-9.5704448,2.7347546016,0.56835263,2.55659321,-4.11696553,,,
imu,475.893338,-1.1807536272,-9.5740337168,2.738941671200001,0.27675314,2.33976282,-3.98238115,,,
imu,475.90181,-1.1915203776,-9.557883591200001,2.747913963200001,0.01506129,2.04816333,-3.84031986,,,
imu,475.910283,-1.2190354064,-9.554294674400001,2.7562881024,-0.127,1.8761944,-3.7206893,,,
imu,475.918755,-1.2327929208,-9.545322382400002,2.7718400752,-0.16438455,1.76404075,-3.36927453,,,
imu,475.927228,-1.2405689072,-9.529770409600001,2.7838031312,-0.15690764,1.64441019,-3.29450543,,,
imu,475.9357,-1.2603079496,-9.52558334,2.7855975896,-0.17933837,1.71917929,-3.31693616,,,
imu,475.944173,-1.259111644,-9.5237888816,2.802345868,-0.08961545,1.83133294,-3.24964397,,,
imu,475.952636,-1.2656913248,-9.5118258256,2.8035421736,0.01506129,1.92853277,-3.30198234,,,
imu,475.9611,-1.2746636168,-9.507040603200002,2.796962492800001,0.1720764,2.27994754,-3.17487487,,,
imu,475.969563,-1.2710747,-9.478927421600002,2.808327396000001,0.15712258,2.41453192,-3.16739796,,,
imu,475.978027,-1.2627005608,-9.471151435200001,2.8077292432,0.41881443,2.68370068,-3.24216706,,,
imu,475.98649,-1.2525319632,-9.46576806,2.8119163128,0.50853735,2.94539253,-3.28702852,,,
imu,475.994954,-1.22621324,-9.4526086984,2.812514465600001,0.67302937,3.23699202,-3.33936689,,,
imu,476.003417,-1.2130538784,-9.4041583216,2.8077292432,0.85995212,3.34914567,-3.45152054,,,
imu,476.011881,-1.199296364,-9.391597112800001,2.8137107712,1.11416706,3.45382241,-3.47395127,,,
imu,476.020344,-1.1795573216,-9.401167557600001,2.8089255488,1.46558183,3.58840679,-3.45152054,,,
imu,476.028808,-1.163407196,-9.438851184,2.8029440208,1.94410407,3.68560662,-3.37675144,,,
imu,476.037271,-1.1520422928,-9.4215047528,2.799355104,2.38524176,3.58092988,-3.54872037,,,
imu,476.045735,-1.1466589176,-9.433467808800001,2.817299688,2.4151494,3.39400713,-3.84031986,,,
imu,476.054199,-1.145462612,-9.478329268800001,2.817897840800001,2.68431816,3.31923803,-3.87770441,,,
imu,476.062662,-1.1418736952,-9.524387034400002,2.82627198,2.70674889,3.19213056,-4.07210407,,,
imu,476.071126,-1.1729776408,-9.519601812000001,2.8095237016,2.54225687,2.96034635,-4.19173463,,,
imu,476.079589,-1.1885296136,-9.516611048000001,2.7999532568,2.49739541,2.75846978,-4.15435008,,,
imu,476.088053,-1.1921185304,-9.5082369088,2.7879902008,2.36281103,2.63883922,-3.93751969,,,
imu,476.096516,-1.199296364,-9.5010590752,2.7855975896,2.29551884,2.63883922,-3.69078166,,,
imu,476.10498,-1.1969037528,-9.507040603200002,2.7760271448,2.14598064,2.67622377,-3.51133582,,,
imu,476.113443,-1.2064741976,-9.513620284000002,2.7742326864,1.95905789,2.67622377,-3.44404363,,,
imu,476.121907,-1.2016889752,-9.507040603200002,2.779616061600001,1.84690424,2.67622377,-3.46647436,,,
imu,475.022168,,,,,,,72.32764920000001,4.327421999999981,7.891969599999992
imu,475.123791,,,,,,,72.1201268,4.498322799999999,7.904176799999996
imu,475.225323,,,,,,,72.0957124,3.436296399999983,7.476924799999995
imu,475.326886,,,,,,,71.7783252,4.034449199999979,7.110708799999998
imu,475.42854,,,,,,,72.02246919999999,3.570575599999981,7.50133919999999
imu,476.13037,-1.1986982112,-9.4962738528,2.778419756,1.95158098,2.75099287,-3.36179762,,,
imu,476.138834,-1.1986982112,-9.486105255200002,2.7658585472,1.80204278,2.78837742,-3.54124346,,,
imu,476.147298,-1.2046797392,-9.4801237272,2.7580825608,1.8917657,2.86314652,-3.66835093,,,
imu,476.155802,-1.1801554744,-9.4663662128,2.763465936,2.20579592,3.05006927,-3.71321239,,,
imu,476.164306,-1.1687905712,-9.460982837600001,2.748512116,2.15345755,3.18465365,-3.8702275,,,
imu,476.17281,-1.1628090432,-9.472347740800002,2.7371472128,2.18336519,2.93791562,-4.07210407,,,
imu,476.181314,-1.15144414,-9.469356976800002,2.7377453656,2.46748777,2.9229618,-3.97490424,,,
imu,476.189819,-1.1508459872,-9.479525574400002,2.738941671200001,2.39271867,2.8481927,-4.079580979999999,,,
imu,476.198323,-1.1538367512,-9.4831144912,2.7257823096,2.66188743,2.63136231,-4.00481188,,,
imu,476.206827,-1.1478552232,-9.503451686400002,2.717408170400001,2.81142563,2.48182411,-3.91508896,,,
imu,476.215331,-1.145462612,-9.5172092008,2.7138192536,2.72917962,2.4743472,-3.67582784,,,
imu,476.223836,-1.1436681536,-9.526779645600001,2.7144174064,2.75161035,2.41453192,-3.75059694,,,
imu,476.23234,-1.1406773896,-9.517807353600002,2.7084358784,2.7889949,2.28742445,-3.59358183,,,
imu,476.240844,-1.1382847784,-9.5219944232,2.701856197600001,2.78151799,2.08554788,-3.78050458,,,
imu,476.249348,-1.1436681536,-9.519003659200001,2.6952765168,2.7889949,1.86871749,-3.9449966,,,
imu,476.257853,-1.1466589176,-9.5237888816,2.6892949888,2.81142563,1.71917929,-3.95995042,,,
imu,476.266413,-1.1598182792,-9.544126076800001,2.689893141600001,2.74413344,1.45001053,-4.13939626,,,
imu,476.274917,-1.1717813352,-9.552500216,2.6821171552,2.75908726,1.32290306,-4.079580979999999,,,
imu,476.283421,-1.1807536272,-9.562668813600002,2.6833134608,2.76656417,1.21074941,-3.97490424,,,
imu,476.291925,-1.1819499328,-9.578220786400001,2.6880986832,2.64693361,1.09859576,-3.82536604,,,
imu,476.30043,-1.1927166832,-9.591380148,2.686902377600001,2.57964142,1.03878048,-3.70573548,,,
imu,476.308934,-1.2088668088,-9.595567217600001,2.696472822400001,2.30299575,0.9714882899999999,-3.78050458,,,
imu,476.317438,-1.2094649616,-9.597361676,2.6815190024,2.24318047,1.09859576,-3.496382,,,
imu,476.325942,-1.2268113928,-9.588987536800001,2.6821171552,2.01139626,1.0537343,-3.36927453,,,
imu,476.334447,-1.2345873792,-9.5638651192,2.6833134608,1.7422275,1.1285034,-3.31693616,,,
imu,476.342951,-1.2256150872,-9.5602762024,2.7084358784,1.5179202,1.25561087,-3.33188998,,,
imu,476.351455,-1.220231712,-9.568052188800001,2.713221100800001,1.30856672,1.44253362,-3.35432071,,,
imu,476.360056,-1.2214280176,-9.571641105600001,2.7162118648,1.05435178,1.54721036,-3.59358183,,,
imu,476.368657,-1.220231712,-9.551303910400001,2.7263804624,0.7403215599999999,1.59954873,-3.77302767,,,
imu,476.377258,-1.217240948,-9.504647992000002,2.7347546016,0.55339881,1.49487199,-3.85527368,,,
imu,476.385859,-1.22621324,-9.489096019200002,2.7287730736,0.49358353,1.47991817,-3.81041222,,,
imu,476.394459,-1.2214280176,-9.4831144912,2.7150155592,0.56835263,1.47991817,-3.61601256,,,
imu,476.40306,-1.21125942,-9.450216087200001,2.7203989344,0.70293701,1.56216418,-3.26459779,,,
imu,476.411661,-1.2118575728,-9.4280844336,2.722791545600001,0.8674290299999999,1.577118,-3.01785976,,,
imu,476.420262,-1.2016889752,-9.408345391200001,2.7239878512,1.05435178,1.7266562,-2.91318302,,,
imu,476.428863,-1.2040815864,-9.408943544000001,2.715613712000001,1.27865908,1.78647148,-2.87579847,,,
imu,476.437464,-1.193314836,-9.405952780000002,2.717408170400001,1.72727368,1.75656384,-3.01038285,,,
imu,476.446065,-1.190324072,-9.417915836,2.703650656000001,2.16093446,1.8761944,-3.07019813,,,
imu,476.454665,-1.1951092944,-9.433467808800001,2.7120247952,2.5646876,1.92853277,-3.27955161,,,
imu,476.463266,-1.1939129888,-9.4424401008,2.7012580448,2.93105619,1.86124058,-3.56367419,,,
imu,476.471867,-1.2016889752,-9.450814240000001,2.7024543504,3.30490169,2.01077878,-3.69078166,,,
imu,476.480468,-1.1951092944,-9.475936657600002,2.696472822400001,3.5366859,1.99582496,-3.76555076,,,
imu,476.489069,-1.1909222248,-9.510031367200002,2.694678364,3.67127028,1.90610204,-3.8702275,,,
imu,476.49767,-1.2004926696,-9.550705757600001,2.6928839056,3.76847011,1.92853277,-3.74312003,,,
imu,476.506271,-1.2034834336,-9.568650341600001,2.6803226968,3.67874719,2.12293243,-3.55619728,,,
imu,476.514872,-1.202287128,-9.580613397600002,2.6892949888,3.611455,2.1005017,-3.39170526,,,
imu,476.523472,-1.2148483368,-9.599754287200001,2.6659670296,3.33480933,1.95844041,-3.57862801,,,
imu,476.532073,-1.2010908224,-9.597959828800002,2.6659670296,3.2376095,1.92105586,-3.46647436,,,
imu,476.540674,-1.2004926696,-9.590183842400002,2.667761488,3.04320984,2.16779389,-3.1973056,,,
imu,476.549275,-1.1921185304,-9.5842023144,2.6540039736,2.81890254,2.15284007,-3.10010577,,,
imu,476.557876,-1.1897259192,-9.567454036,2.640844612,2.61702597,2.09302479,-3.10758268,,,
imu,476.566506,-1.1927166832,-9.5447242296,2.6450316816,2.44505704,2.1005017,-2.92813684,,,
imu,476.575136,-1.1957074472,-9.541135312800002,2.634264931200001,2.25813429,2.08554788,-2.95056757,,,
imu,476.583765,-1.1986982112,-9.5219944232,2.6324704728,2.21327283,1.9509635,-2.86832156,,,
imu,476.592395,-1.1885296136,-9.516012895200001,2.628881556000001,2.25813429,2.01825569,-2.92813684,,,
imu,476.601025,-1.1861370024,-9.523190728800001,2.6264889448,2.27308811,2.04068642,-2.92813684,,,
imu,476.609655,-1.1771647104,-9.526779645600001,2.6240963336,2.25813429,2.12293243,-2.8982292,,,
imu,476.618285,-1.1771647104,-9.5219944232,2.6234981808,2.2656112,2.22760917,-2.77112173,,,
imu,476.626915,-1.172379488,-9.516611048000001,2.627685250400001,2.407672489999999,2.31733209,-2.86084465,,,
imu,476.635545,-1.1628090432,-9.5172092008,2.6264889448,2.25813429,2.16031698,-2.98795212,,,
imu,476.644174,-1.15144414,-9.516611048000001,2.6145258888,2.34785721,2.18274771,-3.05524431,,,
imu,476.652804,-1.1406773896,-9.517807353600002,2.6025628328,2.55721069,2.28742445,-3.09262886,,,
imu,476.661434,-1.1448644592,-9.5249851872,2.610936972000001,2.6394567,2.24256299,-3.10758268,,,
imu,476.670064,-1.1346958616,-9.5327611736,2.6043572912,2.69179507,2.20517844,-3.28702852,,,
imu,476.678694,-1.1299106392,-9.555490980000002,2.5947868464,2.81890254,2.24256299,-3.39170526,,,
imu,476.687324,-1.13649032,-9.579417092000002,2.5917960824,3.05816366,2.22013226,-3.46647436,,,
imu,476.695953,-1.1197420416,-9.599156134400001,2.5947868464,2.998348379999999,2.13788625,-3.48890509,,,
imu,476.704583,-1.1137605136,-9.605735815200001,2.597179457600001,2.78151799,2.01077878,-3.46647436,,,
imu,476.713213,-1.1179475832,-9.599754287200001,2.6061517496,2.59459524,1.80890221,-3.56367419,,,
imu,476.721843,-1.1143586664,-9.595567217600001,2.5905997768,2.46748777,1.59954873,-3.60105874,,,
imu,476.730473,-1.115554972,-9.6009505928,2.5935905408,2.68431816,1.45748744,-3.4216129,,,
imu,476.739103,-1.1287143336,-9.595567217600001,2.5911979296,2.48244159,1.30794924,-3.32441307,,,
imu,476.747732,-1.133499556,-9.5865949256,2.5846182488,2.23570356,1.07616503,-3.42908981,,,
imu,476.756362,-1.1430700008,-9.582407856000001,2.5792348736,2.116073,0.94905756,-3.37675144,,,
imu,476.764844,-1.1526404456,-9.580613397600002,2.5864127072,2.13850373,0.92662683,-3.3468438,,,
imu,476.773325,-1.1580238208,-9.589585689600002,2.5852164016,1.83942733,0.9789651999999998,-3.28702852,,,
imu,476.781806,-1.1669961128,-9.574631869600001,2.5917960824,1.83195042,1.07616503,-3.23469015,,,
imu,476.790288,-1.1837443912,-9.5566872856,2.588207165600001,1.63755076,1.00887284,-3.21973633,,,
imu,476.798769,-1.1867351552,-9.550705757600001,2.5965813048,1.34595127,1.18084177,-3.20478251,,,
imu,476.80725,-1.1939129888,-9.527975951200002,2.590001624000001,1.27118217,1.38271834,-3.26459779,,,
imu,476.815732,-1.1885296136,-9.5184055064,2.5923942352,1.28613599,1.51730272,-3.30198234,,,
imu,476.824213,-1.1807536272,-9.507638756,2.5846182488,1.45810492,1.80890221,-3.40665908,,,
imu,476.832694,-1.1669961128,-9.513620284000002,2.581029332,1.52539711,1.98087114,-3.45899745,,,
imu,476.841176,-1.1610145848,-9.5172092008,2.576244109600001,1.65998149,2.13040934,-3.48890509,,,
imu,476.849657,-1.1412755424,-9.5082369088,2.5726551928,1.83942733,2.1752708,-3.56367419,,,
imu,476.858138,-1.1287143336,-9.516611048000001,2.581029332,1.92915025,2.01077878,-3.70573548,,,
imu,476.86662,-1.1149568192,-9.5237888816,2.570860734400001,2.07868845,2.03320951,-3.70573548,,,
imu,476.875101,-1.1011993048,-9.553696521600001,2.5744496512,2.25065738,1.98087114,-3.75059694,,,
imu,476.883582,-1.0904325544,-9.566257730400002,2.584020096,2.33290339,1.88367131,-3.7954584,,,
imu,476.892064,-1.1023956104,-9.585996772800002,2.583421943200001,2.1908421,1.68927165,-3.85527368,,,
imu,476.900545,-1.1071808328,-9.609922884800001,2.588207165600001,2.22822665,1.61450255,-3.89265823,,,
imu,476.909026,-1.1191438888,-9.587193078400002,2.5714588872,2.24318047,1.47991817,-3.87770441,,,
imu,476.917508,-1.1233309584,-9.578220786400001,2.5774404152,2.13102682,1.33785688,-3.83284295,,,
imu,476.925989,-1.1257235696,-9.572239258400002,2.5738514984,2.15345755,1.37524143,-3.6459202,,,
imu,476.93447,-1.1299106392,-9.5877912312,2.570860734400001,2.22822665,1.32290306,-3.66835093,,,
imu,476.942952,-1.1388829312,-9.5698466472,2.57205704,2.14598064,1.24065705,-3.84031986,,,
imu,475.530011,,,,,,,72.0468836,4.010034799999995,7.037465599999992
imu,475.631604,,,,,,,72.25440599999999,4.119899599999988,6.427105599999994
imu,475.733166,,,,,,,71.2290012,3.765890799999982,7.574582399999996
imu,475.83482,,,,,,,73.59719799999999,3.497332399999986,4.351881599999996
imu,475.936261,,,,,,,71.644046,4.095485199999982,7.269402399999992
imu,476.037854,,,,,,,73.9267924,3.448503599999997,4.315259999999999
imu,476.139416,,,,,,,71.6562532,3.924584399999986,7.07408719999999
imu,476.240979,,,,,,,71.460938,4.010034799999995,6.646835199999989
imu,476.951433,-1.1358921672,-9.575828175200002,2.606749902400001,1.98148862,1.15093413,-3.92256587,,,
imu,476.959915,-1.1406773896,-9.589585689600002,2.6091425136,1.63755076,0.8219500899999996,-3.97490424,,,
imu,476.968374,-1.1646035016,-9.6218859408,2.619909264,1.54782784,0.7995193599999997,-4.10948862,,,
imu,476.976834,-1.1741739464,-9.602146898400001,2.598973916,1.45062801,0.9714882899999999,-4.0197657,,,
imu,476.985294,-1.1825480856,-9.557883591200001,2.590001624000001,1.32352054,1.00139593,-3.90013514,,,
imu,476.993753,-1.1921185304,-9.520798117600002,2.575047804,1.1440747,0.92662683,-3.97490424,,,
imu,477.002213,-1.2034834336,-9.495077547200001,2.5594958312,1.21136689,1.00887284,-3.78798149,,,
imu,477.010673,-1.2010908224,-9.474740352000001,2.554112456,1.45810492,1.1285034,-3.51881273,,,
imu,477.019133,-1.193314836,-9.4729458936,2.545738316800001,1.78708896,1.33785688,-3.15244414,,,
imu,477.027592,-1.1951092944,-9.478927421600002,2.5343734136,2.01139626,1.51730272,-3.11505959,,,
imu,477.036052,-1.184342544,-9.496872005600002,2.5337752608,2.33290339,1.68927165,-3.24216706,,,
imu,477.044512,-1.1711831824,-9.514218436800002,2.531980802400001,2.70674889,1.82385603,-3.28702852,,,
imu,477.052972,-1.1550330568,-9.539939007200001,2.5265974272,2.7889949,1.66684092,-3.41413599,,,
imu,477.061431,-1.1520422928,-9.548313146400002,2.5337752608,2.96096383,1.71917929,-3.63096638,,,
imu,477.069891,-1.1532385984,-9.566257730400002,2.5367660248,2.85628709,1.83133294,-3.80293531,,,
imu,477.078351,-1.1490515288,-9.575230022400001,2.5289900384,2.88619473,1.6518871,-3.89265823,,,
imu,477.08681,-1.1376866256,-9.5985579816,2.5080546904,2.72917962,1.78647148,-3.90013514,,,
imu,477.09527,-1.1382847784,-9.5800152448,2.5289900384,2.67684125,1.85376367,-3.83284295,,,
imu,477.10373,-1.1502478344,-9.591978300800001,2.529588191200001,2.62450288,1.84628676,-3.81788913,,,
imu,477.11219,-1.1460607648,-9.6051376624,2.5325789552,2.43758013,1.84628676,-3.70573548,,,
imu,477.120649,-1.1466589176,-9.602745051200001,2.531980802400001,2.28056502,1.85376367,-3.63844329,,,
imu,477.129109,-1.1448644592,-9.600352440000002,2.5397567888,2.14598064,1.98087114,-3.496382,,,
imu,477.137569,-1.1376866256,-9.5949690648,2.520615899200001,1.92167334,1.80890221,-3.66835093,,,
imu,477.146029,-1.1358921672,-9.5907819952,2.529588191200001,1.86933497,1.91357895,-3.7206893,,,
imu,477.154488,-1.1215365,-9.593174606400002,2.5289900384,1.80204278,1.82385603,-3.92256587,,,
imu,477.162948,-1.1191438888,-9.575828175200002,2.5194195936,1.77213514,1.73413311,-3.98238115,,,
imu,477.171426,-1.1263217224,-9.575230022400001,2.520615899200001,1.83942733,1.75656384,-4.15435008,,,
imu,477.179903,-1.124527264,-9.582407856000001,2.522410357600001,1.68988913,1.53225654,-4.29641137,,,
imu,477.188381,-1.1287143336,-9.585398620000001,2.5194195936,1.8169966,1.39019525,-4.23659609,,,
imu,477.196858,-1.139481084,-9.593772759200002,2.5200177464,1.64502767,1.21822632,-4.21416536,,,
imu,477.205336,-1.1466589176,-9.595567217600001,2.5188214408,1.5179202,1.12102649,-4.07210407,,,
imu,477.213813,-1.1520422928,-9.5842023144,2.5236066632,1.47305874,1.32290306,-3.95995042,,,
imu,477.222291,-1.1610145848,-9.5704448,2.5170269824,1.45810492,1.18831868,-4.012288789999999,,,
imu,477.230768,-1.1598182792,-9.561472508000001,2.5098491488,1.58521239,1.33037997,-3.86275059,,,
imu,477.239246,-1.1526404456,-9.545322382400002,2.5194195936,1.57025857,1.38271834,-3.78050458,,,
imu,477.247723,-1.148453376,-9.5327611736,2.5373641776,1.50296638,1.46496435,-3.74312003,,,
imu,477.256201,-1.1586219736,-9.547116840800001,2.5325789552,1.49548947,1.42010289,-3.87770441,,,
imu,477.264678,-1.163407196,-9.567454036,2.539158636000001,1.36090509,1.27056469,-4.124442439999999,,,
imu,477.273156,-1.1705850296,-9.572837411200002,2.5325789552,1.39081273,1.22570323,-4.21416536,,,
imu,477.281633,-1.175370252,-9.559678049600002,2.539158636000001,1.33099745,1.13598031,-4.28145755,,,
imu,477.290111,-1.1789591688,-9.5566872856,2.5367660248,1.30856672,1.18084177,-4.19173463,,,
imu,477.298588,-1.1687905712,-9.539939007200001,2.5349715664,1.39828964,1.34533379,-3.75807385,,,
imu,477.307066,-1.1771647104,-9.541733465600002,2.5349715664,1.53287402,1.51730272,-3.47395127,,,
imu,477.315543,-1.1687905712,-9.559678049600002,2.525401121600001,1.56278166,1.74161002,-3.18982869,,,
imu,477.324021,-1.1580238208,-9.557883591200001,2.5104473016,1.63007385,1.78647148,-3.23469015,,,
imu,477.332499,-1.1418736952,-9.520798117600002,2.5176251352,1.89924261,1.82385603,-3.40665908,,,
imu,477.340976,-1.1460607648,-9.530966715200002,2.5050639264,2.16841137,1.98834805,-3.54872037,,,
imu,477.349454,-1.1382847784,-9.5357519376,2.497287940000001,2.39271867,1.92105586,-3.84779677,,,
imu,477.357943,-1.148453376,-9.5489112992,2.4978860928,2.6394567,1.89114822,-4.07210407,,,
imu,477.366421,-1.1406773896,-9.547714993600001,2.4901101064,2.70674889,1.77151766,-4.363703559999999,,,
imu,477.374915,-1.1508459872,-9.566257730400002,2.491306412,2.66188743,1.64441019,-4.37118047,,,
imu,477.383409,-1.1586219736,-9.578818939200001,2.4889138008,2.73665653,1.577118,-4.23659609,,,
imu,477.391903,-1.1580238208,-9.600352440000002,2.4978860928,2.66936434,1.68179474,-4.16182699,,,
imu,477.400397,-1.1610145848,-9.6290637744,2.4954934816,2.55721069,1.53973345,-4.124442439999999,,,
imu,477.408891,-1.1562293624,-9.631456385600002,2.485324884000001,2.39271867,1.39019525,-4.18425772,,,
imu,477.417385,-1.1687905712,-9.630858232800001,2.4859230368,2.35533412,1.43505671,-4.11696553,,,
imu,477.425879,-1.1747720992,-9.617698871200002,2.4781470504,2.00391935,1.43505671,-3.78798149,,,
imu,477.434374,-1.1747720992,-9.5949690648,2.470371064,1.60016621,1.46496435,-3.75059694,,,
imu,477.442868,-1.1855388496,-9.593772759200002,2.4745581336,1.47305874,1.45748744,-3.84031986,,,
imu,477.451362,-1.1867351552,-9.600352440000002,2.4751562864,1.36090509,1.38271834,-3.68330475,,,
imu,477.459856,-1.1807536272,-9.599156134400001,2.479343356,1.42072037,1.3528107,-3.72816621,,,
imu,477.46835,-1.1891277664,-9.585996772800002,2.4691747584,1.33847436,1.34533379,-3.75059694,,,
imu,477.476844,-1.1921185304,-9.5800152448,2.476352592,1.30856672,1.40514907,-3.70573548,,,
imu,477.485338,-1.2016889752,-9.576426328,2.4817359672,1.33099745,1.49487199,-3.57862801,,,
imu,477.493832,-1.2034834336,-9.577024480800002,2.4817359672,1.12164397,1.55468727,-3.75059694,,,
imu,477.502326,-1.2016889752,-9.5632669664,2.4889138008,1.19641307,1.58459491,-3.68330475,,,
imu,477.51082,-1.1927166832,-9.559678049600002,2.4901101064,1.19641307,1.68927165,-3.67582784,,,
imu,477.519314,-1.1927166832,-9.562668813600002,2.479343356,1.35342818,1.85376367,-3.56367419,,,
imu,477.527808,-1.1795573216,-9.547714993600001,2.4745581336,1.47305874,1.92105586,-3.69078166,,,
imu,477.536302,-1.1747720992,-9.550705757600001,2.4781470504,1.65998149,1.97339423,-3.83284295,,,
imu,477.544796,-1.1729776408,-9.580613397600002,2.471567369600001,1.72727368,2.10797861,-3.78050458,,,
imu,477.55329,-1.1562293624,-9.593772759200002,2.485324884000001,1.74970441,2.07059406,-3.74312003,,,
imu,477.561784,-1.1430700008,-9.588987536800001,2.491306412,1.78708896,1.94348659,-3.82536604,,,
imu,477.570278,-1.1466589176,-9.594370912,2.485324884000001,1.63755076,1.89114822,-3.84031986,,,
imu,477.579106,-1.1311069448,-9.591380148,2.487717495200001,1.5926893,1.64441019,-3.85527368,,,
imu,477.587934,-1.13649032,-9.585398620000001,2.483530425600001,1.64502767,1.54721036,-3.76555076,,,
imu,477.596761,-1.1376866256,-9.587193078400002,2.4781470504,1.55530475,1.47244126,-3.69078166,,,
imu,477.605589,-1.1418736952,-9.5740337168,2.4799415088,1.55530475,1.33785688,-3.67582784,,,
imu,477.614416,-1.1436681536,-9.554892827200002,2.4751562864,1.48801256,1.22570323,-3.65339711,,,
imu,477.623244,-1.1598182792,-9.553098368800002,2.4721655224,1.45810492,1.2032725,-3.6459202,,,
imu,477.632071,-1.1520422928,-9.583604161600002,2.4757544392,1.43567419,1.00887284,-3.78050458,,,
imu,477.640899,-1.160416432,-9.597959828800002,2.4685766056,1.43567419,1.08364194,-3.80293531,,,
imu,477.649726,-1.1562293624,-9.5812115504,2.4685766056,1.5179202,1.10607267,-3.76555076,,,
imu,477.658554,-1.1580238208,-9.585398620000001,2.4691747584,1.4431511,1.1285034,-3.77302767,,,
imu,477.667381,-1.1646035016,-9.574631869600001,2.4637913832,1.48801256,1.15841104,-3.80293531,,,
imu,477.676209,-1.1622108904,-9.556089132800002,2.4691747584,1.40576655,1.21822632,-3.75807385,,,
imu,477.685037,-1.1687905712,-9.5357519376,2.458408008,1.18893616,1.3528107,-3.7954584,,,
imu,477.693864,-1.1669961128,-9.528574104,2.4488375632,1.28613599,1.40514907,-3.77302767,,,
imu,477.702692,-1.1580238208,-9.540537160000001,2.45242648,1.62259694,1.63693328,-3.69078166,,,
imu,477.711519,-1.133499556,-9.573435564,2.4500338688,1.82447351,1.86871749,-3.70573548,,,
imu,477.720347,-1.1323032504,-9.597959828800002,2.4512301744,1.90671952,1.92105586,-3.81788913,,,
imu,477.729174,-1.1203401944,-9.608128426400002,2.450632021600001,1.94410407,1.83880985,-4.13191935,,,
imu,477.738002,-1.103591916,-9.604539509600002,2.4458467992,1.82447351,1.67431783,-4.23659609,,,
imu,477.746829,-1.0934233184,-9.6260730104,2.4428560352,1.79456587,1.64441019,-4.32631901,,,
imu,477.755657,-1.097610388,-9.620689635200002,2.4476412576,1.65250458,1.56964109,-4.33379592,,,
imu,477.764484,-1.0928251656,-9.605735815200001,2.450632021600001,1.63755076,1.49487199,-4.19173463,,,
imu,476.343609,,,,,,,71.74170360000001,3.790305199999988,7.45251039999999
imu,476.444072,,,,,,,71.460938,3.863548399999983,7.12291599999999
imu,476.545635,,,,,,,71.54638840000001,3.65602599999999,7.977419999999991
imu,476.647381,,,,,,,71.97364040000001,3.448503599999997,7.367059999999992
imu,476.74876,,,,,,,71.02147880000001,3.558368399999989,8.551158399999991
imu,476.850353,,,,,,,74.01224280000001,2.386477199999981,5.145349599999993
imu,476.951915,,,,,,,71.6928748,3.033458799999988,8.245978399999998
imu,477.053478,,,,,,,73.93899960000002,2.337648399999992,4.620439999999992
imu,477.773312,-1.1047882216,-9.612913648800001,2.45242648,1.5179202,1.31542615,-4.41604193,,,
imu,477.781856,-1.1131623608,-9.616502565600001,2.45242648,1.43567419,1.06868812,-4.49828794,,,
imu,477.790399,-1.1233309584,-9.612913648800001,2.45242648,1.2188438,0.8967191899999998,-4.61044159,,,
imu,477.798943,-1.1293124864,-9.583604161600002,2.4500338688,1.0693056,0.9041961000000001,-4.602964679999999,,,
imu,477.807487,-1.15144414,-9.572239258400002,2.4500338688,1.16650543,0.6125966099999998,-4.5431494,,,
imu,477.81603,-1.1610145848,-9.582407856000001,2.4500338688,1.1440747,0.4107200399999997,-4.49828794,,,
imu,477.824574,-1.1598182792,-9.6051376624,2.4440523408,1.22632071,0.33595094,-4.40108811,,,
imu,477.833117,-1.172379488,-9.5812115504,2.455417244,1.24875144,0.3060432999999998,-4.48333412,,,
imu,477.841661,-1.1951092944,-9.5740337168,2.470371064,1.17398234,0.3284740299999998,-4.52819558,,,
imu,477.850205,-1.2154464896,-9.602745051200001,2.4889138008,1.08425942,0.1639820099999998,-4.79736434,,,
imu,477.858748,-1.2304003096,-9.635045302400002,2.48233412,1.00201341,0.0368745399999999,-4.70016451,,,
imu,477.867292,-1.2459522824,-9.609324732000001,2.479343356,0.8375213899999999,0.1265974599999997,-4.52071867,,,
imu,477.875836,-1.253130116,-9.571641105600001,2.4655858416,0.8524752099999999,0.3434278499999999,-4.37865738,,,
imu,477.884379,-1.2627005608,-9.556089132800002,2.4596043136,0.7702292,0.4630584099999999,-4.34874974,,,
imu,477.892923,-1.2710747,-9.5393408544,2.45242648,0.77770611,0.6499811599999998,-4.21416536,,,
imu,477.901467,-1.2854303672,-9.5154147424,2.45242648,0.94967504,0.9041961000000001,-3.93004278,,,
imu,477.91001,-1.2842340616,-9.4974701584,2.4530246328,1.12912088,1.06868812,-3.63096638,,,
imu,477.918554,-1.2914118952,-9.496872005600002,2.4416597296,1.37585891,1.2780416,-3.60105874,,,
imu,477.927098,-1.2908137424,-9.512423978400001,2.4350800488,1.79456587,1.53225654,-3.48142818,,,
imu,477.935641,-1.2752617696,-9.514218436800002,2.45242648,1.85438115,1.94348659,-3.57862801,,,
imu,477.944185,-1.2627005608,-9.5423316184,2.4428560352,2.10111918,2.15284007,-3.69078166,,,
imu,477.952729,-1.2513356576,-9.575828175200002,2.429696673600001,2.18336519,2.30237827,-3.92256587,,,
imu,477.961272,-1.2274095456,-9.5740337168,2.4386689656,2.22822665,2.42200883,-3.95247351,,,
imu,477.969816,-1.2118575728,-9.599156134400001,2.4302948264,2.22074974,2.54163939,-4.00481188,,,
imu,477.97836,-1.2046797392,-9.6009505928,2.4350800488,2.30299575,2.58650085,-3.93751969,,,
imu,477.98671,-1.2010908224,-9.614708107200002,2.440463424,2.10859609,2.46687029,-3.90761205,,,
imu,477.99506,-1.1951092944,-9.6290637744,2.4452486464,2.00391935,2.49677793,-3.63844329,,,
imu,478.003411,-1.1879314608,-9.636241608,2.4446504936,1.69736604,2.45939338,-3.58610492,,,
imu,478.011761,-1.1963056,-9.630260080000001,2.4482394104,1.65998149,2.43696265,-3.51881273,,,
imu,478.020111,-1.1855388496,-9.632054538400002,2.4512301744,1.43567419,2.33976282,-3.56367419,,,
imu,478.028462,-1.1897259192,-9.6009505928,2.450632021600001,1.20388998,2.21265535,-3.61601256,,,
imu,478.036812,-1.2046797392,-9.5776226336,2.446444952,1.21136689,2.16779389,-3.74312003,,,
imu,478.045162,-1.2016889752,-9.560874355200001,2.449435716,1.2936129,2.19770153,-3.69078166,,,
imu,478.053513,-1.1957074472,-9.557883591200001,2.4428560352,1.25622835,2.12293243,-3.83284295,,,
imu,478.061863,-1.187333308,-9.5590798968,2.4452486464,1.27865908,2.05564024,-3.95247351,,,
imu,478.070214,-1.1891277664,-9.557883591200001,2.4488375632,1.368382,2.07059406,-4.04967334,,,
imu,478.078564,-1.1915203776,-9.5602762024,2.449435716,1.54035093,2.09302479,-3.97490424,,,
imu,478.086914,-1.1819499328,-9.576426328,2.4542209384,1.57025857,2.05564024,-3.92256587,,,
imu,478.095265,-1.1807536272,-9.584800467200001,2.4530246328,1.5179202,2.03320951,-3.82536604,,,
imu,478.103615,-1.1777628632,-9.593174606400002,2.447043104800001,1.57025857,1.92853277,-3.76555076,,,
imu,478.111965,-1.18135178,-9.605735815200001,2.441061576800001,1.58521239,1.80890221,-3.71321239,,,
imu,478.120316,-1.1735757936,-9.6009505928,2.4392671184,1.63007385,1.77151766,-3.6459202,,,
imu,478.128666,-1.1669961128,-9.578220786400001,2.4488375632,1.46558183,1.75656384,-3.62348947,,,
imu,478.137017,-1.1711831824,-9.584800467200001,2.4566135496,1.39828964,1.83133294,-3.59358183,,,
imu,478.145367,-1.1562293624,-9.6039413568,2.4518283272,1.30108981,1.82385603,-3.89265823,,,
imu,478.153717,-1.1861370024,-9.609922884800001,2.4482394104,1.34595127,1.78647148,-4.15435008,,,
imu,478.162068,-1.1777628632,-9.575828175200002,2.45242648,1.2188438,1.77899457,-4.11696553,,,
imu,478.170418,-1.1861370024,-9.557883591200001,2.4488375632,1.16650543,1.82385603,-4.079580979999999,,,
imu,478.178768,-1.2040815864,-9.552500216,2.443454188,1.31604363,1.85376367,-4.08705789,,,
imu,478.187224,-1.2088668088,-9.554294674400001,2.4482394104,1.32352054,1.81637912,-3.84031986,,,
imu,478.19568,-1.2010908224,-9.560874355200001,2.446444952,1.37585891,2.07059406,-3.45899745,,,
imu,478.204136,-1.2004926696,-9.572837411200002,2.4476412576,1.38333582,2.26499372,-3.30198234,,,
imu,478.212592,-1.184342544,-9.560874355200001,2.446444952,1.37585891,2.324809,-3.29450543,,,
imu,478.221048,-1.1675942656,-9.5740337168,2.4362763544,1.63007385,2.3995781,-3.39918217,,,
imu,478.229504,-1.142471848,-9.580613397600002,2.4350800488,1.80204278,2.46687029,-3.51133582,,,
imu,478.23796,-1.1376866256,-9.572837411200002,2.4243132984,1.98148862,2.50425484,-3.6459202,,,
imu,478.246416,-1.1358921672,-9.573435564,2.428500368,1.79456587,2.30237827,-3.99733497,,,
imu,478.254872,-1.142471848,-9.5656595776,2.4279022152,1.88428879,2.09302479,-4.26650373,,,
imu,478.263328,-1.1466589176,-9.5800152448,2.413546548,2.18336519,1.8761944,-4.26650373,,,
imu,478.271783,-1.1526404456,-9.594370912,2.4117520896,2.16093446,1.71170238,-4.30388828,,,
imu,478.280239,-1.1771647104,-9.5907819952,2.410555784,2.07121154,1.55468727,-4.318842099999999,,,
imu,478.288695,-1.1927166832,-9.5985579816,2.4129483952,2.14598064,1.54721036,-4.31136519,,,
imu,478.297151,-1.1981000584,-9.596165370400001,2.4087613256,2.05625772,1.5023489,-4.146873169999999,,,
imu,478.305607,-1.2238206288,-9.599156134400001,2.413546548,2.03382699,1.40514907,-4.124442439999999,,,
imu,478.314063,-1.22621324,-9.593772759200002,2.4003871864,1.78708896,1.43505671,-4.19173463,,,
imu,478.322519,-1.2345873792,-9.595567217600001,2.4087613256,1.87681188,1.53973345,-4.19921154,,,
imu,478.330975,-1.2429615184,-9.588987536800001,2.4033779504,1.8917657,1.65936401,-4.19173463,,,
imu,478.339431,-1.2549245744,-9.568650341600001,2.4051724088,1.85438115,1.76404075,-4.25154991,,,
imu,478.347887,-1.2579153384,-9.568052188800001,2.410555784,1.80951969,1.77151766,-4.37865738,,,
imu,478.356343,-1.2686820888,-9.555490980000002,2.3997890336,1.91419643,1.86871749,-4.31136519,,,
imu,478.364799,-1.2668876304,-9.553696521600001,2.401583492,2.10111918,2.09302479,-4.034719519999999,,,
imu,478.373254,-1.2638968664,-9.5602762024,2.4009853392,2.1908421,2.16031698,-4.04967334,,,
imu,478.38171,-1.2692802416,-9.585398620000001,2.4069668672,2.24318047,2.36219355,-3.96742733,,,
imu,478.390223,-1.2674857832,-9.596165370400001,2.3991908808,2.32542648,2.39210119,-3.93004278,,,
imu,478.398737,-1.259111644,-9.610521037600002,2.40756502,2.19831901,2.64631613,-3.8702275,,,
imu,478.40725,-1.24116706,-9.6087265792,2.404574256,2.0413039,2.80333124,-3.7954584,,,
imu,478.415763,-1.250139352,-9.610521037600002,2.3973964224,1.98148862,2.89305416,-3.81041222,,,
imu,478.424276,-1.2274095456,-9.612913648800001,2.3973964224,1.99644244,2.89305416,-3.7206893,,,
imu,478.432789,-1.229204004,-9.612913648800001,2.3908167416,1.86933497,2.88557725,-3.80293531,,,
imu,478.441302,-1.2178391008,-9.610521037600002,2.3848352136,1.71231986,2.95286944,-3.90013514,,,
imu,478.449693,-1.2178391008,-9.5985579816,2.3842370608,1.7422275,2.87062343,-3.95995042,,,
imu,478.458207,-1.2160446424,-9.591380148,2.374666616,1.77961205,2.96782326,-3.93751969,,,
imu,478.46672,-1.2208298648,-9.592576453600001,2.3818444496,1.73475059,2.9977309,-4.02724261,,,
imu,478.475233,-1.2226243232,-9.593772759200002,2.3878259776,1.71231986,2.84071579,-4.169303899999999,,,
imu,478.483746,-1.2190354064,-9.599754287200001,2.383040755200001,1.77961205,2.80333124,-3.98238115,,,
imu,478.492259,-1.223222476,-9.6075302736,2.3758629216,1.70484295,2.85566961,-3.81788913,,,
imu,478.500772,-1.208268656,-9.6087265792,2.3680869352,1.7422275,2.97530017,-3.70573548,,,
imu,478.509285,-1.2070723504,-9.599156134400001,2.3674887824,1.73475059,3.04259236,-3.496382,,,
imu,478.517799,-1.193314836,-9.610521037600002,2.369283240800001,1.71231986,3.10988455,-3.44404363,,,
imu,478.526312,-1.1735757936,-9.614708107200002,2.371675852,1.5926893,3.19213056,-3.47395127,,,
imu,478.534825,-1.1580238208,-9.61530626,2.3758629216,1.49548947,3.37905331,-3.54872037,,,
imu,478.543338,-1.1532385984,-9.6326526912,2.3848352136,1.52539711,3.43139168,-3.75807385,,,
imu,478.551851,-1.148453376,-9.627269316000001,2.3848352136,1.33847436,3.19213056,-4.02724261,,,
imu,478.560364,-1.1580238208,-9.618895176800002,2.383040755200001,1.21136689,3.20708438,-4.012288789999999,,,
imu,478.568877,-1.1430700008,-9.642223136000002,2.398592728,1.27118217,3.2220382,-3.99733497,,,
imu,478.57739,-1.1215365,-9.6326526912,2.4111539368,0.9347212199999999,3.17717674,-4.0197657,,,
imu,477.15501,,,,,,,71.4731452,3.021251599999997,7.244987999999997
imu,477.256603,,,,,,,71.644046,2.996837199999991,7.391474399999998
imu,477.358135,,,,,,,71.7172892,3.057873199999994,8.490122399999988
imu,477.459728,,,,,,,71.6562532,2.923593999999996,8.11169919999999
imu,477.56126,,,,,,,72.1079196,2.813729199999981,8.380257599999997
imu,477.662792,,,,,,,71.53418119999999,2.716071599999981,7.855347999999996
imu,477.764446,,,,,,,71.96143319999999,2.398684399999995,7.794311999999993
imu,477.865947,,,,,,,71.3266588,2.142333199999991,8.392464799999999
imu,478.585904,-1.1179475832,-9.613511801600001,2.4087613256,0.8749059399999999,3.16969983,-4.17678081,,,
imu,478.594673,-1.1083771384,-9.6051376624,2.4009853392,0.77770611,3.0725,-4.06462716,,,
imu,478.603442,-1.1041900688,-9.574631869600001,2.3962001168,0.5010604399999999,2.72856214,-4.124442439999999,,,
imu,478.612211,-1.1173494304,-9.551303910400001,2.380648144,0.46367589,2.58650085,-4.146873169999999,,,
imu,478.62098,-1.127518028,-9.5447242296,2.3926112,0.620691,2.37714737,-4.10948862,,,
imu,478.629749,-1.1233309584,-9.559678049600002,2.3824426024,0.8524752099999999,2.25751681,-4.02724261,,,
imu,478.638519,-1.1233309584,-9.564463272000001,2.37765738,0.9272443100000001,2.10797861,-4.034719519999999,,,
imu,478.647288,-1.1293124864,-9.565061424800001,2.389022283200001,1.15155161,1.94348659,-4.079580979999999,,,
imu,478.656057,-1.1340977088,-9.5656595776,2.3979945752,1.36090509,1.83880985,-3.97490424,,,
imu,478.664826,-1.1556312096,-9.591380148,2.3872278248,1.39828964,1.66684092,-4.13191935,,,
imu,478.673595,-1.1628090432,-9.596165370400001,2.3812462968,1.50296638,1.59207182,-4.10948862,,,
imu,478.682364,-1.1586219736,-9.589585689600002,2.3932093528,1.39081273,1.56216418,-4.169303899999999,,,
imu,478.691134,-1.178361016,-9.593772759200002,2.389620436,1.28613599,1.5023489,-4.13939626,,,
imu,478.699903,-1.1867351552,-9.618895176800002,2.3979945752,1.43567419,1.58459491,-4.079580979999999,,,
imu,478.708672,-1.1927166832,-9.641624983200002,2.3938075056,1.28613599,1.56964109,-4.079580979999999,,,
imu,478.717441,-1.1909222248,-9.637437913600001,2.3920130472,1.20388998,1.49487199,-4.04967334,,,
imu,478.72621,-1.1759684048,-9.630260080000001,2.3920130472,1.07678251,1.56216418,-3.97490424,,,
imu,478.734979,-1.178361016,-9.655382497600002,2.37765738,0.9870595899999999,1.41262598,-4.00481188,,,
imu,478.743748,-1.1717813352,-9.6535880392,2.383040755200001,0.94967504,1.37524143,-4.00481188,,,
imu,478.752518,-1.1741739464,-9.618297024,2.383638908,0.65059864,1.28551851,-4.16182699,,,
imu,478.761287,-1.1861370024,-9.611119190400002,2.3938075056,0.41133752,0.9191499199999997,-4.49081103,,,
imu,478.770056,-1.208268656,-9.633250844,2.4003871864,0.38142988,0.7097964399999999,-4.49828794,,,
imu,478.778825,-1.2208298648,-9.651793580800001,2.406368714400001,0.26927623,0.56025824,-4.35622665,,,
imu,478.787594,-1.2333910736,-9.618895176800002,2.4093594784,0.04496892999999999,0.6051196999999999,-4.318842099999999,,,
imu,478.796069,-1.2615042552,-9.572837411200002,2.389022283200001,0.02253820000000001,0.4331507699999997,-4.18425772,,,
imu,478.804544,-1.2710747,-9.553696521600001,2.380648144,0.15712258,0.5079198699999998,-4.034719519999999,,,
imu,478.813019,-1.28602852,-9.548313146400002,2.3722740048,0.26179932,0.5677351499999999,-3.76555076,,,
imu,478.821494,-1.2938045064,-9.5423316184,2.3722740048,0.57582954,0.7322271699999998,-3.48890509,,,
imu,478.829969,-1.2872248256,-9.548313146400002,2.3764610744,0.67302937,0.7770886299999997,-3.35432071,,,
imu,478.838444,-1.274065464,-9.5459205352,2.374666616,0.85995212,1.0537343,-3.33188998,,,
imu,478.846919,-1.268083936,-9.5566872856,2.3638998656,1.00949032,1.16588795,-3.39170526,,,
imu,478.855394,-1.2603079496,-9.5656595776,2.3710776992,1.04687487,1.42010289,-3.66835093,,,
imu,478.863869,-1.244157824,-9.580613397600002,2.3728721576,1.34595127,1.68179474,-3.57862801,,,
imu,478.872344,-1.2339892264,-9.583006008800002,2.3710776992,1.31604363,1.77899457,-3.78050458,,,
imu,478.880819,-1.223222476,-9.592576453600001,2.3818444496,1.26370526,1.96591732,-3.84779677,,,
imu,478.889294,-1.2058760448,-9.599156134400001,2.3704795464,1.19641307,1.94348659,-3.66087402,,,
imu,478.897769,-1.208268656,-9.6015487456,2.3764610744,1.23379762,1.89862513,-3.69825857,,,
imu,478.906244,-1.2040815864,-9.605735815200001,2.3722740048,1.24127453,1.98834805,-3.56367419,,,
imu,478.914719,-1.1957074472,-9.612913648800001,2.3770592272,1.02444414,2.01825569,-3.24964397,,,
imu,478.923194,-1.193314836,-9.634447149600001,2.3782555328,0.82256757,1.92105586,-3.20478251,,,
imu,478.931669,-1.1825480856,-9.638036066400002,2.383638908,0.85995212,1.83880985,-3.21973633,,,
imu,478.940144,-1.1819499328,-9.635643455200002,2.3938075056,0.65059864,1.75656384,-3.18982869,,,
imu,478.948619,-1.1807536272,-9.640428677600001,2.4111539368,0.44872207,1.74161002,-3.18982869,,,
imu,478.957094,-1.1669961128,-9.630260080000001,2.406368714400001,0.28423005,1.71917929,-3.33188998,,,
imu,478.965569,-1.1598182792,-9.616502565600001,2.4129483952,0.18703022,1.68179474,-3.38422835,,,
imu,478.974044,-1.154434904,-9.594370912,2.4129483952,0.05992275,1.59207182,-3.51133582,,,
imu,478.982519,-1.1538367512,-9.585398620000001,2.4302948264,-0.02232326000000001,1.577118,-3.81788913,,,
imu,478.990994,-1.1550330568,-9.568052188800001,2.4279022152,0.09730729999999999,1.45001053,-3.75059694,,,
imu,478.999457,-1.15144414,-9.5704448,2.4177336176,0.20946095,1.33785688,-3.80293531,,,
imu,479.007921,-1.1610145848,-9.553696521600001,2.4422578824,0.21693786,1.36776452,-3.86275059,,,
imu,479.016385,-1.169388724,-9.544126076800001,2.4356782016,0.35899915,1.24065705,-3.87770441,,,
imu,479.024848,-1.1801554744,-9.541135312800002,2.431491132,0.52349117,1.15841104,-3.78798149,,,
imu,479.033312,-1.1855388496,-9.550705757600001,2.4362763544,0.8375213899999999,1.19579559,-3.7954584,,,
imu,479.041775,-1.1969037528,-9.533359326400001,2.4350800488,0.7104139199999999,1.15841104,-3.83284295,,,
imu,479.050239,-1.1981000584,-9.536350090400001,2.4458467992,0.8449983,1.15841104,-3.72816621,,,
imu,479.058702,-1.1927166832,-9.553696521600001,2.455417244,1.04687487,1.18831868,-3.73564312,,,
imu,479.067166,-1.2070723504,-9.584800467200001,2.461398772,1.09921324,1.4275798,-3.95247351,,,
imu,479.075629,-1.2238206288,-9.592576453600001,2.4566135496,0.8749059399999999,1.39767216,-4.11696553,,,
imu,479.084093,-1.21125942,-9.560874355200001,2.4518283272,0.8674290299999999,1.29299542,-4.19921154,,,
imu,479.092556,-1.2214280176,-9.556089132800002,2.441061576800001,0.9197674,1.30047233,-4.169303899999999,,,
imu,479.10102,-1.2274095456,-9.546518688,2.4482394104,0.8524752099999999,1.30794924,-4.20668845,,,
imu,479.109484,-1.2363818376,-9.538742701600002,2.4500338688,0.8823828499999999,1.41262598,-3.81788913,,,
imu,479.117947,-1.2447559768,-9.5327611736,2.4446504936,1.11416706,1.577118,-3.41413599,,,
imu,479.126411,-1.2429615184,-9.519601812000001,2.4392671184,1.23379762,1.59207182,-3.15992105,,,
imu,479.134874,-1.2339892264,-9.520199964800002,2.425509604,1.46558183,1.73413311,-2.9729983,,,
imu,479.143338,-1.2268113928,-9.534555632000002,2.4320892848,1.69736604,1.8014253,-3.18235178,,,
imu,479.151801,-1.2148483368,-9.547116840800001,2.4213225344,1.98896553,1.99582496,-3.3468438,,,
imu,479.160265,-1.2028852808,-9.557883591200001,2.425509604,2.2656112,2.0257326,-3.54872037,,,
imu,479.168728,-1.1897259192,-9.583006008800002,2.423715145600001,2.43758013,2.0257326,-3.80293531,,,
imu,479.177192,-1.1849406968,-9.592576453600001,2.40756502,2.37028794,1.98087114,-4.057150249999999,,,
imu,479.185655,-1.1897259192,-9.604539509600002,2.4093594784,2.30299575,1.83133294,-4.19173463,,,
imu,479.194119,-1.187333308,-9.61530626,2.3950038112,2.16093446,1.63693328,-4.30388828,,,
imu,479.202599,-1.1969037528,-9.624278552000002,2.3782555328,2.16841137,1.71917929,-4.16182699,,,
imu,479.211079,-1.2160446424,-9.6224840936,2.3680869352,2.05625772,1.50982581,-4.00481188,,,
imu,479.219559,-1.2327929208,-9.630260080000001,2.3764610744,1.93662716,1.54721036,-3.78798149,,,
imu,479.228039,-1.238176296,-9.633250844,2.374666616,1.72727368,1.54721036,-3.6459202,,,
imu,479.236519,-1.2417652128,-9.631456385600002,2.3710776992,1.57773548,1.55468727,-3.56367419,,,
imu,479.244999,-1.2459522824,-9.621287788000002,2.3603109488,1.26370526,1.71170238,-3.48142818,,,
imu,479.253479,-1.2369799904,-9.613511801600001,2.3555257264,1.12164397,1.79394839,-3.4216129,,,
imu,479.26196,-1.21125942,-9.596763523200002,2.3495441984,1.20388998,1.86871749,-3.47395127,,,
imu,477.967608,,,,,,,73.658234,1.580801999999992,5.279628799999991
imu,478.06914,,,,,,,72.1567484,2.532963599999993,8.062870399999989
imu,478.170824,,,,,,,74.1831436,1.531973199999981,5.328457599999991
imu,478.272295,,,,,,,72.13233400000001,2.569585199999991,8.319221599999993
imu,478.373858,,,,,,,71.8149468,2.337648399999992,8.075077599999991
imu,478.47542,,,,,,,71.5952172,2.008053999999992,7.684447199999989
imu,478.576952,,,,,,,71.90039720000001,2.459720399999998,8.270392799999993
imu,478.678484,,,,,,,71.74170360000001,2.178954799999988,7.721068799999998
imu,479.27044,-1.2034834336,-9.594370912,2.3585164904,1.18893616,1.79394839,-3.59358183,,,
imu,479.27892,-1.1789591688,-9.597361676,2.350740504,1.1440747,1.79394839,-3.60853565,,,
imu,479.2874,-1.1729776408,-9.6015487456,2.3441608232,1.10669015,1.79394839,-3.84779677,,,
imu,479.29588,-1.1831462384,-9.614708107200002,2.3399737536,1.10669015,1.7266562,-3.90761205,,,
imu,479.30436,-1.1927166832,-9.6260730104,2.3453571288,1.02444414,1.50982581,-3.86275059,,,
imu,479.31284,-1.1921185304,-9.6326526912,2.3561238792,1.07678251,1.56964109,-3.71321239,,,
imu,479.32132,-1.1879314608,-9.645213900000002,2.3615072544,1.02444414,1.577118,-3.69078166,,,
imu,479.3298,-1.1861370024,-9.647606511200001,2.3489460456,1.05435178,1.577118,-3.61601256,,,
imu,479.33828,-1.1861370024,-9.655382497600002,2.3615072544,0.9048135799999999,1.53225654,-3.48890509,,,
imu,479.34676,-1.1801554744,-9.655980650400002,2.3573201848,0.74779847,1.52477963,-3.69078166,,,
imu,479.35524,-1.1897259192,-9.648204664000001,2.3585164904,0.52349117,1.56964109,-3.78798149,,,
imu,479.36372,-1.193314836,-9.642223136000002,2.3710776992,0.29918387,1.39767216,-3.9449966,,,
imu,479.3722,-1.193314836,-9.613511801600001,2.3722740048,0.31413769,1.53225654,-3.84031986,,,
imu,479.380681,-1.1969037528,-9.593174606400002,2.369283240800001,0.13469185,1.4275798,-3.87770441,,,
imu,479.389161,-1.2016889752,-9.597361676,2.3674887824,0.23936859,1.41262598,-4.0197657,,,
imu,479.397641,-1.223222476,-9.5776226336,2.3902185888,0.11973803,1.30047233,-4.18425772,,,
imu,479.406179,-1.22621324,-9.573435564,2.383638908,0.08983038999999998,1.28551851,-4.16182699,,,
imu,479.414718,-1.2268113928,-9.574631869600001,2.395601964,0.04496892999999999,1.34533379,-4.25154991,,,
imu,479.423256,-1.2304003096,-9.569248494400002,2.3973964224,0.13469185,1.25561087,-4.32631901,,,
imu,479.431795,-1.2423633656,-9.562668813600002,2.3902185888,0.14216876,1.19579559,-4.34874974,,,
imu,479.440333,-1.262102408,-9.5668558832,2.3902185888,0.12721494,1.2032725,-4.30388828,,,
imu,479.448872,-1.2603079496,-9.594370912,2.420126228800001,0.14216876,1.24065705,-4.21416536,,,
imu,479.457411,-1.2722710056,-9.6117173432,2.4219206872,0.03749201999999999,1.0537343,-4.25902682,,,
imu,479.465949,-1.2734673112,-9.604539509600002,2.4350800488,0.05244583999999999,1.24813396,-4.28145755,,,
imu,479.474488,-1.2716728528,-9.612315496,2.429696673600001,0.12721494,1.36028761,-3.98238115,,,
imu,479.483026,-1.2698783944,-9.6296619272,2.4422578824,0.007584380000000002,1.577118,-3.76555076,,,
imu,479.491565,-1.2692802416,-9.6284656216,2.4476412576,-0.06718472,1.74161002,-3.47395127,,,
imu,479.500103,-1.2519338104,-9.614109954400002,2.4500338688,-0.11204618,1.99582496,-3.28702852,,,
imu,479.508642,-1.244157824,-9.6009505928,2.45242648,-0.11952309,2.28742445,-2.95804448,,,
imu,479.517181,-1.2136520312,-9.597959828800002,2.458408008,-0.32887657,2.6238854,-2.77859864,,,
imu,479.525719,-1.1855388496,-9.589585689600002,2.4655858416,-0.38121494,2.75846978,-2.74121409,,,
imu,479.534258,-1.1687905712,-9.561472508000001,2.4649876888,-0.47093786,2.8481927,-2.63653735,,,
imu,479.542883,-1.148453376,-9.531564868,2.458408008,-0.5008455,2.9977309,-2.69635263,,,
imu,479.551422,-1.1269198752,-9.5154147424,2.4566135496,-0.41112258,3.08745382,-2.85336774,,,
imu,479.559961,-1.1047882216,-9.499862769600002,2.460202466400001,-0.26906129,3.13231528,-3.05524431,,,
imu,479.568499,-1.100601152,-9.509433214400001,2.45242648,0.02253820000000001,3.08745382,-3.28702852,,,
imu,479.577038,-1.0868436376,-9.4980683112,2.4512301744,0.38142988,2.96034635,-3.55619728,,,
imu,479.585576,-1.1011993048,-9.499264616800001,2.460202466400001,0.66555246,2.81828506,-3.83284295,,,
imu,479.594115,-1.100601152,-9.507040603200002,2.4566135496,0.81509066,2.66874686,-4.00481188,,,
imu,479.602653,-1.1089752912,-9.527377798400002,2.454819091200001,1.06182869,2.37714737,-4.146873169999999,,,
imu,479.611381,-1.1167512776,-9.5393408544,2.461398772,1.15902852,2.19770153,-4.31136519,,,
imu,479.620109,-1.1251254168,-9.553696521600001,2.4637913832,1.368382,1.90610204,-4.386134289999999,,,
imu,479.628838,-1.1418736952,-9.588389384000001,2.4745581336,1.37585891,1.85376367,-4.58801086,,,
imu,479.637566,-1.1478552232,-9.593174606400002,2.458408008,1.42819728,1.75656384,-4.625395409999999,,,
imu,479.646294,-1.1568275152,-9.5907819952,2.4536227856,1.43567419,1.60702564,-4.66277996,,,
imu,479.655022,-1.1699868768,-9.588987536800001,2.4536227856,1.45810492,1.47991817,-4.52819558,,,
imu,479.66375,-1.1765665576,-9.614109954400002,2.4596043136,1.33099745,1.32290306,-4.43847266,,,
imu,479.672478,-1.178361016,-9.614109954400002,2.4512301744,1.15155161,1.25561087,-4.26650373,,,
imu,479.681206,-1.175370252,-9.602745051200001,2.4530246328,1.08425942,1.06121121,-4.26650373,,,
imu,479.689934,-1.1879314608,-9.617100718400001,2.4596043136,0.7552753799999999,1.03878048,-4.40108811,,,
imu,479.698662,-1.2136520312,-9.645213900000002,2.4649876888,0.47862971,0.8294269999999999,-4.408565019999999,,,
imu,479.70739,-1.2286058512,-9.655980650400002,2.4649876888,0.35152224,0.84438082,-4.453426479999999,,,
imu,479.716118,-1.2357836848,-9.614708107200002,2.4590061608,0.12721494,0.8967191899999998,-4.40108811,,,
imu,479.724846,-1.2477467408,-9.5704448,2.4452486464,0.0001074699999999984,0.8144731799999998,-4.51324176,,,
imu,479.733574,-1.268083936,-9.544126076800001,2.437472660000001,0.14216876,0.84438082,-4.58801086,,,
imu,479.742302,-1.2842340616,-9.5154147424,2.4249114512,0.3963837,0.8967191899999998,-4.363703559999999,,,
imu,479.75103,-1.2836359088,-9.5148165896,2.423715145600001,0.63564482,1.14345722,-4.19921154,,,
imu,479.759758,-1.2961971176,-9.519601812000001,2.410555784,1.01696723,1.41262598,-4.00481188,,,
imu,479.768486,-1.283037756,-9.540537160000001,2.3979945752,1.30108981,1.49487199,-3.98238115,,,
imu,479.777214,-1.262102408,-9.547714993600001,2.3973964224,1.63755076,1.76404075,-4.146873169999999,,,
imu,479.785942,-1.253130116,-9.5698466472,2.4021816448,1.62259694,1.84628676,-4.29641137,,,
imu,479.79467,-1.2429615184,-9.591978300800001,2.4027797976,1.71231986,1.91357895,-4.37118047,,,
imu,479.803398,-1.2429615184,-9.5985579816,2.4039761032,1.8169966,1.89862513,-4.453426479999999,,,
imu,479.811868,-1.2429615184,-9.608128426400002,2.3938075056,1.72727368,1.96591732,-4.56558013,,,
imu,479.820338,-1.247148588,-9.631456385600002,2.3979945752,1.56278166,1.95844041,-4.56558013,,,
imu,479.828808,-1.235185532,-9.632054538400002,2.3991908808,1.30108981,1.85376367,-4.363703559999999,,,
imu,479.837278,-1.2363818376,-9.633250844,2.4069668672,1.01696723,1.89114822,-4.102011709999999,,,
imu,479.845748,-1.2417652128,-9.6326526912,2.4189299232,0.7403215599999999,1.99582496,-3.78798149,,,
imu,479.854217,-1.235185532,-9.637437913600001,2.423715145600001,0.41881443,2.1005017,-3.55619728,,,
imu,479.862687,-1.2345873792,-9.631456385600002,2.428500368,0.16459949,2.07807097,-3.62348947,,,
imu,479.871157,-1.2477467408,-9.609324732000001,2.437472660000001,-0.01484635000000001,2.16031698,-3.55619728,,,
imu,479.879627,-1.2543264216,-9.620091482400001,2.443454188,-0.24663056,2.23508608,-3.51133582,,,
imu,479.888097,-1.262102408,-9.609922884800001,2.450632021600001,-0.22419983,2.33976282,-3.42908981,,,
imu,479.896567,-1.259111644,-9.612913648800001,2.4560153968,-0.23167674,2.60893158,-3.63844329,,,
imu,479.905037,-1.2579153384,-9.614708107200002,2.461398772,-0.26906129,2.78090051,-3.81788913,,,
imu,479.913507,-1.265093172,-9.591978300800001,2.473959980800001,-0.6279529699999999,2.96034635,-4.04219643,,,
imu,479.921977,-1.253130116,-9.574631869600001,2.470371064,-0.36626112,3.25194584,-4.04219643,,,
imu,479.930447,-1.2393726016,-9.5566872856,2.4859230368,-0.40364567,3.55849915,-4.16182699,,,
imu,478.780138,,,,,,,71.6196316,2.337648399999992,8.050663199999997
imu,478.88167,,,,,,,71.4121092,2.301026799999994,7.745483199999992
imu,478.983172,,,,,,,71.3632804,2.337648399999992,8.502329599999992
imu,479.084826,,,,,,,73.8169276,1.28782919999999,5.535979999999996
imu,479.186358,,,,,,,71.5952172,1.947017999999989,8.25818559999999
imu,479.28792,,,,,,,74.03665720000001,1.702873999999999,6.060889599999997
imu,479.389941,,,,,,,71.57080280000001,1.971432399999995,8.526743999999997
imu,479.491015,,,,,,,71.2290012,2.410891599999987,7.342645599999997
imu,479.592857,,,,,,,71.02147880000001,2.642828399999986,8.001834399999996
imu,479.69442,,,,,,,71.521974,2.288819599999981,8.380257599999997
imu,479.796013,,,,,,,71.37548760000001,2.325441199999978,8.392464799999999
imu,479.897575,,,,,,,71.80273960000001,2.886972399999999,7.379267199999995
