Type,Timestamp,Data Accelerometer X,Data Accelerometer Y,Data Accelerometer Z,Data Gyroscope X,Data Gyroscope Y,Data Gyroscope Z,Data Magnetometer X,Data Magnetometer Y,Data Magnetometer Z
imu,349.058142,-0.6998387760000001,-9.837220948800002,1.618003324,1.56278166,1.68927165,-3.69825857,,,
imu,349.066959,-0.6944554008000001,-9.836622796,1.6221903936,1.46558183,1.83133294,-3.63096638,,,
imu,349.075776,-0.6830904976000001,-9.8294449624,1.6233866992,1.19641307,1.90610204,-3.7954584,,,
imu,349.084593,-0.6806978864000002,-9.828248656800001,1.620994088,1.05435178,1.93600968,-3.90013514,,,
imu,349.09341,-0.6753145112000001,-9.805518850400002,1.6221903936,1.11416706,1.86124058,-4.00481188,,,
imu,349.102226,-0.6699311360000001,-9.801929933600002,1.6203959352,1.00949032,1.83880985,-4.13191935,,,
imu,349.111043,-0.6549773160000001,-9.802528086400002,1.6197977824,1.03939796,1.77151766,-4.034719519999999,,,
imu,349.119525,-0.6645477608,-9.787574266400002,1.6311626856,0.80761375,1.63693328,-4.169303899999999,,,
imu,349.128006,-0.6651459136000001,-9.772620446400001,1.632957144,0.9048135799999999,1.66684092,-4.17678081,,,
imu,349.136487,-0.6561736216000001,-9.764246307200002,1.6102273376,0.9870595899999999,1.51730272,-4.17678081,,,
imu,349.144969,-0.6603606912000002,-9.765442612800001,1.6263774632,1.08425942,1.5023489,-4.10948862,,,
imu,349.15345,-0.6651459136000001,-9.7534795568,1.6311626856,0.9272443100000001,1.36028761,-4.04967334,,,
imu,349.161931,-0.6657440664000001,-9.760059237600002,1.6341534496,1.18145925,1.34533379,-3.92256587,,,
imu,349.170413,-0.6651459136000001,-9.764246307200002,1.62996638,1.24875144,1.25561087,-3.93751969,,,
imu,349.178894,-0.6896701784000001,-9.772022293600001,1.6341534496,1.25622835,1.11354958,-3.96742733,,,
imu,349.187376,-0.6998387760000001,-9.786377960800001,1.6335552968,1.09921324,1.02382666,-3.91508896,,,
imu,349.195857,-0.7052221512000001,-9.797144711200001,1.6407331304,1.12912088,1.0537343,-3.82536604,,,
imu,349.204338,-0.7177833600000001,-9.801929933600002,1.6514998808,0.9197674,1.00139593,-3.98985806,,,
imu,349.21282,-0.7243630408,-9.797742864000002,1.6341534496,1.0693056,1.15093413,-4.07210407,,,
imu,349.221301,-0.7351297912000001,-9.7714241408,1.632957144,1.03192105,1.2032725,-4.04219643,,,
imu,349.229782,-0.7219704296,-9.789368724800001,1.6365460608,1.06182869,1.37524143,-3.82536604,,,
imu,349.238264,-0.7118018320000001,-9.7995373224,1.6347516024,1.00201341,1.36028761,-3.77302767,,,
imu,349.246745,-0.7159889016000002,-9.802528086400002,1.6383405192,0.94967504,1.37524143,-3.84031986,,,
imu,349.255226,-0.7118018320000001,-9.802528086400002,1.6532943392,0.8823828499999999,1.45001053,-3.93004278,,,
imu,349.263708,-0.7153907488000001,-9.803724392000001,1.656883256,0.73284465,1.40514907,-4.0197657,,,
imu,349.272189,-0.7219704296,-9.818080059200001,1.6622666312,0.3963837,1.33785688,-4.20668845,,,
imu,349.28067,-0.7291482632,-9.802528086400002,1.6473128112,0.42629134,1.42010289,-4.02724261,,,
imu,349.289152,-0.723764888,-9.772620446400001,1.6455183528,0.38142988,1.53225654,-3.81788913,,,
imu,349.297633,-0.7141944432000001,-9.751685098400001,1.6497054224,0.27675314,1.63693328,-3.63096638,,,
imu,349.306114,-0.7016332344,-9.785181655200002,1.6514998808,0.28423005,1.69674856,-3.10010577,,,
imu,349.314596,-0.6914646368,-9.797742864000002,1.6497054224,0.56835263,1.89114822,-2.73373718,,,
imu,349.323058,-0.663949608,-9.783985349600002,1.653892492,0.70293701,1.83133294,-2.748691,,,
imu,349.33152,-0.6483976352,-9.7492924872,1.6532943392,0.76275229,1.59954873,-3.07767504,,,
imu,349.339982,-0.6370327320000001,-9.755274015200001,1.6323589912,0.8449983,1.53225654,-3.2720747,,,
imu,349.348445,-0.6328456624000001,-9.7780038216,1.6191996296,0.91229049,1.50982581,-3.39918217,,,
imu,349.356907,-0.6454068712000001,-9.761853696000001,1.6186014768,0.8375213899999999,1.27056469,-3.7954584,,,
imu,349.365369,-0.6741182056000001,-9.7492924872,1.6245830048,0.80013684,1.15841104,-4.0197657,,,
imu,349.373832,-0.6878757200000001,-9.7427128064,1.6275737688,0.7253677399999999,1.00139593,-4.20668845,,,
imu,349.382294,-0.7076147624000001,-9.7301515976,1.6257793104,0.8823828499999999,1.06121121,-4.20668845,,,
imu,349.390756,-0.7040258456,-9.746899876,1.6203959352,0.9870595899999999,1.08364194,-4.19173463,,,
imu,349.399218,-0.7010350816000002,-9.734338667200001,1.6281719216,1.01696723,1.29299542,-4.07210407,,,
imu,349.407681,-0.6806978864000002,-9.7283571392,1.6191996296,1.19641307,1.41262598,-3.92256587,,,
imu,349.416143,-0.6812960392000001,-9.7636481544,1.626975616,1.55530475,1.36776452,-3.75059694,,,
imu,349.424605,-0.6830904976000001,-9.788770572,1.6305645328,1.58521239,1.43505671,-3.61601256,,,
imu,349.433067,-0.6621551496,-9.798341016800002,1.6341534496,1.60764312,1.45001053,-3.54872037,,,
imu,349.44153,-0.6645477608,-9.803724392000001,1.6197977824,1.45810492,1.45001053,-3.62348947,,,
imu,349.449992,-0.6615569968000001,-9.819276364800002,1.6191996296,1.35342818,1.38271834,-3.77302767,,,
imu,349.458454,-0.6627533024,-9.8270523512,1.6156107128,1.31604363,1.24065705,-3.95995042,,,
imu,349.466917,-0.6753145112000001,-9.822267128800002,1.6197977824,1.34595127,1.19579559,-3.92256587,,,
imu,349.475379,-0.6783052752000002,-9.8228652816,1.6174051712,1.2188438,1.03878048,-4.102011709999999,,,
imu,349.483841,-0.6711274416,-9.8210708232,1.6054421152,1.13659779,1.07616503,-4.034719519999999,,,
imu,349.492303,-0.6884738728,-9.821668976000002,1.623984852,1.10669015,1.21074941,-4.02724261,,,
imu,349.500766,-0.6986424704000002,-9.822267128800002,1.6455183528,0.9646288599999999,1.01634975,-3.95995042,,,
imu,349.509228,-0.7004369288000002,-9.839015407200002,1.6520980336,0.79265993,0.84438082,-4.23659609,,,
imu,349.51769,-0.7339334856000002,-9.827650504000003,1.638938672,0.53844499,0.6948426199999997,-4.341272829999999,,,
imu,349.526161,-0.7279519576000001,-9.801929933600002,1.6377423664,0.53096808,0.70231953,-4.35622665,,,
imu,349.534632,-0.741709472,-9.772022293600001,1.6395368248,0.49358353,0.6948426199999997,-4.20668845,,,
imu,349.543104,-0.7740097232000002,-9.759461084800002,1.6503035752,0.3739529699999999,0.8967191899999998,-4.146873169999999,,,
imu,349.551575,-0.7919543072000002,-9.7576666264,1.6383405192,0.21693786,1.02382666,-3.63096638,,,
imu,349.560046,-0.7674300424000001,-9.7576666264,1.6341534496,0.3739529699999999,1.27056469,-3.10758268,,,
imu,349.568517,-0.7602522088000001,-9.752283251200002,1.635947908,0.41881443,1.577118,-3.01785976,,,
imu,349.576988,-0.7243630408,-9.755274015200001,1.6311626856,0.59078336,1.76404075,-2.89075229,,,
imu,349.58546,-0.6765108168000001,-9.769031529600001,1.6341534496,0.73284465,1.83880985,-2.85336774,,,
imu,349.593931,-0.6442105656,-9.779798280000001,1.61501256,0.8524752099999999,1.85376367,-2.99542903,,,
imu,349.602402,-0.6107140088,-9.7809945856,1.6245830048,1.03192105,1.71917929,-3.1973056,,,
imu,349.610873,-0.5784137576,-9.7786019744,1.6162088656,1.00201341,1.33037997,-3.496382,,,
imu,349.619344,-0.5497024232000001,-9.7492924872,1.6006568928,0.8749059399999999,1.01634975,-3.84031986,,,
imu,349.627815,-0.4749333232000001,-9.745105417600001,1.6174051712,1.04687487,0.6275504299999999,-4.07210407,,,
imu,349.636287,-0.4785222400000001,-9.7809945856,1.6317608384,1.16650543,-0.01546383000000029,-4.18425772,,,
imu,349.644758,-0.571235924,-9.776807516000002,1.626975616,1.25622835,-0.6734319100000001,-4.23659609,,,
imu,349.653229,-0.5395338256000001,-9.755872168000002,1.6162088656,1.31604363,-0.9351237599999997,-3.96742733,,,
imu,349.6617,-0.505439116,-9.785181655200002,1.6341534496,1.15902852,-1.36878454,-3.83284295,,,
imu,349.670171,-0.5670488544000001,-9.785779808000001,1.620994088,1.24875144,-1.88469133,-3.93751969,,,
imu,349.678642,-0.5837971328000001,-9.768433376800001,1.6102273376,1.50296638,-2.19872155,-3.70573548,,,
imu,349.687114,-0.5520950344000001,-9.797144711200001,1.6138162544,1.54782784,-2.34825975,-3.74312003,,,
imu,349.695585,-0.5592728680000001,-9.792957641600001,1.6054421152,1.37585891,-2.8342589,-4.13191935,,,
imu,349.704056,-0.5048409632,-9.8228652816,1.6144144072,1.24875144,-3.26044277,-4.31136519,,,
imu,349.712527,-0.4342589328000001,-9.830641268,1.5898901424,1.06182869,-3.8062572,-4.42351884,,,
imu,349.720998,-0.4677554896000001,-9.817481906400001,1.5892919896,0.8973366700000001,-4.48665601,-4.58801086,,,
imu,349.729452,-0.5580765624000001,-9.842006171200001,1.606040268,0.68798319,-5.294162289999999,-4.43847266,,,
imu,349.737905,-0.5676470072,-9.862343366400001,1.609031032,0.3216146,-5.93717655,-4.28145755,,,
imu,349.746358,-0.5724322296000001,-9.858754449600001,1.6084328792,0.08983038999999998,-6.43812952,-4.06462716,,,
imu,349.754812,-0.6137047728000001,-9.843800629600002,1.6126199488,0.06739966,-6.894221030000001,-3.93751969,,,
imu,349.763265,-0.6328456624000001,-9.834828337600001,1.6132181016,-0.17933837,-7.260589619999999,-3.6459202,,,
imu,349.771718,-0.6370327320000001,-9.827650504000003,1.612021796,-0.17186146,-7.49237383,-3.46647436,,,
imu,349.780172,-0.6412198016000001,-9.8300431152,1.6191996296,-0.24663056,-7.634435119999999,-3.46647436,,,
imu,349.788625,-0.6603606912000002,-9.824061587200001,1.620994088,-0.29149202,-7.91108079,-3.69825857,,,
imu,349.797079,-0.6872775672000001,-9.817481906400001,1.6168070184,-0.37373803,-8.17277264,-3.73564312,,,
imu,349.805532,-0.7100073736000001,-9.817481906400001,1.6221903936,-0.47841477,-8.24006483,-3.77302767,,,
imu,349.813985,-0.7147925960000001,-9.803126239200001,1.618003324,-0.5681376899999999,-8.37464921,-3.93751969,,,
imu,349.822439,-0.7381205552000002,-9.794752100000002,1.6203959352,-0.70272207,-8.56157196,-4.124442439999999,,,
imu,349.830892,-0.7668318896,-9.779200127200001,1.6317608384,-1.00927538,-8.58400269,-4.23659609,,,
imu,349.839345,-0.771617112,-9.76484446,1.6443220472,-0.9494601,-8.39707994,-4.169303899999999,,,
imu,349.84771,-0.7973376824000001,-9.7403201952,1.6443220472,-0.88964482,-8.22511101,-4.25154991,,,
imu,349.856163,-0.8188711832000002,-9.7295534448,1.647910964,-0.9793677399999999,-8.18772646,-4.22911918,,,
imu,349.864616,-0.8296379336000002,-9.727758986400001,1.6670518536,-0.95693701,-7.94846534,-4.26650373,,,
imu,349.87307,-0.8529658928000001,-9.730749750400001,1.686790896,-0.76253735,-7.769019500000001,-4.33379592,,,
imu,349.881523,-0.8930421304000001,-9.745703570400002,1.6981557992,-0.49336859,-7.40265091,-4.47585721,,,
imu,349.889977,-0.8996218112000001,-9.717590388800001,1.6963613408,-0.51579932,-7.08114378,-4.63287232,,,
imu,349.89843,-0.9241460760000001,-9.711010708000002,1.7023428688,-0.5008455,-6.654959910000001,-4.72259524,,,
imu,349.906883,-0.9289312984000001,-9.716992236000001,1.7143059248,-0.29149202,-6.28859132,-4.66277996,,,
imu,349.915337,-0.9325202152000002,-9.734936820000001,1.7155022304,-0.37373803,-5.68296161,-4.55062631,,,
imu,349.92379,-0.9349128264000002,-9.716992236000001,1.7328486616,-0.18681528,-5.17453173,-4.67773378,,,
imu,349.93261,-0.9271368400000001,-9.714599624800002,1.7388301896,-0.04475399000000001,-4.8530246,-4.79736434,,,
imu,349.941429,-0.9373054376000002,-9.7193848472,1.7448117176,0.09730729999999999,-4.35954854,-5.13382529,,,
imu,349.950249,-0.9426888128,-9.7283571392,1.7484006344,0.38142988,-4.12776433,-5.17868675,,,
imu,349.959068,-0.9420906600000001,-9.7074217912,1.7262689808,0.4861066199999999,-3.82868793,-5.08896383,,,
imu,349.967888,-0.9313239096000001,-9.666149248000002,1.7328486616,0.64312173,-3.27539659,-5.021671639999999,,,
imu,349.976708,-0.9325202152000002,-9.667943706400001,1.7382320368,0.8973366700000001,-2.81182817,-4.7674567,,,
imu,349.985527,-0.9283331456000001,-9.675719692800001,1.7232782168,1.45062801,-2.07909099,-4.146873169999999,,,
imu,349.994347,-0.8894532136000001,-9.676317845600002,1.7196893,1.68241222,-1.50336892,-3.80293531,,,
imu,350.003166,-0.8445917536,-9.673925234400002,1.7035391744,1.98896553,-1.16690797,-3.50385891,,,
imu,350.011986,-0.7710189592000001,-9.654186192000001,1.6814075208,2.32542648,-0.80053938,-3.48890509,,,
imu,350.020805,-0.7279519576000001,-9.666149248000002,1.6730333816,2.54225687,-0.8753084800000002,-3.72816621,,,
imu,350.029625,-0.7183815128000002,-9.6876827488,1.6395368248,2.72917962,-0.86035466,-4.02724261,,,
imu,350.038445,-0.6986424704000002,-9.7086180968,1.6485091168,3.12545585,-1.18186179,-4.35622665,,,
imu,350.047264,-0.6968480120000001,-9.743310959200002,1.6347516024,3.21517877,-1.44355364,-4.68521069,,,
imu,350.056084,-0.6890720256,-9.751685098400001,1.6096291848,3.36471697,-1.70524549,-4.81231816,,,
imu,350.064903,-0.7070166096,-9.789368724800001,1.6215922408,3.44696298,-2.07909099,-4.90204108,,,
imu,350.073723,-0.7590559032000002,-9.802528086400002,1.6138162544,3.282470959999999,-2.39312121,-5.044102369999999,,,
imu,350.082542,-0.7470928472,-9.825856045600002,1.5898901424,3.36471697,-2.52022868,-4.9169949,,,
imu,350.091362,-0.7135962904,-9.849184004800001,1.5809178504,3.17031731,-2.76696671,-4.92447181,,,
imu,350.100182,-0.7393168608000001,-9.85456738,1.5683566416,2.89367164,-2.78939744,-4.887087259999999,,,
imu,350.109001,-0.7865709320000001,-9.833632032,1.5845067672,2.62450288,-2.95388946,-4.81979507,,,
imu,350.117821,-0.7566632920000002,-9.857558144000002,1.5713474056,2.49739541,-2.99875092,-4.77493361,,,
imu,350.12664,-0.7201759712000001,-9.8653341304,1.5318693208,2.4151494,-3.1333353,-4.74502597,,,
imu,350.135115,-0.7255593464000001,-9.8264541984,1.564169572,2.13850373,-3.34268878,-4.94690254,,,
imu,350.14359,-0.7381205552000002,-9.825257892800002,1.552206516,1.99644244,-3.81373411,-5.12634838,,,
imu,350.152065,-0.6896701784000001,-9.850380310400002,1.5456268352,1.78708896,-4.06047214,-5.021671639999999,,,
imu,350.16054,-0.6597625384000001,-9.8432024768,1.5516083632,1.60764312,-4.43431764,-5.12634838,,,
imu,350.169015,-0.7058203040000001,-9.859950755200002,1.561178808,1.46558183,-5.099762630000001,-5.238502029999999,,,
imu,350.17749,-0.6950535536000001,-9.869521200000003,1.5617769608,1.22632071,-5.466131219999999,-5.22354821,,,
imu,350.185965,-0.684884956,-9.8683248944,1.5647677248,1.00201341,-5.757730710000001,-5.18616366,,,
imu,350.19444,-0.7225685824,-9.880287950400001,1.582114156,0.66555246,-6.1988684,-5.283363489999999,,,
imu,350.202915,-0.7500836112000001,-9.885671325600002,1.5868993784,0.30666078,-6.66243682,-5.37308641,,,
imu,350.21139,-0.7758041816000001,-9.874306422400002,1.5827123088,-0.03727708,-7.133482150000001,-5.522624609999999,,,
imu,350.219865,-0.7913561544000001,-9.83961356,1.5982642816,-0.49336859,-7.49237383,-5.8142241,,,
imu,350.22834,-0.8326286976000001,-9.828846809600002,1.594077212,-0.5681376899999999,-7.55966602,-5.79179337,,,
imu,350.236815,-0.8750975464000001,-9.8198745176,1.5982642816,-0.60552224,-7.67181967,-5.500193879999999,,,
imu,350.24529,-0.9014162696000001,-9.813892989600001,1.6018531984,-0.89712173,-7.783973319999999,-5.4403786,,,
imu,350.253765,-0.9193608536000001,-9.802528086400002,1.5976661288,-0.91955246,-7.35778945,-5.021671639999999,,,
imu,350.26224,-0.9582407856000001,-9.790565030400002,1.5958716704,-0.95693701,-7.155912880000001,-4.96185636,,,
imu,350.270715,-0.9714001472000001,-9.780396432800002,1.6018531984,-0.93450628,-6.81197502,-4.79736434,,,
imu,350.27919,-0.9935318008000001,-9.776209363200001,1.6078347264,-0.7550604399999999,-6.44560643,-4.74502597,,,
imu,350.287665,-1.0072893152,-9.7786019744,1.609031032,-0.81487572,-5.98203801,-4.92447181,,,
imu,350.29614,-1.013868996,-9.772022293600001,1.618003324,-0.89712173,-5.66053088,-5.05157928,,,
imu,350.304615,-0.9977188704000002,-9.767237071200002,1.6174051712,-0.77749117,-5.189485550000001,-5.193640569999999,,,
imu,350.31309,-1.0120745376,-9.761853696000001,1.6144144072,-0.84478336,-4.95022443,-5.44785551,,,
imu,350.321565,-1.0090837736,-9.7540777096,1.6401349776,-0.7550604399999999,-4.49413292,-5.43290169,,,
imu,350.33004,-1.019850524,-9.7325442088,1.6634629368,-0.76253735,-4.06794905,-5.44785551,,,
imu,350.33851,-1.0354024968,-9.7714241408,1.6473128112,-0.90459864,-3.9557954,-5.55253225,,,
imu,350.34698,-1.0694972064,-9.786976113600002,1.6383405192,-0.90459864,-3.61933445,-5.33570186,,,
imu,350.35545,-1.0641138312,-9.752283251200002,1.6796130624,-0.82235263,-3.0585662,-5.08148692,,,
imu,350.36392,-1.043776636,-9.744507264800001,1.6634629368,-0.874691,-2.57256705,-5.05157928,,,
imu,350.37239,-1.0545433864,-9.718188541600002,1.6706407704,-0.95693701,-2.019275710000001,-4.81979507,,,
imu,350.380859,-1.0162616072,-9.696056888000001,1.6909779656,-0.84478336,-1.69776858,-4.61044159,,,
imu,350.389329,-1.01685976,-9.680504915200002,1.7101188552,-0.76253735,-1.48093819,-4.4683803,,,
imu,350.397799,-1.0222431352,-9.676915998400002,1.6933705768,-0.41859949,-1.21924634,-4.13939626,,,
imu,350.406269,-1.0174579128,-9.6817012208,1.7101188552,-0.127,-1.00989286,-4.0197657,,,
imu,350.414739,-1.0252338992,-9.666149248000002,1.7262689808,0.03001510999999998,-0.9276468500000004,-4.102011709999999,,,
imu,350.423209,-1.0467674,-9.679308609600001,1.7322505088,0.29918387,-0.7556779200000001,-4.244073,,,
imu,350.431679,-0.9815687448000001,-9.706225485600001,1.7029410216,0.53096808,-0.3294940500000001,-4.0945348,,,
imu,350.440149,-0.9444832712000001,-9.713403319200001,1.7394283424,0.68050628,-0.3369709599999999,-4.16182699,,,
imu,350.448619,-0.9911391896000001,-9.709814402400001,1.7412228008,0.73284465,-0.6061397200000003,-4.22911918,,,
imu,350.457089,-1.0013077872,-9.751685098400001,1.728661592,0.9347212199999999,-0.68090882,-4.0945348,,,
imu,350.465558,-1.0270283576,-9.763050001600002,1.7190911472,1.02444414,-0.5687551700000002,-3.82536604,,,
imu,350.474028,-1.0354024968,-9.758862932000001,1.7190911472,0.9197674,-0.6285704500000002,-3.83284295,,,
imu,350.482498,-1.0354024968,-9.758862932000001,1.7029410216,0.80013684,-0.57623208,-3.75059694,,,
imu,350.490968,-1.0892362488,-9.7474980288,1.7059317856,0.88985976,-0.3668786000000002,-3.66087402,,,
imu,350.499438,-1.1101715968,-9.751685098400001,1.7059317856,1.12164397,-0.09770984000000027,-3.51881273,,,
imu,350.507908,-1.0904325544,-9.728955292000002,1.6909779656,1.03192105,0.2237972899999998,-3.30945925,,,
imu,350.516378,-1.1143586664,-9.7301515976,1.6742296872,1.01696723,0.4630584099999999,-3.41413599,,,
imu,350.524848,-1.1628090432,-9.7295534448,1.6873890488,1.11416706,0.9415806499999997,-3.4216129,,,
imu,349.103294,,,,,,,75.7700796,-35.56570760000002,133.5040576
imu,349.204887,,,,,,,78.74863640000001,-36.96953560000003,131.1968968
imu,349.306419,,,,,,,75.78228680000001,-35.72440120000002,134.199868
imu,349.408042,,,,,,,78.45566360000001,-36.62773400000001,130.7452304
imu,349.509544,,,,,,,76.099674,-36.1760676,134.0900032
imu,349.611137,,,,,,,75.6968364,-36.3103468,133.2965352
imu,349.712821,,,,,,,76.03863799999999,-36.65214840000002,134.7736064
imu,349.814262,,,,,,,77.1128716,-36.94512120000002,134.4684264
imu,350.533318,-1.1412755424,-9.721179305600002,1.6885853544,1.09921324,1.45748744,-3.44404363,,,
imu,350.541779,-1.112564208,-9.7325442088,1.6826038264,1.16650543,1.97339423,-3.43656672,,,
imu,350.55024,-1.1023956104,-9.7325442088,1.6790149096,1.2936129,2.49677793,-3.28702852,,,
imu,350.558701,-1.0605249144,-9.749890640000002,1.6814075208,1.22632071,2.78090051,-3.46647436,,,
imu,350.567162,-1.0306172744,-9.779798280000001,1.6742296872,1.25622835,3.09493073,-3.45899745,,,
imu,350.575623,-0.9911391896000001,-9.798341016800002,1.6682481592,1.43567419,3.2968073,-3.48890509,,,
imu,350.584084,-0.9492684936000001,-9.794752100000002,1.6556869504,1.50296638,3.36409949,-3.47395127,,,
imu,350.592545,-0.9301276040000002,-9.803126239200001,1.6485091168,1.37585891,3.19213056,-3.51133582,,,
imu,350.601006,-0.8930421304000001,-9.821668976000002,1.6467146584,1.2936129,3.10240764,-3.26459779,,,
imu,350.609467,-0.8876587552000001,-9.815089295200002,1.647910964,1.09921324,2.99025399,-3.05524431,,,
imu,350.617928,-0.8906495192000001,-9.802528086400002,1.647910964,1.00201341,2.80333124,-3.01038285,,,
imu,350.626389,-0.885266144,-9.801929933600002,1.6449202,0.68050628,2.66126995,-3.00290594,,,
imu,350.63485,-0.8924439776000002,-9.803126239200001,1.6652573952,0.50853735,2.42200883,-2.94309066,,,
imu,350.643311,-0.9205571592,-9.807313308800001,1.6694444648,0.34404533,2.12293243,-3.01038285,,,
imu,350.651772,-0.9355109792000001,-9.801929933600002,1.6646592424,0.11973803,2.03320951,-2.84589083,,,
imu,350.660233,-0.9624278552000001,-9.7953502528,1.6443220472,-0.04475399000000001,2.13788625,-2.68139881,,,
imu,350.668694,-0.9755872168000002,-9.768433376800001,1.668846312,-0.11204618,2.45191647,-2.41223005,,,
imu,350.677155,-0.9791761336000001,-9.746301723200002,1.6861927432,0.14216876,2.64631613,-2.08324601,,,
imu,350.685616,-0.9845595088000001,-9.752283251200002,1.67482784,0.26179932,2.93043871,-2.001,,,
imu,350.694077,-0.9761853696000001,-9.755274015200001,1.6586777144,0.58330645,3.33419185,-1.91127708,,,
imu,350.702538,-0.9684093832000001,-9.742114653600002,1.6580795616,0.7104139199999999,3.75289881,-1.97856927,,,
imu,350.710999,-0.9492684936000001,-9.731946056000002,1.6766222984,0.8823828499999999,4.104313579999999,-2.24773803,,,
imu,350.71946,-0.9570444800000002,-9.735534972800002,1.6550887976,1.09921324,4.3435747,-2.55429134,,,
imu,350.727921,-0.9570444800000002,-9.7714241408,1.6245830048,1.1440747,4.57535891,-2.81598319,,,
imu,350.736382,-0.963026008,-9.672728928800002,1.6814075208,1.03192105,4.98658896,-2.98047521,,,
imu,350.744868,-0.9785779808,-9.609324732000001,1.7155022304,1.12912088,5.36791137,-3.09262886,,,
imu,350.753354,-0.9468758824000001,-9.7325442088,1.6281719216,1.47305874,5.74175687,-3.14496723,,,
imu,350.761841,-0.9468758824000001,-9.722973764,1.6670518536,1.57773548,6.12307928,-3.18982869,,,
imu,350.770327,-0.9540537160000001,-9.7427128064,1.6802112152,1.46558183,6.467017139999999,-3.42908981,,,
imu,350.778814,-0.8727049352000001,-9.7510869456,1.6742296872,1.53287402,6.840862639999999,-3.33188998,,,
imu,350.7873,-0.8625363376,-9.739123889600002,1.6849964376,1.57025857,7.09507758,-3.20478251,,,
imu,350.795787,-0.8380120728000001,-9.790565030400002,1.6640610896,1.68241222,7.25209269,-3.13749032,,,
imu,350.804273,-0.8176748776000001,-9.755872168000002,1.6963613408,1.57025857,7.199754319999999,-3.28702852,,,
imu,350.812759,-0.7943469184000002,-9.748694334400001,1.7125114664,1.48801256,7.102554489999999,-3.48142818,,,
imu,350.821246,-0.7770004872000001,-9.801929933600002,1.6676500064,1.40576655,6.97544702,-3.71321239,,,
imu,350.829732,-0.7949450712000001,-9.7923594888,1.70473548,1.24875144,6.71375517,-3.91508896,,,
imu,350.838219,-0.7889635432000001,-9.7570684736,1.7250726752,1.17398234,6.57169388,-3.92256587,,,
imu,350.846705,-0.7488873056,-9.769629682400002,1.7083243968,1.30856672,6.32495585,-3.97490424,,,
imu,350.855192,-0.7991321408000002,-9.785779808000001,1.7101188552,1.24875144,6.15298692,-3.97490424,,,
imu,350.863678,-0.7907580016000001,-9.783985349600002,1.7250726752,1.30108981,5.943633439999999,-3.91508896,,,
imu,350.872164,-0.7650374312,-9.797144711200001,1.7322505088,1.2936129,5.55483412,-3.95995042,,,
imu,350.880651,-0.8069081272,-9.7995373224,1.731652356,1.20388998,5.21837317,-4.386134289999999,,,
imu,350.889137,-0.7889635432000001,-9.776807516000002,1.7328486616,0.8823828499999999,5.03145042,-4.40108811,,,
imu,350.897624,-0.8003284464,-9.751685098400001,1.7412228008,0.9347212199999999,4.72489711,-4.453426479999999,,,
imu,350.90611,-0.8386102256000002,-9.748096181600001,1.7442135648,0.8375213899999999,4.552928179999999,-4.49828794,,,
imu,350.914597,-0.8296379336000002,-9.743909112,1.7519895512,0.9646288599999999,4.44077453,-4.22164227,,,
imu,350.923083,-0.8619381848000001,-9.7151977776,1.7244745224,1.18893616,4.26132869,-4.0945348,,,
imu,350.931569,-0.8924439776000002,-9.703234721600001,1.7352412728,1.27118217,4.11179049,-4.057150249999999,,,
imu,350.940161,-0.8762938520000002,-9.7074217912,1.7412228008,1.33847436,4.17908268,-3.80293531,,,
imu,350.94895,-0.8583492680000002,-9.6912716656,1.713707772,1.63007385,4.33609779,-3.77302767,,,
imu,350.957739,-0.8924439776000002,-9.685888290400001,1.7119133136,1.82447351,4.29871324,-3.95247351,,,
imu,350.966528,-0.8990236584000001,-9.6912716656,1.7041373272,2.116073,4.27628251,-4.07210407,,,
imu,350.975317,-0.8798827688,-9.6703363176,1.6784167568,2.1908421,4.29123633,-4.169303899999999,,,
imu,350.984106,-0.9097904088000002,-9.6846919848,1.68978166,2.38524176,4.31366706,-4.42351884,,,
imu,350.992895,-0.9402962016,-9.6912716656,1.662864784,2.68431816,4.46320526,-4.625395409999999,,,
imu,351.001684,-0.9235479232000001,-9.703234721600001,1.6664537008,2.87871782,4.62769728,-4.625395409999999,,,
imu,351.010473,-0.9307257568000001,-9.746301723200002,1.6730333816,2.92357928,4.567882,-4.68521069,,,
imu,351.019262,-0.9307257568000001,-9.748694334400001,1.6646592424,3.05816366,4.7921893,-4.56558013,,,
imu,351.028052,-0.9109867144000001,-9.765442612800001,1.6694444648,3.21517877,4.90434295,-4.37118047,,,
imu,351.036841,-0.9127811728000002,-9.769031529600001,1.650901728,3.11797894,4.979112049999999,-4.17678081,,,
imu,351.04563,-0.9085941032000001,-9.7845835024,1.6514998808,3.02825602,5.12117334,-4.17678081,,,
imu,351.054419,-0.8990236584000001,-9.7989391696,1.6497054224,2.99087147,5.20341935,-4.08705789,,,
imu,351.063208,-0.9014162696000001,-9.802528086400002,1.6443220472,2.90862546,5.21837317,-4.07210407,,,
imu,351.071997,-0.9169682424000002,-9.8061170032,1.6263774632,2.79647181,5.23332699,-4.07210407,,,
imu,351.080786,-0.8864624496000001,-9.818678212000002,1.6096291848,2.75161035,5.22585008,-3.95995042,,,
imu,351.089575,-0.8900513664000002,-9.865932283200001,1.5964698232,2.60207215,5.2408039,-3.90013514,,,
imu,351.098364,-0.8792846160000001,-9.8432024768,1.58510492,2.34785721,5.22585008,-3.90013514,,,
imu,351.107153,-0.8445917536,-9.822267128800002,1.5976661288,2.16093446,5.1660348,-3.98238115,,,
imu,351.115942,-0.8439936008000001,-9.8593526024,1.58510492,2.10111918,5.023973509999999,-4.079580979999999,,,
imu,351.124731,-0.8583492680000002,-9.837220948800002,1.5569917384,2.14598064,4.98658896,-3.98985806,,,
imu,351.13352,-0.8523677400000002,-9.828846809600002,1.5952735176,1.86185806,4.73237402,-3.90761205,,,
imu,351.142309,-0.8565548096000002,-9.837819101600003,1.573141864,1.8917657,4.60526655,-3.85527368,,,
imu,351.150787,-0.8433954480000001,-9.824061587200001,1.5665621832,1.70484295,4.40338998,-3.7954584,,,
imu,351.159264,-0.8691160184000001,-9.819276364800002,1.573141864,1.76465823,4.2688056,-3.66087402,,,
imu,351.167742,-0.8637326432000001,-9.8294449624,1.5785252392,1.60016621,4.20151341,-3.31693616,,,
imu,351.176219,-0.8421991424,-9.818678212000002,1.5833104616,1.37585891,4.14169813,-3.30198234,,,
imu,351.184697,-0.8427972952,-9.8210708232,1.5755344752,1.18893616,3.84262173,-3.47395127,,,
imu,351.193174,-0.8481806704000001,-9.818080059200001,1.5725437112,1.21136689,3.73046808,-3.36179762,,,
imu,351.201652,-0.8535640456000001,-9.803126239200001,1.5803196976,1.08425942,3.65569898,-3.16739796,,,
imu,351.21013,-0.8332268504000001,-9.800733628000001,1.5629732664,0.9048135799999999,3.5958837,-3.11505959,,,
imu,349.915794,,,,,,,77.69881720000001,-37.18926520000001,135.481624
imu,350.017417,,,,,,,78.16269080000001,-36.94512120000002,135.7501824
imu,350.118919,,,,,,,78.74863640000001,-37.21367960000001,135.3351376
imu,350.220481,,,,,,,78.50449239999999,-37.25030120000001,135.8112184
imu,350.322074,,,,,,,81.8736796,-38.47102120000001,134.382976
imu,350.423606,,,,,,,79.79845560000001,-37.57989560000001,137.251668
imu,350.52523,,,,,,,82.6427332,-38.5442644,134.4928408
imu,350.626731,,,,,,,79.68859079999999,-37.2625084,137.4591904
imu,351.218607,-0.8350213088000001,-9.788172419200002,1.5480194464,0.80013684,3.49868387,-3.08515195,,,
imu,351.227085,-0.8350213088000001,-9.789368724800001,1.5635714192,0.68798319,3.39400713,-3.03281358,,,
imu,351.235562,-0.8290397808000001,-9.7989391696,1.5713474056,0.78518302,3.53606842,-2.99542903,,,
imu,351.24404,-0.8260490168000001,-9.803126239200001,1.5689547944,0.82256757,3.62579134,-3.03281358,,,
imu,351.252517,-0.8087025856000001,-9.817481906400001,1.5713474056,0.6954601,3.55102224,-3.18235178,,,
imu,351.260995,-0.7937487656000001,-9.8061170032,1.5665621832,0.7104139199999999,3.61831443,-3.14496723,,,
imu,351.269472,-0.7847764736,-9.815089295200002,1.5701511,0.3963837,3.64822207,-3.25712088,,,
imu,351.27795,-0.8015247520000001,-9.815089295200002,1.60005874,0.34404533,3.83514482,-3.07767504,,,
imu,351.286427,-0.8015247520000001,-9.8234634344,1.623984852,0.15712258,3.9697292,-3.05524431,,,
imu,351.294905,-0.7775986400000001,-9.803126239200001,1.620994088,-0.14943073,4.05945212,-3.37675144,,,
imu,351.303382,-0.7734115704000001,-9.8049206976,1.6443220472,-0.48589168,3.90991392,-3.59358183,,,
imu,351.31186,-0.7811875568000001,-9.834828337600001,1.6610703256,-0.63542988,3.85009864,-3.68330475,,,
imu,351.320337,-0.8003284464,-9.824659740000001,1.6514998808,-0.77749117,3.80523718,-3.97490424,,,
imu,351.328815,-0.804515516,-9.793555794400001,1.6634629368,-0.8522602699999999,3.70803735,-4.22911918,,,
imu,351.337292,-0.8266471696000001,-9.786377960800001,1.6670518536,-0.77749117,3.85757555,-4.13191935,,,
imu,351.34577,-0.8212637944000001,-9.764246307200002,1.6682481592,-0.66533752,3.99215993,-3.98238115,,,
imu,351.354232,-0.7967395296000002,-9.766638918400002,1.6760241456,-0.5681376899999999,3.96225229,-4.04219643,,,
imu,351.362695,-0.7979358352000001,-9.767237071200002,1.6586777144,-0.54570696,3.97720611,-4.124442439999999,,,
imu,351.371157,-0.8134878080000001,-9.7325442088,1.6586777144,-0.49336859,3.90243701,-4.28145755,,,
imu,351.379619,-0.8380120728000001,-9.724170069600001,1.6879872016,-0.32139966,3.8949601,-4.3936112,,,
imu,351.388081,-0.7937487656000001,-9.727758986400001,1.6604721728,-0.08213854000000001,3.68560662,-4.65530305,,,
imu,351.396544,-0.7901598488000001,-9.725366375200002,1.6580795616,-0.02232326000000001,3.65569898,-4.78988743,,,
imu,351.405006,-0.8200674888,-9.701440263200002,1.6586777144,-0.01484635000000001,3.33419185,-5.18616366,,,
imu,351.413468,-0.8577511152000001,-9.7056273328,1.6849964376,0.09730729999999999,3.17717674,-5.22354821,,,
imu,351.42193,-0.8260490168000001,-9.706823638400001,1.6790149096,0.26179932,3.13231528,-5.1413022,,,
imu,351.430393,-0.7961413768000002,-9.7163940832,1.6915761184,0.26927623,2.86314652,-5.0665331,,,
imu,351.438855,-0.8206656416,-9.714599624800002,1.6981557992,0.25432241,2.65379304,-4.887087259999999,,,
imu,351.447317,-0.8463862120000001,-9.745105417600001,1.7089225496,0.53096808,2.56407012,-4.49828794,,,
imu,351.45578,-0.8386102256000002,-9.745703570400002,1.710717008,0.52349117,2.42200883,-4.37118047,,,
imu,351.464242,-0.8098988912000001,-9.7427128064,1.7119133136,0.4861066199999999,2.30237827,-4.19921154,,,
imu,351.472704,-0.8093007384,-9.736731278400002,1.7280634392,0.46367589,2.07059406,-4.0945348,,,
imu,351.481166,-0.8398065312,-9.7534795568,1.7274652864,0.32909151,1.65936401,-4.16182699,,,
imu,351.489629,-0.8398065312,-9.745105417600001,1.7328486616,0.30666078,1.29299542,-4.124442439999999,,,
imu,351.498091,-0.8535640456000001,-9.7427128064,1.7196893,0.52349117,1.09859576,-4.04219643,,,
imu,351.506553,-0.8762938520000002,-9.737927584000001,1.7208856056,0.60573718,1.00887284,-4.034719519999999,,,
imu,351.515015,-0.8924439776000002,-9.731347903200001,1.707726244,0.6132140899999999,0.9640113799999996,-3.86275059,,,
imu,351.523478,-0.9175663952000002,-9.7427128064,1.7238763696,0.65807555,0.9714882899999999,-3.7206893,,,
imu,351.53194,-0.9127811728000002,-9.7612555432,1.7190911472,0.67302937,1.13598031,-3.6459202,,,
imu,351.540402,-0.9199590064000001,-9.794752100000002,1.7268671336,0.9646288599999999,1.18831868,-3.81788913,,,
imu,351.548864,-0.9289312984000001,-9.786377960800001,1.7119133136,0.9870595899999999,1.22570323,-3.87770441,,,
imu,351.557329,-0.9163700896000002,-9.76484446,1.716698536,0.7552753799999999,1.15841104,-4.18425772,,,
imu,351.565794,-0.9205571592,-9.751685098400001,1.7178948416,0.76275229,1.04625739,-4.35622665,,,
imu,351.574259,-0.9498666464000002,-9.7492924872,1.722680064,0.97958268,1.32290306,-4.32631901,,,
imu,351.582724,-0.9402962016,-9.7492924872,1.701744716,0.9347212199999999,1.39019525,-3.96742733,,,
imu,351.591189,-0.9337165208000001,-9.727758986400001,1.698753952,1.18145925,1.61450255,-3.61601256,,,
imu,351.599653,-0.9271368400000001,-9.720581152800001,1.6909779656,1.30108981,1.79394839,-3.57862801,,,
imu,351.608118,-0.9187627008000002,-9.709216249600003,1.6921742712,1.60764312,1.88367131,-3.56367419,,,
imu,351.616583,-0.8894532136000001,-9.7122070136,1.6772204512,1.74970441,2.03320951,-3.58610492,,,
imu,351.625048,-0.8804809216,-9.7056273328,1.6700426176,1.76465823,2.04068642,-3.70573548,,,
imu,351.633513,-0.8774901576000002,-9.70502918,1.6676500064,1.87681188,1.98834805,-3.69825857,,,
imu,351.641977,-0.8846679912000001,-9.709814402400001,1.6646592424,1.99644244,2.07807097,-3.7206893,,,
imu,351.650442,-0.8804809216,-9.713403319200001,1.6586777144,2.22074974,2.19770153,-3.6459202,,,
imu,351.658907,-0.8846679912000001,-9.731347903200001,1.6485091168,2.20579592,2.12293243,-3.70573548,,,
imu,351.667372,-0.885266144,-9.743909112,1.6485091168,2.21327283,2.1005017,-3.71321239,,,
imu,351.675837,-0.8798827688,-9.7540777096,1.6305645328,2.28804193,2.19770153,-3.70573548,,,
imu,351.684302,-0.8703123240000001,-9.772620446400001,1.6377423664,2.24318047,2.20517844,-3.60105874,,,
imu,351.692766,-0.8697141712000002,-9.776209363200001,1.6287700744,2.3403803,2.29490136,-3.30945925,,,
imu,351.701231,-0.8601437264,-9.785779808000001,1.6347516024,2.3403803,2.30237827,-3.10758268,,,
imu,351.709696,-0.8601437264,-9.797742864000002,1.6323589912,2.23570356,2.22760917,-3.26459779,,,
imu,351.718161,-0.86732156,-9.800135475200001,1.6365460608,2.28804193,2.13788625,-3.18982869,,,
imu,351.726626,-0.8487788232000001,-9.803126239200001,1.6293682272,2.12354991,2.19022462,-3.28702852,,,
imu,351.73509,-0.8481806704000001,-9.805518850400002,1.6353497552,2.04878081,2.20517844,-3.29450543,,,
imu,351.743555,-0.8457880592000001,-9.8168837536,1.62996638,1.94410407,2.16031698,-3.27955161,,,
imu,351.75202,-0.8613400320000001,-9.8264541984,1.626975616,1.84690424,2.0257326,-3.45899745,,,
imu,351.76084,-0.8715086296000001,-9.820472670400001,1.6186014768,1.85438115,2.05564024,-3.57862801,,,
imu,351.769659,-0.8709104768000001,-9.836024643200002,1.6203959352,1.80951969,2.16779389,-3.58610492,,,
imu,351.778479,-0.8912476720000001,-9.820472670400001,1.6233866992,1.68988913,2.04068642,-3.62348947,,,
imu,351.787298,-0.9008181168,-9.821668976000002,1.6162088656,1.65250458,2.29490136,-3.59358183,,,
imu,351.796118,-0.9044070336000001,-9.810902225600001,1.6186014768,1.65998149,2.52668557,-3.58610492,,,
imu,351.804937,-0.9097904088000002,-9.801929933600002,1.626975616,1.48801256,2.44443956,-3.65339711,,,
imu,351.813757,-0.9097904088000002,-9.801929933600002,1.6197977824,1.28613599,2.56407012,-3.81788913,,,
imu,351.822577,-0.9223516176000001,-9.786976113600002,1.6323589912,1.43567419,2.72856214,-3.93004278,,,
imu,351.831396,-0.9313239096000001,-9.787574266400002,1.6401349776,1.33099745,2.84071579,-3.97490424,,,
imu,351.840216,-0.9480721880000001,-9.793555794400001,1.6550887976,1.25622835,2.86314652,-3.97490424,,,
imu,351.849035,-0.9863539672000001,-9.802528086400002,1.6437238944,1.09173633,3.13979219,-3.81041222,,,
imu,351.857855,-1.01685976,-9.800135475200001,1.6485091168,0.94967504,3.46877623,-3.63096638,,,
imu,351.866675,-1.0342061912,-9.7923594888,1.6622666312,0.88985976,3.98468302,-3.31693616,,,
imu,351.875494,-1.0754787344,-9.8049206976,1.680809368,0.78518302,4.31366706,-3.09262886,,,
imu,351.884314,-1.1317050976,-9.762451848800001,1.6341534496,0.56087572,4.88191222,-2.99542903,,,
imu,351.893133,-1.0874417904,-9.6918698184,1.6156107128,0.38142988,5.75671069,-3.08515195,,,
imu,351.901953,-1.1191438888,-9.6846919848,1.6443220472,0.45619898,6.45954023,-3.33188998,,,
imu,351.910772,-1.130508792,-9.720581152800001,1.6544906448,0.73284465,7.41658471,-3.33936689,,,
imu,351.919592,-1.0090837736,-9.704431027200002,1.6425275888,1.09921324,8.36615228,-3.45152054,,,
imu,351.928412,-0.9636241608000001,-9.70502918,1.6395368248,1.33847436,8.986735809999999,-3.92256587,,,
imu,351.937231,-0.9432869656,-9.725366375200002,1.6305645328,1.54782784,9.39796586,-4.318842099999999,,,
imu,351.946051,-0.8912476720000001,-9.735534972800002,1.6407331304,1.7422275,9.71947299,-4.3936112,,,
imu,351.95487,-0.8541621984000002,-9.777405668800002,1.6520980336,1.97401171,10.04845703,-4.19921154,,,
imu,351.963352,-0.8505732816000001,-9.8043225448,1.6407331304,1.97401171,10.16808759,-4.19921154,,,
imu,351.971833,-0.8571529624000002,-9.812098531200002,1.6736315344,1.65998149,10.3251027,-4.244073,,,
imu,351.980314,-0.8948365888000002,-9.820472670400001,1.686790896,1.56278166,10.48211781,-4.3936112,,,
imu,351.988796,-1.0419821776,-9.885671325600002,1.6640610896,1.11416706,10.64660983,-4.75250288,,,
imu,351.997277,-1.3446474944,-9.946084758400001,1.671837076,0.68050628,11.3718701,-4.96933327,,,
imu,352.005758,-1.6610703256,-9.9448884528,1.6706407704,-0.01484635000000001,13.29343597,-4.82727198,,,
imu,352.01424,-1.7872805664,-9.914382660000001,1.6556869504,-0.69524516,16.57579946,-4.77493361,,,
imu,352.022721,-1.737633884,-9.83961356,1.6437238944,-1.30835178,20.17219317,-5.24597894,,,
imu,352.031202,-1.6455183528,-9.805518850400002,1.6311626856,-1.65228964,23.52184885,-6.15068505,,,
imu,350.728446,,,,,,,79.73741960000001,-37.62872440000002,136.6291008
imu,350.829978,,,,,,,79.7740412,-36.81084200000002,137.2882896
imu,350.931846,,,,,,,79.3101676,-36.79863480000001,136.214056
imu,351.033073,,,,,,,78.6509788,-37.01836440000002,136.6779296
imu,351.134635,,,,,,,78.45566360000001,-36.94512120000002,136.3483352
imu,351.236198,,,,,,,78.7608436,-36.79863480000001,135.84784
imu,351.33776,,,,,,,78.2603484,-36.55449080000002,136.2384704
imu,351.439323,,,,,,,80.51868040000001,-37.42120200000001,134.1510392
imu,352.03978,-1.537252696,-9.8013317808,1.6341534496,-1.56256672,26.57990504,-6.9357606,,,
imu,352.048262,-1.336871508,-9.748096181600001,1.6036476568,-1.42798234,29.13700826,-7.89280508,,,
imu,352.056743,-1.0712916648,-9.696655040800001,1.612021796,-1.24105959,30.8866052,-8.8049881,,,
imu,352.065224,-0.8176748776000001,-9.661364025600001,1.623984852,-0.98684465,31.60438856,-9.575109829999999,,,
imu,352.073706,-0.6172936896000001,-9.6523917336,1.6395368248,-0.62047606,31.32774289,-10.00877061,,,
imu,352.082187,-0.4755314760000001,-9.636839760800001,1.641929436,-0.25410747,30.25854476,-9.97138606,,,
imu,352.090668,-0.391790084,-9.6535880392,1.635947908,0.15712258,28.9426086,-9.747078759999999,,,
imu,352.09915,-0.3463304712,-9.675121540000001,1.6526961864,0.46367589,27.23787312,-9.17135669,,,
imu,352.107631,-0.320011748,-9.6775141512,1.6592758672,0.6132140899999999,25.22658433,-8.53581934,,,
imu,352.116112,-0.3361618736,-9.7163940832,1.6586777144,0.80013684,23.34240301,-7.96009727,,,
imu,352.124594,-0.3241988176,-9.7128051664,1.6473128112,1.03192105,21.42083714,-6.995575880000001,,,
imu,352.133075,-0.3253951232,-9.6942624296,1.6562851032,1.35342818,19.49927127,-6.008623759999999,,,
imu,352.141557,-0.3367600264,-9.685290137600001,1.653892492,1.63755076,17.73472051,-5.260932759999999,,,
imu,352.150038,-0.3445360128,-9.667345553600002,1.6455183528,1.88428879,15.77577009,-4.70764142,,,
imu,352.158519,-0.3636769024000001,-9.661364025600001,1.6503035752,2.14598064,13.81681967,-4.341272829999999,,,
imu,352.167007,-0.3911919312,-9.675719692800001,1.6592758672,2.66936434,11.9700229,-3.99733497,,,
imu,352.175495,-0.4264829464000001,-9.711010708000002,1.6616684784,2.863764,10.51950236,-3.68330475,,,
imu,352.183982,-0.4731388648000001,-9.7570684736,1.6736315344,3.15536349,8.84467452,-3.46647436,,,
imu,352.19247,-0.4940742128000001,-9.793555794400001,1.6885853544,3.15536349,7.43153853,-3.2720747,,,
imu,352.200958,-0.5401319784,-9.8049206976,1.692772424,3.18527113,6.25766366,-3.13001341,,,
imu,352.209445,-0.5760211464000001,-9.836024643200002,1.6861927432,2.99087147,5.20341935,-2.95804448,,,
imu,352.217933,-0.6023398696000001,-9.863539672000002,1.7005484104,2.84881018,4.33609779,-2.69635263,,,
imu,352.226421,-0.6854831088000001,-9.9101955904,1.7178948416,2.57964142,3.75289881,-2.46456842,,,
imu,352.234909,-0.7512799168000001,-9.952066286400001,1.7274652864,2.20579592,3.25942275,-2.04586146,,,
imu,352.243396,-0.8200674888,-9.938906924800001,1.7196893,1.77961205,2.94539253,-1.88884635,,,
imu,352.251884,-0.8475825176000001,-9.907204826400001,1.707726244,1.18145925,2.90800798,-1.83650798,,,
imu,352.260372,-0.8445917536,-9.880886103200002,1.7125114664,0.79265993,2.87062343,-2.03090764,,,
imu,352.268859,-0.8691160184000001,-9.839015407200002,1.7161003832,0.43376825,2.98277708,-2.19539966,,,
imu,352.277347,-0.8739012408000001,-9.8049206976,1.7113151608,0.13469185,3.11736146,-2.33746095,,,
imu,352.285835,-0.8655271016000001,-9.787574266400002,1.6975576464,0.09730729999999999,3.34914567,-2.51690679,,,
imu,352.294322,-0.8475825176000001,-9.7576666264,1.695763188,-0.05970781,3.52859151,-2.8234601,,,
imu,352.30281,-0.7985339880000002,-9.734936820000001,1.6921742712,0.03001510999999998,3.46877623,-3.3468438,,,
imu,352.311298,-0.7710189592000001,-9.713403319200001,1.6832019792,0.25432241,3.36409949,-3.55619728,,,
imu,352.319786,-0.7333353328000001,-9.704431027200002,1.6855945904,0.34404533,3.24446893,-3.89265823,,,
imu,352.328273,-0.7171852072000001,-9.6984494992,1.6826038264,0.56835263,3.03511545,-4.102011709999999,,,
imu,352.336761,-0.7010350816000002,-9.690673512800002,1.6754259928,0.83004448,2.78837742,-4.08705789,,,
imu,352.345249,-0.6789034280000001,-9.704431027200002,1.6694444648,1.08425942,2.3995781,-4.16182699,,,
imu,352.353736,-0.6800997336000001,-9.725366375200002,1.6514998808,1.2188438,1.92105586,-4.22164227,,,
imu,352.362224,-0.7016332344,-9.593772759200002,1.7549803152,1.20388998,1.40514907,-4.20668845,,,
imu,352.370661,-0.6914646368,-9.6817012208,1.6820056736,1.56278166,0.9116730099999999,-4.19921154,,,
imu,352.379098,-0.684884956,-9.7576666264,1.6293682272,2.10111918,0.4331507699999997,-4.13191935,,,
imu,352.387535,-0.7321390272000001,-9.690673512800002,1.692772424,2.01139626,0.02939763000000006,-4.18425772,,,
imu,352.395971,-0.7135962904,-9.745703570400002,1.6580795616,2.28804193,-0.3220171400000003,-4.146873169999999,,,
imu,352.404408,-0.7411113192000001,-9.7474980288,1.6670518536,2.28056502,-0.7482010100000003,-4.057150249999999,,,
imu,352.412845,-0.7584577504000002,-9.7612555432,1.6646592424,2.44505704,-1.06970814,-4.146873169999999,,,
imu,352.421282,-0.7470928472,-9.800135475200001,1.6532943392,2.39271867,-1.46598437,-4.20668845,,,
imu,352.429719,-0.7752060288000001,-9.802528086400002,1.6682481592,2.50487232,-1.6379533,-4.13191935,,,
imu,352.438156,-0.7847764736,-9.801929933600002,1.6676500064,2.47496468,-1.88469133,-4.04219643,,,
imu,352.446592,-0.8027210576,-9.824659740000001,1.650901728,2.45253395,-2.00432189,-3.95247351,,,
imu,352.455029,-0.8242545584000001,-9.8563618384,1.6437238944,2.31794957,-2.09404481,-3.93004278,,,
imu,352.463466,-0.8595455736000001,-9.828248656800001,1.6646592424,2.08616536,-2.10899863,-3.70573548,,,
imu,352.471903,-0.8571529624000002,-9.851576616000001,1.671837076,1.79456587,-2.13890627,-3.51881273,,,
imu,352.48034,-0.8691160184000001,-9.867726741600002,1.6514998808,1.63007385,-2.06413717,-3.54872037,,,
imu,352.488777,-0.8697141712000002,-9.8527729216,1.6431257416,1.22632071,-2.07161408,-3.54872037,,,
imu,352.497213,-0.8840698384000001,-9.835426490400001,1.6556869504,0.8973366700000001,-2.13142936,-3.69825857,,,
imu,352.50565,-0.8972292000000002,-9.8144911424,1.6461165056,0.81509066,-2.19872155,-3.7206893,,,
imu,352.514087,-0.9008181168,-9.818080059200001,1.6461165056,0.5982602699999999,-2.07161408,-3.6459202,,,
imu,352.522524,-0.9020144224000001,-9.803724392000001,1.6413312832,0.5010604399999999,-1.97441425,-3.69825857,,,
imu,352.530961,-0.9223516176000001,-9.788770572,1.6425275888,0.4711528,-1.87721442,-3.57862801,,,
imu,352.539398,-0.9271368400000001,-9.777405668800002,1.6503035752,0.65059864,-1.72767622,-3.48142818,,,
imu,352.547834,-0.9115848672000001,-9.760059237600002,1.6371442136,0.51601426,-1.51084583,-3.44404363,,,
imu,352.556271,-0.9079959504000001,-9.758264779200001,1.6586777144,0.63564482,-1.39869218,-3.36179762,,,
imu,352.564708,-0.9044070336000001,-9.748096181600001,1.6413312832,0.6132140899999999,-1.21176943,-3.41413599,,,
imu,352.573168,-0.8924439776000002,-9.746301723200002,1.6365460608,0.68798319,-0.94260067,-3.29450543,,,
imu,352.581628,-0.8780883104000001,-9.7403201952,1.6347516024,0.620691,-0.8154932000000001,-3.33936689,,,
imu,352.590087,-0.8667234072000001,-9.738525736800002,1.638938672,0.78518302,-0.8902623000000003,-3.24964397,,,
imu,352.598547,-0.8571529624000002,-9.7331423616,1.6395368248,0.88985976,-0.86035466,-3.20478251,,,
imu,352.607007,-0.8308342392000001,-9.744507264800001,1.6437238944,1.05435178,-0.7930624700000002,-3.15244414,,,
imu,352.615467,-0.8380120728000001,-9.745703570400002,1.6353497552,1.17398234,-0.9201699400000001,-3.18982869,,,
imu,352.623926,-0.8260490168000001,-9.777405668800002,1.6335552968,1.35342818,-1.05475432,-3.29450543,,,
imu,352.632386,-0.8308342392000001,-9.7702278352,1.6413312832,1.28613599,-1.20429252,-3.48890509,,,
imu,352.640846,-0.8380120728000001,-9.775611210400001,1.623984852,1.40576655,-1.30896926,-3.54872037,,,
imu,352.649305,-0.8368157672000002,-9.788770572,1.6401349776,1.45062801,-1.51084583,-3.43656672,,,
imu,352.657765,-0.8457880592000001,-9.820472670400001,1.6544906448,1.45810492,-1.39121527,-3.22721324,,,
imu,352.666225,-0.8368157672000002,-9.828846809600002,1.6497054224,1.39081273,-1.42112291,-3.06272122,,,
imu,352.674685,-0.8547603512000002,-9.822267128800002,1.6532943392,1.18893616,-1.47346128,-3.2720747,,,
imu,352.683144,-0.8571529624000002,-9.8270523512,1.6604721728,1.15155161,-1.63047639,-3.24964397,,,
imu,352.691604,-0.8864624496000001,-9.850380310400002,1.6772204512,0.9272443100000001,-1.68281476,-3.3468438,,,
imu,352.700064,-0.8846679912000001,-9.843800629600002,1.665855548,0.73284465,-1.76506077,-3.40665908,,,
imu,352.708524,-0.8966310472000002,-9.8234634344,1.65987402,0.52349117,-1.68281476,-3.33188998,,,
imu,352.716983,-0.9139774784000001,-9.801929933600002,1.6640610896,0.28423005,-1.5631842,-3.21973633,,,
imu,352.725443,-0.9163700896000002,-9.802528086400002,1.6580795616,0.07487657,-1.54075347,-2.92813684,,,
imu,352.733903,-0.9181645480000001,-9.802528086400002,1.65987402,0.21693786,-1.18186179,-2.41970696,,,
imu,352.742362,-0.9109867144000001,-9.7953502528,1.6556869504,0.21693786,-0.88278539,-2.12810747,,,
imu,352.750822,-0.9056033392000001,-9.7714241408,1.6503035752,0.36647606,-0.65847809,-1.88884635,,,
imu,352.759282,-0.8888550608000001,-9.7427128064,1.6413312832,0.32909151,-0.6285704500000002,-2.05333837,,,
imu,352.767742,-0.8709104768000001,-9.7193848472,1.6395368248,0.3889067899999999,-0.4790322499999999,-2.18044584,,,
imu,352.776568,-0.8565548096000002,-9.703832874400002,1.6227885464,0.59078336,-0.5164168,-2.3748455,,,
imu,352.785394,-0.8709104768000001,-9.7128051664,1.6377423664,0.65807555,-0.5463244400000002,-2.71130645,,,
imu,352.79422,-0.8721067824000002,-9.701440263200002,1.623984852,0.70293701,-0.4416477000000003,-2.92813684,,,
imu,352.803046,-0.9026125752,-9.722973764,1.6377423664,0.80761375,-0.1575251200000003,-2.96552139,,,
imu,352.811873,-0.9050051864,-9.7510869456,1.6335552968,1.00201341,0.08921290999999965,-2.88327538,,,
imu,352.820699,-0.8882569080000001,-9.773218599200002,1.6437238944,0.97210577,0.33595094,-2.92813684,,,
imu,352.829525,-0.8912476720000001,-9.785779808000001,1.671837076,0.9272443100000001,0.62007352,-3.05524431,,,
imu,352.838351,-0.8996218112000001,-9.803126239200001,1.6610703256,1.04687487,1.03878048,-2.86084465,,,
imu,352.847178,-0.8762938520000002,-9.806715156000001,1.653892492,0.9272443100000001,1.45748744,-2.78607555,,,
imu,351.540885,,,,,,,78.6143572,-36.7009772,135.908876
imu,351.642509,,,,,,,80.21350039999999,-37.61651720000001,133.5650936
imu,351.744041,,,,,,,77.8453036,-36.57890520000002,136.7511728
imu,351.845573,,,,,,,77.35701559999998,-36.85967080000001,134.6149128
imu,351.947196,,,,,,,77.8575108,-37.05498600000001,135.7745968
imu,352.048728,,,,,,,77.259358,-37.21367960000001,136.0431552
imu,352.150413,,,,,,,74.6226028,-36.62773400000001,132.7594184
imu,352.251853,,,,,,,74.2563868,-36.00516680000001,131.5264912
imu,352.856004,-0.8392083784000002,-9.786377960800001,1.6963613408,0.77770611,1.74908693,-2.77112173,,,
imu,352.86483,-0.8081044328000001,-9.7780038216,1.6885853544,0.50853735,2.00330187,-2.88327538,,,
imu,352.873656,-0.7985339880000002,-9.779200127200001,1.6969594936,0.36647606,2.05564024,-3.13001341,,,
imu,352.882482,-0.7931506128000001,-9.7821908912,1.695763188,0.25432241,2.13040934,-3.44404363,,,
imu,352.891309,-0.7728134176000001,-9.768433376800001,1.701744716,0.11226112,2.22013226,-3.39918217,,,
imu,352.900135,-0.7746078760000001,-9.754675862400001,1.7035391744,0.11973803,2.324809,-3.45152054,,,
imu,352.908961,-0.7710189592000001,-9.759461084800002,1.7155022304,0.02253820000000001,2.36219355,-3.62348947,,,
imu,352.917787,-0.7536725280000001,-9.758862932000001,1.7202874528,0.03001510999999998,2.36967046,-3.69825857,,,
imu,352.926613,-0.7512799168000001,-9.769629682400002,1.73464312,0.14216876,2.36967046,-3.68330475,,,
imu,352.93544,-0.7512799168000001,-9.787574266400002,1.7489987872,0.08983038999999998,2.22760917,-3.78050458,,,
imu,352.944266,-0.7650374312,-9.802528086400002,1.7537840096,0.16459949,2.11545552,-3.97490424,,,
imu,352.953092,-0.7680281952000001,-9.779798280000001,1.7412228008,0.02253820000000001,1.95844041,-4.0945348,,,
imu,352.961918,-0.7710189592000001,-9.754675862400001,1.731652356,0.07487657,1.74161002,-4.20668845,,,
imu,352.970745,-0.7913561544000001,-9.725964528,1.7382320368,0.05244583999999999,1.62945637,-4.18425772,,,
imu,352.979529,-0.8206656416,-9.721179305600002,1.7382320368,0.19450713,1.64441019,-3.98238115,,,
imu,352.988313,-0.8218619472,-9.7128051664,1.7268671336,0.35152224,1.77151766,-3.78050458,,,
imu,352.997096,-0.8122915024000001,-9.714001472000001,1.7083243968,0.6132140899999999,1.84628676,-3.60105874,,,
imu,353.00588,-0.804515516,-9.7193848472,1.7065299384,0.76275229,1.8014253,-3.5711511,,,
imu,353.014664,-0.8009265992000001,-9.719983000000001,1.7041373272,0.94967504,1.78647148,-3.51881273,,,
imu,353.023448,-0.7799912512000001,-9.710412555200001,1.6879872016,1.16650543,1.83133294,-3.51881273,,,
imu,353.032232,-0.7775986400000001,-9.709216249600003,1.680809368,1.36090509,1.65936401,-3.68330475,,,
imu,353.041016,-0.7853746264000001,-9.709216249600003,1.6754259928,1.43567419,1.42010289,-3.96742733,,,
imu,353.0498,-0.7955432240000001,-9.708019944000002,1.6724352288,1.5179202,1.26308778,-4.169303899999999,,,
imu,353.058584,-0.8003284464,-9.7122070136,1.665855548,1.60016621,1.30047233,-4.19173463,,,
imu,353.067368,-0.8093007384,-9.727758986400001,1.653892492,1.60764312,1.24813396,-4.25902682,,,
imu,353.076152,-0.8200674888,-9.745105417600001,1.6467146584,1.5179202,1.18084177,-4.3936112,,,
imu,353.084936,-0.8236564056000001,-9.761853696000001,1.6473128112,1.65998149,1.21822632,-4.102011709999999,,,
imu,353.09372,-0.8236564056000001,-9.7815927384,1.6425275888,1.85438115,1.2032725,-3.87770441,,,
imu,353.102504,-0.8218619472,-9.803126239200001,1.6413312832,1.84690424,1.07616503,-3.74312003,,,
imu,353.111288,-0.8344231560000002,-9.806715156000001,1.6431257416,1.64502767,1.24813396,-3.62348947,,,
imu,353.120072,-0.8344231560000002,-9.8210708232,1.6503035752,1.65998149,1.1285034,-3.5711511,,,
imu,353.128856,-0.8421991424,-9.824659740000001,1.6395368248,1.64502767,1.09859576,-3.51133582,,,
imu,353.137548,-0.8535640456000001,-9.8402117128,1.6347516024,1.24127453,1.00139593,-3.61601256,,,
imu,353.146332,-0.8571529624000002,-9.845595088000001,1.6473128112,1.04687487,1.15841104,-3.60105874,,,
imu,353.155116,-0.8619381848000001,-9.8461932408,1.6520980336,0.8524752099999999,1.33785688,-3.47395127,,,
imu,353.1639,-0.8828735328,-9.850978463200002,1.6455183528,0.80013684,1.53973345,-3.36927453,,,
imu,353.172684,-0.88227538,-9.839015407200002,1.6473128112,0.5982602699999999,1.68927165,-3.4216129,,,
imu,353.181468,-0.8936402832000001,-9.8270523512,1.6485091168,0.31413769,1.83880985,-3.39918217,,,
imu,353.18962,-0.8733030880000001,-9.8079114616,1.6467146584,0.29170696,2.04068642,-3.51881273,,,
imu,353.197772,-0.8469843648000001,-9.8013317808,1.6526961864,0.19450713,2.30237827,-3.47395127,,,
imu,353.205924,-0.8445917536,-9.759461084800002,1.6586777144,0.01506129,2.35471664,-3.56367419,,,
imu,353.214076,-0.8332268504000001,-9.7534795568,1.6592758672,0.15712258,2.40705501,-3.58610492,,,
imu,353.222228,-0.8146841136000001,-9.772620446400001,1.647910964,0.17955331,2.57154703,-3.6459202,,,
imu,353.23038,-0.8015247520000001,-9.785779808000001,1.671837076,0.20198404,2.63883922,-3.70573548,,,
imu,353.238532,-0.7997302936000001,-9.788770572,1.680809368,0.11226112,2.45191647,-3.81041222,,,
imu,353.246684,-0.7913561544000001,-9.802528086400002,1.6885853544,0.07487657,2.38462428,-3.75807385,,,
imu,353.254836,-0.7919543072000002,-9.801929933600002,1.6849964376,-0.007369440000000005,2.33228591,-3.78050458,,,
imu,353.262988,-0.7889635432000001,-9.7714241408,1.6796130624,-0.11952309,2.29490136,-3.66835093,,,
imu,353.27114,-0.7781967928000002,-9.777405668800002,1.6861927432,-0.26906129,2.28742445,-3.45899745,,,
imu,353.279292,-0.7614485144,-9.756470320800002,1.677818604,-0.31392275,2.23508608,-3.46647436,,,
imu,353.287444,-0.7602522088000001,-9.742114653600002,1.6820056736,-0.38121494,1.97339423,-3.46647436,,,
imu,353.295596,-0.7811875568000001,-9.7295534448,1.6963613408,-0.37373803,1.86124058,-3.60853565,,,
imu,353.303748,-0.7476910000000001,-9.716992236000001,1.6945668824,-0.23915365,1.59954873,-3.66087402,,,
imu,353.3119,-0.7698226536000001,-9.7265626808,1.6951650352,-0.10456927,1.45748744,-3.60853565,,,
imu,353.320052,-0.7895616960000001,-9.7301515976,1.7172966888,0.11226112,1.31542615,-3.71321239,,,
imu,353.328204,-0.7895616960000001,-9.7403201952,1.7250726752,0.11226112,1.21074941,-3.74312003,,,
imu,353.336356,-0.8098988912000001,-9.7510869456,1.7238763696,0.25432241,1.2032725,-3.63844329,,,
imu,353.344508,-0.8128896552000001,-9.779798280000001,1.731652356,0.43376825,1.21074941,-3.59358183,,,
imu,353.35266,-0.8182730304000002,-9.7821908912,1.7220819112,0.35899915,1.10607267,-3.84031986,,,
imu,353.360812,-0.8128896552000001,-9.773218599200002,1.7178948416,0.41881443,1.09859576,-3.85527368,,,
imu,353.368964,-0.8260490168000001,-9.785181655200002,1.7322505088,0.35152224,1.08364194,-3.75059694,,,
imu,353.377116,-0.8278434752000001,-9.789368724800001,1.7388301896,0.35152224,1.12102649,-3.55619728,,,
imu,353.385576,-0.8248527112,-9.7845835024,1.7484006344,0.3739529699999999,1.03130357,-3.76555076,,,
imu,353.394035,-0.8380120728000001,-9.785181655200002,1.746606176,0.36647606,0.9415806499999997,-3.78798149,,,
imu,353.402495,-0.8433954480000001,-9.7995373224,1.7519895512,0.35899915,0.8742884599999998,-3.90761205,,,
imu,353.410955,-0.8786864632000002,-9.803126239200001,1.7567747736,0.26927623,0.7546578999999998,-4.079580979999999,,,
imu,353.419415,-0.9026125752,-9.7780038216,1.7561766208,-0.01484635000000001,0.9116730099999999,-3.98985806,,,
imu,353.427874,-0.8936402832000001,-9.725964528,1.7633544544,-0.06718472,0.9939190199999999,-3.95995042,,,
imu,353.436334,-0.8972292000000002,-9.737927584000001,1.7507932456,0.01506129,1.24813396,-3.45899745,,,
imu,353.444794,-0.8936402832000001,-9.727160833600001,1.7573729264,0.11226112,1.61450255,-2.93561375,,,
imu,353.453253,-0.8828735328,-9.730749750400001,1.7531858568,0.23936859,1.93600968,-2.50195297,,,
imu,353.461713,-0.8350213088000001,-9.744507264800001,1.7262689808,0.43376825,2.29490136,-2.30755331,,,
imu,353.470173,-0.8015247520000001,-9.709216249600003,1.7268671336,0.56087572,2.4743472,-2.34493786,,,
imu,353.478633,-0.7656355840000001,-9.696056888000001,1.7292597448,0.67302937,2.25751681,-2.77112173,,,
imu,353.487092,-0.7536725280000001,-9.710412555200001,1.7172966888,0.8524752099999999,2.19022462,-3.13001341,,,
imu,353.495552,-0.7542706808000001,-9.716992236000001,1.7119133136,1.03939796,1.92853277,-3.39918217,,,
imu,353.504012,-0.7632429728000001,-9.7122070136,1.7155022304,1.30108981,1.82385603,-3.68330475,,,
imu,353.512471,-0.7853746264000001,-9.730749750400001,1.7125114664,1.18893616,1.47991817,-3.98238115,,,
imu,353.520931,-0.7955432240000001,-9.743909112,1.7119133136,1.28613599,1.62945637,-3.89265823,,,
imu,353.529391,-0.804515516,-9.761853696000001,1.716698536,1.18145925,1.58459491,-3.88518132,,,
imu,353.537851,-0.8021229048,-9.764246307200002,1.7232782168,1.21136689,1.71917929,-3.56367419,,,
imu,353.54631,-0.7895616960000001,-9.7809945856,1.7172966888,1.15902852,1.64441019,-3.41413599,,,
imu,353.55477,-0.780589404,-9.797742864000002,1.7208856056,1.04687487,1.69674856,-3.2720747,,,
imu,353.56323,-0.7865709320000001,-9.7989391696,1.7190911472,1.10669015,1.80890221,-3.2720747,,,
imu,353.57169,-0.7817857096,-9.802528086400002,1.7364375784,1.0693056,1.91357895,-3.1225365,,,
imu,353.580149,-0.7859727792000001,-9.803724392000001,1.7352412728,0.82256757,1.70422547,-3.45152054,,,
imu,353.588613,-0.7853746264000001,-9.7995373224,1.73464312,0.6954601,1.60702564,-3.58610492,,,
imu,353.597076,-0.8009265992000001,-9.802528086400002,1.74959694,0.68798319,1.64441019,-3.66835093,,,
imu,353.60554,-0.8069081272,-9.789368724800001,1.7454098704,0.4861066199999999,1.53225654,-3.84031986,,,
imu,353.614003,-0.8069081272,-9.802528086400002,1.7454098704,0.35899915,1.59207182,-3.86275059,,,
imu,353.622467,-0.8140859608000002,-9.7995373224,1.7591673848,0.3963837,1.64441019,-3.84031986,,,
imu,353.630931,-0.8146841136000001,-9.7959484056,1.7597655376,0.35152224,1.9509635,-3.67582784,,,
imu,353.639394,-0.8218619472,-9.8049206976,1.7663452184,0.14216876,1.93600968,-3.68330475,,,
imu,353.647858,-0.8242545584000001,-9.803126239200001,1.7693359824,0.1720764,1.91357895,-3.75807385,,,
imu,353.656321,-0.8206656416,-9.768433376800001,1.7597655376,0.05992275,1.90610204,-3.75059694,,,
imu,353.664785,-0.8093007384,-9.7331423616,1.758569232,0.0001074699999999984,1.94348659,-3.78050458,,,
imu,352.353289,,,,,,,74.4028732,-36.02958120000002,132.3932024
imu,352.454882,,,,,,,77.06404280000001,-37.06719320000001,129.9639696
imu,352.556505,,,,,,,74.76908920000001,-36.92070680000001,133.3087424
imu,352.657976,,,,,,,77.35701559999998,-37.787418,130.7574376
imu,352.7596,,,,,,,75.1353052,-37.05498600000001,134.1144176
imu,352.861101,,,,,,,75.2329628,-36.33476120000001,132.735004
imu,352.962755,,,,,,,75.0742692,-36.29813960000001,134.1510392
imu,353.064226,,,,,,,75.41607079999999,-37.03057160000001,133.2477064
imu,353.673248,-0.8296379336000002,-9.7193848472,1.767541524,0.01506129,2.03320951,-3.82536604,,,
imu,353.681712,-0.8302360864000001,-9.7265626808,1.7812990384,0.16459949,2.13788625,-3.62348947,,,
imu,353.690175,-0.8320305448000002,-9.724768222400002,1.7663452184,0.27675314,2.24256299,-3.23469015,,,
imu,353.698639,-0.840404684,-9.7074217912,1.7591673848,0.45619898,2.42948574,-3.01038285,,,
imu,353.707102,-0.8230582528,-9.699645804800001,1.7681396768,0.74779847,2.57902394,-2.77112173,,,
imu,353.715566,-0.8098988912000001,-9.7163940832,1.7591673848,0.94967504,2.66874686,-3.00290594,,,
imu,353.72403,-0.8021229048,-9.7086180968,1.7567747736,0.8375213899999999,2.63136231,-3.18982869,,,
imu,353.732493,-0.7955432240000001,-9.721179305600002,1.7621581488,1.12164397,2.82576197,-3.15992105,,,
imu,353.740957,-0.7979358352000001,-9.7283571392,1.7484006344,1.09173633,2.66874686,-3.36927453,,,
imu,353.74942,-0.7973376824000001,-9.7361331256,1.731652356,1.26370526,2.70613141,-3.496382,,,
imu,353.757884,-0.8104970440000001,-9.738525736800002,1.7280634392,1.30856672,2.78090051,-3.51133582,,,
imu,353.766347,-0.8122915024000001,-9.676317845600002,1.7896731776,1.22632071,2.81828506,-3.54872037,,,
imu,353.774811,-0.7979358352000001,-9.723571916800001,1.7489987872,1.30108981,2.96782326,-3.47395127,,,
imu,353.783274,-0.7692245008,-9.7821908912,1.713707772,1.43567419,3.03511545,-3.41413599,,,
imu,353.792166,-0.7698226536000001,-9.731946056000002,1.7579710792,1.26370526,3.10988455,-3.33936689,,,
imu,353.801057,-0.7644392784,-9.755872168000002,1.7484006344,1.2188438,3.13231528,-3.32441307,,,
imu,353.809948,-0.7375224024000001,-9.802528086400002,1.7190911472,1.2936129,3.10988455,-3.22721324,,,
imu,353.818839,-0.744700236,-9.782789044000001,1.7262689808,1.19641307,3.11736146,-3.03281358,,,
imu,353.82773,-0.7303445688000001,-9.796546558400001,1.7196893,1.2188438,3.05006927,-2.91318302,,,
imu,353.836622,-0.7106055264000001,-9.8300431152,1.7184929944,1.31604363,2.90053107,-3.01038285,,,
imu,353.845513,-0.7129981376000001,-9.822267128800002,1.7232782168,0.9048135799999999,2.69117759,-3.2720747,,,
imu,353.854404,-0.7177833600000001,-9.80970592,1.731652356,0.81509066,2.60145467,-3.14496723,,,
imu,353.863295,-0.7100073736000001,-9.803126239200001,1.7298578976,0.78518302,2.45191647,-3.22721324,,,
imu,353.872187,-0.7129981376000001,-9.832435726400002,1.7178948416,0.620691,2.24256299,-3.30198234,,,
imu,353.881078,-0.7273538048000001,-9.810902225600001,1.73464312,0.56835263,2.07807097,-3.45152054,,,
imu,353.889969,-0.7189796656000002,-9.7959484056,1.7484006344,0.35899915,2.06311715,-3.51881273,,,
imu,353.89886,-0.7195778184000001,-9.802528086400002,1.7484006344,0.31413769,2.0257326,-3.57862801,,,
imu,353.907752,-0.7303445688000001,-9.803126239200001,1.737633884,0.31413769,1.89862513,-3.76555076,,,
imu,353.916643,-0.7369242496000001,-9.789368724800001,1.7388301896,0.30666078,1.99582496,-3.7206893,,,
imu,353.925534,-0.7363260968000002,-9.748096181600001,1.7460080232,0.11226112,1.94348659,-3.88518132,,,
imu,353.934425,-0.7512799168000001,-9.728955292000002,1.7543821624,0.01506129,1.89862513,-3.89265823,,,
imu,353.943316,-0.7405131664000002,-9.7337405144,1.7519895512,0.23189168,1.88367131,-3.93751969,,,
imu,353.952208,-0.741709472,-9.7301515976,1.7448117176,0.28423005,1.77899457,-3.93751969,,,
imu,353.961099,-0.7488873056,-9.739722042400002,1.761559996,0.41881443,1.76404075,-4.034719519999999,,,
imu,353.96999,-0.7518780696000001,-9.734936820000001,1.7621581488,0.60573718,1.69674856,-4.04219643,,,
imu,353.978881,-0.7590559032000002,-9.730749750400001,1.7591673848,0.68798319,1.71170238,-3.97490424,,,
imu,353.987773,-0.7686263480000001,-9.7403201952,1.76455076,0.7253677399999999,1.60702564,-3.8702275,,,
imu,353.996178,-0.7847764736,-9.741516500800001,1.767541524,0.73284465,1.62197946,-3.96742733,,,
imu,354.004583,-0.7877672376000001,-9.761853696000001,1.7627563016,0.85995212,1.60702564,-3.88518132,,,
imu,354.012988,-0.7919543072000002,-9.773218599200002,1.7579710792,0.8375213899999999,1.68927165,-3.90013514,,,
imu,354.021393,-0.8051136688,-9.786976113600002,1.7663452184,0.68050628,1.64441019,-4.034719519999999,,,
imu,354.029798,-0.8063099744000001,-9.788770572,1.7519895512,0.7253677399999999,1.79394839,-4.07210407,,,
imu,354.038203,-0.8081044328000001,-9.803126239200001,1.7513913984,0.83004448,1.88367131,-3.90761205,,,
imu,354.046608,-0.8075062800000001,-9.803126239200001,1.7627563016,0.8749059399999999,2.04816333,-3.5711511,,,
imu,353.165819,,,,,,,75.2085484,-36.57890520000002,133.5406792
imu,353.267351,,,,,,,75.4526924,-36.65214840000002,133.6749584
imu,353.369066,,,,,,,75.47710679999999,-36.35917560000001,132.6373464
imu,353.470476,,,,,,,74.9033684,-36.42021160000002,134.2120752
imu,353.572069,,,,,,,77.503502,-37.14043640000002,132.2589232
imu,353.673632,,,,,,,75.58697160000001,-35.76102280000002,133.2477064
imu,353.775194,,,,,,,77.68661000000002,-36.82304920000001,130.8184736
imu,353.876726,,,,,,,75.12309800000001,-36.05399560000002,133.0279768
imu,353.978449,,,,,,,74.7446748,-35.8830948,131.8682928
