Type,Timestamp,Data Accelerometer X,Data Accelerometer Y,Data Accelerometer Z,Data Gyroscope X,Data Gyroscope Y,Data Gyroscope Z,Data Magnetometer X,Data Magnetometer Y,Data Magnetometer Z
imu,479.688489,0.07775986400000001,-9.720581152800001,2.4889138008,-0.16438455,1.99582496,-2.3748455,,,
imu,479.696965,0.101685976,-9.688280901600002,2.4769507448,-0.66533752,2.04816333,-2.60662971,,,
imu,479.705441,0.1160416432,-9.630858232800001,2.4745581336,-1.05413684,1.89114822,-2.72626027,,,
imu,479.713918,0.1441548248,-9.605735815200001,2.4518283272,-1.03918302,1.69674856,-2.95056757,,,
imu,479.722394,0.1662864784,-9.599754287200001,2.4500338688,-0.88964482,1.37524143,-3.05524431,,,
imu,479.73087,0.1609031032,-9.590183842400002,2.455417244,-0.82982954,1.10607267,-3.32441307,,,
imu,479.739332,0.146547436,-9.578818939200001,2.464389536000001,-0.55318387,0.6574580699999997,-3.51133582,,,
imu,479.747795,0.1172379488,-9.612315496,2.4865211896,-0.45598404,0.1415512799999998,-3.93004278,,,
imu,479.756257,0.0903210728,-9.661962178400001,2.4996805512,-0.28401511,-0.15004821,-4.012288789999999,,,
imu,479.764719,0.04187069600000001,-9.6775141512,2.5236066632,-0.17186146,-0.4865091600000002,-4.13939626,,,
imu,479.773181,-0.0017944584,-9.664952942400001,2.5337752608,-0.44850713,-0.6435242699999999,-4.25154991,,,
imu,479.781644,-0.0305057928,-9.666149248000002,2.5421494,-0.53823005,-0.59866281,-4.034719519999999,,,
imu,479.790106,-0.0747691,-9.678710456800001,2.5606921368,-0.61299915,-0.5612782599999999,-3.9449966,,,
imu,479.798568,-0.1010878232,-9.664952942400001,2.569066276,-0.71019898,-0.2771556799999999,-3.83284295,,,
imu,479.80703,-0.1208268656,-9.6494009696,2.5905997768,-1.00927538,-0.02294074000000013,-3.80293531,,,
imu,479.815493,-0.1148453376,-9.655382497600002,2.6073480552,-1.23358268,0.3509047599999997,-3.69078166,,,
imu,479.823955,-0.1142471848,-9.662560331200002,2.610936972000001,-1.3980747,0.8144731799999998,-3.41413599,,,
imu,479.832417,-0.101685976,-9.633250844,2.6193111112,-1.59247436,1.08364194,-3.39170526,,,
imu,479.84088,-0.08254508640000002,-9.5949690648,2.6211055696,-1.6971511,1.50982581,-3.4216129,,,
imu,479.849342,-0.06400234960000001,-9.562070660800002,2.6121332776,-1.61490509,1.75656384,-3.41413599,,,
imu,479.857804,-0.0382817792,-9.5501076048,2.6061517496,-1.45788998,1.9509635,-3.39170526,,,
imu,479.866266,-0.0233279592,-9.499264616800001,2.5977776104,-1.1737674,2.04068642,-3.32441307,,,
imu,479.874729,-0.0167482784,-9.4669643656,2.587609012800001,-0.6503837,2.15284007,-3.0477674,,,
imu,479.883191,-0.0143556672,-9.4591883792,2.5744496512,-0.2017691,2.27247063,-2.95056757,,,
imu,479.891653,-0.007775986400000001,-9.444832712,2.5774404152,0.35899915,2.3995781,-2.95804448,,,
imu,479.900115,-0.0023926112,-9.4526086984,2.5846182488,0.7552753799999999,2.48930102,-2.8982292,,,
imu,479.908578,0.0107667504,-9.496872005600002,2.5864127072,1.33099745,2.50425484,-3.06272122,,,
imu,479.91704,0.0257205704,-9.545322382400002,2.592992388,1.71979677,2.55659321,-3.1973056,,,
imu,479.925502,0.0203371952,-9.575828175200002,2.595983152,2.01887317,2.51173175,-3.21225942,,,
imu,479.933965,-0.005981528000000001,-9.6159044128,2.610936972000001,1.99644244,2.44443956,-3.36927453,,,
imu,479.942471,-0.04845037680000001,-9.6505972752,2.6091425136,1.9665348,2.49677793,-3.37675144,,,
imu,479.950978,-0.1268083936,-9.667345553600002,2.6181148056,1.85438115,2.66126995,-3.42908981,,,
imu,479.959485,-0.2918985664000001,-9.673925234400002,2.6157221944,1.63755076,3.12483837,-3.43656672,,,
imu,479.967992,-0.5473098120000001,-9.689477207200001,2.6252926392,1.5179202,4.104313579999999,-3.55619728,,,
imu,479.976498,-0.9600352440000001,-9.746301723200002,2.661779960000001,1.09921324,5.82400288,-3.58610492,,,
imu,479.985005,-1.229204004,-9.7534795568,2.6659670296,0.49358353,9.01664345,-4.07210407,,,
imu,479.993512,-1.4762411104,-9.6643547896,2.6569947376,-0.02980017,13.57755855,-4.7674567,,,
imu,480.002019,-1.7567747736,-9.635045302400002,2.631872320000001,-0.47841477,19.20767178,-5.97123921,,,
imu,480.010525,-1.9404076832,-9.573435564,2.5678699704,-0.56066078,25.74249112,-7.39932902,,,
imu,480.019032,-1.9278464744,-9.4699551296,2.5146343712,-0.44103022,33.2044473,-8.47600406,,,
imu,480.027539,-1.7334468144,-9.401167557600001,2.4841285784,-0.02980017,40.7561264,-9.59754056,,,
imu,480.036046,-1.4218092056,-9.463973601600001,2.476352592,0.57582954,47.70217579,-11.09292256,,,
imu,480.044553,-0.9905410368000002,-9.513022131200001,2.4631932304,1.19641307,53.30238138,-12.95467315,,,
imu,480.053059,-0.5317578392000001,-9.509433214400001,2.4667821472,1.68988913,57.02588256,-14.84633138,,,
imu,480.061566,-0.0753672528,-9.536350090400001,2.476352592,1.97401171,58.59603366,-17.12678893,,,
imu,480.070073,0.2691687600000001,-9.5740337168,2.4578098552,2.57216451,58.43901855,-19.17546227,,,
imu,480.07858,0.5443190480000001,-9.574631869600001,2.4631932304,3.05816366,57.03335946999999,-20.07269147,,,
imu,480.087086,0.7674300424000001,-9.5632669664,2.479343356,3.27499405,54.24447204,-20.38672169,,,
imu,480.095593,0.9205571592,-9.513620284000002,2.4775488976,3.52920899,51.17893893999999,-20.05026074,,,
imu,480.1041,1.0473655528,-9.504647992000002,2.460202466400001,4.07502342,47.65731433,-18.91377042,,,
imu,480.112607,1.0772731928,-9.514218436800002,2.4452486464,4.52363802,43.80670568,-17.22398876,,,
imu,480.121114,1.09162886,-9.516611048000001,2.437472660000001,4.81523751,39.90375865999999,-15.43700727,,,
imu,480.12962,1.097610388,-9.499264616800001,2.4279022152,5.08440627,36.15034984,-13.37338011,,,
imu,480.138127,1.0575341504,-9.519003659200001,2.4261077568,5.53302087,32.34460265,-11.38452205,,,
imu,480.146906,0.9492684936000001,-9.5357519376,2.4177336176,6.12369676,28.83045495,-9.64240202,,,
imu,480.155684,0.8392083784000002,-9.536350090400001,2.427304062400001,6.36295788,25.5779991,-8.38628114,,,
imu,480.164462,0.6902683312000001,-9.552500216,2.4279022152,6.66203428,22.79658858,-7.010529699999999,,,
imu,480.173241,0.5359449088000001,-9.609324732000001,2.4320892848,6.98354141,20.42640811,-6.225454149999999,,,
imu,480.182019,0.3971734592000001,-9.6434194416,2.4308929792,6.79661866,18.75905718,-5.68711663,,,
imu,480.190798,0.3026653168,-9.675121540000001,2.4207243816,6.76671102,17.62256686,-5.33570186,,,
imu,480.199576,0.2261017584,-9.693664276800002,2.404574256,6.5274499,17.00198333,-5.15625602,,,
imu,480.208355,0.1710717008,-9.746899876,2.3872278248,6.28071187,16.530938,-5.32074804,,,
imu,480.217133,0.125612088,-9.764246307200002,2.396798269600001,6.08631221,16.07484649,-5.79179337,,,
imu,480.225912,0.08852661440000001,-9.785779808000001,2.383040755200001,5.74237435,15.81315464,-6.30022325,,,
imu,480.23469,0.08374139200000001,-9.800135475200001,2.380648144,5.45077486,15.74586245,-6.928283689999999,,,
imu,480.243468,0.0753672528,-9.801929933600002,2.344758976,5.16665228,15.66361644,-7.09277571,,,
imu,480.252247,0.1052748928,-9.769629682400002,2.3052808912,4.9572988,15.56641661,-7.09277571,,,
imu,480.261025,0.1327899216,-9.748694334400001,2.2837473904,4.77037605,15.51407824,-7.20492936,,,
imu,480.269804,0.191408896,-9.7337405144,2.2442693056,4.65074549,15.22247875,-7.145114079999999,,,
imu,480.278582,0.2691687600000001,-9.728955292000002,2.2113709016,4.5834533,14.59441831,-6.883422229999999,,,
imu,480.287361,0.34393786,-9.739722042400002,2.1790706504,4.50120729,13.78691203,-6.56939201,,,
imu,480.296139,0.3822196392,-9.741516500800001,2.1497611632,4.5086842,12.48592969,-6.464715269999999,,,
imu,480.304918,0.3882011672000001,-9.7474980288,2.1491630104,4.34419218,11.06531679,-6.270315609999999,,,
imu,480.313696,0.3553027632,-9.776209363200001,2.1360036488,4.26194617,9.78676518,-5.784316459999999,,,
imu,480.322474,0.3493212352000001,-9.793555794400001,2.1318165792,4.2843769,8.82224379,-4.909517989999999,,,
imu,480.331253,0.3541064576,-9.801929933600002,2.1318165792,3.87314685,7.865199309999999,-4.0197657,,,
imu,480.340031,0.3606861384,-9.802528086400002,2.120451676000001,3.4619168,6.95301629,-3.08515195,,,
imu,480.348508,0.3523119992,-9.80970592,2.1150683008,3.05816366,5.8389567,-2.47204533,,,
imu,480.356984,0.3870048616000001,-9.825856045600002,2.1120775368,2.57964142,4.7921893,-2.09819983,,,
imu,480.36546,0.4193051128000001,-9.835426490400001,2.1228442872,2.27308811,3.77532954,-1.76173888,,,
imu,480.373936,0.4145198904,-9.828248656800001,2.1330128848,1.68988913,2.53416248,-1.79912343,,,
imu,480.382262,0.376836264,-9.828846809600002,2.1521537744,1.24875144,1.54721036,-1.88136944,,,
imu,480.390739,0.3194135952000001,-9.825257892800002,2.156340844,0.8749059399999999,0.6724118899999998,-1.69444669,,,
imu,480.399215,0.2823281216,-9.8061170032,2.1718928168,0.3963837,-0.1051867500000001,-1.54490849,,,
imu,480.407691,0.3056560808,-9.8049206976,2.178472497600001,0.08983038999999998,-0.6360473600000001,-1.29069355,,,
imu,480.416167,0.3361618736,-9.803724392000001,2.1994078456,-0.17186146,-1.15195415,-1.1785399,,,
imu,480.424644,0.4187069600000001,-9.8013317808,2.222137652,-0.54570696,-1.74263004,-1.29069355,,,
imu,480.43312,0.4958686712000001,-9.7702278352,2.2257265688,-0.82982954,-2.7594898,-1.69444669,,,
imu,480.441596,0.6101158560000001,-9.7283571392,2.237091472,-0.74758353,-4.06047214,-1.97109236,,,
imu,480.450072,0.7644392784,-9.731946056000002,2.243073,-0.7550604399999999,-5.78763835,-2.12810747,,,
imu,480.458549,0.8936402832000001,-9.734936820000001,2.275971404,-0.7999219,-8.00080371,-2.17296893,,,
imu,480.467025,1.0222431352,-9.7151977776,2.2987012104,-0.7550604399999999,-10.85698333,-2.12810747,,,
imu,480.475501,0.9821668976000001,-9.666149248000002,2.3016919744,-0.65786061,-14.03467008,-1.75426197,,,
imu,480.483977,0.9731946056000002,-9.678112304,2.3369829896,-0.7251528,-17.80303272,-1.49257012,,,
imu,480.492454,0.9905410368000002,-9.743310959200002,2.3429645176,-0.9494601,-21.16016531,-0.9243249599999999,,,
imu,480.50093,1.0808621096,-9.7809945856,2.3662924768,-1.16629049,-24.31542133,-0.12429559,,,
imu,480.509406,1.1053863744,-9.767835224,2.3495441984,-1.57004363,-28.01649178,0.4738572100000003,,,
imu,480.517882,1.0324117328,-9.730749750400001,2.3333940728,-1.85416621,-31.93439262,0.9149948999999999,,,
imu,480.526359,0.8559566568000001,-9.6912716656,2.3166457944,-2.00370441,-35.60555543,1.67016281,,,
imu,480.534835,0.5467116592000001,-9.667943706400001,2.2963085992,-2.01118132,-38.67108853,2.60477656,,,
imu,480.543311,0.290104108,-9.676317845600002,2.278962168,-1.98127368,-40.65994659,4.06277401,,,
imu,480.551776,0.04007623760000001,-9.672130776000001,2.2526434448,-1.97379677,-41.40763759,5.558156009999999,,,
imu,480.560241,-0.2278962168,-9.635045302400002,2.2658028064,-2.01118132,-41.3403454,6.477815940000001,,,
imu,480.568706,-0.4569887392,-9.612913648800001,2.2897289184,-1.94388913,-40.27862418,6.88156908,,,
imu,480.57717,-0.631051204,-9.580613397600002,2.2975049048,-1.71958183,-38.4991196,6.956338179999999,,,
imu,480.585635,-0.7470928472,-9.533359326400001,2.3064771968,-1.25601341,-36.01678548,6.522677400000001,,,
imu,480.5941,-0.8457880592000001,-9.4873015608,2.33279592,-0.83730645,-33.25780569,5.30394107,,,
imu,480.602565,-0.8870606024000001,-9.4908904776,2.3555257264,-0.44103022,-30.23713405,3.7562207,,,
imu,480.61103,-0.8380120728000001,-9.4938812416,2.3764610744,-0.02232326000000001,-26.89495528,2.43280763,,,
imu,480.619494,-0.7901598488000001,-9.478329268800001,2.3824426024,0.35899915,-23.6200687,1.28136349,,,
imu,480.627959,-0.7363260968000002,-9.474740352000001,2.3788536856,0.79265993,-20.86108891,-0.07943412999999988,,,
imu,480.636424,-0.6143029256000001,-9.4962738528,2.3818444496,1.25622835,-18.32641642,-1.50004703,,,
imu,480.644889,-0.5072335744,-9.511227672800002,2.37765738,1.70484295,-16.13568179,-2.49447606,,,
imu,479.723004,,,,,,,86.3171004,-18.67094280000001,120.7231192
imu,479.824688,,,,,,,88.79516199999999,-19.23247400000001,117.8178056
imu,479.926129,,,,,,,86.6833164,-17.91409640000001,120.3813176
imu,480.027691,,,,,,,88.86840520000001,-18.69535720000002,118.330508
imu,480.653354,-0.5221873944000001,-9.535153784800002,2.3991908808,2.08616536,-14.46833086,-3.13749032,,,
imu,480.661819,-0.4976631296000001,-9.569248494400002,2.383040755200001,2.48244159,-12.90565667,-3.62348947,,,
imu,480.670283,-0.4623721144,-9.583604161600002,2.3878259776,2.62450288,-11.17849046,-3.44404363,,,
imu,480.678748,-0.4450256832000001,-9.624278552000002,2.3908167416,2.9385331,-9.34664751,-2.73373718,,,
imu,480.687213,-0.3905937784,-9.702636568800001,2.383638908,2.96844074,-7.73911186,-2.11315365,,,
imu,480.695678,-0.3582935272000001,-9.737927584000001,2.3758629216,2.90862546,-6.453083339999999,-1.70940051,,,
imu,480.704143,-0.2769447464000001,-9.769629682400002,2.3734703104,2.72917962,-5.26425465,-1.4776163,,,
imu,480.712607,-0.203371952,-9.802528086400002,2.3638998656,2.50487232,-4.20253343,-1.3280781,,,
imu,480.721072,-0.1758569232,-9.798341016800002,2.356722032,2.31794957,-3.54456535,-1.23835518,,,
imu,480.729537,-0.128602852,-9.802528086400002,2.3638998656,2.06373463,-2.99875092,-1.16358608,,,
imu,480.738002,-0.10467674,-9.809107767200002,2.3698813936,1.48801256,-2.55013632,-1.00657097,,,
imu,480.746467,-0.068787572,-9.827650504000003,2.3884241304,1.01696723,-2.32582902,-0.7897405799999999,,,
imu,480.75494,-0.05443190480000001,-9.817481906400001,2.389620436,0.6281679099999999,-2.25853683,-0.7000176599999999,,,
imu,480.763414,-0.04007623760000001,-9.800135475200001,2.40756502,0.11973803,-2.13890627,-0.7000176599999999,,,
imu,480.771888,-0.0155519728,-9.7809945856,2.4153410064,-0.41112258,-2.05666026,-0.49066418,,,
imu,480.780362,0.0137575144,-9.759461084800002,2.413546548,-0.8522602699999999,-1.90712206,-0.2514030599999999,,,
imu,480.788835,-0.004187069600000001,-9.7074217912,2.42251884,-1.12142903,-1.90712206,-0.2065416,,,
imu,480.797309,-0.068787572,-9.660765872800003,2.4320892848,-1.20367504,-1.89964515,0.08505788999999986,,,
imu,480.805783,-0.07955432240000002,-9.634447149600001,2.4129483952,-1.36069015,-1.70524549,0.32431901,,,
imu,480.814256,-0.1010878232,-9.597361676,2.4207243816,-1.18872122,-1.21924634,0.8477027100000001,,,
imu,480.82273,-0.09749890640000002,-9.559678049600002,2.4350800488,-1.11395212,-0.6883857300000003,1.28136349,,,
imu,480.831204,-0.08792846160000001,-9.562668813600002,2.4398652712,-0.9644139199999999,-0.1425713000000002,1.22902512,,,
imu,480.839678,-0.062806044,-9.5423316184,2.4452486464,-0.63542988,0.19388965,1.12434838,,,
imu,480.848151,-0.0406743904,-9.5447242296,2.4536227856,-0.32139966,0.4929660499999997,0.9972409099999999,,,
imu,480.856625,-0.0143556672,-9.5590798968,2.4661839944,-0.17186146,0.56025824,0.9000410799999998,,,
imu,480.865099,-0.0011963056,-9.583604161600002,2.4649876888,0.2468455,0.8518577299999999,0.7953643399999999,,,
imu,480.873572,0.008374139200000002,-9.595567217600001,2.469772911200001,0.45619898,1.00139593,0.6533030499999999,,,
imu,480.882046,0.0185427368,-9.612315496,2.469772911200001,0.4861066199999999,1.18084177,0.4215188400000001,,,
imu,480.89052,0.03947808480000001,-9.613511801600001,2.471567369600001,0.68050628,1.3528107,0.60844159,,,
imu,480.898994,0.0681894192,-9.635643455200002,2.4596043136,0.70293701,1.42010289,0.7430259700000001,,,
imu,480.907467,0.116639796,-9.639830524800002,2.4721655224,0.68050628,1.50982581,0.7729336099999999,,,
imu,480.915941,0.1501363528,-9.633250844,2.4757544392,0.60573718,1.45001053,0.6607799600000002,,,
imu,480.924415,0.1686790896,-9.647606511200001,2.461398772,0.65059864,1.43505671,0.8252719800000001,,,
imu,480.932888,0.212344244,-9.6494009696,2.4590061608,0.65059864,1.30794924,1.01219473,,,
imu,480.941362,0.2542149400000001,-9.662560331200002,2.45242648,0.56835263,1.16588795,1.17668675,,,
imu,480.949836,0.2530186344000001,-9.654784344800001,2.4566135496,0.59078336,0.8518577299999999,1.18416366,,,
imu,480.95829,0.242251884,-9.644615747200001,2.454819091200001,0.44872207,0.7397040799999997,1.24397894,,,
imu,480.966745,0.2171294664,-9.645213900000002,2.4518283272,0.49358353,0.5752120599999997,1.33370186,,,
imu,480.9752,0.2147368552,-9.652989886400002,2.4500338688,0.58330645,0.66493498,1.40099405,,,
imu,480.983654,0.2284943696,-9.645213900000002,2.449435716,0.6281679099999999,1.01634975,1.41594787,,,
imu,480.992109,0.2697669128,-9.614708107200002,2.4512301744,0.7403215599999999,1.17336486,1.28136349,,,
imu,481.000564,0.2990764,-9.624278552000002,2.4482394104,0.68798319,1.21822632,0.9000410799999998,,,
imu,481.009018,0.3038616224,-9.609324732000001,2.4512301744,0.82256757,1.37524143,0.60844159,,,
imu,481.017473,0.3044597752,-9.608128426400002,2.4530246328,0.65059864,1.36776452,0.13739626,,,
imu,481.025928,0.2787392048,-9.604539509600002,2.45242648,0.57582954,1.45001053,-0.1990646899999999,,,
imu,481.034382,0.2566075512,-9.6051376624,2.455417244,0.53844499,1.78647148,-0.32617216,,,
imu,481.042837,0.2470371064,-9.597959828800002,2.447043104800001,0.65807555,2.34723973,-0.07943412999999988,,,
imu,481.051291,0.2494297176,-9.591978300800001,2.4440523408,0.71789083,2.93043871,-0.01961884999999985,,,
imu,481.059746,0.2500278704,-9.593772759200002,2.4338837432,0.82256757,3.46877623,-0.2065416,,,
imu,481.068201,0.28412258,-9.612315496,2.4308929792,0.97958268,4.18655959,-0.4158950799999999,,,
imu,481.076655,0.3128339144,-9.633848996800001,2.4231169928,0.8823828499999999,4.694989469999999,-0.9318018699999999,,,
imu,481.08511,0.3433397072,-9.659569567200002,2.4207243816,0.97958268,5.10621952,-1.36546265,,,
imu,481.093565,0.3475267768,-9.709814402400001,2.449435716,1.03939796,5.48754193,-1.67201596,,,
imu,481.102019,0.3194135952000001,-9.780396432800002,2.4446504936,0.97210577,5.80157215,-2.12063056,,,
imu,481.110474,0.2667761488000001,-9.808509614400002,2.454819091200001,0.41881443,6.033356359999999,-2.73373718,,,
imu,481.118929,0.161501256,-9.832435726400002,2.4757544392,-0.26906129,6.66889371,-3.23469015,,,
imu,481.127383,-0.0197390424,-9.895241770400002,2.4936990232,-0.90459864,7.58855364,-3.74312003,,,
imu,481.135838,-0.2709632184,-10.0035074272,2.555308761600001,-1.82425857,8.92692053,-4.21416536,,,
imu,481.144293,-0.6202844536000002,-10.1991033928,2.5935905408,-3.09533327,11.38682392,-4.80484125,,,
imu,481.152747,-0.8194693360000002,-10.186542184,2.569066276,-5.009422229999999,14.93087926,-6.08339286,,,
imu,481.161563,-0.8625363376,-10.057939332,2.5768422624,-6.9309881,19.75348621,-7.76569761,,,
imu,481.170378,-0.8027210576,-9.956851508800002,2.5612902896,-8.83760015,24.99480012,-9.70969421,,,
imu,481.179194,-0.7351297912000001,-9.889858395200001,2.4925027176,-10.2208285,29.74263797,-12.08735159,,,
imu,481.18801,-0.6537810104000001,-9.793555794400001,2.4392671184,-10.99842714,34.11663032,-14.54725498,,,
imu,481.196825,-0.5514968816000001,-9.6799067624,2.431491132,-11.43956483,38.19902318,-16.56602068,,,
imu,481.205641,-0.3840140976,-9.596165370400001,2.4261077568,-11.38722646,41.88513981,-18.01654122,,,
imu,481.214456,-0.2225128416,-9.588987536800001,2.4249114512,-11.06571933,44.87590381,-19.45958485,,,
imu,481.223272,0.0101685976,-9.553098368800002,2.4171354648,-10.72178147,47.13393062999999,-20.7680441,,,
imu,481.232088,0.2554112456,-9.502853533600002,2.414144700800001,-10.28064378,48.59940499,-21.92696515,,,
imu,481.240903,0.5455153536,-9.4831144912,2.4476412576,-9.77969081,49.01063504,-23.04102474,,,
imu,481.249719,0.7255593464000001,-9.5148165896,2.4518283272,-9.21144565,48.30780549999999,-23.85600793,,,
imu,481.258534,0.8828735328,-9.5154147424,2.4727636752,-8.628246670000001,46.77503895,-24.60369893,,,
imu,481.26735,1.0042985512,-9.380830362400001,2.42251884,-7.992709319999999,44.75627325,-24.62612966,,,
imu,481.276166,1.07667504,-9.2935000536,2.5014750096,-7.372125789999999,42.29636986,-23.94573085,,,
imu,481.284981,1.0844510264,-9.349726416800001,2.5194195936,-6.669296249999999,39.64206681,-22.77185598,,,
imu,481.293797,1.0934233184,-9.3862137376,2.5469346224,-5.861789969999999,36.8681332,-20.94001303,,,
imu,481.302612,1.10658268,-9.398176793600001,2.5744496512,-5.38326773,33.91475375,-19.21284682,,,
imu,481.311428,1.0330098856,-9.3975786408,2.6432372232,-4.964560769999999,30.9613743,-17.58288044,,,
imu,481.320244,0.9295294512000001,-9.4346641144,2.6635744184,-4.3888387,28.08276395,-15.95291406,,,
imu,481.329059,0.8750975464000001,-9.455001309600002,2.7090340312,-4.05985466,25.43593781,-14.50987043,,,
imu,481.337875,0.8386102256000002,-9.489694172,2.7413342824,-3.70843989,22.98351133,-13.24627264,,,
imu,481.34669,0.7710189592000001,-9.5213962704,2.794569881600001,-3.52899405,20.50865412,-12.13968996,,,
imu,481.355506,0.6711274416,-9.562668813600002,2.784401284,-3.37197894,18.40764241,-11.31722986,,,
imu,481.363978,0.6477994824000001,-9.5184055064,2.784999436800001,-3.30468675,16.43373817,-10.71160015,,,
imu,481.372451,0.6101158560000001,-9.536350090400001,2.8089255488,-3.16262546,14.5121723,-9.91157078,,,
imu,481.380923,0.5826008272000001,-9.530368562400001,2.783204978400001,-2.82616451,12.66537553,-9.35080253,,,
imu,481.389396,0.5473098120000001,-9.529770409600001,2.7879902008,-2.57942648,10.48959472,-9.268556519999999,,,
imu,481.397868,0.4970649768000001,-9.5698466472,2.8119163128,-2.20558098,8.86710525,-8.84984956,,,
imu,481.406341,0.472540712,-9.555490980000002,2.8005514096,-2.11585806,7.319384879999999,-8.41618878,,,
imu,481.414813,0.4444275304,-9.541135312800002,2.79636434,-1.9962275,5.64455704,-7.92271272,,,
imu,481.423286,0.3852104032000001,-9.457393920800001,2.8119163128,-1.86912003,4.171605769999999,-7.63859014,,,
imu,481.431758,0.3385544848000001,-9.489096019200002,2.794569881600001,-1.61490509,2.76594669,-7.3096061,,,
imu,481.44023,0.2942911776,-9.5291722568,2.789186506400001,-1.29339796,1.29299542,-6.973145150000001,,,
imu,481.448703,0.2386629672,-9.524387034400002,2.805934784800001,-1.18872122,0.1490281899999997,-6.576868919999999,,,
imu,481.457175,0.167482784,-9.5393408544,2.8149070768,-1.13638285,-0.57623208,-6.008623759999999,,,
imu,481.465648,0.116639796,-9.557883591200001,2.8184959936,-0.92702937,-1.1893387,-5.49271697,,,
imu,480.130153,,,,,,,84.8522364,-18.45121320000001,119.856408
imu,480.23083,,,,,,,83.1554356,-18.52445640000002,118.1474
imu,480.332423,,,,,,,81.80043640000001,-18.68315,118.5014088
imu,480.433986,,,,,,,81.73940040000001,-18.67094280000001,118.1351928
imu,480.53561,,,,,,,81.9225084,-18.47562760000001,118.5990664
imu,480.637111,,,,,,,84.79120040000001,-18.40238440000002,119.6855072
imu,480.738673,,,,,,,84.9621012,-18.70756440000001,120.9672632
imu,480.840175,,,,,,,87.7697572,-19.3423388,117.5736616
imu,481.474161,0.080750628,-9.571641105600001,2.8119163128,-0.85973718,-1.570661110000001,-5.00671782,,,
imu,481.482634,0.0532355992,-9.551303910400001,2.8047384792,-0.874691,-1.83982987,-4.647826139999999,,,
imu,481.491106,0.0107667504,-9.5740337168,2.812514465600001,-0.8522602699999999,-1.80992223,-4.40108811,,,
imu,481.499579,-0.0137575144,-9.588987536800001,2.808327396000001,-0.874691,-1.78001459,-4.22164227,,,
imu,481.508051,-0.0592171272,-9.5812115504,2.8364405776,-0.9494601,-1.66038403,-4.244073,,,
imu,481.516524,-0.1094619624,-9.591978300800001,2.8370387304,-1.22610577,-1.29401544,-4.06462716,,,
imu,481.524996,-0.1411640608,-9.584800467200001,2.838833188800001,-1.43545925,-0.7855855599999999,-4.08705789,,,
imu,481.533469,-0.1387714496,-9.593174606400002,2.8208886048,-1.79435093,-0.2397711300000003,-4.25902682,,,
imu,481.541941,-0.1178361016,-9.5602762024,2.8029440208,-1.91398149,0.47801223,-4.51324176,,,
imu,481.550413,-0.08433954480000001,-9.456795768000001,2.7509047272,-1.8466893,1.22570323,-4.78241052,,,
imu,481.558886,-0.0592171272,-9.416121377600001,2.772438228,-1.71958183,1.68179474,-5.01419473,,,
imu,481.567382,-0.0101685976,-9.4873015608,2.7317638376,-1.29339796,1.95844041,-5.238502029999999,,,
imu,481.575879,0.0227298064,-9.412532460800001,2.7162118648,-0.80739881,2.13040934,-5.589916799999999,,,
imu,481.584376,0.08852661440000001,-9.3335762912,2.717408170400001,-0.31392275,2.08554788,-5.82170101,,,
imu,481.592872,0.1154434904,-9.4460290176,2.7562881024,0.41133752,1.78647148,-6.046008309999999,,,
imu,481.601369,0.1184342544,-9.562070660800002,2.6863042248,1.11416706,1.09111885,-6.02357758,,,
imu,481.609865,0.1232194768,-9.522592576000001,2.7144174064,1.5179202,0.47801223,-5.874039379999999,,,
imu,481.618362,0.1453511304,-9.569248494400002,2.724586004,1.7422275,-0.1276174800000001,-5.56000916,,,
imu,481.626859,0.1154434904,-9.613511801600001,2.7000617392,1.9665348,-0.6435242699999999,-4.84970271,,,
imu,481.635355,0.1351825328,-9.626671163200001,2.6988654336,2.00391935,-1.17438488,-4.13191935,,,
imu,481.643852,0.1543234224,-9.6775141512,2.701856197600001,1.86185806,-1.74263004,-3.39918217,,,
imu,481.652349,0.1752587704,-9.743310959200002,2.697669128,1.7422275,-2.5351825,-2.80850628,,,
imu,481.660845,0.2775428992,-9.7744149048,2.70664142,1.33847436,-3.23801204,-2.0757691,,,
imu,481.669342,0.3989679176000001,-9.779200127200001,2.724586004,0.79265993,-4.21748725,-1.35050883,,,
imu,481.677838,0.5508987288,-9.727160833600001,2.7532973384,0.2468455,-5.600715599999999,-0.8719865899999999,,,
imu,481.686335,0.7590559032000002,-9.796546558400001,2.731165684800001,-0.23915365,-7.55218911,-0.5056179999999999,,,
imu,481.694832,0.9253423816,-9.785779808000001,2.7150155592,-0.6279529699999999,-10.36350727,-0.1018648599999998,,,
imu,481.703328,0.9965225648000002,-9.667943706400001,2.7102303368,-1.33078251,-14.124393,0.2794575500000001,,,
imu,481.711825,0.9133793256000001,-9.595567217600001,2.7329601432,-1.60742818,-18.0871553,0.9822870900000003,,,
imu,481.720321,0.8380120728000001,-9.612913648800001,2.7419324352,-1.70462801,-21.78074884,1.91690084,,,
imu,481.728818,0.7590559032000002,-9.597361676,2.7203989344,-1.8466893,-24.8911434,3.37489829,,,
imu,481.737315,0.7363260968000002,-9.585996772800002,2.6934820584,-1.8466893,-27.54544645,5.18431051,,,
imu,481.745811,0.6968480120000001,-9.499264616800001,2.7048469616,-1.81678166,-30.11750349,6.724553970000001,,,
imu,481.754308,0.6083213976,-9.447823476,2.7180063232,-1.64481273,-32.52506851,7.748890640000001,,,
imu,481.762804,0.4707462536000001,-9.435262267200002,2.7257823096,-1.10647521,-34.71580314,8.66855057,,,
imu,481.771236,0.3457323184,-9.477731116000001,2.7562881024,-0.44850713,-36.2560466,9.386333930000001,,,
imu,481.779668,0.236270356,-9.513022131200001,2.759877019200001,-0.19429219,-37.51216748,9.96953291,,,
imu,481.7881,0.1028822816,-9.4490197816,2.773634533600001,-0.03727708,-38.3495814,10.30599386,,,
imu,481.796531,-0.04785222400000001,-9.410139849600002,2.812514465600001,0.41133752,-38.48416578,10.38076296,,,
imu,481.804963,-0.20935348,-9.4250936696,2.832253508,0.74779847,-38.29724303,10.29104004,,,
imu,481.813395,-0.3002727056,-9.4633754488,2.868142676,1.09173633,-37.56450585,10.1115942,,,
imu,481.821827,-0.3415452488,-9.479525574400002,2.9034336912,1.30856672,-36.15136986,9.70784106,,,
imu,481.830258,-0.3463304712,-9.453206851200001,2.9183875112,1.45062801,-34.70832623,8.66855057,,,
imu,481.83869,-0.3373581792000001,-9.401167557600001,2.9423136232,1.7422275,-33.36248243,7.509629520000001,,,
imu,481.847122,-0.3236006648,-9.405952780000002,2.9596600544,2.15345755,-31.80728515,6.24603173,,,
imu,481.855554,-0.3062542336,-9.468758824,2.9692304992,2.35533412,-30.46891826,5.0272954,,,
imu,481.863985,-0.3241988176,-9.495077547200001,2.9770064856,2.43758013,-29.06325918,4.047820189999999,,,
imu,481.872417,-0.4366515440000001,-9.5148165896,3.001530750400001,2.57964142,-27.51553881,3.3076061,,,
imu,481.880849,-0.5150095608,-9.553696521600001,3.017680876,2.53477996,-25.79584951,2.76179167,,,
imu,481.889281,-0.5191966304000001,-9.581809703200001,3.0099048896,2.46001086,-23.47800741,2.83656077,,,
imu,481.897712,-0.49347606,-9.589585689600002,2.9865769304,2.32542648,-20.81622745,3.20292936,,,
imu,481.906144,-0.4755314760000001,-9.599156134400001,2.9680341936,2.21327283,-18.47595462,3.0085297,,,
imu,481.914576,-0.439642308,-9.588987536800001,2.963248971200001,1.87681188,-16.38989673,2.20102342,,,
imu,481.923008,-0.3804251808,-9.5776226336,2.9423136232,1.79456587,-14.37113103,1.44585551,,,
imu,481.931439,-0.3062542336,-9.5812115504,2.9375284008,1.58521239,-12.41965752,0.6906876,,,
imu,481.939871,-0.2308869808,-9.5590798968,2.93094872,1.42072037,-11.07381372,-0.2813106999999999,,,
imu,481.948303,-0.1710717008,-9.5447242296,2.920181969600001,1.2188438,-9.95975413,-1.29817046,,,
imu,481.956735,-0.1369769912,-9.519003659200001,2.9183875112,1.00201341,-8.95784819,-1.93370781,,,
imu,481.965166,-0.1112564208,-9.5184055064,2.922574580800001,1.05435178,-7.97089607,-2.25521494,,,
imu,481.973629,-0.08733030880000002,-9.5082369088,2.924967192,0.97958268,-7.27554344,-2.53186061,,,
imu,481.982091,-0.1088638096,-9.503451686400002,2.9405191648,0.9945364999999999,-6.714775189999999,-2.46456842,,,
imu,481.990553,-0.1280046992,-9.5148165896,2.9512859152,0.9870595899999999,-6.079237839999999,-2.50942988,,,
imu,481.999015,-0.1190324072,-9.474740352000001,2.96085636,1.05435178,-5.35397757,-2.38979932,,,
imu,482.007478,-0.1208268656,-9.450814240000001,2.9566692904,1.15155161,-4.78573241,-2.50942988,,,
imu,482.01594,-0.1268083936,-9.448421628800002,2.948893304,1.31604363,-4.08290287,-2.57672207,,,
imu,482.024402,-0.1274065464,-9.4322715032,2.9506877624,1.43567419,-3.45484243,-2.85336774,,,
imu,482.032865,-0.1232194768,-9.437654878400002,2.9447062344,1.61512003,-2.92398182,-3.01038285,,,
imu,482.041327,-0.1142471848,-9.459786532,2.935733942400001,1.83942733,-2.34078284,-2.98795212,,,
imu,482.049789,-0.0855358504,-9.453206851200001,2.945304387200001,2.07868845,-1.75758386,-2.98795212,,,
imu,482.058251,-0.03947808480000001,-9.4591883792,2.948893304,2.29551884,-1.21176943,-2.80850628,,,
imu,482.066714,-0.004785222400000001,-9.479525574400002,2.924369039200001,2.52730305,-0.9575544899999997,-2.66644499,,,
imu,482.075176,-0.0005981528000000001,-9.478927421600002,2.9213782752,2.75161035,-0.9126930300000002,-2.748691,,,
imu,482.083638,0.0323002512,-9.481320032800001,2.9213782752,2.91610237,-1.04727741,-2.65149117,,,
imu,482.0921,-0.0023926112,-9.523190728800001,2.921976428000001,2.82637945,-1.1893387,-2.54681443,,,
imu,482.100563,-0.007177833600000002,-9.557285438400001,2.922574580800001,2.92357928,-1.18186179,-2.31503022,,,
imu,482.109025,-0.020935348,-9.5877912312,2.9237708864,2.79647181,-1.09961578,-2.2253073,,,
imu,482.117487,-0.04545961280000001,-9.6051376624,2.9171912056,2.58711833,-0.8678315700000003,-2.18044584,,,
imu,482.12595,-0.04007623760000001,-9.6326526912,2.9297524144,2.49739541,-0.5911859000000002,-1.88884635,,,
imu,482.134412,-0.0191408896,-9.620689635200002,2.9153967472,2.32542648,-0.2846325900000002,-1.61967759,,,
imu,482.142874,-0.0113649032,-9.596763523200002,2.913004136000001,2.17588828,0.06678217999999969,-1.253309,,,
imu,482.151336,0.017944584,-9.603343204000002,2.9267616504,2.13850373,0.3434278499999999,-0.96918642,,,
imu,482.159799,0.04785222400000001,-9.6296619272,2.9213782752,1.77213514,0.3808123999999999,-1.13367844,,,
imu,482.168261,0.1028822816,-9.6284656216,2.9465006928,1.57773548,0.3808123999999999,-1.11872462,,,
imu,482.177078,0.13458438,-9.630858232800001,2.963248971200001,1.27865908,0.2312741999999997,-1.18601681,,,
imu,482.185895,0.1387714496,-9.617100718400001,2.948893304,0.94967504,-0.02294074000000013,-1.19349372,,,
imu,482.194712,0.1638938672,-9.551303910400001,2.9327431784,0.79265993,-0.2771556799999999,-0.8495558599999999,,,
imu,482.203529,0.1638938672,-9.538742701600002,2.9333413312,0.77770611,-0.6659550000000003,-0.5878640099999999,,,
imu,482.212346,0.1620994088,-9.552500216,2.9405191648,0.70293701,-1.13700033,-0.4757103599999999,,,
imu,482.221162,0.1573141864,-9.536350090400001,2.935733942400001,0.53844499,-1.69776858,-0.5355256399999999,,,
imu,482.229979,0.1513326584,-9.477731116000001,2.9423136232,0.80013684,-1.91459897,-0.2813106999999999,,,
imu,482.238796,0.1698753952,-9.4526086984,2.9363320952,0.9197674,-2.19872155,-0.01214194000000002,,,
imu,482.247613,0.185427368,-9.477731116000001,2.9237708864,1.48801256,-2.6099516,0.13739626,,,
imu,482.25643,0.1770532288,-9.468758824,2.910611524800001,1.88428879,-3.01370474,-0.04204958000000003,,,
imu,482.265247,0.1758569232,-9.435860420000001,2.8723297456,2.46748777,-3.35016569,-0.32617216,,,
imu,482.274064,0.1698753952,-9.416719530400002,2.8747223568,2.93105619,-3.81373411,-0.34860289,,,
imu,482.282881,0.1363788384,-9.4753385048,2.8813020376,3.47687062,-4.16514888,0.02524261000000028,,,
imu,480.941768,,,,,,,85.560254,-18.19486200000002,120.5033896
imu,481.043483,,,,,,,88.27025239999999,-19.25688840000002,118.0375352
imu,481.144923,,,,,,,85.9630916,-18.45121320000001,119.1483904
imu,481.246455,,,,,,,84.1808404,-17.60891640000002,117.5614544
imu,481.348048,,,,,,,82.2154812,-17.74319560000002,116.1820408
imu,481.44955,,,,,,,81.6783644,-17.71878120000001,116.5482568
imu,481.551143,,,,,,,81.1534548,-18.255898,116.1698336
imu,481.653255,,,,,,,81.4464276,-17.71878120000001,116.5360496
imu,482.291698,0.09929336480000002,-9.600352440000002,2.9267616504,3.78342393,-4.35954854,0.38413429,,,
imu,482.300515,0.08493769760000001,-9.724768222400002,2.969828652,3.611455,-4.50160983,0.6383492300000002,,,
imu,482.309332,0.1244157824,-9.802528086400002,3.0284476264,3.11797894,-4.35207163,1.02714855,,,
imu,482.318149,0.1513326584,-9.834230184800003,3.0631404888,2.23570356,-4.28477944,1.49819388,,,
imu,482.326966,0.2799355104,-9.856959991200002,3.082281378400001,1.13659779,-4.40441,1.99914685,,,
imu,482.335782,0.4857000736000001,-9.797144711200001,3.0816832256,-0.2017691,-4.53151747,2.44776145,,,
imu,482.344599,0.6388271904000001,-9.714001472000001,3.0691220168,-1.19619813,-5.43622358,2.80665313,,,
imu,482.353416,0.7566632920000002,-9.668541859200001,3.0434014464,-1.95884295,-6.954036309999999,3.04591425,,,
imu,482.362233,0.8416009896000001,-9.5865949256,3.033831001600001,-2.72896468,-9.24944768,3.19545245,,,
imu,482.37105,0.8535640456000001,-9.490292324800002,3.0182790288,-2.96074889,-11.67944343,3.38985211,,,
imu,482.379528,0.885266144,-9.392195265600002,3.002727056,-2.96074889,-13.98233171,3.82351289,,,
imu,482.388005,0.9731946056000002,-9.352717180800001,3.0039233616,-2.73644159,-16.35251218,4.5039117,,,
imu,482.396483,1.0581323032,-9.329987374400002,2.987773236,-2.34764227,-18.90213849,5.012341579999999,,,
imu,482.40496,1.0730861232,-9.274359164000002,2.9375284008,-1.7719202,-21.93028704,5.41609472,,,
imu,482.413438,1.0970122352,-9.226506940000002,2.895059552,-1.06909066,-25.17526598,5.692740389999999,,,
imu,482.421915,1.0336080384,-9.191215924800002,2.8699371344,-0.33635348,-28.54735239,6.223601,,,
imu,482.430393,0.9402962016,-9.211553120000001,2.866348217600001,0.68050628,-31.59793167,6.739507790000001,,,
imu,482.43887,0.8523677400000002,-9.277948080800002,2.8579740784,1.80951969,-34.28961927,7.180645480000001,,,
imu,482.447348,0.7674300424000001,-9.325800304800001,2.8466091752,2.64693361,-36.66727665,7.875998110000001,,,
imu,482.455825,0.6777071224000001,-9.2929019008,2.8167015352,3.27499405,-38.52902724,8.60873529,,,
imu,482.464303,0.5820026744000001,-9.276751775200001,2.790382812,3.86566994,-39.92720941,8.818088770000001,,,
imu,482.472781,0.4862982264000001,-9.350922722400002,2.8190941464,4.36662291,-40.92163844,9.25174955,,,
imu,482.481258,0.3564990688,-9.562668813600002,2.784401284,4.77037605,-41.25809939,9.5882105,,,
imu,482.489736,0.3313766512,-9.443636406400001,2.7419324352,4.84514515,-41.36277613,9.44614921,,,
imu,482.498213,0.4031549872,-9.440047489600001,2.775428992000001,4.77785296,-40.93659226,9.102211350000001,,,
imu,482.506691,0.4755314760000001,-9.532163020800002,2.7431287408,5.0320679,-40.42068547,8.78070422,,,
imu,482.515168,0.5467116592000001,-9.595567217600001,2.6892949888,5.3311443,-40.31600873,8.19750524,,,
imu,482.523646,0.5664507016000001,-9.573435564,2.696472822400001,5.16665228,-40.56274676,7.330183680000001,,,
imu,482.532123,0.5568802568000001,-9.561472508000001,2.7138192536,4.83019133,-41.08613046,6.679692510000001,,,
imu,482.540601,0.5389356728,-9.558481744000002,2.7114266424,4.68813004,-41.62446798,6.34323156,,,
imu,482.549078,0.5012520464000001,-9.550705757600001,2.6821171552,4.87505279,-42.02822112,6.32080083,,,
imu,482.557556,0.5096261856000001,-9.588389384000001,2.704248808800001,4.83766824,-42.35720516,6.17873954,,,
imu,482.56592,0.5467116592000001,-9.6296619272,2.6892949888,4.76289914,-42.57403555,6.16378572,,,
imu,482.574397,0.5694414656000001,-9.6224840936,2.7024543504,4.78532987,-42.90301959,6.432954480000001,,,
imu,482.582858,0.780589404,-9.6051376624,2.70664142,4.71803768,-43.3591111,6.46286212,,,
imu,482.591319,0.9516611048000001,-9.656578803200002,2.718604476,4.93486807,-44.28624794,6.58249268,,,
imu,482.59978,1.0371969552,-9.672728928800002,2.717408170400001,4.76289914,-46.29005982,6.16378572,,,
imu,482.608241,1.0533470808,-9.637437913600001,2.7299693792,4.35166909,-48.71257866,5.64040202,,,
imu,482.616702,1.0814602624,-9.602745051200001,2.7413342824,4.36662291,-51.04537458,5.59554056,,,
imu,482.625163,1.1430700008,-9.6087265792,2.718604476,4.26194617,-53.25106303,5.954432239999999,,,
imu,482.633624,1.1550330568,-9.599754287200001,2.689893141600001,4.232038530000001,-55.59133586,6.373139200000001,,,
imu,482.642085,1.1406773896,-9.5602762024,2.680920849600001,4.25446926,-58.0886238,6.657261780000001,,,
imu,482.650546,1.007887468,-9.5184055064,2.664770724000001,4.35166909,-60.87003432,6.75446161,,,
imu,482.659007,0.8505732816000001,-9.498666464000001,2.6546021264,4.23951544,-63.50938355,6.47033903,,,
imu,482.667468,0.6286585928,-9.478927421600002,2.641442764800001,4.53859184,-65.47581088,6.851661440000001,,,
imu,482.675929,0.3523119992,-9.495675700000001,2.6396483064,4.83019133,-66.54500900999999,7.180645480000001,,,
imu,482.68439,0.1387714496,-9.514218436800002,2.6504150568,5.09188318,-66.58987047,7.704029180000001,,,
imu,482.692851,-0.05682451600000001,-9.546518688,2.700659892,5.248898290000001,-65.74497964,8.11525923,,,
imu,482.701312,-0.2488315648,-9.560874355200001,2.7120247952,5.1816061,-64.15987471999999,8.42928945,,,
imu,482.709773,-0.3840140976,-9.579417092000002,2.7323619904,5.15917537,-62.14858593,8.39938181,,,
imu,482.718234,-0.4827093096,-9.624278552000002,2.775428992000001,4.85262206,-59.79335928,7.78627519,,,
imu,482.726695,-0.5395338256000001,-9.639232372,2.801747715200001,4.61336094,-56.8923182,6.93390745,,,
imu,482.735156,-0.5772174520000001,-9.602146898400001,2.798756951200001,4.03016196,-54.00623094,5.81237095,,,
imu,482.743617,-0.6382290376000002,-9.593772759200002,2.808327396000001,3.55163972,-51.00051312,4.47400406,,,
imu,482.752078,-0.7231667352000001,-9.606333968000001,2.8137107712,3.30490169,-47.80787255,3.52443649,,,
imu,482.760539,-0.7022313872,-9.627867468800002,2.812514465600001,3.18527113,-44.39840159,3.12068335,,,
imu,482.769,-0.6944554008000001,-9.582407856000001,2.7999532568,2.82637945,-41.06369973,2.69449948,,,
imu,482.777461,-0.6495939408000001,-9.5118258256,2.7975606456,2.64693361,-38.05798191,2.01410067,,,
imu,482.785935,-0.6107140088,-9.5118258256,2.801747715200001,2.62450288,-35.11955628,1.35613259,,,
imu,482.794409,-0.6041343280000001,-9.541733465600002,2.8065329376,2.66936434,-32.74937581,0.7056414200000001,,,
imu,482.802882,-0.5808063688,-9.554892827200002,2.8071310904,3.0133022,-30.24461096,0.2121653600000002,,,
imu,482.811356,-0.5981528,-9.5249851872,2.8537870088,2.998348379999999,-27.82209212,-0.2289723299999999,,,
imu,482.81983,-0.6388271904000001,-9.5357519376,2.868142676,3.13293276,-25.45191165,-0.6177716499999999,,,
imu,482.828303,-0.6418179544000001,-9.572239258400002,2.864553759200001,3.40210152,-22.8723777,-0.57291019,,,
imu,482.836777,-0.6424161072,-9.5566872856,2.8693389816,3.3123786,-20.22555156,-0.3411259799999999,,,
imu,482.845251,-0.6633514552,-9.5393408544,2.8675445232,3.32733242,-17.77312508,-0.49066418,,,
imu,482.853725,-0.663949608,-9.5291722568,2.862161148000001,3.62640882,-15.38799079,-0.9318018699999999,,,
imu,482.862198,-0.6735200528,-9.510031367200002,2.8418239528,3.76847011,-12.8533183,-1.37293956,,,
imu,482.870672,-0.6944554008000001,-9.5184055064,2.8167015352,3.82828539,-10.45323019,-2.16549202,,,
imu,482.879146,-0.7405131664000002,-9.5213962704,2.7861957424,3.86566994,-8.08304972,-3.14496723,,,
imu,482.887619,-0.7931506128000001,-9.5213962704,2.7826068256,3.9853005,-5.3764083,-3.98238115,,,
imu,482.896093,-0.8475825176000001,-9.5423316184,2.75150288,4.16474634,-2.42302885,-4.84970271,,,
imu,482.904567,-0.9205571592,-9.577024480800002,2.7383435184,4.26194617,0.4256738599999998,-5.84413174,,,
imu,482.913041,-1.0342061912,-9.634447149600001,2.7449231992,4.33671527,3.63326825,-7.01800661,,,
imu,482.921514,-1.1101715968,-9.678112304,2.739539824,4.21708471,7.21470814,-8.0572971,,,
imu,482.929988,-1.184342544,-9.693066124000001,2.7239878512,3.77594702,11.10270134,-9.13397214,,,
imu,482.938462,-1.2375781432,-9.711010708000002,2.7114266424,3.46939371,15.28229403,-9.94147842,,,
imu,482.946935,-1.3081601736,-9.724768222400002,2.7287730736,2.91610237,19.4469329,-10.81627689,,,
imu,482.955409,-1.3685736064,-9.745105417600001,2.7449231992,2.4151494,23.88821744,-11.70602918,,,
imu,482.963883,-1.4158276776,-9.7989391696,2.7443250464,1.8169966,28.38184035,-12.46119709,,,
imu,482.972357,-1.4636799016,-9.802528086400002,2.730567532,1.03192105,33.01004764,-13.32104174,,,
imu,482.98083,-1.483418944,-9.716992236000001,2.7072395728,0.23936859,37.95976206,-13.98648673,,,
imu,482.989289,-1.3500308696,-9.588987536800001,2.6605836544,-0.40364567,43.10387614,-14.59211644,,,
imu,482.997747,-1.2184372536,-9.549509452,2.6432372232,-0.6503837,47.77694489,-15.10802323,,,
imu,483.006206,-1.1687905712,-9.637437913600001,2.5894034712,-0.7401066199999999,51.88176848,-15.82580659,,,
imu,483.014664,-1.1071808328,-9.6428212888,2.5056620792,-0.84478336,55.62022348,-16.52115922,,,
imu,483.023123,-1.03181358,-9.554892827200002,2.4536227856,-0.94198319,59.33624775,-16.63331287,,,
imu,483.031581,-0.9193608536000001,-9.5237888816,2.449435716,-0.52327623,63.1868564,-16.22955973,,,
imu,483.04004,-0.8667234072000001,-9.556089132800002,2.440463424,-0.35878421,66.52903517,-15.90057569,,,
imu,483.048498,-0.7333353328000001,-9.536948243200001,2.4033779504,0.07487657,69.59456827,-15.92300642,,,
imu,483.056956,-0.5688433128,-9.534555632000002,2.374666616,0.3963837,72.10681003,-16.2818981,,,
imu,483.065415,-0.3343674152,-9.596165370400001,2.4027797976,0.620691,74.0283759,-16.71555888,,,
imu,483.073873,-0.05682451600000001,-9.720581152800001,2.449435716,0.53844499,75.08262021,-17.51558825,,,
imu,483.082332,0.1985867296,-9.818080059200001,2.4859230368,0.11973803,75.11252785,-18.65207857,,,
imu,483.09079,0.4019586816,-9.927542021600003,2.5636829008,-0.74758353,74.12557573000001,-19.8708149,,,
imu,483.099249,0.56824516,-10.0178630944,2.615124041600001,-1.74948947,72.82459339,-20.55121371,,,
imu,481.754159,,,,,,,82.4107964,-17.76761000000002,115.8646536
imu,481.855691,,,,,,,84.278498,-17.6943668,118.2206432
imu,481.957284,,,,,,,87.46457720000001,-18.23148360000002,117.23186
imu,482.058786,,,,,,,86.3171004,-17.57229480000002,119.4413632
imu,482.160409,,,,,,,88.03831559999999,-18.47562760000001,116.6215
imu,482.262033,,,,,,,86.1828212,-17.57229480000002,119.9662728
imu,482.363504,,,,,,,86.2560644,-17.828646,118.3549224
imu,482.465066,,,,,,,87.57444199999999,-17.80423160000002,120.5400112
imu,483.107707,0.6597625384000001,-10.0035074272,2.638452000800001,-2.87850288,70.94788898,-20.21475276,,,
imu,483.116166,0.6884738728,-9.8946436176,2.6599855016,-4.02247011,68.82444654,-18.96610879,,,
imu,483.124624,0.7046239984,-9.8198745176,2.6845097664,-4.800068749999999,66.87297303,-16.93986618,,,
imu,483.133083,0.7082129152000001,-9.751685098400001,2.6641725712,-5.49542138,64.77943823,-14.80146992,,,
imu,483.141541,0.7046239984,-9.638634219200002,2.6641725712,-5.83188233,62.92516455,-12.7677504,,,
imu,483.149999,0.7034276928000001,-9.527377798400002,2.6659670296,-5.84683615,61.16809069999999,-10.93590745,,,
imu,483.158458,0.7614485144,-9.437654878400002,2.682715308000001,-5.57019048,59.149325,-9.61249438,,,
imu,483.166916,0.8122915024000001,-9.382026668000002,2.6982672808,-4.99446841,56.96606728,-8.79751119,,,
imu,483.175375,0.9187627008000002,-9.3868118904,2.745521352,-4.33650033,54.49121006999999,-8.73769591,,,
imu,483.183833,1.043776636,-9.3927934184,2.7676530056,-3.70096298,51.78456865,-8.99191085,,,
imu,483.192705,1.1293124864,-9.343146736000001,2.78141052,-3.08785636,48.24051331,-9.552679099999999,,,
imu,483.201576,1.2118575728,-9.349128264,2.8131126184,-2.49718047,44.33008938,-10.3751392,,,
imu,483.210447,1.2298021568,-9.4203084472,2.8519925504,-2.04108896,40.32994253,-10.6742156,,,
imu,483.219319,1.1945111416,-9.452010545600002,2.874124204,-1.59995127,36.47933388,-10.45738521,,,
imu,483.22819,1.0635156784,-9.457393920800001,2.895657704800001,-1.52518217,32.98014,-9.95643224,,,
imu,483.237061,0.9462777296000001,-9.438851184,2.891470635200001,-1.4728438,30.00432982,-8.84984956,,,
imu,483.245933,0.8547603512000002,-9.447225323200001,2.9088170664,-1.48032071,27.76125682,-7.272221549999999,,,
imu,483.254804,0.7877672376000001,-9.489694172,2.928556108800001,-1.30835178,25.89950623,-5.68711663,,,
imu,483.263675,0.7285501104000001,-9.4974701584,2.939921012000001,-1.30087487,24.24710912,-4.40108811,,,
imu,483.272547,0.7004369288000002,-9.478927421600002,2.9393228592,-1.36069015,22.7367733,-3.51133582,,,
imu,483.281418,0.6872775672000001,-9.492684936000002,2.9237708864,-1.15881358,21.19652984,-3.00290594,,,
imu,483.290289,0.6771089696000001,-9.516012895200001,2.9046299968,-0.81487572,19.66376329,-2.55429134,,,
imu,483.299161,0.6412198016000001,-9.526181492800001,2.8902743296,-0.73262971,18.08613528,-2.65896808,,,
imu,483.308032,0.6238733704,-9.516611048000001,2.8795075792,-0.58309151,16.80010676,-2.59167589,,,
imu,483.316903,0.6340419680000001,-9.5004609224,2.877114968,-0.34383039,15.43930914,-2.56176825,,,
imu,483.325775,0.6172936896000001,-9.504647992000002,2.8717315928,-0.10456927,14.16075753,-2.80850628,,,
imu,483.334646,0.6083213976,-9.522592576000001,2.864553759200001,-0.007369440000000005,12.97192884,-3.11505959,,,
imu,483.343517,0.5969564944000001,-9.5213962704,2.8657500648,0.11226112,11.8204847,-3.27955161,,,
imu,483.352388,0.565254396,-9.4974701584,2.891470635200001,0.40386061,10.78119421,-3.3468438,,,
imu,483.36126,0.5096261856000001,-9.5154147424,2.8926669408,0.43376825,9.80919591,-3.41413599,,,
imu,483.370131,0.4533998224,-9.522592576000001,2.8986484688,0.59078336,9.054027999999999,-3.33936689,,,
imu,483.379002,0.3923882368,-9.540537160000001,2.9165930528,0.52349117,8.58298267,-3.25712088,,,
imu,483.387874,0.3660695136000001,-9.520798117600002,2.9273598032,0.56835263,8.351198459999999,-2.94309066,,,
imu,483.396297,0.340947096,-9.520199964800002,2.9333413312,0.63564482,8.47830593,-2.56176825,,,
imu,483.40472,0.3283858872000001,-9.5219944232,2.9387247064,0.58330645,8.4558752,-2.34493786,,,
imu,483.413142,0.3104413032000001,-9.5148165896,2.9405191648,0.7104139199999999,8.530644299999999,-2.001,,,
imu,483.421565,0.3433397072,-9.5327611736,2.9530803736,0.68050628,8.56802885,-1.97856927,,,
imu,483.429988,0.3935845424,-9.5327611736,2.9560711376,0.67302937,8.612890310000001,-1.97856927,,,
imu,483.438411,0.4330626272,-9.538742701600002,2.9680341936,0.59078336,8.31381391,-2.24026112,,,
imu,483.446834,0.4510072112,-9.549509452,2.954874832000001,0.4861066199999999,7.835291669999999,-2.748691,,,
imu,483.455257,0.4683536424000001,-9.552500216,2.957267443200001,0.23936859,7.244615779999999,-3.10010577,,,
imu,483.463679,0.4761296288000001,-9.5668558832,2.9482951512,0.14964567,6.69880135,-3.30945925,,,
imu,483.472102,0.4731388648000001,-9.52558334,2.939921012000001,0.0001074699999999984,6.2128022,-3.496382,,,
imu,483.480525,0.4653628784000001,-9.4974701584,2.936930248,-0.21672292,5.7641876,-3.51881273,,,
imu,483.488948,0.4193051128000001,-9.5118258256,2.939921012000001,-0.34383039,5.41277283,-3.53376655,,,
imu,483.497371,0.3744436528,-9.536948243200001,2.94590254,-0.40364567,5.23332699,-3.39918217,,,
imu,483.505794,0.3564990688,-9.535153784800002,2.9393228592,-0.5307531400000001,5.27818845,-3.30198234,,,
imu,483.514217,0.3325729568,-9.5219944232,2.96085636,-0.68029134,5.45015738,-3.36179762,,,
imu,483.522639,0.334965568,-9.530966715200002,2.963847124,-0.67281443,5.659510859999999,-3.54872037,,,
imu,483.531062,0.3505175408000001,-9.555490980000002,2.957865596,-0.68776825,5.943633439999999,-3.69078166,,,
imu,483.539485,0.331974804,-9.547116840800001,2.954874832000001,-0.79244499,5.9137258,-4.19173463,,,
imu,483.547908,0.3379563320000001,-9.5184055064,2.94590254,-0.6279529699999999,6.02587945,-4.5431494,,,
imu,483.556331,0.3253951232,-9.502853533600002,2.94590254,-0.68776825,6.2128022,-4.92447181,,,
imu,483.564754,0.3212080536,-9.477731116000001,2.941117317600001,-0.6503837,6.2875713,-5.45533242,,,
imu,483.573177,0.3367600264,-9.457992073600002,2.9447062344,-0.4260764,6.45954023,-5.82170101,,,
imu,483.581599,0.3612842912,-9.453206851200001,2.9554729848,-0.14195382,6.534309329999999,-6.031054489999999,,,
imu,483.590022,0.3929863896,-9.440047489600001,2.953678526400001,-0.08213854000000001,6.40720186,-6.28526943,,,
imu,483.598483,0.4187069600000001,-9.4215047528,2.9656415824,0.09730729999999999,6.250186749999999,-6.24040797,,,
imu,483.606944,0.430670016,-9.4071490856,2.9644452768,0.31413769,5.77914142,-6.17311578,,,
imu,483.615405,0.4312681688,-9.412532460800001,2.9811935552,0.65059864,5.42772665,-5.94133157,,,
imu,483.623866,0.4019586816,-9.443038253600001,2.9841843192,0.80761375,5.18098862,-5.4403786,,,
imu,483.632327,0.4049494456000001,-9.4244955168,2.979997249600001,0.97958268,4.88191222,-4.85717962,,,
imu,483.640788,0.3953790008,-9.4203084472,2.9913621528,1.27865908,4.784712389999999,-4.16182699,,,
imu,483.649249,0.3732473472,-9.444832712,2.990764,1.45810492,4.70994329,-3.5711511,,,
imu,483.657587,0.3553027632,-9.447225323200001,2.9883713888,1.65250458,4.72489711,-3.05524431,,,
imu,483.666048,0.340947096,-9.444832712,2.9883713888,1.76465823,4.82957385,-2.64401426,,,
imu,483.674509,0.3295821928000001,-9.447823476,2.981791708,1.7422275,5.001542779999999,-2.24773803,,,
imu,483.68297,0.3164228312,-9.447823476,2.9680341936,1.71231986,5.14360407,-2.29259949,,,
imu,483.691431,0.3463304712,-9.457393920800001,2.966239735200001,1.94410407,5.442680469999999,-2.4496146,,,
imu,483.699892,0.3564990688,-9.4753385048,2.952482220800001,2.06373463,5.49501884,-2.79355246,,,
imu,483.708353,0.3852104032000001,-9.488497866400001,2.938126553600001,2.07121154,5.681941589999999,-3.1973056,,,
imu,483.716814,0.3989679176000001,-9.498666464000001,2.924369039200001,2.22822665,5.71932614,-3.37675144,,,
imu,483.725275,0.4085383624000001,-9.516012895200001,2.9231727336,2.34785721,5.59969558,-3.68330475,,,
imu,483.733736,0.4061457512000001,-9.519601812000001,2.9058263024,2.47496468,5.53240339,-4.06462716,,,
imu,483.742197,0.415716196,-9.519003659200001,2.898050316,2.4899185,5.49501884,-4.33379592,,,
imu,483.750658,0.3876030144000001,-9.541135312800002,2.8747223568,2.51234923,5.3903421,-4.602964679999999,,,
imu,483.759119,0.3564990688,-9.5327611736,2.850198092000001,2.43758013,5.48754193,-4.59548777,,,
imu,483.76758,0.352910152,-9.526181492800001,2.8460110224,2.35533412,5.59969558,-4.55062631,,,
imu,483.776041,0.3403489432000001,-9.541733465600002,2.8304590496,2.35533412,5.88381816,-4.30388828,,,
imu,483.784502,0.3337692624,-9.5357519376,2.817299688,2.44505704,6.10064855,-4.102011709999999,,,
imu,483.792963,0.3451341656,-9.541135312800002,2.802345868,2.51234923,6.39972495,-3.98985806,,,
imu,483.801416,0.3792288752000001,-9.549509452,2.805336632,2.37776485,6.68384753,-3.91508896,,,
imu,483.80987,0.3887993200000001,-9.552500216,2.7981587984,2.57216451,6.85581646,-3.75059694,,,
imu,483.818323,0.3852104032000001,-9.5656595776,2.8011495624,2.48244159,6.91563174,-3.82536604,,,
imu,483.826777,0.3893974728000001,-9.591978300800001,2.8131126184,2.4151494,6.85581646,-3.96742733,,,
imu,483.83523,0.4103328208,-9.588389384000001,2.8328516608,2.31047266,6.96797011,-3.97490424,,,
imu,483.843683,0.4258847936,-9.6117173432,2.8543851616,2.10859609,6.91563174,-3.91508896,,,
imu,483.852137,0.4528016696000001,-9.6075302736,2.8406276472,1.84690424,6.69880135,-3.75807385,,,
imu,483.86059,0.4833074624000001,-9.572239258400002,2.817897840800001,1.54035093,6.67637062,-3.85527368,,,
imu,483.869043,0.5048409632,-9.548313146400002,2.8304590496,1.54782784,6.34738658,-3.76555076,,,
imu,483.877497,0.5180003248000001,-9.5501076048,2.8274682856,1.39081273,5.92867962,-3.74312003,,,
imu,483.88595,0.5341504504000001,-9.539939007200001,2.835244272,1.2936129,5.5398803,-3.63844329,,,
imu,483.894403,0.5407301312,-9.513620284000002,2.8238793688,1.19641307,4.98658896,-3.5711511,,,
imu,483.902857,0.5449172008000001,-9.4873015608,2.823281216,1.01696723,4.47068217,-3.52628964,,,
imu,483.91131,0.5287670752,-9.498666464000001,2.8184959936,1.18893616,4.02206757,-3.22721324,,,
imu,483.919764,0.5215892416000001,-9.513022131200001,2.82627198,1.21136689,3.61831443,-3.1225365,,,
imu,482.566598,,,,,,,90.2234044,-17.95071800000001,121.4799656
imu,482.668283,,,,,,,92.72588040000001,-18.54887080000001,122.1391544
imu,482.769723,,,,,,,96.0950676,-18.17044760000002,121.8828032
imu,482.871316,,,,,,,98.5853364,-18.31693400000001,121.626452
imu,482.973001,,,,,,,99.25673239999999,-18.57328520000001,121.6752808
imu,483.074564,,,,,,,100.1356508,-18.93950120000001,120.6132544
imu,483.176004,,,,,,,92.9089884,-18.64652840000001,122.41992
imu,483.277628,,,,,,,92.61601560000001,-19.02495160000002,119.246048
imu,483.928217,0.5257763112000001,-9.5148165896,2.819692299200001,1.21136689,3.21456129,-2.87579847,,,
imu,483.93667,0.5132151024,-9.483712644000002,2.8298608968,1.33099745,2.70613141,-2.91318302,,,
imu,483.945124,0.4922797544,-9.465169907200002,2.8280664384,1.68241222,2.21265535,-2.74121409,,,
imu,483.953577,0.4557924336,-9.479525574400002,2.82627198,1.83195042,1.90610204,-2.63653735,,,
imu,483.96203,0.442633072,-9.4801237272,2.8190941464,2.17588828,1.78647148,-2.56176825,,,
imu,483.970484,0.3959771536000001,-9.467562518400001,2.8190941464,2.4151494,1.65936401,-2.50942988,,,
imu,483.978937,0.376836264,-9.469356976800002,2.831655355200001,2.59459524,1.73413311,-2.55429134,,,
imu,483.987391,0.3630787496,-9.468160671200001,2.8346461192,2.85628709,1.82385603,-2.65896808,,,
imu,483.995844,0.3403489432000001,-9.447225323200001,2.8364405776,3.02825602,1.92853277,-2.99542903,,,
imu,484.004297,0.3283858872000001,-9.459786532,2.8244775216,3.0880713,2.06311715,-3.41413599,,,
imu,484.012749,0.3397507904000001,-9.465169907200002,2.81131816,3.39462461,2.43696265,-3.59358183,,,
imu,484.021201,0.3570972216000001,-9.450216087200001,2.8029440208,3.611455,2.88557725,-3.72816621,,,
imu,484.029654,0.3762381112000001,-9.488497866400001,2.801747715200001,3.67127028,3.01268472,-3.82536604,,,
imu,484.038106,0.3786307224000001,-9.552500216,2.7802142144,3.76847011,2.97530017,-3.95247351,,,
imu,484.046558,0.3612842912,-9.5638651192,2.7706437696,3.8357623,3.22951511,-3.80293531,,,
imu,484.05501,0.3570972216000001,-9.571641105600001,2.7473158104,3.94043904,3.52859151,-3.4216129,,,
imu,484.063462,0.3559009160000001,-9.602745051200001,2.7323619904,3.93296213,3.62579134,-3.23469015,,,
imu,484.071914,0.3702565832000001,-9.630858232800001,2.7341564488,3.67874719,3.85009864,-3.01785976,,,
imu,484.080366,0.3804251808,-9.645213900000002,2.7341564488,3.40210152,3.88000628,-2.96552139,,,
imu,484.088818,0.3947808480000001,-9.663158484000002,2.7257823096,3.14788658,3.94729847,-2.79355246,,,
imu,484.09727,0.4019586816,-9.689477207200001,2.7233896984,2.81890254,3.93982156,-2.74121409,,,
imu,484.105722,0.4163143488000001,-9.719983000000001,2.718604476,2.54973378,3.77532954,-2.83093701,,,
imu,484.114175,0.4085383624000001,-9.7217774584,2.7102303368,2.13850373,3.51363769,-2.83841392,,,
imu,484.122627,0.4193051128000001,-9.688280901600002,2.709632184,1.68988913,3.25194584,-2.75616791,,,
imu,484.131079,0.4109309736,-9.6523917336,2.703650656000001,1.09921324,3.10988455,-2.68139881,,,
imu,484.139531,0.4228940296000001,-9.636241608,2.6958746696,0.70293701,3.05754618,-2.49447606,,,
imu,484.147983,0.4127254320000001,-9.633250844,2.7012580448,0.3889067899999999,2.96782326,-2.41223005,,,
imu,484.156435,0.3977716120000001,-9.636241608,2.7084358784,0.11973803,3.0725,-2.17296893,,,
imu,484.164887,0.4079402096,-9.627867468800002,2.7209970872,-0.17933837,3.09493073,-2.03090764,,,
imu,484.173339,0.406743904,-9.613511801600001,2.727576768,-0.48589168,2.93791562,-1.96361545,,,
imu,484.181791,0.3887993200000001,-9.600352440000002,2.7491102688,-0.61299915,3.15474601,-1.76173888,,,
imu,484.190243,0.3983697648000001,-9.574631869600001,2.7521010328,-0.61299915,3.30428421,-1.48509321,,,
imu,484.198696,0.4055475984,-9.571641105600001,2.7592788664,-0.67281443,3.40896095,-1.37293956,,,
imu,484.207148,0.4115291264,-9.547714993600001,2.7700456168,-0.70272207,3.68560662,-1.4028472,,,
imu,484.215965,0.4264829464000001,-9.516012895200001,2.7778216032,-0.59056842,3.91739083,-1.5523854,,,
imu,484.224781,0.4456238360000001,-9.5010590752,2.7826068256,-0.41112258,4.13422122,-1.67201596,,,
imu,484.233598,0.4707462536000001,-9.4843107968,2.779616061600001,-0.23915365,4.32862088,-1.96361545,,,
imu,484.242415,0.4857000736000001,-9.4908904776,2.7855975896,-0.13447691,4.31366706,-2.27016876,,,
imu,484.251232,0.5096261856000001,-9.484908949600001,2.783204978400001,0.11973803,4.35852852,-2.49447606,,,
imu,484.260049,0.5233837000000001,-9.477132963200003,2.799355104,0.3216146,4.37348234,-2.60662971,,,
imu,484.268866,0.5287670752,-9.481918185600001,2.802345868,0.4711528,4.29871324,-2.71130645,,,
imu,484.277683,0.5227855472,-9.5082369088,2.8029440208,0.33656842,4.01459066,-2.86084465,,,
imu,484.2865,0.5395338256000001,-9.533359326400001,2.8095237016,0.53844499,3.91739083,-2.71878336,,,
imu,484.295317,0.5473098120000001,-9.557883591200001,2.820290452000001,0.45619898,3.82766791,-2.64401426,,,
imu,484.304134,0.565254396,-9.574631869600001,2.8190941464,0.34404533,3.69308353,-2.5243837,,,
imu,484.312951,0.5849934384000001,-9.5704448,2.8029440208,0.3739529699999999,3.64822207,-2.31503022,,,
imu,484.321768,0.5903768136,-9.564463272000001,2.790382812,0.42629134,3.4463455,-2.13558438,,,
imu,484.330585,0.5927694248,-9.593772759200002,2.8005514096,0.36647606,3.41643786,-1.8514618,,,
imu,484.339402,0.6023398696000001,-9.599754287200001,2.7975606456,0.14216876,3.23699202,-1.64210832,,,
imu,484.348218,0.6071250920000001,-9.590183842400002,2.792177270400001,-0.17186146,3.0725,-1.5523854,,,
imu,484.357035,0.6149010784000001,-9.5812115504,2.802345868,-0.53823005,2.8481927,-1.58976995,,,
imu,484.365852,0.6166955368000001,-9.574631869600001,2.8047384792,-0.73262971,2.87810034,-1.60472377,,,
imu,484.374669,0.631051204,-9.5638651192,2.814308924,-1.03918302,2.7734236,-1.67949287,,,
imu,484.383486,0.6208826064000001,-9.551303910400001,2.8184959936,-1.03170611,2.67622377,-1.76921579,,,
imu,484.392303,0.6274622872000001,-9.522592576000001,2.8214867576,-1.00927538,2.66874686,-1.84398489,,,
imu,484.40112,0.6244715232,-9.51062952,2.8131126184,-0.94198319,2.6238854,-1.94118472,,,
imu,484.409937,0.6328456624000001,-9.4873015608,2.817299688,-0.81487572,2.66874686,-1.94118472,,,
imu,484.418417,0.6400234960000001,-9.470553282400001,2.8280664384,-0.7999219,2.69117759,-2.06829219,,,
imu,484.426897,0.6579680800000002,-9.478329268800001,2.829262744000001,-0.7401066199999999,2.63136231,-2.28512258,,,
imu,484.435377,0.6555754688000001,-9.4633754488,2.8304590496,-0.59056842,2.57902394,-2.46456842,,,
imu,484.443857,0.6579680800000002,-9.467562518400001,2.8555814672,-0.40364567,2.71360832,-2.53186061,,,
imu,484.452337,0.6687348304,-9.4729458936,2.8675445232,-0.45598404,2.68370068,-2.6739219,,,
imu,484.460817,0.6699311360000001,-9.486105255200002,2.8795075792,-0.43355331,2.63136231,-2.89075229,,,
imu,484.469297,0.6824923448,-9.486703408,2.88608726,-0.35878421,2.56407012,-2.94309066,,,
imu,484.477778,0.6908664840000001,-9.489096019200002,2.889676176800001,-0.3513073,2.63136231,-3.02533667,,,
imu,484.486258,0.6926609424000001,-9.4980683112,2.8789094264,-0.22419983,2.60893158,-3.07019813,,,
imu,484.494738,0.7106055264000001,-9.5118258256,2.8938632464,-0.20924601,2.4743472,-3.25712088,,,
imu,484.503218,0.7094092208000001,-9.499862769600002,2.8944613992,-0.17186146,2.324809,-3.54124346,,,
imu,484.511698,0.7106055264000001,-9.509433214400001,2.8938632464,-0.20924601,1.99582496,-3.76555076,,,
imu,484.520178,0.7082129152000001,-9.4980683112,2.8878817184,-0.29896893,1.7266562,-4.012288789999999,,,
imu,484.528658,0.7052221512000001,-9.4831144912,2.880105732000001,-0.127,1.62197946,-4.13191935,,,
imu,484.537138,0.6872775672000001,-9.495077547200001,2.873526051200001,0.08235347999999998,1.36028761,-4.13939626,,,
imu,484.545618,0.6884738728,-9.48072188,2.8717315928,0.18703022,1.21074941,-4.29641137,,,
imu,484.554098,0.666940372,-9.4699551296,2.875918662400001,0.19450713,0.7471809899999999,-4.58801086,,,
imu,484.562578,0.6567717744000001,-9.475936657600002,2.868142676,0.23936859,0.50044296,-4.63287232,,,
imu,484.571058,0.646005024,-9.533957479200001,2.8836946488,0.34404533,0.3882893099999998,-4.692687599999999,,,
imu,484.579538,0.6286585928,-9.6075302736,2.9058263024,0.1720764,0.1565051,-4.692687599999999,,,
imu,484.588018,0.6077232448000001,-9.625474857600002,2.9004429272,-0.11952309,0.1265974599999997,-4.70016451,,,
imu,484.596499,0.6178918424000002,-9.537546396000002,2.921976428000001,-0.54570696,-0.03789456000000024,-4.68521069,,,
imu,484.604979,0.5814045216000001,-9.568052188800001,2.913004136000001,-0.7401066199999999,-0.2248173100000002,-4.7674567,,,
imu,484.613459,0.5467116592000001,-9.5949690648,2.901041080000001,-0.83730645,-0.3594016900000003,-4.737549059999999,,,
imu,484.621918,0.5269726168000001,-9.614109954400002,2.918985664,-0.874691,-0.1874327600000001,-4.40108811,,,
imu,484.630378,0.5078317272000001,-9.576426328,2.9028355384,-1.13638285,-0.01546383000000029,-4.23659609,,,
imu,484.638838,0.5132151024,-9.533957479200001,2.9028355384,-1.30835178,0.006966899999999665,-4.30388828,,,
imu,484.647298,0.5084298800000001,-9.508835061600001,2.895657704800001,-1.37564397,0.05182836000000002,-4.52071867,,,
imu,484.655757,0.4743351704000001,-9.5249851872,2.8854891072,-1.21115195,0.1415512799999998,-4.7674567,,,
imu,484.664217,0.4868963792000001,-9.484908949600001,2.8824983432,-1.12890594,0.2462280199999998,-5.08896383,,,
imu,484.672677,0.4498109056,-9.4526086984,2.9171912056,-1.03918302,0.50044296,-5.41794787,,,
imu,484.681136,0.3864067088000001,-9.396980488,2.8878817184,-0.7999219,0.6948426199999997,-5.5151477,,,
imu,483.379267,,,,,,,88.9050268,-17.96292520000002,120.771948
imu,483.480982,,,,,,,88.8195764,-17.23049320000001,118.3793368
imu,483.582362,,,,,,,89.03930600000001,-17.62112360000001,120.4545608
imu,483.683955,,,,,,,88.73412599999999,-17.54788040000001,119.6488856
imu,483.785456,,,,,,,88.3801172,-17.6333308,120.344696
imu,483.887049,,,,,,,87.78196439999999,-17.70657400000002,119.5634352
imu,483.996485,,,,,,,87.8307932,-17.80423160000002,119.9662728
imu,484.09936,,,,,,,90.3332692,-18.70756440000001,119.0141112
imu,484.19961,,,,,,,87.98948680000001,-17.87747480000002,119.8319936
imu,484.301112,,,,,,,90.44313399999999,-18.40238440000002,117.3661392
imu,484.402674,,,,,,,88.28245960000001,-17.38918680000001,119.6000568
imu,484.504237,,,,,,,88.184802,-17.62112360000001,117.4637968
imu,484.605921,,,,,,,87.9650724,-17.46243,119.1972192
