Type,Timestamp,Data Accelerometer X,Data Accelerometer Y,Data Accelerometer Z,Data Gyroscope X,Data Gyroscope Y,Data Gyroscope Z,Data Magnetometer X,Data Magnetometer Y,Data Magnetometer Z
imu,382.741705,-0.2111479384,-9.7193848472,2.0935348,3.93296213,1.70422547,-2.84589083,,,
imu,382.750524,-0.1920070488,-9.696655040800001,2.0881514248,4.17222325,2.00330187,-3.01038285,,,
imu,382.759344,-0.2027737992,-9.654784344800001,2.0642253128,4.30680763,2.19770153,-3.35432071,,,
imu,382.768163,-0.2009793408,-9.658971414400002,2.0737957576,4.33671527,2.26499372,-3.5711511,,,
imu,382.776983,-0.1890162848,-9.6745233872,2.069608688,4.26194617,2.44443956,-3.61601256,,,
imu,382.785802,-0.1806421456,-9.689477207200001,2.0540567152,4.35166909,2.54163939,-3.70573548,,,
imu,382.794622,-0.1788476872,-9.702636568800001,2.0510659512,4.2096078,2.88557725,-3.43656672,,,
imu,382.803442,-0.1752587704,-9.710412555200001,2.0355139784,3.89557758,2.86314652,-3.18982869,,,
imu,382.812261,-0.1650901728,-9.7361331256,2.0151767832,3.85071612,3.02763854,-3.01038285,,,
imu,382.821081,-0.1399677552,-9.724170069600001,2.004410032800001,3.589024269999999,3.09493073,-2.8234601,,,
imu,382.8299,-0.1453511304,-9.722973764,1.9984285048,3.47687062,3.08745382,-2.71130645,,,
imu,382.83872,-0.1387714496,-9.718786694400002,1.9762968512,3.35724006,3.28933039,-2.61410662,,,
imu,382.847539,-0.1489400472,-9.752283251200002,1.9751005456,3.3123786,3.46129932,-2.35241477,,,
imu,382.856359,-0.1363788384,-9.780396432800002,1.9535670448,3.27499405,3.67812971,-2.01595382,,,
imu,382.865179,-0.1327899216,-9.790565030400002,1.952968892,3.20770186,4.07440594,-1.72435433,,,
imu,382.873945,-0.1339862272,-9.797742864000002,1.9404076832,2.98339456,4.32862088,-1.68696978,,,
imu,382.882764,-0.1130508792,-9.802528086400002,1.9523707392,2.74413344,4.44825144,-1.47013939,,,
imu,382.891584,-0.08733030880000002,-9.802528086400002,1.9523707392,2.47496468,4.60526655,-1.50752394,,,
imu,382.900404,-0.08433954480000001,-9.819276364800002,1.9541651976,2.1908421,4.82209694,-1.50752394,,,
imu,382.90887,-0.07716171120000001,-9.83961356,1.961941184,1.7422275,5.17351171,-1.23087827,,,
imu,382.917336,-0.0502448352,-9.855165532800001,1.9643337952,1.2936129,5.51744957,-1.11872462,,,
imu,382.925802,-0.0107667504,-9.856959991200002,1.98885806,0.94219813,5.81652597,-0.9617095099999999,,,
imu,382.934268,0.0131593616,-9.859950755200002,1.9792876152,0.20946095,5.876341249999999,-1.00657097,,,
imu,382.942734,0.0263187232,-9.8653341304,1.9960358936,-0.29896893,6.05578709,-0.8495558599999999,,,
imu,382.9512,0.05084298800000001,-9.855763685600001,2.0002229632,-0.77749117,6.250186749999999,-0.6476792899999999,,,
imu,382.959666,0.0693857248,-9.8527729216,2.0002229632,-1.22610577,6.489447869999999,-0.54300255,,,
imu,382.968132,0.08254508640000002,-9.825856045600002,2.0109897136,-1.50275144,6.601601519999999,-0.51309491,,,
imu,382.976598,0.07596540560000001,-9.793555794400001,2.0145786304,-1.86912003,6.796001179999999,-0.4233719899999999,,,
imu,382.985064,0.1004896704,-9.794153947200002,2.027737992,-2.28035008,7.04273921,-0.4981410899999998,,,
imu,382.993531,0.1363788384,-9.7786019744,2.0420936592,-2.50465738,7.199754319999999,-0.6177716499999999,,,
imu,383.001997,0.1495382,-9.758862932000001,2.0468788816,-2.77382614,7.319384879999999,-0.6925407499999998,,,
imu,383.010463,0.155519728,-9.7295534448,2.0564493264,-3.05047181,7.27452342,-0.9467556899999998,,,
imu,383.018929,0.1680809368,-9.7151977776,2.06362716,-3.29720984,7.27452342,-1.15610917,,,
imu,383.027395,0.1902125904,-9.6817012208,2.0923384944,-3.38693276,7.30443106,-1.26826282,,,
imu,383.035861,0.1991848824,-9.672130776000001,2.0923384944,-3.51404023,7.20723123,-1.4028472,,,
imu,383.044327,0.227298064,-9.665551095200001,2.0851606608,-3.476655679999999,7.154892859999999,-1.54490849,,,
imu,383.052793,0.2554112456,-9.648204664000001,2.1001144808,-3.51404023,6.930585559999999,-1.90380017,,,
imu,383.061259,0.2584020096,-9.635045302400002,2.1060960088,-3.48413259,6.75861663,-2.0757691,,,
imu,383.069725,0.2673743016,-9.613511801600001,2.117460912,-3.3420713,6.37729422,-2.34493786,,,
imu,383.078191,0.2793373576,-9.610521037600002,2.1246387456,-2.9682258,5.853910519999999,-2.5991528,,,
imu,383.086657,0.2913004136,-9.606333968000001,2.1377981072,-2.7439185,5.42772665,-3.01038285,,,
imu,383.095124,0.2889078024000001,-9.614109954400002,2.1371999544,-2.66167249,4.68003565,-3.54124346,,,
imu,383.10359,0.2787392048,-9.647606511200001,2.1581353024,-2.32521154,4.09683667,-3.7206893,,,
imu,383.112049,0.260196468,-9.687084596000002,2.1850521784,-2.08595042,3.41643786,-3.83284295,,,
imu,383.120509,0.2386629672,-9.6876827488,2.2083801376,-1.96631986,2.82576197,-3.86275059,,,
imu,383.128969,0.2165313136,-9.702636568800001,2.231109944,-2.01865823,2.1752708,-3.81788913,,,
imu,383.137429,0.1979885768,-9.693664276800002,2.222735804800001,-1.88407385,1.66684092,-3.75807385,,,
imu,383.145888,0.1680809368,-9.6733270816,2.2412785416,-1.77939711,1.17336486,-3.7954584,,,
imu,383.154348,0.1417622136,-9.651195428000001,2.2424748472,-1.75696638,0.5901658799999998,-3.75059694,,,
imu,383.162808,0.1034804344,-9.647606511200001,2.2424748472,-1.74948947,0.09668981999999993,-3.6459202,,,
imu,383.171267,0.0681894192,-9.61530626,2.246063764000001,-1.66724346,-0.25472495,-3.63844329,,,
imu,383.179727,0.03289840400000001,-9.593772759200002,2.263410195200001,-1.45041307,-0.3070633200000001,-3.55619728,,,
imu,383.188187,0.0,-9.588389384000001,2.263410195200001,-1.16629049,-0.43417079,-3.48890509,,,
imu,383.196647,-0.020935348,-9.5800152448,2.269989876,-1.08404448,-0.4640784300000003,-3.47395127,,,
imu,383.205106,-0.0532355992,-9.5698466472,2.2717843344,-0.84478336,-0.4266938800000002,-3.47395127,,,
imu,383.213566,-0.0741709472,-9.558481744000002,2.2927196824,-0.61299915,-0.2846325900000002,-3.43656672,,,
imu,383.222026,-0.08254508640000002,-9.571042952800001,2.2861400016,-0.19429219,0.11164364,-3.45152054,,,
imu,383.230486,-0.08792846160000001,-9.5877912312,2.2873363072,0.11226112,0.58268897,-3.41413599,,,
imu,383.238945,-0.07656355840000001,-9.599754287200001,2.2843455432,0.5010604399999999,1.11354958,-3.30945925,,,
imu,383.247405,-0.0681894192,-9.614708107200002,2.3034864328,0.8674290299999999,1.68179474,-3.05524431,,,
imu,383.255865,-0.0490485296,-9.6428212888,2.3046827384,0.9571519499999999,2.10797861,-2.86832156,,,
imu,383.264324,-0.0215335008,-9.664952942400001,2.321431016800001,1.00949032,2.54163939,-2.78607555,,,
imu,383.272784,0.0101685976,-9.66016772,2.3130568776,0.9571519499999999,3.08745382,-2.70382954,,,
imu,383.281244,0.03887993200000001,-9.6494009696,2.3082716552,0.97958268,3.31923803,-2.80850628,,,
imu,383.289704,0.068787572,-9.633250844,2.3082716552,1.07678251,3.51363769,-2.96552139,,,
imu,383.298163,0.09390998960000001,-9.6326526912,2.3142531832,1.36090509,3.75289881,-2.8982292,,,
imu,383.306623,0.13458438,-9.6248767048,2.304084585600001,1.42072037,3.85009864,-3.13749032,,,
imu,383.315089,0.1453511304,-9.6428212888,2.3339922256,1.34595127,3.64822207,-3.43656672,,,
imu,383.323555,0.1519308112,-9.6643547896,2.3369829896,1.24875144,3.58840679,-3.66087402,,,
imu,383.332021,0.1591086448,-9.693664276800002,2.33279592,1.2936129,3.47625314,-3.7206893,,,
imu,383.340487,0.1567160336,-9.6912716656,2.3286088504,1.05435178,3.28933039,-3.90761205,,,
imu,383.348954,0.1453511304,-9.6709344704,2.3262162392,0.94219813,3.16222292,-4.102011709999999,,,
imu,383.35742,0.140565908,-9.635643455200002,2.3052808912,0.9347212199999999,3.06502309,-4.06462716,,,
imu,383.365886,0.1381732968,-9.5949690648,2.2765695568,1.07678251,3.01268472,-4.04219643,,,
imu,383.374352,0.1471455888,-9.554294674400001,2.27298064,1.25622835,2.95286944,-4.04219643,,,
imu,383.382818,0.1489400472,-9.535153784800002,2.2472600696,1.69736604,2.98277708,-3.87770441,,,
imu,383.391284,0.1274065464,-9.532163020800002,2.2406803888,2.20579592,2.95286944,-3.63844329,,,
imu,383.39975,0.1178361016,-9.557883591200001,2.2382877776,3.00582529,2.93791562,-3.37675144,,,
imu,383.408216,0.1088638096,-9.596763523200002,2.246063764000001,3.42453225,3.02763854,-3.05524431,,,
imu,383.416682,0.08733030880000002,-9.635643455200002,2.246063764000001,3.9105314,3.12483837,-2.89075229,,,
imu,383.425148,0.0855358504,-9.682299373600001,2.255036056,4.11988488,3.2220382,-2.93561375,,,
imu,383.433614,0.08314323920000001,-9.744507264800001,2.2622138896,4.089977240000001,3.23699202,-2.98047521,,,
imu,383.44208,0.0723764888,-9.7821908912,2.2592231256,3.925485220000001,3.32671494,-2.89075229,,,
imu,383.450547,0.07955432240000002,-9.775611210400001,2.2574286672,3.44696298,3.40896095,-2.78607555,,,
imu,383.459013,0.0681894192,-9.746301723200002,2.2335025552,3.282470959999999,3.71551426,-2.4496146,,,
imu,383.467479,0.09570444800000001,-9.710412555200001,2.2442693056,2.93105619,3.76037572,-2.34493786,,,
imu,383.475945,0.1052748928,-9.700243957600001,2.2263247216,2.75161035,3.76037572,-2.3748455,,,
imu,383.484411,0.1232194768,-9.678112304,2.180266956,2.58711833,3.85757555,-2.34493786,,,
imu,383.492877,0.131593616,-9.702636568800001,2.1240405928,2.4899185,3.81271409,-2.33746095,,,
imu,383.501343,0.1620994088,-9.681103068,2.1348073432,2.4151494,3.69308353,-2.47204533,,,
imu,383.509809,0.1890162848,-9.636839760800001,2.1419851768,2.43010322,3.58092988,-2.77112173,,,
imu,383.518275,0.176455076,-9.6918698184,2.1120775368,2.69179507,3.49868387,-2.95056757,,,
imu,383.526741,0.2057645632,-9.7325442088,2.0941329528,2.72170271,3.34914567,-3.13001341,,,
imu,383.535207,0.230288828,-9.725964528,2.1060960088,2.67684125,3.07997691,-3.22721324,,,
imu,383.543673,0.2266999112,-9.663158484000002,2.1330128848,2.7142258,2.96782326,-3.30198234,,,
imu,383.55214,0.203371952,-9.632054538400002,2.1395925656,2.60207215,2.63883922,-3.45152054,,,
imu,383.560606,0.2057645632,-9.675719692800001,2.0947311056,2.81890254,2.36967046,-3.24964397,,,
imu,383.569072,0.2189239248,-9.672728928800002,2.0731976048,2.87871782,2.15284007,-3.21973633,,,
imu,383.577538,0.2027737992,-9.6535880392,2.081571744,3.05068675,2.03320951,-3.53376655,,,
imu,383.586004,0.1866236736,-9.644615747200001,2.0827680496,2.90862546,1.7266562,-3.7206893,,,
imu,383.59447,0.1800439928,-9.654784344800001,2.0588419376,3.12545585,1.46496435,-3.81041222,,,
imu,383.602936,0.155519728,-9.654784344800001,2.0510659512,3.32733242,1.43505671,-3.76555076,,,
imu,383.611402,0.131593616,-9.668541859200001,2.0420936592,3.64883955,1.45748744,-3.63844329,,,
imu,383.619868,0.1184342544,-9.678710456800001,2.0480751872,3.8357623,1.47244126,-3.52628964,,,
imu,383.628334,0.113649032,-9.6918698184,2.045682576,3.7609932,1.34533379,-3.69078166,,,
imu,383.6368,0.1100601152,-9.704431027200002,2.0414955064,3.9853005,1.58459491,-3.63096638,,,
imu,383.645266,0.107667504,-9.718786694400002,2.0540567152,4.01520814,1.73413311,-3.54124346,,,
imu,383.653733,0.1148453376,-9.7492924872,2.0630290072,3.96286977,1.64441019,-3.71321239,,,
imu,383.662199,0.1118545736,-9.769629682400002,2.0522622568,3.79090084,1.73413311,-3.78798149,,,
imu,383.670665,0.1172379488,-9.797144711200001,2.0612345488,3.30490169,1.7266562,-3.83284295,,,
imu,383.679131,0.1303973104,-9.789368724800001,2.0540567152,3.02825602,1.8014253,-3.80293531,,,
imu,383.687597,0.1250139352,-9.766638918400002,2.0558511736,2.72917962,1.8014253,-3.89265823,,,
imu,383.696063,0.1190324072,-9.776209363200001,2.0594400904,2.37776485,1.80890221,-3.99733497,,,
imu,383.704529,0.1363788384,-9.7815927384,2.045084423200001,2.13850373,1.83880985,-3.95995042,,,
imu,383.712995,0.1579123392,-9.7821908912,2.0468788816,1.74970441,1.86871749,-4.04967334,,,
imu,383.721811,0.1668846312,-9.755274015200001,2.0373084368,1.51044329,2.00330187,-4.057150249999999,,,
imu,383.730626,0.1626975616,-9.748096181600001,2.0480751872,1.48053565,2.10797861,-3.97490424,,,
imu,383.739442,0.1632957144,-9.744507264800001,2.0504677984,1.32352054,1.96591732,-3.98985806,,,
imu,383.748258,0.1692772424,-9.713403319200001,2.054654868000001,1.30108981,1.92853277,-3.97490424,,,
imu,383.757073,0.167482784,-9.7163940832,2.072599452,1.06182869,1.83133294,-3.99733497,,,
imu,383.765889,0.1650901728,-9.734338667200001,2.0731976048,0.8973366700000001,1.60702564,-4.28145755,,,
imu,383.774704,0.1800439928,-9.738525736800002,2.066617924,0.56835263,1.30047233,-4.41604193,,,
imu,383.78352,0.1812402984,-9.706225485600001,2.075590216,0.31413769,1.24065705,-4.51324176,,,
imu,383.792336,0.16449202,-9.6942624296,2.0803754384,0.21693786,1.16588795,-4.37865738,,,
imu,383.801151,0.155519728,-9.7217774584,2.0773846744,0.31413769,0.9640113799999996,-3.93004278,,,
imu,383.809967,0.1537252696,-9.735534972800002,2.0564493264,0.49358353,1.04625739,-3.45899745,,,
imu,383.818782,0.1543234224,-9.730749750400001,2.0684123824,0.30666078,1.09111885,-3.11505959,,,
imu,383.827598,0.1531271168,-9.6942624296,2.0743939104,0.23189168,1.01634975,-2.93561375,,,
imu,383.836414,0.1692772424,-9.673925234400002,2.0791791328,0.30666078,1.07616503,-2.69635263,,,
imu,383.845229,0.1591086448,-9.669140012000002,2.0708049936,0.28423005,1.08364194,-2.77859864,,,
imu,383.854045,0.1495382,-9.673925234400002,2.062430854400001,0.18703022,1.16588795,-3.06272122,,,
imu,383.86286,0.1567160336,-9.685888290400001,2.07858098,0.18703022,1.18831868,-3.1225365,,,
imu,383.871676,0.1650901728,-9.675719692800001,2.0989181752,0.23189168,1.11354958,-3.40665908,,,
imu,383.880492,0.1597067976,-9.706225485600001,2.1078904672,0.22441477,1.2032725,-3.48142818,,,
imu,383.889307,0.1668846312,-9.735534972800002,2.1096849256,-0.02980017,1.25561087,-3.46647436,,,
imu,383.898123,0.1758569232,-9.722973764,2.1156664536,-0.16438455,1.31542615,-3.39170526,,,
imu,383.906938,0.1866236736,-9.682897526400001,2.1048997032,-0.24663056,1.23318014,-3.65339711,,,
imu,383.915754,0.188418132,-9.6733270816,2.099516328,-0.25410747,1.09859576,-3.84031986,,,
imu,383.924248,0.19439966,-9.648802816800002,2.1037033976,-0.09709236,1.07616503,-4.034719519999999,,,
imu,383.932742,0.1926052016,-9.6523917336,2.1102830784,-0.06718472,0.8967191899999998,-4.244073,,,
imu,383.941236,0.2039701048,-9.661364025600001,2.111479384,0.23189168,0.7471809899999999,-4.27398064,,,
imu,383.94973,0.1932033544,-9.651793580800001,2.1132738424,0.26927623,0.5378275100000001,-4.46090339,,,
imu,383.958224,0.1938015072,-9.639830524800002,2.1348073432,0.44124516,0.4331507699999997,-4.341272829999999,,,
imu,383.966847,0.1955959656,-9.656578803200002,2.1539482328,0.53096808,0.27613566,-4.30388828,,,
imu,383.975341,0.20935348,-9.667345553600002,2.1461722464,0.6954601,-0.05284837999999992,-4.34874974,,,
imu,383.983835,0.1848292152,-9.654186192000001,2.156340844,0.7552753799999999,-0.2921095,-4.34874974,,,
imu,383.992329,0.176455076,-9.659569567200002,2.1695002056,0.81509066,-0.37435551,-4.20668845,,,
imu,384.000823,0.1830347568,-9.6643547896,2.170696511200001,0.80013684,-0.5837089900000003,-4.02724261,,,
imu,384.009317,0.1746606176,-9.6775141512,2.1724909696,0.8749059399999999,-0.7556779200000001,-3.95995042,,,
imu,384.017811,0.1591086448,-9.672130776000001,2.192230012,0.8749059399999999,-0.88278539,-3.8702275,,,
imu,384.026305,0.1513326584,-9.675121540000001,2.2035949152,0.8524752099999999,-0.9500775800000003,-3.5711511,,,
imu,384.034799,0.1232194768,-9.696056888000001,2.2018004568,0.81509066,-1.21176943,-3.67582784,,,
imu,384.043293,0.128602852,-9.711010708000002,2.191631859200001,0.85995212,-1.31644617,-3.66835093,,,
imu,384.051787,0.09151737840000002,-9.70502918,2.1868466368,0.8749059399999999,-1.31644617,-3.54124346,,,
imu,384.060281,0.0980970592,-9.6745233872,2.189239248,0.8973366700000001,-1.24167707,-3.46647436,,,
imu,384.068776,0.08194693360000001,-9.658971414400002,2.1946226232,0.9197674,-1.15195415,-3.45899745,,,
imu,384.07727,0.1052748928,-9.662560331200002,2.2018004568,1.13659779,-1.06223123,-3.47395127,,,
imu,384.085764,0.1058730456,-9.683495679200002,2.1856503312,1.21136689,-1.02484668,-3.65339711,,,
imu,384.094258,0.09510629520000001,-9.671532623200001,2.1850521784,1.34595127,-0.9874621299999999,-3.6459202,,,
imu,382.790769,,,,,,,58.64337800000001,-11.10247880000001,28.83952479999999
imu,382.892515,,,,,,,58.8631076,-11.33441560000001,27.97281359999999
imu,382.993864,,,,,,,55.98220840000001,-10.07707400000002,29.7184432
imu,383.095457,,,,,,,55.94558680000002,-9.869551600000005,27.5455616
imu,383.196958,,,,,,,55.89675800000001,-9.869551600000005,29.07146159999999
imu,383.298582,,,,,,,55.7380644,-9.478921200000023,29.81610079999999
imu,384.102752,0.08194693360000001,-9.637437913600001,2.1778743448,1.39081273,-1.02484668,-3.81788913,,,
imu,384.111246,0.07716171120000001,-9.641026830400001,2.180266956,1.36090509,-1.05475432,-4.10948862,,,
imu,384.11974,0.07716171120000001,-9.660765872800003,2.1677057472,1.61512003,-0.86035466,-4.02724261,,,
imu,384.128299,0.07596540560000001,-9.6703363176,2.1557426912,1.73475059,-0.7706317400000002,-3.93751969,,,
imu,384.136858,0.062806044,-9.669738164800002,2.1449759408,1.83195042,-0.68090882,-3.82536604,,,
imu,384.145417,0.07955432240000002,-9.654186192000001,2.1228442872,2.13102682,-0.6510011800000002,-3.71321239,,,
imu,384.153976,0.068787572,-9.627867468800002,2.1186572176,2.2656112,-0.6360473600000001,-3.84031986,,,
imu,384.162534,0.0376836264,-9.600352440000002,2.1102830784,2.65441052,-0.6061397200000003,-3.80293531,,,
imu,384.171093,0.0263187232,-9.587193078400002,2.090544036,2.90114855,-0.5837089900000003,-3.81041222,,,
imu,384.179652,0.0131593616,-9.5985579816,2.0899458832,3.31985551,-0.3070633200000001,-3.61601256,,,
imu,384.188211,-0.0011963056,-9.636839760800001,2.0857588136,3.67127028,-0.08275602000000015,-3.33936689,,,
imu,384.19677,-0.0023926112,-9.669738164800002,2.072599452,3.75351629,0.006966899999999665,-3.18235178,,,
imu,384.205329,-0.004785222400000001,-9.668541859200001,2.0618327016,3.9105314,0.11164364,-3.24216706,,,
imu,384.213888,0.005981528000000001,-9.669738164800002,2.062430854400001,4.0600696,0.3135202100000001,-3.15992105,,,
imu,384.222447,0.0281131816,-9.6817012208,2.0678142296,4.24699235,0.4032431299999999,-3.28702852,,,
imu,384.231006,0.0293094872,-9.6876827488,2.066617924,4.20213089,0.4555814999999996,-3.48142818,,,
imu,384.239565,0.0430670016,-9.710412555200001,2.051664104,3.9853005,0.52287369,-3.54124346,,,
imu,384.248124,0.0490485296,-9.719983000000001,2.0420936592,4.00025432,0.64250425,-3.36927453,,,
imu,384.256682,0.07058203040000001,-9.731946056000002,2.0391028952,3.91800831,0.6873657099999999,-3.40665908,,,
imu,384.265241,0.06519865520000001,-9.7283571392,2.0331213672,3.87314685,0.86681155,-3.23469015,,,
imu,384.2738,0.08733030880000002,-9.7331423616,2.024747228,3.67874719,0.8817653699999997,-3.39918217,,,
imu,384.282359,0.1034804344,-9.746301723200002,2.0181675472,3.74603938,0.9041961000000001,-3.36927453,,,
imu,384.290918,0.1040785872,-9.7492924872,2.0020174216,3.60397809,0.8817653699999997,-3.6459202,,,
imu,384.299477,0.1172379488,-9.760059237600002,2.012784172,3.64136264,0.9565344699999998,-3.73564312,,,
imu,384.308036,0.1333880744,-9.744507264800001,2.0091952552,3.49930135,1.08364194,-3.73564312,,,
imu,384.316595,0.1567160336,-9.7492924872,2.0121860192,3.40210152,1.03878048,-3.84031986,,,
imu,384.325154,0.158510492,-9.7492924872,1.9996248104,3.17779422,1.00887284,-3.75807385,,,
imu,384.333531,0.158510492,-9.760059237600002,1.9960358936,3.05816366,1.03130357,-3.78798149,,,
imu,384.341908,0.1531271168,-9.751685098400001,2.0032137272,3.06564057,1.02382666,-3.6459202,,,
imu,384.350285,0.17944584,-9.727758986400001,1.9954377408,3.0880713,0.9191499199999997,-3.80293531,,,
imu,384.358662,0.173464312,-9.734936820000001,2.000821116,2.998348379999999,0.8219500899999996,-3.98238115,,,
imu,384.367039,0.170473548,-9.7301515976,1.9984285048,3.13293276,0.8369039099999998,-4.26650373,,,
imu,384.375416,0.1692772424,-9.714001472000001,1.9912506712,3.06564057,0.70231953,-4.6179185,,,
imu,384.383793,0.1842310624,-9.723571916800001,1.9876617544,3.140409669999999,0.5153967799999997,-4.78988743,,,
imu,384.39217,0.1776513816,-9.7265626808,1.9876617544,3.21517877,0.4256738599999998,-4.92447181,,,
imu,384.400547,0.1848292152,-9.7265626808,1.9810820736,3.04320984,0.2537049300000001,-5.23102512,,,
imu,384.408924,0.188418132,-9.727160833600001,1.97390424,3.05068675,-0.01546383000000029,-5.4403786,,,
imu,384.417302,0.1782495344,-9.7301515976,1.9786894624,3.21517877,-0.2995864100000003,-5.37308641,,,
imu,384.425679,0.1477437416,-9.737927584000001,1.9727079344,3.15536349,-0.3668786000000002,-5.07401001,,,
imu,384.434056,0.1244157824,-9.745703570400002,1.9661282536,3.22265568,-0.6061397200000003,-4.77493361,,,
imu,384.442433,0.1184342544,-9.76484446,1.9673245592,3.11797894,-0.68090882,-4.6179185,,,
imu,384.45081,0.1052748928,-9.7821908912,1.961941184,3.06564057,-0.68090882,-4.42351884,,,
imu,384.459187,0.07177833600000001,-9.765442612800001,1.9601467256,2.70674889,-0.76315483,-4.28893446,,,
imu,384.467564,0.05084298800000001,-9.7714241408,1.9667264064,2.54973378,-0.7930624700000002,-4.244073,,,
imu,384.475941,0.0370854736,-9.772620446400001,1.9475855168,2.22822665,-0.5837089900000003,-3.98238115,,,
imu,384.484318,0.0263187232,-9.7714241408,1.9553615032,1.91419643,-0.43417079,-3.92256587,,,
imu,384.492695,0.0065796808,-9.7612555432,1.9445947528,1.74970441,-0.31454023,-4.012288789999999,,,
imu,384.501072,-0.0023926112,-9.740918348000001,1.9428002944,1.63007385,-0.09770984000000027,-3.88518132,,,
imu,384.509449,-0.008374139200000002,-9.745105417600001,1.9368187664,1.73475059,0.2013665599999999,-3.81788913,,,
imu,384.517826,-0.01495382,-9.7492924872,1.9302390856,1.61512003,0.4481045899999998,-3.85527368,,,
imu,384.526204,-0.02871133440000001,-9.752283251200002,1.9254538632,1.56278166,0.5303505999999998,-3.81041222,,,
imu,384.534644,-0.0251224176,-9.768433376800001,1.9475855168,1.40576655,0.80699627,-3.90013514,,,
imu,384.543085,-0.0245242648,-9.751685098400001,1.9308372384,1.0693056,1.15841104,-3.90761205,,,
imu,384.551525,-0.0101685976,-9.752283251200002,1.9386132248,1.00949032,1.24813396,-3.98238115,,,
imu,384.559966,-0.004187069600000001,-9.7570684736,1.949978128,0.8973366700000001,1.46496435,-4.057150249999999,,,
imu,384.568407,0.0053833752,-9.724768222400002,1.946987364,0.91229049,1.71917929,-4.13191935,,,
imu,384.576847,0.009570444800000001,-9.7474980288,1.9547633504,0.7552753799999999,1.76404075,-4.20668845,,,
imu,384.585288,0.0203371952,-9.737927584000001,1.946987364,0.8524752099999999,1.99582496,-4.102011709999999,,,
imu,384.593729,0.0323002512,-9.734936820000001,1.946987364,0.8823828499999999,2.1005017,-4.034719519999999,,,
imu,384.602169,0.04246884880000001,-9.739123889600002,1.946987364,0.8823828499999999,2.19770153,-4.079580979999999,,,
imu,384.61061,0.04785222400000001,-9.716992236000001,1.9428002944,0.83004448,2.08554788,-4.16182699,,,
imu,384.619051,0.06998387760000001,-9.714001472000001,1.9607448784,0.9272443100000001,2.05564024,-4.21416536,,,
imu,384.627491,0.06400234960000001,-9.7301515976,1.9595485728,0.9048135799999999,2.03320951,-4.26650373,,,
imu,384.635932,0.06998387760000001,-9.744507264800001,1.9481836696,1.13659779,2.11545552,-4.17678081,,,
imu,384.644373,0.06220789120000001,-9.743909112,1.9643337952,0.9870595899999999,1.89114822,-4.13939626,,,
imu,384.652813,0.06998387760000001,-9.740918348000001,1.9631374896,0.82256757,1.65936401,-3.95995042,,,
imu,384.661254,0.0747691,-9.766638918400002,1.9625393368,0.80761375,1.61450255,-3.89265823,,,
imu,384.669695,0.08792846160000001,-9.776807516000002,1.9601467256,0.78518302,1.59207182,-3.80293531,,,
imu,384.678135,0.07177833600000001,-9.7474980288,1.9565578088,0.63564482,1.44253362,-3.77302767,,,
imu,384.686576,0.07118018320000001,-9.744507264800001,1.9643337952,0.3739529699999999,1.26308778,-3.66835093,,,
imu,384.695017,0.0741709472,-9.7570684736,1.9661282536,0.3739529699999999,1.15093413,-3.47395127,,,
imu,384.703457,0.07297464160000001,-9.7606573904,1.9631374896,0.26179932,1.2032725,-3.38422835,,,
imu,384.711898,0.05742266880000001,-9.7301515976,1.9422021416,0.09730729999999999,1.15841104,-3.43656672,,,
imu,384.720339,0.0526374464,-9.728955292000002,1.9571559616,0.05992275,1.15841104,-3.29450543,,,
imu,384.728779,0.0592171272,-9.717590388800001,1.955959656,0.04496892999999999,1.04625739,-3.3468438,,,
imu,384.737592,0.05383375200000001,-9.718786694400002,1.9481836696,0.11226112,1.06868812,-3.48890509,,,
imu,384.746405,0.0526374464,-9.7086180968,1.9655301008,0.13469185,1.10607267,-3.51881273,,,
imu,384.755218,0.03110394560000001,-9.7151977776,1.9786894624,0.16459949,0.9789651999999998,-3.44404363,,,
imu,384.764031,0.0233279592,-9.740918348000001,1.982876532,0.05992275,0.9939190199999999,-3.35432071,,,
imu,384.772844,0.002990764,-9.7403201952,1.9930451296,-0.05970781,1.15093413,-3.24216706,,,
imu,384.781657,0.0053833752,-9.722973764,2.0032137272,-0.07466163,1.41262598,-3.01785976,,,
imu,384.79047,0.004187069600000001,-9.7570684736,2.0163730888,-0.21672292,1.45001053,-3.02533667,,,
imu,384.799283,0.007177833600000002,-9.7845835024,2.0002229632,-0.47841477,1.68179474,-2.96552139,,,
imu,384.808096,0.0191408896,-9.743310959200002,1.9996248104,-0.5681376899999999,1.93600968,-2.98047521,,,
imu,384.816909,0.0143556672,-9.688280901600002,2.0145786304,-0.68776825,2.27247063,-2.92813684,,,
imu,384.825722,0.0101685976,-9.675121540000001,2.0265416864,-0.71019898,2.33228591,-3.00290594,,,
imu,384.834535,0.0185427368,-9.6745233872,2.0301306032,-0.62047606,2.3995781,-3.00290594,,,
imu,384.843347,0.0514411408,-9.675719692800001,2.0618327016,-0.48589168,2.56407012,-3.23469015,,,
imu,384.85216,0.0490485296,-9.702038416,2.0648234656,-0.44103022,2.64631613,-3.48890509,,,
imu,384.860973,0.05443190480000001,-9.787574266400002,2.036710284,-0.47841477,2.78837742,-3.74312003,,,
imu,384.869786,0.07895616960000001,-9.7995373224,2.0749920632,-0.65786061,2.72856214,-3.77302767,,,
imu,384.878599,0.08015247520000002,-9.758862932000001,2.0851606608,-0.82235263,2.86314652,-3.67582784,,,
imu,384.887412,0.09450814240000002,-9.793555794400001,2.0492714928,-0.91955246,2.9229618,-3.60105874,,,
imu,384.896225,0.1130508792,-9.755872168000002,2.072001299200001,-1.04665993,2.86314652,-3.25712088,,,
imu,384.905038,0.1309954632,-9.7504887928,2.0570474792,-1.06161375,2.82576197,-2.96552139,,,
imu,384.913851,0.1429585192,-9.768433376800001,2.0235509224,-1.0242292,2.65379304,-2.95056757,,,
imu,383.400238,,,,,,,55.75027160000001,-9.527750000000012,29.44988479999999
imu,383.501831,,,,,,,55.6037852,-9.332434800000012,29.9137584
imu,383.603393,,,,,,,55.9333796,-9.967209200000005,29.0592544
imu,383.704956,,,,,,,56.11648760000001,-9.674236400000002,29.12029039999999
imu,383.806518,,,,,,,58.28936920000001,-10.60198360000002,28.31461519999999
imu,383.908111,,,,,,,55.5671636,-9.930587600000006,29.7916864
imu,384.009613,,,,,,,58.31378360000001,-10.71184840000001,27.52114719999999
imu,384.111328,,,,,,,56.44608200000001,-9.369056400000009,29.9137584
imu,384.922664,0.146547436,-9.693066124000001,2.045682576,-0.90459864,2.35471664,-3.09262886,,,
imu,384.931477,0.1471455888,-9.617100718400001,2.0420936592,-0.8522602699999999,2.09302479,-3.32441307,,,
imu,384.940061,0.1441548248,-9.616502565600001,2.012784172,-0.55318387,1.77899457,-3.48142818,,,
imu,384.948646,0.1208268656,-9.592576453600001,2.012784172,-0.16438455,1.41262598,-3.6459202,,,
imu,384.95723,0.08493769760000001,-9.578220786400001,2.0151767832,-0.01484635000000001,1.29299542,-3.83284295,,,
imu,384.965814,0.0693857248,-9.571641105600001,2.013980477600001,0.53096808,1.25561087,-3.7206893,,,
imu,384.974399,0.0634041968,-9.6009505928,2.0235509224,0.9347212199999999,1.14345722,-3.86275059,,,
imu,384.982983,0.04725407120000001,-9.6075302736,2.0229527696,1.23379762,1.19579559,-3.93751969,,,
imu,384.991567,0.0263187232,-9.642223136000002,2.0235509224,1.64502767,1.30047233,-3.81041222,,,
imu,385.000152,0.004785222400000001,-9.635643455200002,2.031326908800001,1.6674584,1.53225654,-3.77302767,,,
imu,385.008736,0.0185427368,-9.6494009696,2.0355139784,1.92167334,1.82385603,-3.71321239,,,
imu,385.01732,0.0251224176,-9.654784344800001,2.009793408,1.99644244,2.22013226,-3.51133582,,,
imu,385.025905,0.0376836264,-9.669738164800002,2.0319250616,2.13102682,2.33976282,-3.67582784,,,
imu,385.034489,0.03947808480000001,-9.678710456800001,2.0438881176,2.3403803,2.51920866,-3.7954584,,,
imu,385.043073,0.0490485296,-9.700243957600001,2.0241490752,2.36281103,2.49677793,-3.8702275,,,
imu,385.051658,0.05802082160000001,-9.725964528,2.024747228,2.38524176,2.59397776,-3.88518132,,,
imu,385.060146,0.07716171120000001,-9.744507264800001,2.0379065896,2.25065738,2.66126995,-4.00481188,,,
imu,385.06873,0.09690075360000001,-9.773218599200002,2.045682576,2.15345755,2.66874686,-4.244073,,,
imu,385.077314,0.1064711984,-9.785779808000001,2.0414955064,1.8917657,2.54163939,-4.29641137,,,
imu,385.085899,0.09510629520000001,-9.7923594888,2.048673340000001,1.62259694,2.33228591,-4.32631901,,,
imu,385.094483,0.09390998960000001,-9.788172419200002,2.0420936592,1.34595127,2.14536316,-4.19173463,,,
imu,385.103067,0.1004896704,-9.782789044000001,2.057645632,1.09173633,2.01825569,-4.244073,,,
imu,385.111652,0.09690075360000001,-9.780396432800002,2.0558511736,1.09921324,1.86871749,-4.30388828,,,
imu,385.120236,0.0933118368,-9.7821908912,2.0504677984,0.88985976,1.56216418,-4.29641137,,,
imu,385.128821,0.09929336480000002,-9.766040765600001,2.048673340000001,0.7702292,1.39767216,-4.11696553,,,
imu,385.137405,0.08194693360000001,-9.751685098400001,2.0468788816,0.71789083,1.22570323,-4.20668845,,,
imu,385.145767,0.07297464160000001,-9.713403319200001,2.036710284,0.58330645,1.02382666,-4.28893446,,,
imu,385.154128,0.0562263632,-9.720581152800001,2.0468788816,0.47862971,0.9789651999999998,-4.3936112,,,
imu,385.16249,0.062806044,-9.723571916800001,2.0361121312,0.41133752,0.94905756,-4.41604193,,,
imu,385.170852,0.04605776560000001,-9.697851346400002,2.0361121312,0.50853735,0.7920424499999998,-4.64034923,,,
imu,385.179214,0.0376836264,-9.6637566368,2.0612345488,0.73284465,0.7172733499999997,-4.79736434,,,
imu,385.187576,0.0215335008,-9.664952942400001,2.06362716,0.8375213899999999,0.70231953,-4.83474889,,,
imu,385.195938,0.0053833752,-9.685290137600001,2.0492714928,1.08425942,0.66493498,-4.887087259999999,,,
imu,385.204299,-0.0101685976,-9.688280901600002,2.0504677984,1.17398234,0.7172733499999997,-4.49081103,,,
imu,385.212661,-0.0215335008,-9.681103068,2.0385047424,1.368382,0.80699627,-4.28893446,,,
imu,385.221023,-0.0215335008,-9.685290137600001,2.0528604096,1.41324346,1.00887284,-4.06462716,,,
imu,385.229385,-0.02990764000000001,-9.671532623200001,2.0462807288,1.52539711,1.25561087,-3.72816621,,,
imu,385.237747,-0.0532355992,-9.658373261600001,2.03371952,1.65998149,1.19579559,-3.67582784,,,
imu,385.246108,-0.0526374464,-9.6799067624,2.027737992,1.78708896,1.37524143,-3.69078166,,,
imu,385.25447,-0.0281131816,-9.661364025600001,2.0211583112,2.01139626,1.58459491,-3.7954584,,,
imu,385.262832,-0.04187069600000001,-9.699645804800001,2.0241490752,2.01887317,1.65936401,-3.89265823,,,
imu,385.271194,-0.04545961280000001,-9.715795930400002,2.0091952552,1.90671952,1.83133294,-4.0197657,,,
imu,385.279556,-0.05383375200000001,-9.663158484000002,2.0163730888,1.72727368,2.07059406,-3.91508896,,,
imu,385.287918,-0.06101158560000001,-9.634447149600001,2.0121860192,1.76465823,2.18274771,-3.67582784,,,
imu,385.296279,-0.05802082160000001,-9.644615747200001,2.00381188,2.04878081,2.31733209,-3.45899745,,,
imu,385.304641,-0.0562263632,-9.644615747200001,1.9756986984,2.1908421,2.48182411,-3.59358183,,,
imu,385.313003,-0.06101158560000001,-9.638634219200002,1.9846709904,2.4151494,2.66126995,-3.61601256,,,
imu,385.321365,-0.05981528000000001,-9.6326526912,1.9876617544,2.5646876,2.85566961,-3.47395127,,,
imu,385.329727,-0.04785222400000001,-9.6434194416,1.9924469768,2.47496468,2.89305416,-3.60105874,,,
imu,385.338088,-0.06101158560000001,-9.685888290400001,2.006802644,2.62450288,3.0725,-3.51881273,,,
imu,385.346555,-0.04845037680000001,-9.697851346400002,2.0085971024,2.6394567,3.1472691,-3.39918217,,,
imu,385.355021,-0.0502448352,-9.706225485600001,2.0199620056,2.43758013,3.36409949,-3.4216129,,,
imu,385.363487,-0.0442633072,-9.708019944000002,2.0109897136,2.49739541,3.57345297,-3.3468438,,,
imu,385.371953,-0.05084298800000001,-9.7403201952,2.012784172,2.31794957,3.7454219,-3.15244414,,,
imu,385.380419,-0.03349655680000001,-9.748096181600001,2.0181675472,2.0413039,3.95477538,-2.8982292,,,
imu,385.388885,-0.04187069600000001,-9.745703570400002,2.0032137272,1.8169966,4.216467229999999,-2.53186061,,,
imu,385.397351,-0.02871133440000001,-9.715795930400002,2.0121860192,1.53287402,4.25385178,-2.31503022,,,
imu,385.405817,-0.002990764,-9.717590388800001,1.9990266576,1.61512003,4.4183438,-2.12063056,,,
imu,385.414283,0.0143556672,-9.722375611200002,2.0050081856,1.63007385,4.530497449999999,-2.0757691,,,
imu,385.422749,0.0305057928,-9.748694334400001,2.0091952552,1.58521239,4.70246638,-1.94866163,,,
imu,385.431215,0.06519865520000001,-9.743909112,2.0187657,1.60764312,4.807143119999999,-1.88136944,,,
imu,385.439681,0.1064711984,-9.751685098400001,2.0205601584,1.61512003,4.85200458,-1.88136944,,,
imu,385.448148,0.1280046992,-9.773816752000002,2.006802644,1.45062801,4.91181986,-1.71687742,,,
imu,385.456614,0.1746606176,-9.749890640000002,2.0020174216,1.40576655,4.979112049999999,-1.52995467,,,
imu,385.46508,0.2087553272,-9.746899876,1.9960358936,1.47305874,4.96415823,-1.63463141,,,
imu,385.473546,0.2595983152,-9.7301515976,1.9876617544,1.47305874,4.84452767,-1.76173888,,,
imu,385.482012,0.275150288,-9.7325442088,1.9553615032,1.6674584,4.59778964,-1.89632326,,,
imu,385.490478,0.2877114968,-9.714001472000001,1.9661282536,1.87681188,4.27628251,-2.09819983,,,
imu,385.498944,0.305057928,-9.704431027200002,1.9625393368,2.07868845,4.194036499999999,-1.91875399,,,
imu,385.50741,0.3032634696000001,-9.718786694400002,1.95895042,2.32542648,4.171605769999999,-2.10567674,,,
imu,385.515876,0.3056560808,-9.743909112,1.9457910584,2.58711833,3.98468302,-2.30755331,,,
imu,385.524342,0.320011748,-9.743909112,1.9553615032,2.75161035,3.64822207,-2.86084465,,,
imu,385.532808,0.320011748,-9.739722042400002,1.9445947528,2.863764,3.47625314,-3.45152054,,,
imu,385.541274,0.3224043592,-9.746301723200002,1.9284446272,2.90114855,3.22951511,-3.92256587,,,
imu,385.549752,0.3098431504,-9.731347903200001,1.9332298496,2.91610237,2.97530017,-4.49828794,,,
imu,385.55823,0.2924967192,-9.728955292000002,1.9368187664,2.84881018,2.75099287,-5.01419473,,,
imu,385.566707,0.2673743016,-9.7193848472,1.9386132248,2.73665653,2.53416248,-5.57496298,,,
imu,385.575185,0.2470371064,-9.710412555200001,1.932033544,2.6394567,2.40705501,-5.829177919999999,,,
imu,385.583662,0.230288828,-9.711010708000002,1.935024308,2.54225687,2.30237827,-6.00114685,,,
imu,385.59214,0.203371952,-9.714599624800002,1.9541651976,2.27308811,2.1005017,-6.16563887,,,
imu,385.600617,0.188418132,-9.7492924872,1.95895042,2.16093446,2.12293243,-6.1880696,,,
imu,385.609095,0.1770532288,-9.776209363200001,1.9547633504,1.9665348,1.99582496,-6.337607799999999,,,
imu,385.617572,0.1429585192,-9.7750130576,1.9595485728,1.78708896,1.8014253,-6.42733072,,,
imu,385.62605,0.1004896704,-9.789966877600001,1.976895004,1.48801256,1.74161002,-6.38994617,,,
imu,385.634527,0.06160973840000001,-9.788172419200002,1.9703153232,1.17398234,1.71170238,-6.360038530000001,,,
imu,385.643005,0.03588916800000001,-9.805518850400002,1.9697171704,0.97210577,1.74161002,-6.30770016,,,
imu,385.651482,0.0011963056,-9.807313308800001,1.979885768,0.6954601,1.92105586,-6.17311578,,,
imu,385.65996,-0.020935348,-9.8168837536,1.9774931568,0.34404533,2.12293243,-5.95628539,,,
imu,385.668437,-0.06041343280000001,-9.825257892800002,2.0074007968,-0.14195382,2.31733209,-5.72450118,,,
imu,385.676915,-0.1268083936,-9.864137824800002,2.013980477600001,-0.62047606,2.49677793,-5.59739371,,,
imu,385.685392,-0.1321917688,-9.886269478400003,1.9894562128,-1.18872122,2.99025399,-5.37308641,,,
imu,385.69387,-0.1698753952,-9.890456548000001,1.9996248104,-1.76444329,3.47625314,-5.25345585,,,
imu,385.702348,-0.20935348,-9.842604324000002,2.006802644,-2.370073,4.07440594,-5.17120984,,,
imu,385.710825,-0.2296906752000001,-9.832435726400002,2.0115878664,-3.0429949,4.62022037,-5.24597894,,,
imu,385.719303,-0.242251884,-9.8683248944,2.0187657,-3.46170186,5.315573,-5.26840967,,,
imu,385.72778,-0.2823281216,-9.902419604000002,2.0169712416,-4.03742393,6.15298692,-5.37308641,,,
imu,384.212799,,,,,,,56.66581160000001,-9.735272400000007,28.0216424
imu,384.314361,,,,,,,56.07986600000001,-10.05265960000001,29.90155119999999
imu,384.415863,,,,,,,56.0554516,-10.05265960000001,30.1823168
imu,384.517425,,,,,,,56.2995956,-10.12590280000001,30.1701096
imu,384.619018,,,,,,,56.6780188,-9.869551600000005,30.47528959999999
imu,384.720581,,,,,,,57.117478,-10.4310828,30.1579024
imu,384.822113,,,,,,,56.6536044,-10.16252440000001,29.99920879999999
imu,384.923675,,,,,,,58.77765720000001,-11.40765880000001,28.9982184
imu,385.736258,-0.3164228312,-9.935318008000001,2.0558511736,-4.67296128,7.00535466,-5.61982444,,,
imu,385.744735,-0.3756399584,-9.998124052,2.1162646064,-5.30849863,7.91753768,-5.90394702,,,
imu,385.753528,-0.4384460024000001,-10.1398862656,2.1718928168,-6.2580662,8.97178199,-6.44976145,,,
imu,385.762321,-0.4833074624000001,-10.2278147272,2.1527519272,-7.59643309,10.36248725,-6.943237509999999,,,
imu,385.771114,-0.4964668240000001,-10.2619094368,2.1665094416,-9.31612239,11.77562324,-7.87785126,,,
imu,385.779907,-0.4898871432,-10.2565260616,2.2197450408,-11.29002663,13.52522018,-8.730219,,,
imu,385.7887,-0.5084298800000001,-10.3013875216,2.281952932,-13.31626924,15.11780201,-9.7769864,,,
imu,385.797493,-0.571235924,-10.4054661088,2.2717843344,-15.56681915,16.76272221,-10.8985229,,,
imu,385.806286,-0.6454068712000001,-10.4742536808,2.2915233768,-17.98186108,18.9235492,-11.84809047,,,
imu,385.81508,-0.6448087184,-10.4341774432,2.2705880288,-20.87542525,20.92736108,-13.23131882,,,
imu,385.823873,-0.6089195504,-10.3612028016,2.2735787928,-23.63440504,23.26763391,-14.62202408,,,
imu,385.832666,-0.6466031768,-10.3265099392,2.3381792952,-26.39338483,25.67519893,-16.29685192,,,
imu,385.841459,-0.6711274416,-10.2565260616,2.3609091016,-28.79347294,27.96313339,-17.56044971,,,
imu,385.850252,-0.6699311360000001,-10.1853458784,2.3339922256,-30.91691538,30.20620639,-18.71189385,,,
imu,385.859045,-0.6334438152,-9.959244120000001,2.3172439472,-32.86091198,32.56143304,-20.06521456,,,
imu,385.867838,-0.5257763112000001,-9.6326526912,2.2921215296,-34.20675578,34.81945986,-21.8895806,,,
imu,385.876631,-0.4151180432000001,-9.3652783896,2.3160476416,-34.55817055,36.56157989,-23.4597317,,,
imu,385.885424,-0.3295821928000001,-9.170280576800002,2.335786684,-33.97497157,37.96723897,-24.34948399,,,
imu,385.894217,-0.20935348,-9.021938682400002,2.3321977672,-32.41977429,39.00652946,-24.23733034,,,
imu,385.90301,-0.1058730456,-8.865222648800001,2.3190384056,-30.29633185,39.58225152999999,-24.07283832,,,
imu,385.911803,-0.05802082160000001,-8.775499728800002,2.3908167416,-27.52987515,39.72431281999999,-23.88591557,,,
imu,385.920596,-0.0011963056,-8.739610560800001,2.470371064,-24.73351081,39.37289805,-23.3101935,,,
imu,385.929389,0.0723764888,-8.743797630400001,2.52719558,-21.50348569,38.70745306,-22.1138879,,,
imu,385.938182,0.1124527264,-8.795836924000001,2.580431179200001,-18.2958913,37.75788549,-20.88019775,,,
imu,385.946975,0.1399677552,-8.847876217600001,2.6516113624,-15.55934224,36.37465714,-19.84838417,,,
imu,385.955454,0.1579123392,-8.879578316000002,2.7287730736,-13.05457739,34.84189059,-18.68946312,,,
imu,385.963933,0.1872218264,-8.948964040800002,2.801747715200001,-10.56476636,33.30912404,-17.18660421,,,
imu,385.972412,0.2237091472,-9.018349765600002,2.814308924,-8.49366229,31.58195783,-15.73608367,,,
imu,385.98089,0.2853188856,-9.0057885568,2.889676176800001,-6.355266029999999,29.49589994,-14.24070167,,,
imu,385.989369,0.2835244272,-9.062613072800001,2.9213782752,-4.44865398,27.20796548,-13.13411899,,,
imu,385.997848,0.3008708584000001,-9.150541534400002,2.945304387200001,-2.8186876,24.98732321,-12.03501322,,,
imu,386.006327,0.2883096496000001,-9.214543884000001,2.9644452768,-1.44293616,22.72181948,-11.01067655,,,
imu,386.014806,0.2667761488000001,-9.279144386400002,3.0093067368,-0.25410747,20.38154665,-10.02372443,,,
imu,386.023284,0.2231109944,-9.329987374400002,3.024260556800001,0.5982602699999999,17.98893545,-9.201264329999999,,,
imu,386.031763,0.1991848824,-9.382026668000002,3.0122975008,1.15902852,15.7084779,-8.78255737,,,
imu,386.040242,0.1620994088,-9.425691822400001,3.003325208800001,1.83942733,13.72709675,-8.326465859999999,,,
imu,386.048721,0.1148453376,-9.4633754488,3.0164845704,2.12354991,11.71580796,-7.975051089999999,,,
imu,386.0572,0.0855358504,-9.5010590752,3.0122975008,2.39271867,9.85405737,-7.601205589999999,,,
imu,386.065678,0.07716171120000001,-9.5172092008,3.003325208800001,2.43010322,8.074552789999998,-7.28717537,,,
imu,386.074157,0.04605776560000001,-9.530368562400001,2.972819416000001,2.62450288,6.4371095,-6.80117622,,,
imu,386.082636,0.0185427368,-9.5381445488,2.968632346400001,2.66936434,5.00901969,-6.51705364,,,
imu,386.091115,-0.003588916800000001,-9.545322382400002,2.94590254,2.87871782,3.45382241,-6.16563887,,,
imu,386.099594,-0.0592171272,-9.5291722568,2.9470988456,2.90862546,1.90610204,-5.64225517,,,
imu,386.108072,-0.0933118368,-9.507638756,2.9560711376,2.97591765,0.6499811599999998,-4.94690254,,,
imu,386.116551,-0.1357806856,-9.456795768000001,2.9500896096,3.140409669999999,-0.4865091600000002,-4.079580979999999,,,
imu,386.12503,-0.1668846312,-9.460982837600001,2.94590254,3.24508641,-1.68281476,-3.33936689,,,
imu,386.133509,-0.2111479384,-9.437654878400002,2.9363320952,3.47687062,-2.57256705,-2.19539966,,,
imu,386.141988,-0.251224176,-9.4077472384,2.921976428000001,3.75351629,-3.35016569,-1.29817046,,,
imu,386.150373,-0.2757484408,-9.409541696800002,2.9207801224,4.06754651,-4.09037978,-0.57291019,,,
imu,386.15884,-0.2978800944000001,-9.4041583216,2.9159949,4.42643819,-4.88293224,-0.1317724999999998,,,
imu,386.167307,-0.3331711096,-9.420906600000002,2.9255653448,4.9572988,-5.451177400000001,0.2271191799999999,,,
imu,386.175774,-0.3696584304000001,-9.435262267200002,2.9088170664,5.23394447,-5.78763835,0.5934877699999999,,,
imu,386.18424,-0.3983697648000001,-9.4699551296,2.8944613992,5.29375975,-6.056807109999999,0.5934877699999999,,,
imu,386.192707,-0.442633072,-9.492684936000002,2.8848909544,5.46572868,-6.25120677,0.5710570399999999,,,
imu,386.201174,-0.4821111568000001,-9.492086783200001,2.8813020376,5.56292851,-6.00446874,0.52619558,,,
imu,386.209641,-0.4857000736000001,-9.463973601600001,2.880105732000001,5.54797469,-5.795115259999999,0.3467497399999999,,,
imu,386.218107,-0.4976631296000001,-9.4490197816,2.87113344,5.68255907,-5.443700489999999,0.1149655300000001,,,
imu,386.226574,-0.4851019208000001,-9.4801237272,2.8729278984,5.7797589,-4.81564005,-0.05700339999999993,,,
imu,386.235041,-0.481513004,-9.511227672800002,2.8723297456,6.12369676,-4.29973326,-0.1691570499999999,,,
imu,386.243508,-0.451605364,-9.529770409600001,2.866348217600001,6.1536044,-3.9557954,-0.2738337899999999,,,
imu,386.251975,-0.4055475984,-9.554294674400001,2.8615629952,6.21341968,-3.52961153,-0.6177716499999999,,,
imu,386.260441,-0.3887993200000001,-9.520798117600002,2.8633574536,6.24332732,-3.37259642,-0.8719865899999999,,,
imu,386.268908,-0.3738455000000001,-9.496872005600002,2.8633574536,6.46015771,-3.1333353,-1.4028472,,,
imu,386.277375,-0.3307784984000001,-9.506442450400002,2.829262744000001,6.71437265,-2.96136637,-1.60472377,,,
imu,386.285842,-0.2924967192,-9.530966715200002,2.7861957424,6.98354141,-2.97632019,-1.41032411,,,
imu,386.294309,-0.2434481896,-9.554294674400001,2.7855975896,7.09569506,-3.00622783,-1.19349372,,,
imu,386.302775,-0.2105497856,-9.535153784800002,2.7975606456,7.25271017,-3.24548895,-1.02152479,,,
imu,386.311242,-0.1770532288,-9.554892827200002,2.7897846592,7.33495618,-3.40250406,-0.7299252999999999,,,
imu,386.319709,-0.1531271168,-9.6218859408,2.7742326864,7.21532562,-4.12776433,-0.7523560299999998,,,
imu,386.328176,-0.182436604,-9.639830524800002,2.7550917968,7.0508336,-4.65862494,-0.6775869299999999,,,
imu,386.336643,-0.2015774936,-9.6434194416,2.7359509072,6.99849523,-4.97265516,-0.51309491,,,
imu,386.345109,-0.2051664104,-9.625474857600002,2.7287730736,6.68446501,-5.24182392,-0.26635688,,,
imu,386.353576,-0.203371952,-9.602146898400001,2.717408170400001,6.34800406,-5.555854139999999,-0.2214954199999999,,,
imu,386.362043,-0.2147368552,-9.638036066400002,2.6761356272,6.36295788,-5.884838179999999,-0.2289723299999999,,,
imu,386.370492,-0.2165313136,-9.6637566368,2.6504150568,6.13865058,-6.20634531,-0.3635567099999999,,,
imu,386.378942,-0.2350740504,-9.6296619272,2.6546021264,5.90686637,-6.44560643,-0.55047946,,,
imu,386.387391,-0.263187232,-9.5985579816,2.6635744184,5.76480508,-6.39326806,-0.4233719899999999,,,
imu,386.395841,-0.2697669128,-9.5985579816,2.6492187512,5.7797589,-6.43812952,-0.3336490699999999,,,
imu,386.40429,-0.2530186344000001,-9.599754287200001,2.6240963336,5.73489744,-6.41569879,-0.2214954199999999,,,
imu,386.412739,-0.2530186344000001,-9.595567217600001,2.613329583200001,5.73489744,-6.2736375,-0.2738337899999999,,,
imu,386.421189,-0.260196468,-9.571641105600001,2.6055535968,5.76480508,-6.24372986,-0.29626452,,,
imu,386.429638,-0.266177996,-9.569248494400002,2.601366527200001,5.79471272,-6.17643767,-0.31869525,,,
imu,386.438088,-0.281131816,-9.540537160000001,2.5864127072,6.04892766,-6.034376379999999,-0.3037414299999999,,,
imu,386.446537,-0.2889078024000001,-9.530368562400001,2.560093984,6.38538861,-5.996991830000001,-0.3336490699999999,,,
imu,386.454986,-0.2924967192,-9.526779645600001,2.554112456,6.7517572,-5.70539234,-0.2514030599999999,,,
imu,386.463436,-0.2679724544000001,-9.51062952,2.552916150400001,7.01344905,-5.57080796,-0.28878761,,,
imu,386.471885,-0.2506260232,-9.478927421600002,2.548729080800001,7.37981764,-5.339023750000001,-0.1691570499999999,,,
imu,386.480334,-0.2129423968,-9.481320032800001,2.524204816,7.910678249999999,-5.122193360000001,-0.01961884999999985,,,
imu,386.488784,-0.20935348,-9.471151435200001,2.525401121600001,8.344339029999999,-5.054901170000001,-0.11681868,,,
imu,386.497233,-0.1662864784,-9.4460290176,2.5158306768,8.912584189999999,-4.987608979999999,0.1747808100000001,,,
imu,386.505683,-0.128602852,-9.419710294400002,2.4936990232,9.57802918,-4.92031679,0.5411494000000001,,,
imu,386.514132,-0.0903210728,-9.417915836,2.4709692168,10.24347417,-5.032470440000001,0.6607799600000002,,,
imu,386.522581,-0.05203929360000001,-9.393989724,2.4542209384,11.11079573,-5.3016392,0.6981645100000002,,,
imu,386.531031,-0.0221316536,-9.393989724,2.45242648,12.11270167,-5.795115259999999,0.64582614,,,
imu,386.53948,-0.003588916800000001,-9.426888128000002,2.4476412576,12.90525413,-6.453083339999999,0.4589033900000001,,,
imu,386.54793,0.01495382,-9.4071490856,2.40756502,14.04922136,-7.01385159,0.3990881100000001,,,
imu,385.025164,,,,,,,56.37283880000001,-10.30901080000002,30.80488399999999
imu,385.126727,,,,,,,58.7898644,-11.22455080000002,27.7042552
imu,385.228289,,,,,,,56.3606316,-10.07707400000002,30.5363256
imu,385.330004,,,,,,,56.58036120000001,-10.26018200000001,27.96060639999999
imu,385.431384,,,,,,,55.98220840000001,-10.55315480000001,30.30438879999999
imu,385.53319,,,,,,,56.56815400000001,-9.942794800000021,30.2189384
imu,385.634509,,,,,,,56.32401,-10.11369560000002,30.4142536
imu,385.736071,,,,,,,56.25076680000001,-10.74847000000001,30.1701096
imu,386.556379,0.023926112,-9.404756474400001,2.3944056584,14.86420455,-7.701727310000001,0.38413429,,,
imu,386.564853,0.03588916800000001,-9.394587876800001,2.389620436,15.86611049,-8.2924032,0.50376485,,,
imu,386.573326,0.04545961280000001,-9.4137287664,2.3944056584,16.64370913,-9.21206313,0.4514264799999999,,,
imu,386.5818,0.04785222400000001,-9.510031367200002,2.4069668672,17.22690811,-10.1616307,0.1149655300000001,,,
imu,386.590274,0.0185427368,-9.597361676,2.3938075056,17.84001473,-11.05138299,-0.17663396,,,
imu,386.598748,-0.0215335008,-9.672130776000001,2.3782555328,18.05684512,-12.01590438,-0.4233719899999999,,,
imu,386.607221,-0.06579680800000001,-9.714001472000001,2.362105407200001,17.92973765,-12.76359538,-0.7074945699999999,,,
imu,386.615695,-0.1208268656,-9.709814402400001,2.3064771968,17.86992237,-13.30940981,-0.6402023799999998,,,
imu,386.624169,-0.158510492,-9.717590388800001,2.2568305144,17.78019945,-13.73559368,-0.68506384,,,
imu,386.632642,-0.1860255208,-9.714001472000001,2.231109944,17.63066125,-14.02719317,-0.6177716499999999,,,
imu,386.641116,-0.2458408008,-9.7086180968,2.2047912208,17.52598451,-14.01971626,-0.79721749,,,
imu,386.64959,-0.2984782472,-9.731347903200001,2.1677057472,17.53346142,-13.83279351,-0.7523560299999998,,,
imu,386.658064,-0.3475267768,-9.7606573904,2.1425833296,17.57832288,-13.57110166,-0.5579563699999999,,,
imu,386.666537,-0.3714528888,-9.803724392000001,2.1210498288,17.50355378,-12.94304122,-0.40094126,,,
imu,386.675011,-0.4169125016,-9.8719138112,2.0953292584,17.15961592,-12.37479606,-0.3560797999999998,,,
imu,386.683485,-0.4605776560000001,-9.9335235496,2.0839643552,16.56894003,-11.62710506,-0.37851053,,,
imu,386.691958,-0.4839056152000001,-9.934121702400002,2.0935348,15.7240492,-10.58033766,-0.54300255,,,
imu,386.700432,-0.5120187968000001,-9.964029342400002,2.0899458832,14.89411219,-9.428893519999999,-0.76730985,,,
imu,386.708906,-0.5335522976000001,-10.0106852608,2.0767865216,13.69780659,-8.18024955,-1.23087827,,,
imu,386.71738,-0.5479079648000001,-10.051957804,2.0379065896,12.55383936,-6.916651760000001,-1.58229304,,,
imu,386.725853,-0.5215892416000001,-10.0734913048,2.0181675472,11.33510303,-5.3764083,-1.93370781,,,
imu,386.734327,-0.5042428104000001,-10.0513596512,1.9816802264,10.01916687,-3.89598012,-2.38979932,,,
imu,386.742801,-0.4976631296000001,-10.0441818176,1.9924469768,8.65836925,-2.59499778,-2.81598319,,,
imu,386.751274,-0.4707462536000001,-10.0166667888,1.9254538632,7.45458674,-1.33139999,-3.1225365,,,
imu,386.759748,-0.4402404608,-9.9724034816,1.8985369872,6.37043479,-0.06780220000000003,-3.57862801,,,
imu,386.768568,-0.4282774048000001,-9.934719855200001,1.8704238056,5.39843649,1.03130357,-4.00481188,,,
imu,386.777387,-0.3816214864,-9.893447312000001,1.8405161656,4.658222400000001,1.86124058,-4.408565019999999,,,
imu,386.786207,-0.3373581792000001,-9.8479876992,1.8177863592,4.089977240000001,2.72856214,-4.82727198,,,
imu,386.795026,-0.2948893304,-9.822267128800002,1.7848879552,3.81333157,3.21456129,-5.12634838,,,
imu,386.803846,-0.266177996,-9.8049206976,1.7681396768,3.52920899,3.72299117,-5.216071299999999,,,
imu,386.812666,-0.2308869808,-9.786976113600002,1.7561766208,3.49182444,4.1192674,-5.02914855,,,
imu,386.821485,-0.1961941184,-9.765442612800001,1.7430172592,3.42453225,4.32862088,-4.96185636,,,
imu,386.830305,-0.1758569232,-9.749890640000002,1.7328486616,3.3123786,4.33609779,-4.692687599999999,,,
imu,386.839124,-0.158510492,-9.7301515976,1.7472043288,3.41705534,4.29123633,-4.55810322,,,
imu,386.847944,-0.1447529776,-9.718786694400002,1.752587704,3.41705534,4.0444983,-4.124442439999999,,,
imu,386.856764,-0.122621324,-9.742114653600002,1.7472043288,3.44696298,3.88748319,-3.82536604,,,
imu,386.865583,-0.1142471848,-9.7427128064,1.7418209536,3.60397809,3.61083752,-3.48890509,,,
imu,386.874403,-0.113649032,-9.7576666264,1.7364375784,3.29742478,3.02763854,-3.36179762,,,
imu,386.883222,-0.116639796,-9.746301723200002,1.7304560504,3.22265568,2.60893158,-3.09262886,,,
imu,386.892042,-0.1178361016,-9.748694334400001,1.7412228008,3.1628404,2.14536316,-2.85336774,,,
imu,386.900861,-0.1208268656,-9.745703570400002,1.7280634392,3.140409669999999,1.7266562,-2.65896808,,,
imu,386.909681,-0.113649032,-9.7504887928,1.7143059248,3.2376095,1.32290306,-2.60662971,,,
imu,386.918501,-0.13458438,-9.762451848800001,1.7178948416,3.30490169,1.06121121,-2.56176825,,,
imu,386.92732,-0.1507345056,-9.7845835024,1.7089225496,3.24508641,0.7397040799999997,-2.39727623,,,
imu,386.93614,-0.1722680064,-9.8049206976,1.725670828,3.32733242,0.5378275100000001,-2.16549202,,,
imu,386.944959,-0.1860255208,-9.824659740000001,1.746606176,3.25256332,0.4032431299999999,-2.01595382,,,
imu,386.953779,-0.1991848824,-9.864137824800002,1.7729248992,2.90114855,0.3509047599999997,-1.86641562,,,
imu,386.962598,-0.1967922712,-9.899428840000002,1.7789064272,2.4899185,0.29856639,-2.05333837,,,
imu,386.971121,-0.1908107432,-9.911990048800002,1.7693359824,1.87681188,0.3284740299999998,-2.19539966,,,
imu,386.979643,-0.197390424,-9.896438076,1.7729248992,1.57025857,0.3658585799999998,-2.20287657,,,
imu,386.988165,-0.2075590216,-9.8581562968,1.788476872,1.02444414,0.6350273399999997,-2.06829219,,,
imu,386.996687,-0.20935348,-9.8270523512,1.7830934968,0.56087572,0.6798887999999996,-1.96361545,,,
imu,387.005209,-0.1967922712,-9.803724392000001,1.7747193576,0.22441477,0.7322271699999998,-2.05333837,,,
imu,387.013731,-0.1818384512,-9.800733628000001,1.7807008856,-0.007369440000000005,0.6574580699999997,-2.24773803,,,
imu,387.022253,-0.1902125904,-9.8043225448,1.7860842608,-0.08961545,0.6724118899999998,-2.38232241,,,
imu,387.030775,-0.1842310624,-9.8043225448,1.7848879552,-0.28401511,0.5752120599999997,-2.41223005,,,
imu,387.039297,-0.1668846312,-9.810902225600001,1.7890750248,-0.38869185,0.4331507699999997,-2.42718387,,,
imu,387.047819,-0.1632957144,-9.802528086400002,1.7860842608,-0.35878421,0.4256738599999998,-2.3748455,,,
imu,387.056341,-0.1680809368,-9.7953502528,1.7950565528,-0.39616876,0.4107200399999997,-2.26269185,,,
imu,387.064863,-0.1453511304,-9.7995373224,1.8022343864,-0.38869185,0.4331507699999997,-1.88884635,,,
imu,387.073385,-0.1429585192,-9.812098531200002,1.7890750248,-0.47093786,0.3135202100000001,-1.57481613,,,
imu,387.081907,-0.1112564208,-9.802528086400002,1.7944584,-0.58309151,0.1864127399999997,-1.49257012,,,
imu,387.090429,-0.080750628,-9.7612555432,1.7962528584,-0.81487572,-0.03041764999999996,-1.58976995,,,
imu,387.098951,-0.0693857248,-9.735534972800002,1.8052251504,-0.85973718,-0.1126636599999999,-1.32060119,,,
imu,387.107473,-0.080750628,-9.710412555200001,1.8130011368,-0.9494601,-0.39678624,-1.32060119,,,
imu,387.115995,-0.07895616960000001,-9.688879054400001,1.8106085256,-1.04665993,-0.6883857300000003,-1.36546265,,,
imu,387.124517,-0.08314323920000001,-9.694860582400002,1.8189826648,-1.07656757,-0.9276468500000004,-1.35798574,,,
imu,387.133039,-0.08493769760000001,-9.711010708000002,1.8147955952,-0.97189083,-1.12204651,-1.23835518,,,
imu,387.141561,-0.07118018320000001,-9.676317845600002,1.821375276,-1.00179847,-1.27158471,-1.17106299,,,
imu,387.150083,-0.0490485296,-9.662560331200002,1.8255623456,-0.92702937,-1.59309184,-1.31312428,,,
imu,387.158605,-0.05562821040000001,-9.6733270816,1.8231697344,-0.60552224,-1.74263004,-1.20097063,,,
imu,387.167127,-0.06220789120000001,-9.672728928800002,1.8261604984,-0.33635348,-1.92955279,-1.17106299,,,
imu,387.17554,-0.0741709472,-9.672130776000001,1.8291512624,-0.06718472,-2.14638318,-1.30564737,,,
imu,387.183953,-0.07775986400000001,-9.669140012000002,1.8279549568,0.32909151,-2.10899863,-1.21592445,,,
imu,387.192365,-0.0861340032,-9.682299373600001,1.8417124712,0.55339881,-2.13142936,-1.17106299,,,
imu,387.200778,-0.08433954480000001,-9.699047652,1.845301388,0.83004448,-2.11647554,-1.08881698,,,
imu,387.209191,-0.09510629520000001,-9.719983000000001,1.8518810688,1.18145925,-2.00432189,-0.8645096799999998,,,
imu,387.217603,-0.1004896704,-9.725366375200002,1.8435069296,1.35342818,-1.9370297,-0.63272547,,,
imu,387.226016,-0.09211553120000002,-9.740918348000001,1.8524792216,1.46558183,-1.712722400000001,-0.5579563699999999,,,
imu,387.234429,-0.08792846160000001,-9.759461084800002,1.8656385832,1.45062801,-1.51832274,-0.5056179999999999,,,
imu,385.837634,,,,,,,56.11648760000001,-10.40666840000002,30.0602448
imu,385.939227,,,,,,,54.7126596,-10.01603800000002,29.49871359999999
imu,386.040759,,,,,,,51.0016708,-9.942794800000021,26.5201568
imu,386.142321,,,,,,,53.15013800000001,-10.93157800000002,23.9200232
imu,386.243914,,,,,,,51.44113000000002,-9.906173200000023,26.959616
imu,386.352191,,,,,,,52.03928280000001,-10.37004680000002,25.6046168
imu,386.447009,,,,,,,52.3200484,-10.17473160000002,27.17934559999999
imu,386.548693,,,,,,,52.46653480000001,-10.47991160000001,27.5455616
imu,387.242756,-0.07716171120000001,-9.767237071200002,1.8793960976,1.54035093,-1.31644617,-0.4757103599999999,,,
imu,387.251168,-0.0735727944,-9.770825988000002,1.8656385832,1.5179202,-1.1893387,-0.46075654,,,
imu,387.259581,-0.0735727944,-9.764246307200002,1.8614515136,1.42072037,-1.04727741,-0.54300255,,,
imu,387.267994,-0.0532355992,-9.758862932000001,1.8650404304,1.24127453,-0.8080162900000003,-0.6551562,,,
imu,387.276406,-0.0550300576,-9.743310959200002,1.8608533608,1.05435178,-0.6883857300000003,-0.93927878,,,
imu,387.284819,-0.04486146000000001,-9.731347903200001,1.866236736,1.24875144,-0.4939860700000001,-1.02152479,,,
imu,387.293232,-0.03110394560000001,-9.725964528,1.8399180128,1.34595127,-0.3220171400000003,-1.15610917,,,
imu,387.301644,-0.0155519728,-9.6942624296,1.8506847632,1.39081273,-0.17247894,-1.29817046,,,
imu,387.310057,-0.0017944584,-9.684093832000002,1.8668348888,1.67493531,-0.09023292999999999,-1.58229304,,,
imu,387.31847,0.0065796808,-9.715795930400002,1.8590589024,1.80204278,-0.20986349,-1.9262309,,,
imu,387.326882,0.0173464312,-9.745105417600001,1.8680311944,1.76465823,-0.2622018600000002,-2.32998404,,,
imu,387.335295,0.03588916800000001,-9.772620446400001,1.866236736,1.67493531,-0.3369709599999999,-2.65149117,,,
imu,387.343708,0.0376836264,-9.737927584000001,1.8764053336,1.60016621,-0.4715553400000001,-2.90570611,,,
imu,387.35212,0.0526374464,-9.7361331256,1.8638441248,1.56278166,-0.6734319100000001,-3.2720747,,,
imu,387.360533,0.05383375200000001,-9.7325442088,1.8740127224,1.58521239,-0.7332471900000002,-3.33188998,,,
imu,387.368946,0.06041343280000001,-9.7217774584,1.8620496664,1.62259694,-0.7033395499999999,-3.27955161,,,
imu,387.377477,0.05383375200000001,-9.731946056000002,1.8524792216,1.8169966,-0.8902623000000003,-3.21973633,,,
imu,387.386008,0.0562263632,-9.714599624800002,1.83931986,1.94410407,-1.02484668,-3.20478251,,,
imu,387.394539,0.0753672528,-9.706823638400001,1.8375254016,2.03382699,-1.24915398,-3.21225942,,,
imu,387.403069,0.06579680800000001,-9.709814402400001,1.8339364848,2.37028794,-1.42112291,-3.10758268,,,
imu,387.4116,0.06699311360000001,-9.722973764,1.8405161656,2.407672489999999,-1.69776858,-3.28702852,,,
imu,387.420131,0.0502448352,-9.7283571392,1.8345346376,2.39271867,-1.98189116,-3.48142818,,,
imu,387.428662,0.0490485296,-9.713403319200001,1.8225715816,2.46001086,-2.33330593,-3.59358183,,,
imu,387.437193,0.03588916800000001,-9.7265626808,1.8315438736,2.49739541,-2.60247469,-3.70573548,,,
imu,387.445724,0.0370854736,-9.727160833600001,1.8297494152,2.51234923,-2.87164345,-3.77302767,,,
imu,387.454255,0.0137575144,-9.737329431200001,1.8297494152,2.4151494,-3.21558131,-3.80293531,,,
imu,387.462786,-0.004187069600000001,-9.756470320800002,1.8237678872,2.43758013,-3.38007333,-3.65339711,,,
imu,387.471317,-0.0215335008,-9.754675862400001,1.8291512624,2.57216451,-3.36511951,-3.45152054,,,
imu,387.479848,-0.04187069600000001,-9.785181655200002,1.8201789704,2.58711833,-3.41745788,-3.33936689,,,
imu,387.488379,-0.0747691,-9.797144711200001,1.8100103728,2.51982614,-3.5071808,-3.05524431,,,
imu,387.49691,-0.08314323920000001,-9.7809945856,1.821375276,2.3403803,-3.46231934,-2.91318302,,,
imu,387.505441,-0.092713684,-9.779798280000001,1.8147955952,2.14598064,-3.42493479,-2.83093701,,,
imu,387.513972,-0.1178361016,-9.783985349600002,1.8141974424,2.15345755,-3.25296586,-2.75616791,,,
imu,387.522503,-0.1274065464,-9.7780038216,1.8171882064,2.0413039,-2.9837971,-2.60662971,,,
imu,387.531033,-0.1309954632,-9.7612555432,1.8070196088,1.98148862,-2.86416654,-2.45709151,,,
imu,387.539564,-0.1381732968,-9.769031529600001,1.797449164,1.78708896,-2.63985924,-2.49447606,,,
imu,387.548095,-0.1447529776,-9.758862932000001,1.8046269976,1.77213514,-2.35573666,-2.47204533,,,
imu,387.556626,-0.13458438,-9.766638918400002,1.8171882064,1.63007385,-2.18376773,-2.53186061,,,
imu,387.565157,-0.13458438,-9.786976113600002,1.8249641928,1.50296638,-1.88469133,-2.56176825,,,
imu,387.573688,-0.1274065464,-9.782789044000001,1.8171882064,1.45810492,-1.5631842,-2.75616791,,,
imu,387.582092,-0.1321917688,-9.785181655200002,1.8159919008,1.39828964,-1.24167707,-2.8234601,,,
imu,387.590496,-0.1303973104,-9.782789044000001,1.8189826648,1.16650543,-0.8304470200000003,-2.83841392,,,
imu,387.598899,-0.1178361016,-9.787574266400002,1.8219734288,1.07678251,-0.4790322499999999,-2.80850628,,,
imu,387.607303,-0.1250139352,-9.785779808000001,1.8207771232,0.8973366700000001,-0.3220171400000003,-3.0477674,,,
imu,387.615707,-0.1010878232,-9.777405668800002,1.8261604984,0.82256757,0.1415512799999998,-3.15992105,,,
imu,387.624111,-0.09211553120000002,-9.746301723200002,1.8159919008,0.6281679099999999,0.35838167,-3.1973056,,,
imu,387.632515,-0.08912476720000001,-9.737927584000001,1.7998417752,0.76275229,0.64250425,-3.27955161,,,
imu,387.640918,-0.0735727944,-9.7427128064,1.8022343864,0.7552753799999999,0.86681155,-3.39918217,,,
imu,387.649322,-0.068787572,-9.734936820000001,1.8040288448,0.71789083,1.02382666,-3.50385891,,,
imu,387.657726,-0.06579680800000001,-9.734338667200001,1.8010380808,0.7403215599999999,1.29299542,-3.57862801,,,
imu,387.66613,-0.0634041968,-9.755872168000002,1.8046269976,0.8524752099999999,1.36028761,-3.59358183,,,
imu,387.674533,-0.05861897440000001,-9.755872168000002,1.8088140672,0.83004448,1.59207182,-3.53376655,,,
imu,387.682937,-0.06160973840000001,-9.7576666264,1.815393748,0.78518302,1.53225654,-3.51133582,,,
imu,387.691341,-0.0352910152,-9.746899876,1.7890750248,0.68050628,1.66684092,-3.72816621,,,
imu,387.699745,-0.0430670016,-9.7612555432,1.8058233032,0.5982602699999999,1.65936401,-3.6459202,,,
imu,387.708149,-0.04605776560000001,-9.769031529600001,1.80941222,0.7253677399999999,1.8014253,-3.41413599,,,
imu,387.716552,-0.05443190480000001,-9.7612555432,1.8100103728,0.56087572,1.82385603,-3.51133582,,,
imu,387.724956,-0.05443190480000001,-9.779798280000001,1.7938602472,0.4711528,1.92853277,-3.40665908,,,
imu,387.73336,-0.06220789120000001,-9.764246307200002,1.7986454696,0.56087572,2.04068642,-3.24216706,,,
imu,386.650038,,,,,,,53.58959720000001,-11.54193800000001,28.4000656
imu,386.751631,,,,,,,54.4807228,-11.57855960000001,29.62078559999999
imu,386.853163,,,,,,,54.1511284,-11.87153240000001,29.3278128
imu,386.954756,,,,,,,54.30982200000001,-11.41986600000002,28.71745279999999
imu,387.056319,,,,,,,56.56815400000001,-12.61617160000002,28.43668719999999
imu,387.157851,,,,,,,54.46851560000001,-11.59076680000002,30.03583039999999
imu,387.259413,,,,,,,57.42265800000001,-12.4330636,27.25258879999999
imu,387.360976,,,,,,,54.82252439999999,-11.41986600000002,30.35321759999999
imu,387.462538,,,,,,,54.90797480000001,-11.34662280000001,28.0704712
imu,387.564131,,,,,,,55.64040679999999,-11.55414520000002,30.64619039999999
imu,387.665694,,,,,,,55.65261400000001,-12.06684760000001,30.04803759999999
