Type,Timestamp,Data Accelerometer X,Data Accelerometer Y,Data Accelerometer Z,Data Gyroscope X,Data Gyroscope Y,Data Gyroscope Z,Data Magnetometer X,Data Magnetometer Y,Data Magnetometer Z
imu,52.61302,-0.3182172896000001,-9.505844297600001,3.1038148792,6.06388148,11.33448555,1.29631731,,,
imu,52.62191,-0.3499193880000001,-9.4286825864,3.0972351984,5.7797589,12.50836042,1.00471782,,,
imu,52.6308,-0.3684621248000001,-9.3204169296,3.0972351984,5.58535924,13.60746619,0.2046884499999999,,,
imu,52.639689,-0.3553027632,-9.273162858400001,3.0936462816,5.95920474,14.84863325,-0.7523560299999998,,,
imu,52.648579,-0.3313766512,-9.328192916,3.0912536704,6.25080423,15.97016975,-1.76173888,,,
imu,52.657469,-0.3122357616,-9.412532460800001,3.0906555176,6.63212664,16.97207569,-2.74121409,,,
imu,52.666359,-0.2865151912,-9.440047489600001,3.108001948800001,6.77418793,17.89921253,-3.47395127,,,
imu,52.675249,-0.2853188856,-9.441841948000002,3.146881880800001,6.9012954,18.86373392,-4.079580979999999,,,
imu,52.684139,-0.2703650656,-9.455001309600002,3.096038892800001,6.81157248,19.81330149,-4.318842099999999,,,
imu,52.693029,-0.2326814392,-9.435860420000001,3.033831001600001,6.9760645,20.80773052,-4.146873169999999,,,
imu,52.701919,-0.203371952,-9.4005694048,2.910013372,7.18541798,21.71991354,-4.124442439999999,,,
imu,52.710809,-0.2237091472,-9.405354627200001,2.8723297456,7.25271017,22.19095887,-4.22911918,,,
imu,52.719699,-0.2548130928,-9.422102905600001,2.850198092000001,7.50692511,22.49751218,-4.47585721,,,
imu,52.728588,-0.2584020096,-9.380830362400001,2.8304590496,7.99292426,23.30501846,-4.49081103,,,
imu,52.737478,-0.2649816904,-9.295294512000002,2.8406276472,8.277046839999999,24.20224766,-4.72259524,,,
imu,52.74589,-1.7071280912,-8.560762873600002,3.8509077264,6.43025007,25.39107635,-5.79179337,,,
imu,52.754301,0.451605364,-8.7946406184,2.8466091752,-2.69905704,24.39664732,-16.92491236,,,
imu,52.762713,0.1477437416,-10.3109579664,2.570860734400001,12.52393172,24.755539,-24.36443781,,,
imu,52.771124,0.2464389536,-10.4341774432,2.6970709752,16.28481745,23.61157177,-1.67201596,,,
imu,52.779535,-0.1429585192,-9.221123564800001,2.2484563752,8.2471392,25.26396888,9.16202663,,,
imu,52.787947,0.06998387760000001,-9.377241445600001,2.575047804,5.35357503,24.21720148,-8.109635469999999,,,
imu,52.796358,-0.2380648144,-10.0029092744,2.9363320952,9.90701322,20.9423149,-15.36223817,,,
imu,52.80477,-0.5293652280000001,-9.892849159200003,2.290925224,9.959351589999999,21.764775,-3.1973056,,,
imu,52.813181,-0.1262102408,-10.0088908024,2.2831492376,8.50883105,21.72739045,3.66649778,,,
imu,52.821592,0.1327899216,-10.1961126288,2.722791545600001,6.86391085,21.37597568,0.2944113700000002,,,
imu,52.830004,-0.1890162848,-10.1093804728,2.6958746696,4.56849948,21.05446855,-2.6739219,,,
imu,52.838415,-0.3116376088,-9.968216412,2.512839912800001,2.32542648,20.5684694,-0.5953409199999999,,,
imu,52.846827,-0.1513326584,-9.9329253968,2.646227987200001,0.1720764,20.62828468,1.39351714,,,
imu,52.855238,-0.0813487808,-9.872511964000001,2.6061517496,-1.21115195,21.84702101,0.7131183299999999,,,
imu,52.863649,-0.06220789120000001,-9.8013317808,2.539158636000001,-2.41493446,22.52741982,-0.1093417699999999,,,
imu,52.872061,-0.003588916800000001,-9.776807516000002,2.5080546904,-3.4168404,22.56480437,-0.1616801399999999,,,
imu,52.880472,0.007177833600000002,-9.813892989600001,2.578636720800001,-4.11966994,22.49003527,-0.12429559,,,
imu,52.888884,-0.1878199792,-9.870717505600002,2.585814554400001,-4.73277656,22.67695802,-0.91684805,,,
imu,52.897295,-0.4839056152000001,-9.8647359776,2.5325789552,-5.652436489999999,23.80597143,-1.20844754,,,
imu,52.905706,-0.7118018320000001,-9.8228652816,2.527793732800001,-6.60948097,26.01165988,-0.90937114,,,
imu,52.914118,-0.8451899064,-9.798341016800002,2.5164288296,-7.74597129,29.241685,-1.60472377,,,
imu,52.922529,-0.9564463272000002,-9.7576666264,2.5816274848,-8.299262630000001,32.93527854,-3.41413599,,,
imu,52.930941,-1.2698783944,-9.731946056000002,2.667761488,-8.822646330000001,36.51671843,-6.33013089,,,
imu,52.939352,-1.8584607496,-9.687084596000002,2.757484408000001,-9.01704599,41.69074015,-9.156402869999999,,,
imu,52.947808,-2.746119504800001,-9.6667474008,2.7879902008,-9.413322220000001,49.32466526,-11.81818283,,,
imu,52.956264,-3.627796732000001,-9.6703363176,2.6169185,-10.1460594,60.74190683,-13.87433308,,,
imu,52.96472,-3.974127203200001,-9.680504915200002,2.3609091016,-10.88627349,75.35178897,-15.33233053,,,
imu,52.973176,-3.654115455200001,-9.8144911424,2.2526434448,-12.51623987,90.98600778000001,-17.57540353,,,
imu,52.981632,-2.996147375200001,-9.995133288000002,2.3321977672,-14.51257484,105.48373627,-21.54564274,,,
imu,52.990088,-2.293915988,-10.0208538584,2.396798269600001,-16.92761677,117.53651519,-26.55517244,,,
imu,52.998544,-1.6652573952,-9.8946436176,2.348347892800001,-19.24545887,126.98732943,-30.75719586,,,
imu,53.006999,-0.9839613560000001,-9.696056888000001,2.2735787928,-20.67354868,133.67168697,-33.32177599,,,
imu,53.015455,-0.4234921824,-9.588389384000001,2.3704795464,-21.50348569,137.85875657,-35.28820331999999,,,
imu,53.023911,-0.1447529776,-9.593772759200002,2.4380708128,-22.04182321,140.51305962,-36.95555425,,,
imu,53.032367,0.0340947096,-9.654784344800001,2.3926112,-22.59511455,142.4421024,-37.77801435,,,
imu,53.040823,0.1776513816,-9.727758986400001,2.362105407200001,-23.44748229,143.67579255,-38.24158276999999,,,
imu,53.049279,0.361882444,-9.7217774584,2.2992993632,-24.30732694,144.59545248,-38.78739719999999,,,
imu,53.057735,0.6627533024,-9.7403201952,2.3932093528,-25.14474086,144.22908389,-38.98927377,,,
imu,53.066191,1.1562293624,-9.786377960800001,2.5469346224,-26.24384663,142.24770274,-39.37807308999999,,,
imu,53.074647,1.6652573952,-9.755872168000002,2.7090340312,-27.18593729,138.84570869,-40.01361043999999,,,
imu,53.083103,2.0402992008,-9.571042952800001,2.667761488,-28.25513542,134.21002449,-39.75191859,,,
imu,53.091559,2.36270356,-9.200786369600001,2.5983757632,-29.00282642,128.44532688,-38.25653659,,,
imu,53.100014,2.5822256376,-8.8640263432,2.671350404800001,-28.7635653,121.92546136,-35.93869449,,,
imu,53.10847,2.8226830632,-8.709104768000001,2.794569881600001,-27.15602965,114.54575119,-33.42645273,,,
imu,53.116926,3.089459212,-8.65826178,2.933939484000001,-25.06997176,105.70804357,-31.36282557,,,
imu,53.125382,3.227034356,-8.723460435200002,3.123553921600001,-22.15397686,96.07030658000001,-29.86744357,,,
imu,53.133838,3.2455770928,-8.910084108800001,3.279671802400001,-19.18564359,85.42318674,-28.78329162,,,
imu,53.142294,3.1839673544,-9.0506500168,3.4298081552,-16.63601728,74.27511393,-27.44492473,,,
imu,53.150797,3.100225962400001,-9.059024156000001,3.472277004,-15.02100472,63.44854824999999,-25.59812796,,,
imu,53.1593,2.9949510696,-8.870606024,3.4824456016,-14.07891406,53.40705811999999,-23.19056294,,,
imu,53.167803,2.8585722312,-8.636728279200002,3.5057735608,-13.24897705,44.32261247,-20.04278383,,,
imu,53.176306,2.6910894472,-8.552986887200001,3.4860345184,-12.21716347,36.30736495,-16.34919029,,,
imu,53.184809,2.5469346224,-8.607418792,3.4549305728,-10.67692001,28.97999315,-12.70045821,,,
imu,53.193312,2.3585164904,-8.7491810056,3.4549305728,-8.89741543,22.18348196,-9.64240202,,,
imu,53.201815,2.0582437848,-8.8807746216,3.457323184,-7.01323411,15.85053919,-7.406805929999999,,,
imu,53.210318,1.6993521048,-8.969301236000002,3.4920160464,-5.009422229999999,10.15313377,-5.784316459999999,,,
imu,53.218821,1.3374696608,-9.073977976,3.52910152,-2.94579507,4.96415823,-4.92447181,,,
imu,53.227324,1.037795108,-9.169084271200001,3.5302978256,-1.26349032,0.4555814999999996,-5.43290169,,,
imu,53.235827,0.8033192104000001,-9.134989561600001,3.490819740800001,-0.34383039,-3.04361238,-6.60677656,,,
imu,53.24433,0.6501920936000001,-8.9746846112,3.4597157952,0.14964567,-5.383885210000001,-7.65354396,,,
imu,53.252833,0.5646562432000001,-8.8341187032,3.456725031200001,0.46367589,-7.08114378,-8.18440457,,,
imu,53.261335,0.5048409632,-8.8042110632,3.456126878400001,0.9272443100000001,-8.38960303,-8.27412749,,,
imu,53.269838,0.3732473472,-8.923841623200001,3.391526376000001,1.57025857,-8.70363325,-7.8329898,,,
imu,53.278341,0.2261017584,-9.1475507704,3.314364664800001,2.57964142,-8.03071135,-6.24040797,,,
imu,53.286844,0.1573141864,-9.364082084000001,3.2611290656,3.66379337,-7.29049726,-4.19921154,,,
imu,53.295347,0.17944584,-9.478329268800001,3.2665124408,4.35166909,-6.85683648,-3.45899745,,,
imu,53.30385,0.1274065464,-9.575230022400001,3.2952237752,5.02459099,-7.03628232,-4.20668845,,,
imu,53.312353,0.007177833600000002,-9.684093832000002,3.3221406512,5.49563632,-7.155912880000001,-5.60487062,,,
imu,53.320856,-0.09450814240000002,-9.797144711200001,3.3065886784,5.86200491,-6.916651760000001,-6.50209982,,,
imu,53.329359,-0.1351825328,-9.824061587200001,3.2946256224,5.68255907,-6.7222521,-7.189975539999999,,,
imu,53.337862,-0.1603049504,-9.7750130576,3.2647179824,5.12926773,-6.430652609999999,-8.16197384,,,
imu,53.346365,-0.2637853848,-9.6954587352,3.2485678568,4.57597639,-5.94465346,-8.77508046,,,
imu,53.354793,-0.3553027632,-9.627269316000001,3.1905470352,4.02268505,-5.25677774,-8.44609642,,,
imu,53.363221,-0.370854736,-9.592576453600001,3.1684153816,3.66379337,-4.16514888,-7.4591443,,,
imu,53.371649,-0.2787392048,-9.577024480800002,3.159443089600001,3.05816366,-3.1333353,-6.52453055,,,
imu,53.380077,-0.0813487808,-9.541135312800002,3.1648264648,2.4899185,-2.72958216,-6.046008309999999,,,
imu,53.388505,0.07596540560000001,-9.548313146400002,3.149274492,2.05625772,-3.17819676,-5.784316459999999,,,
imu,53.396933,0.1297991576,-9.5776226336,3.101422268000001,2.06373463,-4.53151747,-5.59739371,,,
imu,53.405361,0.06101158560000001,-9.6117173432,3.0410088352,2.01139626,-6.0493302,-5.16373293,,,
imu,53.413789,-0.02990764000000001,-9.600352440000002,3.0039233616,2.40019558,-7.36526636,-4.46090339,,,
imu,53.422217,-0.1591086448,-9.604539509600002,2.968632346400001,2.97591765,-8.41951067,-3.77302767,,,
imu,53.430644,-0.2542149400000001,-9.661962178400001,2.972819416000001,3.48434753,-9.25692459,-3.25712088,,,
imu,53.439072,-0.2942911776,-9.709814402400001,2.9530803736,3.67127028,-9.72049301,-2.71878336,,,
imu,53.4475,-0.242251884,-9.788172419200002,2.9973436808,3.82080848,-10.13172306,-2.18044584,,,
imu,52.626112,,,,,,,-86.13401400000001,172.2496652,116.133212
imu,52.727614,,,,,,,-87.47680600000001,171.932278,115.3641584
imu,53.455928,-0.1626975616,-9.809107767200002,3.020073487200001,3.56659354,-10.72239895,-1.74678506,,,
imu,53.464356,-0.0861340032,-9.798341016800002,2.9746138744,3.2376095,-11.59719742,-1.09629389,,,
imu,53.472784,-0.0592171272,-9.790565030400002,2.9405191648,2.81890254,-12.68882628,-0.3934643499999999,,,
imu,53.481212,-0.04486146000000001,-9.761853696000001,2.8908724824,2.31047266,-13.88513188,0.242073,,,
imu,53.48964,-0.0023926112,-9.718188541600002,2.843020258400001,2.01887317,-14.74497653,1.38604023,,,
imu,53.498068,0.05383375200000001,-9.706225485600001,2.8238793688,1.8169966,-15.65715955,2.82160695,,,
imu,53.506496,0.1417622136,-9.7786019744,2.850198092000001,1.45810492,-16.8908497,4.384281140000001,,,
imu,53.514924,0.3445360128,-9.9048122152,2.859170384,0.91229049,-18.2366935,5.89461696,,,
imu,53.523352,0.646005024,-10.0358076784,2.8729278984,-0.47093786,-20.46481268,6.86661526,,,
imu,53.53178,0.9468758824000001,-10.0621264016,2.9112096776,-1.98875059,-23.67988398,7.43486042,,,
imu,53.540208,1.1687905712,-9.965225648,2.8723297456,-4.02247011,-27.73984611,7.71150609,,,
imu,53.548636,1.3015804928,-9.7959484056,2.8370387304,-5.794497779999999,-32.24094593,8.52648928,,,
imu,53.557449,1.3661809952,-9.573435564,2.7682511584,-6.998280289999999,-37.04112215,10.04430201,,,
imu,53.566261,1.3871163432,-9.402363863200002,2.692285752800001,-7.17772613,-41.85625219,11.96586788,,,
imu,53.575074,1.5330656264,-9.283929608800001,2.6653688768,-6.72163462,-46.58913622,14.48558655,,,
imu,53.583887,1.74959694,-9.3108464848,2.722791545600001,-5.577667389999999,-52.00989597,17.00530522,,,
imu,53.592663,1.9535670448,-9.4215047528,2.7885883536,-4.24677741,-58.22320818,19.43530097,,,
imu,53.601476,2.0702068408,-9.536948243200001,2.8190941464,-3.31964057,-65.39356486999999,21.21480555,,,
imu,53.610289,2.1037033976,-9.593772759200002,2.8274682856,-2.81121069,-73.00505924999999,22.55317244,,,
imu,53.619101,1.9625393368,-9.596763523200002,2.838235036,-2.60185721,-80.67636891,23.7943395,,,
imu,53.627914,1.6736315344,-9.554294674400001,2.832253508,-2.80373378,-87.89158705999999,25.34953678,,,
imu,53.636727,1.4379593312,-9.547116840800001,2.850198092000001,-3.05047181,-94.04508399,27.158949,,,
imu,53.64554,1.2543264216,-9.5776226336,2.877713120800001,-3.16262546,-99.59295121,28.60199263,,,
imu,53.654353,1.0090837736,-9.5698466472,2.8609648424,-3.54394787,-104.21368159,29.41697582,,,
imu,53.663166,0.76264482,-9.522592576000001,2.880105732000001,-3.58880933,-108.19887462,29.87306733,,,
imu,53.671979,0.4264829464000001,-9.4908904776,2.9734175688,-3.82059354,-111.45133047,29.57399093,,,
imu,53.680792,-0.1722680064,-9.644017594400001,3.1743969096,-4.22434668,-113.06634303,29.23005307,,,
imu,53.689605,-0.7787949456000002,-9.896438076,3.268905052,-5.173914249999999,-112.4457595,29.48426801,,,
imu,53.698418,-1.1957074472,-9.990946218400001,3.206099008,-7.23754141,-109.73164117,29.44688346,,,
imu,53.707231,-1.4050609272,-9.849184004800001,3.15525602,-9.66006025,-105.09595697,28.83377684,,,
imu,53.716044,-1.4732503464,-9.5812115504,3.2306232728,-11.8657487,-100.04156581,27.87673236,,,
imu,53.724857,-1.4726521936,-9.3108464848,3.3221406512,-13.48076126,-95.16662048999999,26.50098092,,,
imu,53.73367,-1.4870078608,-9.131998797600001,3.404087584800001,-13.64525328,-90.44869028,24.73643016,,,
imu,53.742483,-1.6383405192,-9.098502240800002,3.546447951200001,-12.97980829,-85.66346788,23.13637142,,,
imu,53.751296,-1.9900543656,-9.169084271200001,3.602674314400001,-12.28445566,-79.80904734999999,22.26157295,,,
imu,53.759773,-2.3094679608,-9.252227510400001,3.637367176800001,-12.0152869,-72.46672172999999,22.53074171,,,
imu,53.768251,-2.3902185888,-9.3383615136,3.7486235976,-12.090056,-64.45147420999999,22.64289536,,,
imu,53.776728,-2.2532415976,-9.3832229736,3.8275797672,-12.51623987,-56.24930394,21.37182066,,,
imu,53.785206,-1.926052016,-9.324005846400002,3.8353557536,-13.40599216,-48.60790192,19.41287024,,,
imu,53.793683,-1.5085413616,-9.146952617600002,3.8359539064,-14.24340608,-42.50674336,16.86324393,,,
imu,53.802161,-1.1311069448,-8.920252706400001,3.899956256000001,-14.42285192,-38.03555118,14.04444886,,,
imu,53.810638,-0.8475825176000001,-8.7324327272,3.9633604528,-13.64525328,-34.67841859,11.84623732,,,
imu,53.819116,-0.7441020832,-8.606222486400002,3.9920717872,-12.10500982,-31.9194388,10.709747,,,
imu,53.827593,-0.7536725280000001,-8.570333318400001,4.0333443304,-10.4451358,-29.07073609,10.84433138,,,
imu,53.836071,-0.8009265992000001,-8.6630470024,4.117085722400001,-8.77778487,-25.72108041,12.06306771,,,
imu,53.844548,-0.8122915024000001,-8.798827688000001,4.1739102384,-7.28987978,-21.83308721,13.16217348,,,
imu,53.853026,-0.7536725280000001,-8.945375124000002,4.200827114400001,-6.32535839,-17.81798654,13.71546482,,,
imu,53.861504,-0.5634599376000001,-8.9597307912,4.166134252000001,-6.048712719999999,-14.52814614,13.22946567,,,
imu,53.869981,-0.3606861384,-8.8771857048,4.1410118344,-5.99637435,-12.02338129,11.62193002,,,
imu,53.878459,-0.1393696024,-8.762340367200002,4.1410118344,-5.77206705,-10.43827637,9.648025780000001,,,
imu,53.886936,0.09690075360000001,-8.674411905600001,4.165536099200001,-5.09914515,-10.04947705,7.464768060000001,,,
imu,53.895414,0.2709632184,-8.636130126400001,4.157161960000001,-3.57385551,-10.33359963,5.58806365,,,
imu,53.903891,0.2823281216,-8.646298724000001,4.162545335200001,-1.85416621,-10.92427552,4.227266029999999,,,
imu,53.912369,0.1333880744,-8.7114973792,4.2086031008,0.007584380000000002,-11.25325956,3.6066825,,,
imu,53.920846,-0.0562263632,-8.836511314400001,4.199032656000001,1.58521239,-10.81959878,3.70388233,,,
imu,53.929324,-0.1597067976,-9.0225368352,4.2415015048,2.69179507,-9.81021593,4.354373499999999,,,
imu,53.937801,-0.1770532288,-9.229497704000002,4.318065063200001,2.67684125,-8.48680286,4.60858844,,,
imu,53.946279,-0.08792846160000001,-9.330585527200002,4.330626272000001,1.76465823,-7.34283563,4.14502002,,,
imu,53.954756,0.06699311360000001,-9.3144354016,4.3258410496,0.31413769,-6.46803716,3.02348352,,,
imu,53.963231,0.2069608688,-9.2061697448,4.327037355200001,-1.24105959,-6.318498959999999,1.53557843,,,
imu,53.971706,0.2667761488000001,-9.1134560608,4.3330188832,-2.35511918,-6.886744119999999,0.1224424399999999,,,
imu,53.980181,0.2763465936,-9.028518363200002,4.3108872296,-2.47474974,-7.51480456,-0.76730985,,,
imu,53.988656,0.2745521352,-8.9627215552,4.268418380800001,-2.19062716,-8.11295736,-1.18601681,,,
imu,53.997131,0.1997830352,-8.878382010400001,4.262436852800001,-1.74948947,-8.554095049999999,-1.08134007,,,
imu,54.005606,0.09510629520000001,-8.791649854400001,4.297129715200001,-1.29339796,-8.74849471,-0.4981410899999998,,,
imu,54.014081,-0.03110394560000001,-8.8143796608,4.357543148,-0.54570696,-8.48680286,0.4589033900000001,,,
imu,54.022556,-0.08673215600000002,-8.9298231512,4.373693273600001,-0.02980017,-7.761542589999999,1.07948692,,,
imu,54.031031,-0.107667504,-9.001003334400002,4.349767161600001,0.26179932,-6.961513220000001,1.63277826,,,
imu,54.039506,-0.08314323920000001,-8.975880916800001,4.347972703200001,0.44872207,-6.236252950000001,1.99914685,,,
imu,54.047981,-0.03349655680000001,-8.929224998400002,4.350963467200001,0.6954601,-5.466131219999999,2.02905449,,,
imu,54.056456,0.03947808480000001,-8.882569080000001,4.327037355200001,1.19641307,-5.137147179999999,1.69259354,,,
imu,54.064931,0.1202287128,-8.8323242448,4.295933409600001,1.77961205,-4.84554769,1.27388658,,,
imu,54.073406,0.1728661592,-8.746788394400001,4.267820228000001,2.66936434,-4.90536297,0.7355490599999999,,,
imu,54.081881,0.2069608688,-8.6965435592,4.267820228000001,3.6862241,-4.64367112,0.5934877699999999,,,
imu,54.090356,0.2530186344000001,-8.6768045168,4.273203603200001,4.74046841,-4.54647129,0.8477027100000001,,,
imu,54.098831,0.3271895816000001,-8.718675212800001,4.292344492800001,5.96668165,-4.69600949,1.48324006,,,
imu,54.107306,0.400762376,-8.821557494400002,4.292344492800001,7.03587978,-5.09228572,1.78979337,,,
imu,54.115781,0.4378478496000001,-8.908289650400002,4.240305199200001,7.933108979999999,-5.96708419,1.82717792,,,
imu,54.124256,0.4139217376000001,-8.957936332800001,4.204416031200001,8.733138349999999,-6.909174849999999,1.67763972,,,
imu,54.132731,0.2877114968,-8.944776971200001,4.1679287104,9.33876806,-7.679296580000001,1.41594787,,,
imu,54.141206,0.1591086448,-8.902906275200001,4.1320395424,9.682705919999998,-8.2924032,1.14677911,,,
imu,54.149681,0.09211553120000002,-8.8741949408,4.1081134304,9.99673614,-8.35969539,0.8850872600000002,,,
imu,54.158156,0.08194693360000001,-8.897522900000002,4.1045245136,10.66218113,-8.19520337,0.83274889,,,
imu,54.166607,0.09929336480000002,-8.9597307912,4.082392860000001,10.84910388,-8.0680959,0.6981645100000002,,,
imu,54.175058,0.1519308112,-9.040481419200002,4.078803943200001,11.12574955,-7.9933268,0.7654567000000001,,,
imu,54.183508,0.2350740504,-9.076968740000002,4.0453073864,11.2379032,-8.29988011,0.64582614,,,
imu,54.191959,0.2739539824000001,-9.070389059200002,4.0231757328,11.58931797,-9.08495566,0.3691804699999999,,,
imu,54.20041,0.2344758976,-9.065005684,4.0022403848,11.7612869,-9.89993885,0.09253480000000014,,,
imu,54.208861,0.176455076,-9.039285113600002,3.9669493696,11.95568656,-10.67753749,-0.08691103999999994,,,
imu,54.217312,0.1010878232,-9.0057885568,3.947210327200001,12.14260931,-11.11867518,0.15982699,,,
imu,54.225763,0.0053833752,-9.032705432800002,3.944817716,12.53140863,-11.3579363,0.3766573800000002,,,
imu,54.234213,-0.1082656568,-9.142765548000002,3.9322565072,12.80057739,-10.9093217,0.6906876,,,
imu,54.242664,-0.1208268656,-9.202580828,3.897563644800001,12.82300812,-10.34107654,0.9897640000000001,,,
imu,54.251115,-0.0903210728,-9.221123564800001,3.8634689352,12.47159335,-9.66815464,0.7430259700000001,,,
imu,54.259566,-0.07058203040000001,-9.2336847736,3.867656004800001,12.12765549,-9.30926296,0.1149655300000001,,,
imu,54.268017,-0.0131593616,-9.205571592000002,3.8353557536,12.17251695,-9.00270965,-0.51309491,,,
imu,52.829213,,,,,,,-86.2682932,171.2486748,113.203484
imu,52.930745,,,,,,,-89.1003636,172.115386,113.8260512
imu,53.032308,,,,,,,-90.27225480000001,172.3839444,105.6716416
imu,53.133901,,,,,,,-95.36265720000002,174.4591684,100.4957888
imu,53.235463,,,,,,,-95.8753596,174.7033124,97.4928176
imu,53.336995,,,,,,,-96.2171612,173.214034,98.73795199999999
imu,53.438558,,,,,,,-96.2293684,171.9688996,98.066556
imu,53.540242,,,,,,,-95.55797240000001,172.2618724,99.3238976
imu,54.276468,0.005981528000000001,-9.1852343968,3.8150185584,12.17251695,-8.82326381,-1.11872462,,,
imu,54.284918,-0.0053833752,-9.170280576800002,3.8006628912,12.19494768,-8.95784819,-1.54490849,,,
imu,54.293369,-0.03648732080000001,-9.152335992800001,3.780325696,12.35196279,-8.62138724,-1.61967759,,,
imu,54.30182,-0.0370854736,-9.1499433816,3.7408476112,12.51645481,-8.17277264,-1.50752394,,,
imu,54.310271,0.0143556672,-9.175663952,3.705556596,12.94263868,-7.94846534,-0.9318018699999999,,,
imu,54.318722,0.04545961280000001,-9.224114328800002,3.6894064704,13.36134564,-7.51480456,-0.3859874399999998,,,
imu,54.327173,0.02871133440000001,-9.2929019008,3.687612012,13.52583766,-7.29797417,0.04019642999999995,,,
imu,54.335623,0.0257205704,-9.328192916,3.6612932888,13.60808367,-7.111051420000001,0.38413429,,,
imu,54.344074,0.0340947096,-9.343146736000001,3.631983801600001,13.58565294,-6.75215974,0.3392728300000001,,,
imu,54.352525,0.05084298800000001,-9.328791068800001,3.631983801600001,13.27162272,-6.67739064,-0.01961884999999985,,,
imu,54.360976,0.07775986400000001,-9.352119028,3.651722844000001,13.05479233,-6.55028317,-0.4308489,,,
imu,54.369794,0.09869521200000002,-9.388008196000001,3.652919149600001,12.89030031,-6.53532935,-0.9542325999999999,,,
imu,54.378612,0.146547436,-9.440645642400002,3.6571062192,12.46411644,-6.610098450000001,-1.32060119,,,
imu,54.387431,0.1800439928,-9.465169907200002,3.6056650784,12.01550184,-6.50542171,-1.23087827,,,
imu,54.396249,0.191408896,-9.423897364000002,3.5661869936,11.58931797,-6.4231757,-0.82712513,,,
imu,54.405067,0.1812402984,-9.372456223200002,3.535681200800001,11.18556483,-6.26616059,-0.1691570499999999,,,
imu,54.413885,0.1932033544,-9.3126409432,3.5027827968,10.95378062,-6.15400694,0.30188828,,,
imu,54.422704,0.203371952,-9.286920372800001,3.460313948,11.00611899,-6.191391489999999,0.52619558,,,
imu,54.431522,0.23926112,-9.273761011200001,3.3993023624,11.20051865,-6.213822220000001,0.2719806400000002,,,
imu,54.44034,0.3098431504,-9.219329106400002,3.3341037072,11.7612869,-6.41569879,-0.1093417699999999,,,
imu,54.449158,0.3744436528,-9.160111979200002,3.3424778464,12.38187043,-6.74468283,-0.9318018699999999,,,
imu,54.457977,0.3636769024000001,-9.141569242400001,3.3604224304,13.19685362,-7.178343610000001,-1.61967759,,,
imu,54.466795,0.323002512,-9.190617772000001,3.3628150416,14.13894428,-7.40265091,-1.9262309,,,
imu,54.475613,0.2691687600000001,-9.286920372800001,3.340085235200001,14.62494343,-7.440035460000001,-2.24773803,,,
imu,54.484431,0.2416537312,-9.363483931200001,3.3035979144,15.11841949,-7.23068198,-2.36736859,,,
imu,54.49325,0.2344758976,-9.418513988800001,3.235408495200001,15.55208027,-6.75215974,-2.27764567,,,
imu,54.502068,0.2225128416,-9.4322715032,3.1779858264,15.58946482,-6.46056025,-2.48699915,,,
imu,54.510886,0.1668846312,-9.388606348800002,3.1391058944,15.69414156,-6.07176093,-2.96552139,,,
imu,54.519704,0.1232194768,-9.327594763200002,3.113983476800001,15.55208027,-5.98203801,-3.62348947,,,
imu,54.528523,0.0861340032,-9.288714831200002,3.119366852000001,15.574511,-5.817545989999999,-4.363703559999999,,,
imu,54.537341,0.0233279592,-9.307257568,3.131329908000001,15.59694173,-5.86988436,-5.55253225,,,
imu,54.546159,0.008972292000000002,-9.356904250400001,3.116376088,15.70909538,-5.712869250000001,-6.38994617,,,
imu,54.554977,0.0131593616,-9.3927934184,3.089459212,15.67918774,-5.54090032,-6.83108386,,,
imu,54.563796,0.06460050240000001,-9.405354627200001,3.063738641600001,15.65675701,-5.510992679999999,-7.15259099,,,
imu,54.572313,0.0675912664,-9.391597112800001,3.029045779200001,15.55955718,-5.3764083,-7.09277571,,,
imu,54.58083,0.0053833752,-9.413130613600002,2.9985399864,15.30534224,-5.466131219999999,-6.75631476,,,
imu,54.589346,-0.0023926112,-9.481918185600001,2.9764083328,15.28291151,-5.56333105,-6.16563887,,,
imu,54.597863,-0.017944584,-9.557285438400001,2.9764083328,15.14085022,-5.421269759999999,-5.65720899,,,
imu,54.60638,-0.0532355992,-9.720581152800001,3.020073487200001,14.6025127,-5.443700489999999,-5.43290169,,,
imu,54.614897,-0.06699311360000001,-9.891054700800002,3.0051196672,13.95949844,-5.383885210000001,-5.35813259,,,
imu,54.623414,-0.0693857248,-9.9849646904,2.980595402400001,12.71833138,-5.443700489999999,-5.18616366,,,
imu,54.631931,-0.06460050240000001,-9.939505077600002,2.9405191648,10.78181169,-5.421269759999999,-4.93942563,,,
imu,54.640448,-0.06220789120000001,-9.843800629600002,2.9423136232,8.90510728,-5.39136212,-4.82727198,,,
imu,54.648965,-0.0502448352,-9.731946056000002,2.9447062344,7.61160185,-5.294162289999999,-4.81231816,,,
imu,54.657482,-0.0675912664,-9.780396432800002,2.954874832000001,6.57231136,-5.339023750000001,-4.81979507,,,
imu,54.665999,-0.08852661440000001,-9.743310959200002,2.9058263024,5.36852885,-5.466131219999999,-4.80484125,,,
imu,54.674516,-0.08912476720000001,-9.6494009696,2.8998447744,4.30680763,-5.54837723,-4.66277996,,,
imu,54.683033,-0.07177833600000001,-9.594370912,2.918985664,3.64883955,-5.623146330000001,-4.9169949,,,
imu,54.691518,-0.0675912664,-9.575828175200002,2.8938632464,3.39462461,-5.907268909999999,-5.17120984,,,
imu,54.700035,-0.06101158560000001,-9.545322382400002,2.8358424248,3.20022495,-6.40074497,-5.41794787,,,
imu,54.708552,-0.05981528000000001,-9.468160671200001,2.822084910400001,3.17031731,-6.98394395,-5.53010152,,,
imu,54.717069,-0.1148453376,-9.399971252000002,2.862161148000001,3.00582529,-7.440035460000001,-5.40299405,,,
imu,54.725585,-0.1782495344,-9.349726416800001,2.918985664,2.96844074,-7.6942504,-4.96185636,,,
imu,54.734102,-0.1740624648,-9.401765710400001,2.972819416000001,3.18527113,-7.634435119999999,-4.31136519,,,
imu,54.742619,-0.1471455888,-9.490292324800002,2.949491456800001,3.37219388,-7.66434276,-3.69825857,,,
imu,54.751136,-0.1190324072,-9.550705757600001,2.856777772800001,3.18527113,-7.53723529,-2.95804448,,,
imu,54.759653,-0.0933118368,-9.446627170400001,2.8400294944,2.75908726,-7.53723529,-2.42718387,,,
imu,54.76817,-0.07895616960000001,-9.377839598400001,2.853188856,2.60954906,-7.41012782,-2.15801511,,,
imu,54.776592,-0.0663949608,-9.3993730992,2.852590703200001,2.43010322,-7.4699431,-1.94866163,,,
imu,54.785013,-0.06519865520000001,-9.474142199200001,2.8119163128,2.69179507,-7.507327650000001,-1.64958523,,,
imu,54.793435,-0.0532355992,-9.580613397600002,2.7772234504,2.54225687,-7.55966602,-1.73930815,,,
imu,54.801857,-0.0293094872,-9.593772759200002,2.7239878512,2.25065738,-7.35778945,-1.7019236,,,
imu,54.810278,-0.023926112,-9.578818939200001,2.7012580448,2.06373463,-7.260589619999999,-1.48509321,,,
imu,54.8187,-0.0514411408,-9.602745051200001,2.697669128,1.85438115,-7.02880541,-1.26078591,,,
imu,54.827121,-0.04845037680000001,-9.651793580800001,2.6522095152,2.13102682,-6.69982137,-1.1037708,,,
imu,54.835543,-0.02871133440000001,-9.6709344704,2.6061517496,2.33290339,-6.370837330000001,-1.13367844,,,
imu,54.843964,-0.0466559184,-9.678710456800001,2.569066276,2.57964142,-6.18391458,-1.6271545,,,
imu,54.852386,-0.04845037680000001,-9.739722042400002,2.5696644288,2.863764,-6.24372986,-2.47952224,,,
imu,54.860808,-0.05861897440000001,-9.719983000000001,2.5654773592,2.84133327,-6.24372986,-2.92065993,,,
imu,54.869229,-0.05383375200000001,-9.688879054400001,2.557103220000001,3.03573293,-6.20634531,-3.30945925,,,
imu,54.877651,-0.06041343280000001,-9.675121540000001,2.5606921368,3.3123786,-6.1988684,-3.97490424,,,
imu,54.886072,-0.03110394560000001,-9.659569567200002,2.552916150400001,3.27499405,-6.281114410000001,-4.44594957,,,
imu,54.894494,-0.0257205704,-9.616502565600001,2.5499253864,3.14788658,-6.74468283,-4.976810179999999,,,
imu,54.902916,-0.03289840400000001,-9.6248767048,2.5846182488,3.30490169,-7.27554344,-5.62730135,,,
imu,54.911337,-0.08733030880000002,-9.5249851872,2.70664142,3.25256332,-7.97089607,-6.59182274,,,
imu,54.919759,-0.1752587704,-9.714599624800002,2.7090340312,2.81890254,-8.247541739999999,-7.33203683,,,
imu,54.92818,-0.2314851336,-9.8749045752,2.772438228,1.93662716,-8.50923359,-7.272221549999999,,,
imu,54.936602,-0.2793373576,-9.861147060800002,2.8460110224,0.33656842,-8.23258792,-6.950714420000001,,,
imu,54.945023,-0.3182172896000001,-9.7953502528,2.8807038848,-0.8821679099999999,-7.51480456,-6.17311578,,,
imu,54.953445,-0.3355637208,-9.70502918,2.8537870088,-2.02613514,-6.86431339,-5.305794219999999,,,
imu,54.961867,-0.2924967192,-9.606932120800002,2.793373576,-2.75139541,-6.101668569999999,-4.692687599999999,,,
imu,54.970288,-0.2613927736,-9.531564868,2.8131126184,-3.028041079999999,-5.63062324,-4.65530305,,,
imu,54.978753,-0.233279592,-9.486105255200002,2.8436184112,-2.96074889,-5.167054820000001,-5.11139456,,,
imu,54.987218,-0.2805336632,-9.4753385048,2.899246621600001,-2.70653395,-4.52404056,-5.42542478,,,
imu,54.995683,-0.2655798432,-9.437056725600002,2.918985664,-2.43736519,-3.84364175,-5.60487062,,,
imu,55.004147,-0.2727576768,-9.3718580704,2.8986484688,-2.16819643,-3.20062749,-5.88151629,,,
imu,55.012612,-0.331974804,-9.2827333032,2.8836946488,-1.70462801,-2.55013632,-6.180592689999999,,,
imu,55.021077,-0.3451341656,-9.142765548000002,2.8669463704,-1.0989983,-2.05666026,-6.59182274,,,
imu,55.029542,-0.340947096,-9.062613072800001,2.8986484688,-0.17186146,-1.2641078,-7.07034498,,,
imu,55.038007,-0.2954874832,-9.0823521152,2.9159949,1.30856672,-0.45660152,-7.43671357,,,
imu,55.046471,-0.2494297176,-9.152934145600002,2.9088170664,2.66188743,0.3434278499999999,-7.65354396,,,
imu,55.054936,-0.2380648144,-9.222918023200002,2.8723297456,3.84323921,0.8294269999999999,-7.78812834,,,
imu,55.063401,-0.2584020096,-9.283929608800001,2.815505229600001,4.91243734,1.31542615,-7.975051089999999,,,
imu,55.071866,-0.3361618736,-9.291107442400001,2.829262744000001,5.95920474,1.94348659,-7.89280508,,,
imu,55.080331,-0.3959771536000001,-9.283331456,2.931546872800001,6.72184956,2.50425484,-7.646067049999999,,,
imu,55.088796,-0.406743904,-9.385017432000001,3.0643367944,7.29009472,3.34166876,-7.317083009999999,,,
imu,53.641713,,,,,,,-95.8143236,172.4938092,102.0216888
imu,53.743245,,,,,,,-93.2386044,172.4693948,107.954388
imu,53.845174,,,,,,,-91.09013720000002,173.6657004,111.0550168
imu,53.946401,,,,,,,-87.2082476,174.4713756,108.5891624
imu,54.047902,,,,,,,-88.9050484,175.9850684,111.372404
imu,54.149495,,,,,,,-85.67014040000001,175.777546,109.4314592
imu,54.251088,,,,,,,-86.866446,176.0338972,111.921728
imu,54.352651,,,,,,,-85.9875276,175.7897532,112.4954664
imu,55.09726,-0.4163143488000001,-9.612315496,3.1091982544,7.62655567,4.18655959,-7.13016026,,,
imu,55.105725,-0.3451341656,-9.836024643200002,3.0607478776,7.50692511,4.68003565,-7.48157503,,,
imu,55.11419,-0.2930948720000001,-9.872511964000001,2.9375284008,6.50501917,5.06135806,-7.96009727,,,
imu,55.122655,-0.2930948720000001,-9.928140174400001,2.8693389816,5.09936009,5.03145042,-8.31151204,,,
imu,55.13112,-0.3457323184,-10.0555467208,2.8089255488,3.74603938,4.54545127,-8.76012664,,,
imu,55.139584,-0.287113344,-10.0830617496,2.775428992000001,2.35533412,4.29123633,-9.20874124,,,
imu,55.148049,-0.2793373576,-9.776209363200001,2.8340479664,0.74779847,4.20899032,-8.677880629999999,,,
imu,55.156514,-0.3325729568,-9.4203084472,2.8836946488,-0.08213854000000001,4.23889796,-7.32455992,,,
imu,55.164979,-0.3953790008,-9.316229860000002,2.933939484000001,-0.19429219,4.44825144,-5.73197809,,,
imu,55.173444,-0.3672658192000001,-9.224712481600001,2.941117317600001,0.08235347999999998,4.62022037,-4.49828794,,,
imu,55.181983,-0.3343674152,-9.239068148800001,2.9650434296,0.50853735,4.59031273,-3.66835093,,,
imu,55.190523,-0.3415452488,-9.3138372488,2.9752120272,1.04687487,4.246374869999999,-3.15244414,,,
imu,55.199063,-0.305057928,-9.334174444000002,2.9165930528,1.57025857,4.08188285,-3.18235178,,,
imu,55.207603,-0.2428500368,-9.215142036800001,2.873526051200001,1.79456587,3.79028336,-3.5711511,,,
imu,55.216143,-0.1985867296,-8.9710956944,2.812514465600001,2.50487232,3.47625314,-3.65339711,,,
imu,55.224683,-0.2554112456,-8.7760978816,2.8029440208,4.00773123,3.22951511,-3.29450543,,,
imu,55.233223,-0.3576953744,-8.7515736168,2.8137107712,6.27323496,2.96034635,-2.76364482,,,
imu,55.241762,-0.4468201416000001,-8.919654553600001,2.841225800000001,8.501354139999998,2.69117759,-2.68887572,,,
imu,55.250302,-0.400762376,-9.277349928000001,2.8490017864,10.36310473,2.58650085,-3.09262886,,,
imu,55.258842,-0.2697669128,-9.667345553600002,2.8878817184,10.91639607,2.80333124,-3.41413599,,,
imu,55.267382,-0.2111479384,-9.838417254400001,2.9153967472,10.01168996,3.02763854,-2.86832156,,,
imu,55.275922,-0.2727576768,-9.764246307200002,2.920181969600001,8.710707619999999,3.34914567,-1.75426197,,,
imu,55.284462,-0.3397507904000001,-9.522592576000001,2.891470635200001,7.54430966,3.58840679,-0.96918642,,,
imu,55.293001,-0.3893974728000001,-9.328791068800001,2.8424221056,7.05831051,3.77532954,-0.73740221,,,
imu,55.301541,-0.4210995712,-9.3545116392,2.808327396000001,7.48449438,3.797760269999999,-0.8121713099999999,,,
imu,55.310081,-0.3457323184,-9.547116840800001,2.815505229600001,7.73870932,3.80523718,-1.55986231,,,
imu,55.318621,-0.1902125904,-9.746899876,2.792177270400001,7.82095533,3.820191,-2.53186061,,,
imu,55.327161,-0.08792846160000001,-9.836024643200002,2.790382812,7.36486382,3.49868387,-3.42908981,,,
imu,55.335701,-0.07118018320000001,-9.8916528536,2.8005514096,6.38538861,3.1472691,-4.22911918,,,
imu,55.34424,-0.1040785872,-9.910793743200001,2.7957661872,5.17412919,2.97530017,-4.25154991,,,
imu,55.35278,-0.1908107432,-9.88447502,2.7975606456,3.99277741,3.05754618,-3.46647436,,,
imu,55.36132,-0.2673743016,-9.808509614400002,2.805336632,2.863764,3.33419185,-2.6739219,,,
imu,55.36986,-0.2655798432,-9.666149248000002,2.7748308392,2.06373463,3.61083752,-2.53933752,,,
imu,55.3784,-0.1812402984,-9.502255380800001,2.7431287408,1.6674584,3.91739083,-2.89075229,,,
imu,55.38714,-0.0813487808,-9.330585527200002,2.70664142,2.07868845,4.171605769999999,-3.17487487,,,
imu,55.39588,0.0161501256,-9.247442288000002,2.671350404800001,2.863764,4.35852852,-3.41413599,,,
imu,55.40462,0.07775986400000001,-9.292303748000002,2.673743016,3.88810067,4.20899032,-3.62348947,,,
imu,55.41336,0.1124527264,-9.416121377600001,2.7030525032,5.02459099,3.99963684,-3.93004278,,,
imu,55.4221,0.11963056,-9.503451686400002,2.667761488,5.83209727,3.70056044,-4.06462716,,,
imu,55.43084,0.068787572,-9.553696521600001,2.5798330264,6.20594277,3.23699202,-4.13939626,,,
imu,55.439579,0.004785222400000001,-9.465169907200002,2.4416597296,6.4526808,2.69117759,-4.04967334,,,
imu,55.448319,-0.017944584,-9.245647829600001,2.331001461600001,7.14803343,2.33976282,-4.15435008,,,
imu,55.457059,-0.07118018320000001,-9.1882251608,2.3788536856,8.63593852,2.00330187,-4.65530305,,,
imu,55.465799,-0.11963056,-9.298883428800002,2.4661839944,10.16122816,1.77151766,-5.25345585,,,
imu,55.474539,-0.1118545736,-9.554294674400001,2.5146343712,11.6117487,1.83133294,-5.13382529,,,
imu,55.483279,-0.1142471848,-9.834230184800003,2.4398652712,12.12017858,1.77899457,-4.64034923,,,
imu,55.492019,-0.07716171120000001,-10.0627245544,2.4069668672,11.20051865,1.22570323,-5.01419473,,,
imu,55.500759,-0.004785222400000001,-10.177569892,2.467380300000001,9.47335244,0.4854891399999999,-6.25536179,,,
imu,55.509499,0.0442633072,-10.1518493216,2.525401121600001,7.2751409,-0.4042631500000002,-7.36942138,,,
imu,55.518239,-0.0305057928,-9.9783850096,2.4871193424,4.91991425,-1.09961578,-7.249790819999999,,,
imu,55.526979,-0.1985867296,-9.810902225600001,2.491306412,2.90114855,-1.74263004,-6.44976145,,,
imu,55.535719,-0.3594898328000001,-9.755872168000002,2.5038676208,2.02635008,-2.16881391,-5.9637623,,,
imu,55.544459,-0.4659610312,-9.797144711200001,2.4919045648,1.47305874,-2.26601374,-5.83665483,,,
imu,55.553199,-0.5239818528000001,-9.8647359776,2.5194195936,1.12164397,-2.09404481,-5.896470109999999,,,
imu,55.561939,-0.5090280328000001,-9.8581562968,2.5265974272,0.28423005,-1.95198352,-6.292746339999999,,,
imu,55.570679,-0.4988594352000001,-9.780396432800002,2.5283918856,-0.50832241,-1.51084583,-6.89837605,,,
imu,55.579419,-0.5341504504000001,-9.6775141512,2.508652843200001,-1.06909066,-1.00241595,-7.227360089999999,,,
imu,55.587899,-0.5891805080000001,-9.593772759200002,2.473959980800001,-1.12890594,-0.4491246100000001,-7.11520644,,,
imu,55.596379,-0.6567717744000001,-9.560874355200001,2.450632021600001,-0.81487572,0.3209971199999999,-6.659114929999999,,,
imu,55.604859,-0.6920627896000001,-9.646410205600002,2.5283918856,-0.6279529699999999,1.33037997,-5.92637775,,,
imu,55.613339,-0.7213722768,-9.772620446400001,2.5816274848,-0.76253735,2.55659321,-4.887087259999999,,,
imu,55.621819,-0.7327371800000001,-9.8049206976,2.5164288296,-1.46536689,3.72299117,-4.13191935,,,
imu,55.630299,-0.7118018320000001,-9.790565030400002,2.460202466400001,-2.61681103,4.552928179999999,-3.85527368,,,
imu,55.63878,-0.6741182056000001,-9.680504915200002,2.4536227856,-3.7159168,5.30061918,-4.341272829999999,,,
imu,55.64726,-0.648995788,-9.516611048000001,2.4458467992,-4.56828454,5.81652597,-4.991764,,,
imu,55.65574,-0.6238733704,-9.4316733504,2.4745581336,-4.65053055,6.32495585,-5.38804023,,,
imu,55.66422,-0.6095177032000001,-9.495077547200001,2.5283918856,-4.41126943,6.78104736,-5.72450118,,,
imu,55.6727,-0.5538894928000001,-9.676915998400002,2.598973916,-4.17948522,7.02778539,-5.94133157,,,
imu,55.68118,-0.4809148512,-9.878493492,2.5792348736,-4.47108471,7.154892859999999,-6.046008309999999,,,
imu,55.68966,-0.3798270280000001,-9.980179468000001,2.4356782016,-5.57019048,7.16984668,-5.94880848,,,
imu,55.69814,-0.3074505392,-9.824061587200001,2.2693917232,-6.79640372,6.98292393,-5.88151629,,,
imu,55.70662,-0.3337692624,-9.625474857600002,2.3136550304,-7.57400236,6.61655534,-5.68711663,,,
imu,55.7151,-0.3983697648000001,-9.5877912312,2.5134380656,-7.59643309,6.295048209999999,-5.39551714,,,
imu,55.72358,-0.4222958768,-9.7086180968,2.6324704728,-7.282402869999999,5.86886434,-5.34317877,,,
imu,55.73206,-0.3935845424,-9.896438076,2.680920849600001,-7.252495229999999,5.53240339,-5.50767079,,,
imu,55.74054,-0.376836264,-10.0986137224,2.7198007816,-8.16467825,5.023973509999999,-5.918900839999999,,,
imu,55.74902,-0.3648732080000001,-10.2050849208,2.6845097664,-9.764736990000001,4.500589809999999,-6.36751544,,,
imu,55.757501,-0.4091365152000001,-10.0076944968,2.4452486464,-11.73864123,4.0444983,-6.666591840000001,,,
imu,55.765981,-0.4827093096,-9.534555632000002,2.2777658624,-13.44337671,3.73046808,-6.599299649999999,,,
imu,55.774461,-0.5736285352000001,-9.125419116800002,2.3734703104,-13.72749929,3.45382241,-6.30022325,,,
imu,55.782851,-0.6178918424000002,-8.985451361600001,2.545140164,-12.13491746,3.57345297,-6.00114685,,,
imu,55.791323,-0.6083213976,-9.093118865600001,2.7024543504,-9.65258334,3.61831443,-5.53757843,,,
imu,55.799795,-0.5754229936,-9.364082084000001,2.801747715200001,-7.95532477,3.63326825,-5.08896383,,,
imu,55.808268,-0.5395338256000001,-9.617698871200002,2.831655355200001,-7.26744905,3.57345297,-4.7674567,,,
imu,55.81674,-0.4946723656000001,-9.76484446,2.8089255488,-7.514187079999999,3.61083752,-4.759979789999999,,,
imu,55.825213,-0.4707462536000001,-9.770825988000002,2.7718400752,-8.51609302,3.51363769,-4.73007215,,,
imu,55.833685,-0.4839056152000001,-9.647606511200001,2.7114266424,-9.66753716,3.48373005,-4.51324176,,,
imu,55.842158,-0.5191966304000001,-9.481918185600001,2.673144863200001,-10.46756653,3.54354533,-4.04219643,,,
imu,55.85063,-0.5550857984,-9.356904250400001,2.67673378,-10.64701237,3.91739083,-3.08515195,,,
imu,55.859103,-0.5293652280000001,-9.2755554696,2.7030525032,-10.5199049,4.50806672,-2.02343073,,,
imu,55.867575,-0.4713444064,-9.246844135200002,2.7628677832,-10.04885957,4.95668132,-1.19349372,,,
imu,55.876047,-0.3947808480000001,-9.2929019008,2.8466091752,-9.34603003,5.4651112,-0.7224483899999998,,,
imu,55.88452,-0.3385544848000001,-9.4107380024,2.928556108800001,-8.845077060000001,5.614649399999999,-1.05890934,,,
imu,55.892992,-0.3080486920000001,-9.584800467200001,2.9602582072,-8.56843139,5.47258811,-1.76921579,,,
imu,55.901465,-0.2793373576,-9.652989886400002,2.908218913600001,-8.740400320000001,5.32304991,-2.65149117,,,
imu,55.909937,-0.3104413032000001,-9.544126076800001,2.8107200072,-9.35350694,5.023973509999999,-3.38422835,,,
imu,54.454165,,,,,,,-85.8166268,175.6310596,113.020376
imu,54.555666,,,,,,,-85.0231588,174.984078,113.5208712
imu,54.657229,,,,,,,-84.80342920000001,174.5690332,114.8392488
imu,54.759066,,,,,,,-84.791222,174.7277268,114.6439336
imu,54.860384,,,,,,,-84.3883844,174.9474564,114.1312312
imu,54.961916,,,,,,,-84.1076188,174.9596636,115.278708
imu,55.063479,,,,,,,-81.27554839999999,174.6056548,112.6907816
imu,55.165041,,,,,,,-83.3385652,175.594438,115.4129872
imu,55.91841,-0.3887993200000001,-9.3694654592,2.7742326864,-9.6226757,4.88938913,-3.69825857,,,
imu,55.926882,-0.4599795032,-9.256414580000001,2.805336632,-9.10676891,4.739850929999999,-3.62348947,,,
imu,55.935354,-0.4803166984,-9.254021968800002,2.8693389816,-8.10486297,4.70246638,-3.55619728,,,
imu,55.943827,-0.4964668240000001,-9.3688673064,2.9195838168,-6.9309881,4.8669584,-3.7206893,,,
imu,55.952299,-0.49347606,-9.443038253600001,2.984782472,-6.08609727,5.08378879,-3.55619728,,,
imu,55.960772,-0.4833074624000001,-9.450216087200001,3.0140919592,-5.68234413,5.3903421,-3.06272122,,,
imu,55.969244,-0.5090280328000001,-9.3927934184,3.0332328488,-5.51785211,6.05578709,-2.47952224,,,
imu,55.977717,-0.56824516,-9.364082084000001,3.0553645024,-5.32345245,6.75861663,-1.64958523,,,
imu,55.986189,-0.5772174520000001,-9.3658765424,3.0284476264,-5.1365297,6.99787775,-1.04395552,,,
imu,55.994637,-0.5347486032000001,-9.3862137376,2.9746138744,-4.702868919999999,7.341815609999999,-1.03647861,,,
imu,56.003086,-0.5036446576000001,-9.373054376,2.9465006928,-4.14957758,7.67827656,-1.4776163,,,
imu,56.011534,-0.4695499480000001,-9.3006778872,2.969828652,-3.31964057,7.96239914,-1.58976995,,,
imu,56.019982,-0.4145198904,-9.260601649600002,3.0164845704,-2.34764227,8.25399863,-1.38789338,,,
imu,56.028431,-0.3451341656,-9.240264454400002,3.0254568624,-1.18872122,8.22409099,-1.45518557,,,
imu,56.036879,-0.3014690112,-9.235479232000001,3.001530750400001,-0.007369440000000005,7.88015313,-1.95613854,,,
imu,56.045327,-0.3056560808,-9.1960011472,2.9722212632,1.03939796,7.28200033,-2.72626027,,,
imu,56.053775,-0.3265914288,-9.1290080336,2.949491456800001,2.46748777,6.68384753,-3.29450543,,,
imu,56.062224,-0.3457323184,-9.132596950400002,2.927957956,3.78342393,6.01840254,-3.68330475,,,
imu,56.070672,-0.3343674152,-9.1930103832,2.9064244552,5.21151374,5.27818845,-4.10948862,,,
imu,56.07912,-0.2787392048,-9.267181330400001,2.8938632464,6.55735754,4.4931129,-4.41604193,,,
imu,56.087569,-0.2530186344000001,-9.343744888800002,2.8974521632,7.58917112,3.61083752,-4.78988743,,,
imu,56.096017,-0.2542149400000001,-9.4286825864,2.8866854128,8.172370099999998,2.65379304,-5.16373293,,,
imu,56.104465,-0.2829262744000001,-9.503451686400002,2.865151912,8.68079998,1.79394839,-4.87961035,,,
imu,56.112913,-0.3259932760000001,-9.502853533600002,2.829262744000001,8.800430539999999,1.06868812,-4.5431494,,,
imu,56.121362,-0.3642750552,-9.439449336800001,2.805934784800001,8.935014919999999,0.6873657099999999,-4.21416536,,,
imu,56.12981,-0.4103328208,-9.389204501600002,2.7879902008,9.18922986,0.58268897,-3.55619728,,,
imu,56.138258,-0.454596128,-9.3904008072,2.7820086728,9.4434448,0.5453044199999999,-2.9729983,,,
imu,56.146707,-0.4665591840000001,-9.441841948000002,2.7915791176,9.99673614,0.6948426199999997,-2.51690679,,,
imu,56.155155,-0.4510072112,-9.486105255200002,2.784401284,9.959351589999999,0.80699627,-2.41223005,,,
imu,56.163603,-0.4474182944000001,-9.516012895200001,2.7766252976,9.899536309999998,1.02382666,-2.62906044,,,
imu,56.172051,-0.4510072112,-9.580613397600002,2.7897846592,9.6677521,1.01634975,-2.98795212,,,
imu,56.1805,-0.4432312248,-9.673925234400002,2.7838031312,9.376152609999998,1.03130357,-3.3468438,,,
imu,56.188948,-0.4402404608,-9.735534972800002,2.7401379768,8.92753801,0.9565344699999998,-3.77302767,,,
imu,56.197411,-0.4438293776000001,-9.744507264800001,2.6952765168,8.26956993,0.8967191899999998,-4.07210407,,,
imu,56.205875,-0.4342589328000001,-9.741516500800001,2.6928839056,7.22280253,0.7770886299999997,-4.34874974,,,
imu,56.214339,-0.4366515440000001,-9.797742864000002,2.7138192536,6.54240372,0.7397040799999997,-4.51324176,,,
imu,56.222802,-0.451605364,-9.844996935200001,2.692285752800001,5.81714345,0.5453044199999999,-4.647826139999999,,,
imu,56.231266,-0.4617739616000001,-9.821668976000002,2.6719485576,4.93486807,0.2013665599999999,-4.66277996,,,
imu,56.239729,-0.4713444064,-9.7540777096,2.6755374744,4.01520814,0.1490281899999997,-4.75250288,,,
imu,56.248193,-0.5114206440000001,-9.680504915200002,2.686902377600001,3.34228624,0.33595094,-4.52819558,,,
imu,56.256656,-0.517402172,-9.6470083584,2.682715308000001,2.90114855,0.41819695,-4.012288789999999,,,
imu,56.26512,-0.5162058664000001,-9.644615747200001,2.6773319328,2.50487232,0.5378275100000001,-3.91508896,,,
imu,56.273583,-0.5467116592000001,-9.632054538400002,2.6773319328,2.12354991,0.7172733499999997,-4.146873169999999,,,
imu,56.282047,-0.56824516,-9.571641105600001,2.696472822400001,1.83195042,0.8294269999999999,-4.22164227,,,
imu,56.29051,-0.5778156048000002,-9.5010590752,2.713221100800001,1.92167334,0.9714882899999999,-4.02724261,,,
imu,56.298974,-0.5742266880000001,-9.536350090400001,2.7341564488,2.05625772,1.01634975,-4.08705789,,,
imu,56.307438,-0.5622636320000001,-9.575828175200002,2.725184156800001,2.35533412,1.06121121,-4.012288789999999,,,
imu,56.315901,-0.5287670752,-9.593174606400002,2.7054451144,2.44505704,1.2032725,-3.92256587,,,
imu,56.324365,-0.5389356728,-9.6015487456,2.704248808800001,2.37028794,1.28551851,-3.75807385,,,
imu,56.332828,-0.5233837000000001,-9.6051376624,2.7054451144,2.32542648,1.28551851,-3.40665908,,,
imu,56.341292,-0.5078317272000001,-9.578818939200001,2.7024543504,1.98896553,1.40514907,-3.17487487,,,
imu,56.349755,-0.4976631296000001,-9.516012895200001,2.6892949888,1.68988913,1.55468727,-2.8234601,,,
imu,56.358219,-0.4970649768000001,-9.456197615200002,2.6701540992,1.45810492,1.58459491,-2.76364482,,,
imu,56.366682,-0.4928779072000001,-9.441841948000002,2.7012580448,1.39081273,1.92853277,-2.58419898,,,
imu,56.375146,-0.535346756,-9.4801237272,2.7341564488,1.43567419,2.22013226,-2.33746095,,,
imu,56.383609,-0.5437208952000001,-9.502255380800001,2.7108284896,1.54035093,2.6238854,-2.02343073,,,
imu,56.392073,-0.5413282840000001,-9.519003659200001,2.699463586400001,1.368382,2.91548489,-2.20287657,,,
imu,56.400894,-0.5323559920000001,-9.522592576000001,2.70664142,1.30108981,3.24446893,-2.54681443,,,
imu,56.409715,-0.4976631296000001,-9.5357519376,2.689893141600001,1.27118217,3.28185348,-2.73373718,,,
imu,56.418536,-0.4593813504000001,-9.573435564,2.6683596408,1.4431511,3.56597606,-2.91318302,,,
imu,56.427357,-0.4510072112,-9.618297024,2.667761488,1.63007385,3.51363769,-2.93561375,,,
imu,56.436177,-0.4210995712,-9.658373261600001,2.680920849600001,1.55530475,3.43886859,-2.96552139,,,
imu,56.444998,-0.4187069600000001,-9.672130776000001,2.701856197600001,1.4431511,3.30428421,-2.91318302,,,
imu,56.453819,-0.4354552384000001,-9.673925234400002,2.7257823096,1.08425942,3.01268472,-2.93561375,,,
imu,56.46264,-0.4563905864000001,-9.659569567200002,2.7287730736,0.85995212,2.95286944,-2.95056757,,,
imu,56.471461,-0.4605776560000001,-9.633848996800001,2.7556899496,0.34404533,2.8481927,-2.86832156,,,
imu,56.480282,-0.4486146000000001,-9.631456385600002,2.769447464,0.09730729999999999,2.90053107,-2.50942988,,,
imu,56.489103,-0.4318663216,-9.634447149600001,2.7592788664,-0.23167674,2.60145467,-2.84589083,,,
imu,56.497924,-0.4354552384000001,-9.639830524800002,2.745521352,-0.56066078,2.33976282,-3.15244414,,,
imu,56.506745,-0.424688488,-9.585398620000001,2.713221100800001,-0.80739881,2.07059406,-3.1973056,,,
imu,56.515566,-0.4187069600000001,-9.4974701584,2.678528238400001,-0.9943215599999999,1.91357895,-3.11505959,,,
imu,56.524387,-0.442633072,-9.435262267200002,2.6563965848,-0.65786061,1.75656384,-2.72626027,,,
imu,56.533207,-0.4755314760000001,-9.451412392800002,2.6474242928,-0.29896893,1.74908693,-2.21035348,,,
imu,56.542028,-0.4928779072000001,-9.4980683112,2.673743016,0.21693786,1.67431783,-1.84398489,,,
imu,56.550849,-0.4839056152000001,-9.575828175200002,2.685706072000001,0.3216146,1.8014253,-1.52247776,,,
imu,56.55967,-0.4366515440000001,-9.6260730104,2.70664142,0.50853735,2.19770153,-1.18601681,,,
imu,56.568491,-0.3816214864,-9.639232372,2.7347546016,0.25432241,2.59397776,-0.8346020399999998,,,
imu,56.577312,-0.3570972216000001,-9.6296619272,2.7491102688,-0.18681528,2.66874686,-0.9018942299999999,,,
imu,56.586133,-0.3445360128,-9.5907819952,2.733558296,-0.71019898,2.65379304,-1.14863226,,,
imu,56.594954,-0.361882444,-9.553098368800002,2.7281749208,-1.07656757,2.68370068,-1.38789338,,,
imu,56.603429,-0.3547046104000001,-9.5184055064,2.7221933928,-1.30835178,2.68370068,-1.5523854,,,
imu,56.611904,-0.3517138464,-9.467562518400001,2.713221100800001,-1.42798234,2.63883922,-1.69444669,,,
imu,56.620379,-0.3559009160000001,-9.440645642400002,2.7168100176,-1.21862886,2.6986545,-1.95613854,,,
imu,56.628854,-0.3463304712,-9.4322715032,2.6970709752,-0.90459864,2.66126995,-2.24026112,,,
imu,56.637329,-0.3301803456000001,-9.458590226400002,2.701856197600001,-0.45598404,2.57154703,-2.48699915,,,
imu,56.645804,-0.334965568,-9.516012895200001,2.7329601432,0.03001510999999998,2.59397776,-2.59167589,,,
imu,56.654279,-0.3313766512,-9.587193078400002,2.7778216032,0.35152224,2.40705501,-2.66644499,,,
imu,56.662754,-0.3241988176,-9.614109954400002,2.7802142144,0.11973803,2.38462428,-2.56924516,,,
imu,56.671229,-0.3343674152,-9.657775108800001,2.8005514096,-0.17933837,2.41453192,-2.4496146,,,
imu,56.679704,-0.3289840400000001,-9.669738164800002,2.783204978400001,-0.53823005,2.3995781,-2.25521494,,,
imu,56.688179,-0.311039456,-9.641624983200002,2.7628677832,-1.06909066,2.40705501,-2.21035348,,,
imu,56.696654,-0.3152265256,-9.5842023144,2.7467176576,-1.46536689,2.22760917,-2.44213769,,,
imu,56.705129,-0.352910152,-9.526779645600001,2.7413342824,-1.64481273,2.21265535,-2.51690679,,,
imu,56.713604,-0.3642750552,-9.4938812416,2.7431287408,-1.65976655,2.19022462,-2.53933752,,,
imu,56.722079,-0.3535083048,-9.4729458936,2.7192026288,-1.52518217,2.29490136,-2.47952224,,,
imu,56.730554,-0.3236006648,-9.462777296000002,2.731165684800001,-1.31582869,2.324809,-2.43466078,,,
imu,55.266604,,,,,,,-81.00699,175.0939428,113.0081688
imu,55.369997,,,,,,,-83.509466,175.7897532,114.9979424
imu,55.469729,,,,,,,-83.22870040000001,175.472366,114.5951048
imu,55.571322,,,,,,,-83.55829480000001,174.6056548,116.0599688
imu,55.672884,,,,,,,-83.69257400000001,174.1661956,116.1210048
imu,55.774416,,,,,,,-84.02216840000001,174.6300692,115.9623112
imu,55.876009,,,,,,,-84.1564476,174.5446188,115.339744
imu,55.977633,,,,,,,-84.44942040000001,174.373718,116.01114
imu,56.739029,-0.3236006648,-9.4699551296,2.745521352,-1.10647521,2.07807097,-2.57672207,,,
imu,56.747504,-0.3295821928000001,-9.506442450400002,2.7670548528,-0.91207555,1.92853277,-2.84589083,,,
imu,56.755979,-0.3606861384,-9.5590798968,2.8011495624,-0.8821679099999999,1.75656384,-2.88327538,,,
imu,56.764454,-0.3684621248000001,-9.596165370400001,2.8256738272,-1.07656757,1.74161002,-2.71130645,,,
imu,56.772928,-0.3923882368,-9.634447149600001,2.8418239528,-1.36816706,1.86871749,-2.40475314,,,
imu,56.781403,-0.4205014184,-9.635643455200002,2.82627198,-1.6971511,2.07059406,-2.06829219,,,
imu,56.789878,-0.43366078,-9.600352440000002,2.8208886048,-2.18315025,2.5491163,-1.60472377,,,
imu,56.798353,-0.3887993200000001,-9.565061424800001,2.822084910400001,-2.66167249,2.88557725,-1.27573973,,,
imu,56.806657,-0.3672658192000001,-9.5148165896,2.8137107712,-2.90841052,3.17717674,-1.19349372,,,
imu,56.81496,-0.334965568,-9.487899713600001,2.833449813600001,-2.94579507,3.40896095,-1.26078591,,,
imu,56.823263,-0.3265914288,-9.5154147424,2.856777772800001,-3.08785636,3.67812971,-1.32060119,,,
imu,56.831566,-0.2913004136,-9.553098368800002,2.863955606400001,-3.22991765,3.85009864,-1.47013939,,,
imu,56.83987,-0.257205704,-9.533359326400001,2.8723297456,-3.55142478,3.96225229,-1.58976995,,,
imu,56.848173,-0.2500278704,-9.4962738528,2.8819001904,-3.58880933,3.820191,-1.88884635,,,
imu,56.856476,-0.2679724544000001,-9.462777296000002,2.8878817184,-3.476655679999999,3.72299117,-2.13558438,,,
imu,56.864779,-0.2530186344000001,-9.4555994624,2.8747223568,-3.32711748,3.57345297,-2.46456842,,,
imu,56.873048,-0.2386629672,-9.410139849600002,2.8579740784,-3.117764,3.40896095,-2.63653735,,,
imu,56.881351,-0.2434481896,-9.370063612000001,2.864553759200001,-2.56447266,3.02763854,-2.68139881,,,
imu,56.889654,-0.2500278704,-9.356306097600001,2.8819001904,-1.93641222,2.80333124,-2.68139881,,,
imu,56.897958,-0.2404574256,-9.3664746952,2.907022608,-1.40555161,2.66874686,-2.5991528,,,
imu,56.906261,-0.2314851336,-9.408345391200001,2.924369039200001,-0.68029134,2.30237827,-2.55429134,,,
imu,56.914564,-0.2338777448,-9.4496179344,2.9261634976,-0.31392275,1.94348659,-2.77859864,,,
imu,56.922867,-0.2595983152,-9.505246144800001,2.931546872800001,0.03001510999999998,1.59207182,-2.90570611,,,
imu,56.93117,-0.3092449976000001,-9.5327611736,2.9560711376,0.26927623,1.39767216,-2.96552139,,,
imu,56.939474,-0.3463304712,-9.516012895200001,2.9626508184,0.27675314,1.48739508,-2.80102937,,,
imu,56.947777,-0.3762381112000001,-9.467562518400001,2.9602582072,0.03749201999999999,1.65936401,-2.56176825,,,
imu,56.95608,-0.3852104032000001,-9.458590226400002,2.9482951512,0.11973803,1.98087114,-2.50942988,,,
imu,56.964383,-0.3750418056000001,-9.487899713600001,2.9171912056,0.32909151,2.25751681,-2.748691,,,
imu,56.972687,-0.3887993200000001,-9.5172092008,2.899246621600001,0.5010604399999999,2.45191647,-2.95056757,,,
imu,56.98099,-0.4037531400000001,-9.5082369088,2.8938632464,0.5982602699999999,2.81828506,-3.01038285,,,
imu,56.989293,-0.4037531400000001,-9.489096019200002,2.8729278984,0.55339881,3.02016163,-3.02533667,,,
imu,56.997596,-0.3804251808,-9.479525574400002,2.852590703200001,0.71789083,3.1472691,-2.92813684,,,
imu,57.005899,-0.3523119992,-9.5010590752,2.8364405776,0.8449983,3.40896095,-2.8234601,,,
imu,57.014533,-0.3355637208,-9.517807353600002,2.837636883200001,0.5982602699999999,3.51363769,-2.70382954,,,
imu,57.023167,-0.3271895816000001,-9.5148165896,2.8436184112,0.64312173,3.5211146,-2.49447606,,,
imu,57.031801,-0.3218062064,-9.529770409600001,2.837636883200001,0.4861066199999999,3.2968073,-2.65896808,,,
imu,57.040435,-0.3206099008000001,-9.5447242296,2.8633574536,0.19450713,3.17717674,-2.86084465,,,
imu,57.049069,-0.3277877344,-9.558481744000002,2.8675445232,-0.02980017,3.03511545,-2.72626027,,,
imu,57.057702,-0.3068523864000001,-9.590183842400002,2.870535287200001,-0.41112258,2.7734236,-2.56176825,,,
imu,57.066336,-0.296085636,-9.6296619272,2.8723297456,-0.78496808,2.63136231,-2.40475314,,,
imu,57.07497,-0.3325729568,-9.640428677600001,2.889676176800001,-0.9793677399999999,2.4743472,-2.02343073,,,
imu,57.083604,-0.3666676664,-9.596165370400001,2.889676176800001,-1.40555161,2.56407012,-1.57481613,,,
imu,57.092238,-0.3636769024000001,-9.5213962704,2.9028355384,-1.89902767,2.67622377,-1.33555501,,,
imu,57.100871,-0.3535083048,-9.479525574400002,2.914798594400001,-2.09342733,2.88557725,-0.79721749,,,
imu,57.109505,-0.3720510416,-9.479525574400002,2.904031844000001,-1.9962275,3.02763854,-0.54300255,,,
imu,57.118139,-0.3876030144000001,-9.51062952,2.924967192,-2.22801171,3.15474601,-0.4981410899999998,,,
imu,57.126773,-0.3780325696000001,-9.513022131200001,2.9692304992,-2.28782699,3.33419185,-0.5579563699999999,,,
imu,57.135407,-0.3846122504,-9.553098368800002,3.0164845704,-2.48222665,3.60336061,-0.4981410899999998,,,
imu,57.144041,-0.3469286240000001,-9.634447149600001,3.029045779200001,-2.67662631,4.03702139,-0.18411087,,,
imu,57.152674,-0.2793373576,-9.666149248000002,3.0051196672,-3.24487147,4.35105161,0.10001171,,,
imu,57.161308,-0.236270356,-9.6296619272,2.963248971200001,-3.82807045,4.59031273,0.3916112000000003,,,
imu,57.169942,-0.2159331608,-9.527377798400002,2.941117317600001,-4.08228539,4.53797436,0.6981645100000002,,,
imu,57.178576,-0.2207183832,-9.443636406400001,2.9405191648,-4.24677741,4.44077453,0.6757337799999998,,,
imu,57.18721,-0.2057645632,-9.415523224800001,2.945304387200001,-3.88040882,4.47068217,0.64582614,,,
imu,57.195843,-0.1770532288,-9.423299211200002,2.94590254,-3.40936349,4.44077453,0.6832106900000001,,,
imu,57.204477,-0.155519728,-9.430477044800002,2.957865596,-3.00561035,4.48563599,0.7430259700000001,,,
imu,57.213016,-0.122621324,-9.443636406400001,2.981791708,-2.84111833,4.44825144,0.81031816,,,
imu,57.221554,-0.1208268656,-9.458590226400002,2.979997249600001,-2.66167249,4.38095925,0.89256417,,,
imu,57.230093,-0.1561178808,-9.460384684800001,2.9829880136,-2.8186876,4.523020539999999,0.7654567000000001,,,
imu,57.238632,-0.1997830352,-9.477132963200003,3.0003344448,-2.93831816,4.97163514,1.01967164,,,
imu,57.24717,-0.2087553272,-9.496872005600002,3.0039233616,-3.28973293,5.420249739999999,1.10191765,,,
imu,57.255709,-0.1836329096,-9.481918185600001,2.989567694400001,-3.4168404,5.69689541,1.1393022,,,
imu,57.264247,-0.1543234224,-9.435262267200002,2.9680341936,-3.7159168,5.98101799,0.9299487200000001,,,
imu,57.272786,-0.152528964,-9.399971252000002,2.978800944,-3.93274719,6.01840254,0.38413429,,,
imu,57.281324,-0.1357806856,-9.4316733504,2.996147375200001,-3.85797809,6.138033099999999,0.01028879000000016,,,
imu,57.289863,-0.07716171120000001,-9.477731116000001,3.0063159728,-3.476655679999999,6.160463829999999,-0.1691570499999999,,,
imu,57.298402,-0.0323002512,-9.457992073600002,2.9859787776,-3.33459439,6.11560237,-0.3336490699999999,,,
imu,57.30694,-0.03887993200000001,-9.408943544000001,3.007512278400001,-3.30468675,5.921202709999999,-0.3411259799999999,,,
imu,57.315479,-0.0502448352,-9.371259917600002,3.0314383904,-3.00561035,5.749233779999999,-0.3859874399999998,,,
imu,57.324017,-0.06160973840000001,-9.387410043200001,3.041606988,-2.75887232,5.45763429,-0.5280487299999999,,,
imu,57.332556,-0.07775986400000001,-9.4424401008,3.0631404888,-2.52708811,5.12117334,-0.7598329399999999,,,
imu,57.341094,-0.092713684,-9.486703408,3.092449976,-2.46727283,4.88938913,-0.9617095099999999,,,
imu,57.349633,-0.1058730456,-9.498666464000001,3.098431504000001,-2.61681103,4.77723548,-1.17106299,,,
imu,57.358171,-0.0933118368,-9.474142199200001,3.077496156,-2.9682258,4.4183438,-1.38789338,,,
imu,57.36671,-0.08254508640000002,-9.435262267200002,3.0601497248,-3.11028709,3.8949601,-1.57481613,,,
imu,57.375249,-0.080750628,-9.3963823352,3.0673275584,-2.90841052,3.41643786,-1.93370781,,,
imu,57.383787,-0.1148453376,-9.391597112800001,3.0661312528,-2.60185721,3.03511545,-2.08324601,,,
imu,57.392326,-0.1680809368,-9.393989724,3.05057928,-2.03361205,2.67622377,-1.78416961,,,
imu,57.400864,-0.1890162848,-9.414925072,3.0673275584,-1.3980747,2.68370068,-1.49257012,,,
imu,57.409403,-0.2039701048,-9.467562518400001,3.053570044,-0.7999219,2.85566961,-0.99909406,,,
imu,57.418152,-0.1985867296,-9.530368562400001,3.0852721424,-0.6503837,3.1472691,-0.62524856,,,
imu,57.426901,-0.161501256,-9.394587876800001,3.084673989600001,-0.71019898,3.19213056,-0.37851053,,,
imu,57.435651,-0.131593616,-9.416719530400002,3.086468448,-0.32887657,3.19960747,-0.1691570499999999,,,
imu,57.4444,-0.1244157824,-9.5010590752,3.0816832256,-0.007369440000000005,3.09493073,0.21964227,,,
imu,57.453149,-0.1190324072,-9.495675700000001,3.075103544800001,-0.02980017,3.0725,0.5187186700000002,,,
imu,57.461898,-0.0550300576,-9.437056725600002,3.0679257112,-0.18681528,2.99025399,0.9149948999999999,,,
imu,57.470648,-0.0107667504,-9.402962016000002,3.0523737384,-0.26906129,2.6986545,1.24397894,,,
imu,57.479397,0.0101685976,-9.3898026544,3.0392143768,-0.20924601,2.46687029,1.67763972,,,
imu,57.488146,0.0227298064,-9.350324569600001,3.0368217656,-0.11204618,2.21265535,2.08886977,,,
imu,57.496895,0.01495382,-9.3455393472,3.0493829744,-0.11952309,2.12293243,2.485146,,,
imu,57.505645,0.0053833752,-9.387410043200001,3.068523864000001,0.04496892999999999,2.13788625,3.00105279,,,
imu,57.514394,0.020935348,-9.401765710400001,3.079290614400001,0.19450713,2.33228591,3.47209812,,,
imu,57.523143,0.0562263632,-9.423897364000002,3.0930481288,0.14964567,2.70613141,4.047820189999999,,,
imu,57.531892,0.09211553120000002,-9.4107380024,3.1032167264,-0.10456927,3.00520781,4.272127490000001,,,
imu,57.540642,0.1303973104,-9.394587876800001,3.115179782400001,-0.32139966,3.10240764,4.30951204,,,
imu,57.549391,0.1710717008,-9.402962016000002,3.1301336024,-0.44850713,3.18465365,4.19735839,,,
imu,56.07911,,,,,,,-82.4230252,172.8844396,113.2767272
imu,56.180642,,,,,,,-84.3395556,173.2384484,117.1219952
imu,56.282204,,,,,,,-81.9713588,172.35953,114.0457808
imu,56.383767,,,,,,,-84.48604200000001,173.0797548,116.804608
imu,56.48536,,,,,,,-84.27851960000001,172.725746,116.438392
imu,56.586922,,,,,,,-84.119826,173.2628628,116.743572
imu,56.688485,,,,,,,-84.14424039999999,173.2384484,116.6703288
imu,56.790017,,,,,,,-83.8634748,173.2384484,116.4505992
imu,57.55814,0.2051664104,-9.405952780000002,3.1157779352,-0.47093786,3.43886859,4.077727830000001,,,
imu,57.566889,0.2284943696,-9.419112141600001,3.1241520744,-0.49336859,3.5958837,3.86837435,,,
imu,57.575639,0.2613927736,-9.4250936696,3.1391058944,-0.66533752,3.75289881,3.980528,,,
imu,57.584388,0.3206099008000001,-9.4215047528,3.1301336024,-0.77001426,3.72299117,3.83846671,,,
imu,57.593137,0.3893974728000001,-9.435860420000001,3.1379095888,-1.0242292,3.50616078,3.52443649,,,
imu,57.601886,0.4294737104000001,-9.450216087200001,3.1397040472,-1.13638285,3.10988455,3.02348352,,,
imu,56.891549,,,,,,,-84.51045640000001,173.1163764,116.3651488
imu,56.997292,,,,,,,-83.6803668,173.946466,115.8036176
imu,57.102639,,,,,,,-84.6325284,173.5680428,116.194248
imu,57.196419,,,,,,,-82.105638,173.3238988,113.5330784
imu,57.29786,,,,,,,-84.1686548,174.129574,115.8402392
imu,57.399392,,,,,,,-81.8370796,173.9220516,112.7640248
imu,57.500954,,,,,,,-84.44942040000001,174.617862,114.9002848
imu,57.602517,,,,,,,-84.1076188,174.9718708,115.1688432
