Type,Timestamp,Data Accelerometer X,Data Accelerometer Y,Data Accelerometer Z,Data Gyroscope X,Data Gyroscope Y,Data Gyroscope Z,Data Magnetometer X,Data Magnetometer Y,Data Magnetometer Z
imu,242.066417,-0.2015774936,-9.575828175200002,2.6187129584,-3.93274719,2.73603905,1.87203938,,,
imu,242.074898,-0.2249054528,-9.557883591200001,2.619909264,-3.95517792,2.66874686,1.64025517,,,
imu,242.083378,-0.2314851336,-9.5010590752,2.6103388192,-3.70843989,2.67622377,1.52062461,,,
imu,242.091858,-0.2536167872,-9.463973601600001,2.6312741672,-3.39440967,2.69117759,1.16920984,,,
imu,242.100338,-0.31403022,-9.450216087200001,2.6659670296,-2.87850288,2.97530017,1.20659439,,,
imu,242.108818,-0.352910152,-9.520798117600002,2.703650656000001,-2.45979592,3.31176112,1.13182529,,,
imu,242.117298,-0.370854736,-9.594370912,2.680920849600001,-2.16071952,3.87252937,0.9224718100000002,,,
imu,242.125778,-0.3732473472,-9.636839760800001,2.667761488,-1.95136604,4.51554363,0.4364726600000002,,,
imu,242.134258,-0.3636769024000001,-9.6499991224,2.6952765168,-2.01865823,5.3903421,0.13739626,,,
imu,242.142738,-0.3170209840000001,-9.641026830400001,2.7084358784,-2.21305789,6.41467877,0.1897346300000002,,,
imu,242.151218,-0.2781410520000001,-9.641026830400001,2.697669128,-2.19062716,7.364246339999999,0.4813341200000001,,,
imu,242.159698,-0.2410555784,-9.630858232800001,2.699463586400001,-2.24296553,8.17175262,0.52619558,,,
imu,242.168178,-0.1902125904,-9.625474857600002,2.6839116136,-2.33268845,8.8297207,0.6233954100000001,,,
imu,242.176658,-0.1232194768,-9.602146898400001,2.697669128,-2.54204193,9.38301204,0.5336724899999998,,,
imu,242.185138,-0.06998387760000001,-9.575230022400001,2.689893141600001,-2.57194957,9.51759642,0.4364726600000002,,,
imu,242.193619,-0.009570444800000001,-9.569248494400002,2.6952765168,-2.42241137,9.510119509999999,0.3392728300000001,,,
imu,242.202099,0.03588916800000001,-9.5638651192,2.689893141600001,-2.19062716,9.300766029999998,0.1523500800000002,,,
imu,242.210579,0.06101158560000001,-9.561472508000001,2.7012580448,-2.13081188,8.92692053,-0.1317724999999998,,,
imu,242.219059,0.08733030880000002,-9.536948243200001,2.713221100800001,-2.12333497,8.418490649999999,-0.31869525,,,
imu,242.22752,0.1172379488,-9.528574104,2.7281749208,-2.10838115,7.91753768,-0.37851053,,,
imu,242.235981,0.1381732968,-9.526181492800001,2.733558296,-2.07847351,7.199754319999999,-0.4308489,,,
imu,242.244442,0.1507345056,-9.534555632000002,2.7353527544,-2.08595042,6.467017139999999,-0.6701100199999999,,,
imu,242.252903,0.1836329096,-9.534555632000002,2.7401379768,-1.93641222,5.853910519999999,-0.5579563699999999,,,
imu,242.261364,0.1967922712,-9.520798117600002,2.746119504800001,-2.04108896,5.068834969999999,-0.60281783,,,
imu,242.269825,0.2015774936,-9.5010590752,2.7323619904,-1.89902767,4.13422122,-0.5654332799999999,,,
imu,242.278286,0.1776513816,-9.478329268800001,2.7287730736,-1.76444329,3.18465365,-0.4308489,,,
imu,242.286747,0.1489400472,-9.453206851200001,2.7341564488,-1.4728438,2.3995781,-0.3037414299999999,,,
imu,242.295208,0.1232194768,-9.451412392800002,2.742530588,-1.21862886,1.74908693,-0.11681868,,,
imu,242.303669,0.1244157824,-9.471151435200001,2.7443250464,-1.14385976,1.29299542,0.04767334000000023,,,
imu,242.31213,0.1262102408,-9.4974701584,2.7592788664,-0.89712173,0.64250425,0.242073,,,
imu,242.320591,0.092713684,-9.535153784800002,2.780812367200001,-0.68029134,-0.04537147000000008,0.2719806400000002,,,
imu,242.329052,0.07058203040000001,-9.597361676,2.7748308392,-0.49336859,-0.5538013500000001,0.05515025000000007,,,
imu,242.337513,0.0406743904,-9.594370912,2.7532973384,-0.59056842,-1.09961578,-0.23644924,,,
imu,242.345974,0.0191408896,-9.583006008800002,2.7766252976,-0.5980453299999999,-1.35383072,-0.15420323,,,
imu,242.354435,-0.007177833600000002,-9.600352440000002,2.798756951200001,-0.68776825,-1.23420016,-0.1093417699999999,,,
imu,242.362896,-0.0227298064,-9.6075302736,2.804140326400001,-0.7550604399999999,-1.03232359,0.15982699,,,
imu,242.371357,-0.0317020984,-9.612315496,2.8280664384,-0.98684465,-0.9201699400000001,0.2719806400000002,,,
imu,242.379818,-0.02990764000000001,-9.614109954400002,2.8460110224,-1.42798234,-0.5238937100000003,0.3542266500000002,,,
imu,242.388279,-0.0203371952,-9.630858232800001,2.8747223568,-1.89902767,-0.1126636599999999,0.6308723199999999,,,
imu,242.39674,-0.004187069600000001,-9.651195428000001,2.891470635200001,-2.19810407,0.5079198699999998,1.01219473,,,
imu,242.405201,0.0107667504,-9.684093832000002,2.8932650936,-2.65419558,0.98644211,1.31127113,,,
imu,242.413662,0.0305057928,-9.675121540000001,2.8795075792,-3.12524091,1.56216418,1.46080933,,,
imu,242.422123,0.03349655680000001,-9.630260080000001,2.864553759200001,-3.760778259999999,1.88367131,1.41594787,,,
imu,242.43058,0.0532355992,-9.577024480800002,2.8436184112,-4.00751629,2.22760917,1.39351714,,,
imu,242.439037,0.06579680800000001,-9.566257730400002,2.817897840800001,-4.17948522,2.46687029,1.15425602,,,
imu,242.447494,0.0903210728,-9.5590798968,2.8268701328,-4.24677741,2.63883922,0.8252719800000001,,,
imu,242.455951,0.1112564208,-9.537546396000002,2.8436184112,-4.62062291,2.72108523,0.6009646800000001,,,
imu,242.464409,0.1489400472,-9.5082369088,2.8699371344,-4.71034583,2.89305416,0.50376485,,,
imu,242.472866,0.167482784,-9.502255380800001,2.9088170664,-4.99446841,2.85566961,0.4589033900000001,,,
imu,242.481323,0.1680809368,-9.516012895200001,2.9255653448,-5.368313909999999,2.81080815,0.3691804699999999,,,
imu,242.48978,0.161501256,-9.516012895200001,2.9303505672,-5.46551374,2.73603905,0.2869344599999999,,,
imu,242.498237,0.1417622136,-9.506442450400002,2.9261634976,-5.77206705,2.78837742,0.2869344599999999,,,
imu,242.506695,0.1297991576,-9.498666464000001,2.9417154704,-6.071143449999999,3.02763854,0.66825687,,,
imu,242.515152,0.1471455888,-9.486105255200002,2.9327431784,-6.08609727,3.43139168,1.04210237,,,
imu,242.523609,0.1752587704,-9.450216087200001,2.910611524800001,-5.99637435,3.79028336,1.19911748,,,
imu,242.532066,0.1979885768,-9.402962016000002,2.9136022888,-5.816928509999999,3.91739083,0.9449025400000002,,,
imu,242.540523,0.2207183832,-9.343146736000001,2.951884068,-5.338406269999999,3.73794499,0.44394957,,,
imu,242.54898,0.2374666616,-9.335370749600001,2.984782472,-4.95708386,3.68560662,0.1972115400000001,,,
imu,242.557438,0.2278962168,-9.3862137376,3.015288264800001,-4.560807629999999,3.82766791,0.2271191799999999,,,
imu,242.565895,0.23926112,-9.435860420000001,3.0009325976,-4.21686977,3.93982156,0.4514264799999999,,,
imu,242.574352,0.2410555784,-9.4286825864,3.0194753344,-3.88788573,4.171605769999999,0.6757337799999998,,,
imu,242.582809,0.2709632184,-9.411934308000001,3.0260550152,-3.43927113,4.30619015,0.8776103499999999,,,
imu,242.591266,0.3451341656,-9.395186029600001,3.0332328488,-3.1925331,4.23889796,0.7729336099999999,,,
imu,242.599724,0.3774344168000001,-9.359895014400001,3.0260550152,-2.76634923,3.8949601,0.3691804699999999,,,
imu,242.608181,0.3852104032000001,-9.3317818328,3.0679257112,-2.18315025,3.36409949,-0.4233719899999999,,,
imu,242.616534,0.3804251808,-9.307855720800001,3.1062074904,-1.6971511,2.96034635,-0.9766633299999998,,,
imu,242.624991,0.3648732080000001,-9.3269966104,3.1068056432,-1.08404448,2.5491163,-1.29817046,,,
imu,242.633456,0.3433397072,-9.3455393472,3.101422268000001,-0.58309151,2.30237827,-1.33555501,,,
imu,242.641921,0.340947096,-9.3652783896,3.094244434400001,-0.35878421,2.13788625,-1.37293956,,,
imu,242.650386,0.3397507904000001,-9.4041583216,3.1020204208,-0.11204618,2.26499372,-1.41780102,,,
imu,242.658851,0.3134320672,-9.440047489600001,3.092449976,0.13469185,2.07059406,-1.41032411,,,
imu,242.667316,0.2954874832,-9.429878892000001,3.0798887672,0.16459949,1.90610204,-1.54490849,,,
imu,242.67578,0.2793373576,-9.4424401008,3.1229557688,0.26179932,1.79394839,-1.95613854,,,
imu,242.684245,0.2637853848,-9.470553282400001,3.176191368,0.42629134,1.88367131,-2.27764567,,,
imu,242.69271,0.2566075512,-9.501657228000001,3.2072953136,0.46367589,2.11545552,-2.28512258,,,
imu,242.701175,0.2207183832,-9.504647992000002,3.2318195784,0.35899915,2.54163939,-2.16549202,,,
imu,242.70964,0.2015774936,-9.4843107968,3.242586328800001,0.0001074699999999984,2.99025399,-2.10567674,,,
imu,242.718104,0.2117460912,-9.452010545600002,3.2461752456,-0.05970781,3.40896095,-2.02343073,,,
imu,242.726569,0.2135405496,-9.396980488,3.2192583696,-0.4260764,3.90243701,-2.14306129,,,
imu,242.735034,0.2344758976,-9.352717180800001,3.2192583696,-0.44103022,4.37348234,-2.32998404,,,
imu,242.743499,0.266177996,-9.3383615136,3.2096879248,-0.34383039,4.91181986,-2.65896808,,,
imu,242.751964,0.2859170384,-9.328791068800001,3.2013137856,-0.16438455,5.158557889999999,-3.11505959,,,
imu,242.760428,0.3068523864000001,-9.370063612000001,3.198323021600001,0.18703022,5.40529592,-3.54124346,,,
imu,242.768893,0.3265914288,-9.393989724,3.206099008,0.26927623,5.29314227,-3.99733497,,,
imu,242.777358,0.3547046104000001,-9.4250936696,3.224043592000001,0.30666078,5.263234629999999,-4.22164227,,,
imu,242.785823,0.3630787496,-9.4382530312,3.221052828,0.38142988,5.45763429,-4.318842099999999,,,
imu,242.794288,0.3660695136000001,-9.4454308648,3.2318195784,0.05992275,5.397819009999999,-4.25902682,,,
imu,242.802753,0.3893974728000001,-9.438851184,3.2485678568,-0.03727708,5.51744957,-3.96742733,,,
imu,242.811217,0.4055475984,-9.408943544000001,3.247969704,-0.06718472,5.56231103,-3.62348947,,,
imu,242.819682,0.4085383624000001,-9.402363863200002,3.247371551200001,-0.04475399000000001,5.49501884,-3.50385891,,,
imu,242.828147,0.4001642232,-9.4173176832,3.2581383016,-0.14943073,5.51744957,-3.39170526,,,
imu,242.836964,0.424688488,-9.440645642400002,3.2551475376,-0.11952309,5.32304991,-3.35432071,,,
imu,242.845781,0.4450256832000001,-9.441841948000002,3.2593346072,-0.14943073,5.03145042,-3.44404363,,,
imu,242.854598,0.4360533912000001,-9.427486280800002,3.2623253712,-0.25410747,4.68003565,-3.42908981,,,
imu,242.863415,0.415716196,-9.425691822400001,3.2802699552,-0.32887657,4.388436159999999,-3.56367419,,,
imu,242.872232,0.4175106544000001,-9.393989724,3.2856533304,-0.49336859,4.07440594,-3.61601256,,,
imu,242.881049,0.4354552384000001,-9.3993730992,3.2856533304,-0.5756146,3.69308353,-3.75807385,,,
imu,242.889865,0.4073420568000001,-9.414326919200002,3.271895816,-0.39616876,3.26689966,-3.8702275,,,
imu,242.898682,0.4013605288,-9.4346641144,3.262923524000001,-0.45598404,2.9229618,-3.90761205,,,
imu,242.907499,0.3977716120000001,-9.405354627200001,3.2581383016,-0.34383039,2.53416248,-4.012288789999999,,,
imu,242.916316,0.3995660704000001,-9.385017432000001,3.25993276,-0.2765382,2.20517844,-4.0945348,,,
imu,242.925133,0.3738455000000001,-9.3898026544,3.270699510400001,-0.02232326000000001,2.00330187,-4.057150249999999,,,
imu,242.93395,0.3511156936,-9.420906600000002,3.268306899200001,-0.03727708,1.78647148,-3.88518132,,,
imu,242.942767,0.3427415544,-9.434065961600002,3.2736902744,0.09730729999999999,1.73413311,-3.89265823,,,
imu,242.951584,0.3182172896000001,-9.410139849600002,3.2802699552,0.1720764,1.60702564,-3.93004278,,,
imu,242.960401,0.3170209840000001,-9.368269153600002,3.2653161352,0.05992275,1.38271834,-4.27398064,,,
imu,242.969218,0.3158246784000001,-9.305463109600002,3.2485678568,0.22441477,1.23318014,-4.6179185,,,
imu,242.978035,0.305057928,-9.267181330400001,3.2372029536,0.59078336,1.06121121,-4.94690254,,,
imu,242.986852,0.2853188856,-9.246844135200002,3.214473147200001,1.0693056,1.00887284,-5.12634838,,,
imu,242.995669,0.2542149400000001,-9.254021968800002,3.1947341048,1.53287402,1.06868812,-5.07401001,,,
imu,243.004486,0.233279592,-9.280938844800001,3.1887525768,2.116073,1.10607267,-4.89456417,,,
imu,243.013302,0.236270356,-9.297687123200001,3.159443089600001,2.75161035,1.39019525,-4.77493361,,,
imu,243.022119,0.2368685088,-9.3126409432,3.1438911168,3.21517877,1.54721036,-4.51324176,,,
imu,242.109232,,,,,,,-85.767798,172.0177284,117.5736616
imu,242.210855,,,,,,,-85.767798,172.5670524,117.2196528
imu,243.030936,0.2314851336,-9.356306097600001,3.1785839792,3.52173208,1.7266562,-4.453426479999999,,,
imu,243.039416,0.2207183832,-9.405952780000002,3.176191368,3.90305449,1.96591732,-4.26650373,,,
imu,243.047896,0.2087553272,-9.436458572800001,3.167219076,4.07502342,2.1005017,-4.27398064,,,
imu,243.056377,0.2177276192,-9.444234559200002,3.1576486312,3.87314685,2.04816333,-4.430995749999999,,,
imu,243.064857,0.2177276192,-9.477132963200003,3.167817228800001,3.8357623,1.97339423,-4.57305704,,,
imu,243.073337,0.2141387024,-9.4908904776,3.152265256000001,3.66379337,1.83133294,-4.77493361,,,
imu,243.081817,0.2051664104,-9.479525574400002,3.122357616,3.54416281,1.60702564,-5.08148692,,,
imu,243.090297,0.1890162848,-9.444832712,3.0858702952,3.32733242,1.5023489,-5.11887147,,,
imu,243.098777,0.1842310624,-9.430477044800002,3.053570044,3.3123786,1.36028761,-5.01419473,,,
imu,243.107257,0.185427368,-9.4454308648,3.0320365432,3.589024269999999,1.51730272,-4.692687599999999,,,
imu,243.115737,0.1656883256,-9.482516338400002,3.0302420848,3.74603938,1.48739508,-4.363703559999999,,,
imu,243.124217,0.1680809368,-9.516012895200001,3.0140919592,4.09745415,1.60702564,-4.11696553,,,
imu,243.132697,0.1866236736,-9.5184055064,3.0218679456,4.232038530000001,1.64441019,-4.19921154,,,
imu,243.141177,0.1758569232,-9.502853533600002,3.0260550152,4.08250033,1.76404075,-4.318842099999999,,,
imu,243.149657,0.1686790896,-9.481320032800001,3.017082723200001,4.11240797,1.94348659,-4.23659609,,,
imu,243.158137,0.158510492,-9.492086783200001,3.005717820000001,4.24699235,2.19770153,-4.25154991,,,
imu,243.166617,0.1561178808,-9.516611048000001,3.0140919592,3.96286977,2.6238854,-4.22911918,,,
imu,243.175098,0.1788476872,-9.5602762024,3.0099048896,3.90305449,2.75099287,-4.07210407,,,
imu,243.183578,0.1967922712,-9.569248494400002,3.0164845704,3.58154736,2.87810034,-4.20668845,,,
imu,243.192058,0.2231109944,-9.553696521600001,2.9865769304,3.23013259,2.90800798,-4.37118047,,,
imu,243.200538,0.242251884,-9.530368562400001,2.9793990968,2.93105619,2.81828506,-4.65530305,,,
imu,243.209018,0.2494297176,-9.548313146400002,2.9931566112,2.66936434,2.85566961,-4.49828794,,,
imu,243.217498,0.2506260232,-9.595567217600001,3.0063159728,2.43010322,2.90053107,-4.42351884,,,
imu,243.225978,0.2566075512,-9.627867468800002,3.0188771816,1.9665348,3.01268472,-4.13191935,,,
imu,243.234458,0.2685706072,-9.633250844,3.015288264800001,1.48053565,3.06502309,-3.75807385,,,
imu,243.242918,0.2853188856,-9.593772759200002,3.032634696,0.53844499,3.16222292,-3.70573548,,,
imu,243.251377,0.2787392048,-9.533359326400001,3.041606988,0.13469185,3.25942275,-3.45152054,,,
imu,243.259837,0.2877114968,-9.468160671200001,3.024260556800001,-0.46346095,2.9977309,-3.63844329,,,
imu,243.268297,0.2913004136,-9.419112141600001,3.02067164,-0.5681376899999999,2.8481927,-3.95247351,,,
imu,243.276757,0.296085636,-9.3838211264,2.9734175688,-0.44103022,2.71360832,-4.52071867,,,
imu,243.285216,0.2745521352,-9.3455393472,2.96085636,-0.06718472,2.27994754,-4.96185636,,,
imu,243.293676,0.2548130928,-9.332379985600001,2.968632346400001,0.3739529699999999,1.94348659,-5.26840967,,,
imu,243.302136,0.227298064,-9.3545116392,2.9734175688,0.91229049,1.71170238,-5.48524006,,,
imu,243.310596,0.215335008,-9.3832229736,2.9883713888,1.61512003,1.53225654,-5.260932759999999,,,
imu,243.319055,0.1848292152,-9.4173176832,3.022466098400001,1.84690424,1.34533379,-5.11139456,,,
imu,243.327515,0.1818384512,-9.4424401008,3.038018071200001,2.116073,1.09111885,-4.86465653,,,
imu,243.335975,0.1692772424,-9.458590226400002,3.061944183200001,2.28056502,1.09859576,-4.602964679999999,,,
imu,243.344434,0.1519308112,-9.4669643656,3.0523737384,2.1908421,1.2780416,-4.37118047,,,
imu,243.352894,0.1471455888,-9.458590226400002,3.040410682400001,2.12354991,1.28551851,-4.17678081,,,
imu,243.361354,0.1369769912,-9.441841948000002,3.024260556800001,2.20579592,1.40514907,-4.0197657,,,
imu,243.369814,0.125612088,-9.4244955168,3.0122975008,2.53477996,1.59954873,-4.11696553,,,
imu,243.378273,0.1327899216,-9.4203084472,2.991960305600001,2.863764,1.68927165,-4.29641137,,,
imu,243.386733,0.1381732968,-9.444832712,2.9913621528,3.34228624,1.83133294,-4.57305704,,,
imu,243.395193,0.1483418944,-9.492684936000002,2.9973436808,3.589024269999999,1.83880985,-4.715118329999999,,,
imu,243.403653,0.1489400472,-9.540537160000001,2.9853806248,3.71613174,1.85376367,-4.79736434,,,
imu,243.412112,0.1411640608,-9.554294674400001,2.978202791200001,3.59650118,1.91357895,-4.77493361,,,
imu,243.420572,0.1603049504,-9.5602762024,3.0021289032,3.47687062,1.89862513,-4.80484125,,,
imu,243.429032,0.1830347568,-9.5638651192,3.0081104312,3.07311748,1.78647148,-4.976810179999999,,,
imu,243.437491,0.167482784,-9.5638651192,2.999736292,2.77404108,1.74908693,-5.22354821,,,
imu,243.446021,0.1507345056,-9.554294674400001,2.996147375200001,2.10111918,1.42010289,-5.500193879999999,,,
imu,243.454551,0.1429585192,-9.512423978400001,2.9692304992,1.86933497,1.13598031,-5.73197809,,,
imu,243.46308,0.125612088,-9.4735440464,2.9764083328,1.94410407,0.8742884599999998,-5.93385466,,,
imu,243.47161,0.1094619624,-9.46576806,2.966239735200001,1.79456587,0.72475026,-5.874039379999999,,,
imu,243.48014,0.0783580168,-9.4699551296,2.938126553600001,1.91419643,0.6499811599999998,-5.65720899,,,
imu,243.488669,0.0634041968,-9.461580990400002,2.9387247064,2.07868845,0.5303505999999998,-5.37308641,,,
imu,243.497199,0.0592171272,-9.4735440464,2.9261634976,2.40019558,0.5527813299999997,-5.09644074,,,
imu,243.505729,0.05562821040000001,-9.464571754400001,2.9291542616,2.43758013,0.52287369,-5.14877911,,,
imu,243.514258,0.06041343280000001,-9.460384684800001,2.9213782752,2.70674889,0.44062768,-5.3656095,,,
imu,243.522788,0.04964668240000001,-9.457393920800001,2.928556108800001,2.91610237,0.41819695,-5.53757843,,,
imu,243.531318,0.02990764000000001,-9.482516338400002,2.941117317600001,3.00582529,0.52287369,-5.38056332,,,
imu,243.539847,0.0245242648,-9.520199964800002,2.9482951512,3.09554821,0.7322271699999998,-4.991764,,,
imu,243.548377,0.0257205704,-9.574631869600001,2.959061901600001,2.92357928,0.8967191899999998,-4.56558013,,,
imu,243.556907,0.0215335008,-9.6218859408,2.953678526400001,2.51982614,1.15841104,-4.32631901,,,
imu,243.565436,0.023926112,-9.627269316000001,2.94590254,1.98148862,1.36776452,-4.22911918,,,
imu,243.573966,0.0406743904,-9.606333968000001,2.9351357896,1.6674584,1.59207182,-4.04219643,,,
imu,243.582496,0.0502448352,-9.562070660800002,2.9255653448,1.37585891,1.77151766,-3.98238115,,,
imu,243.591025,0.0592171272,-9.519003659200001,2.9094152192,1.02444414,1.68927165,-4.19921154,,,
imu,243.599555,0.06699311360000001,-9.507040603200002,2.8974521632,1.04687487,1.70422547,-4.22911918,,,
imu,243.608085,0.0681894192,-9.512423978400001,2.8848909544,1.09921324,1.59207182,-4.11696553,,,
imu,243.616614,0.08374139200000001,-9.507040603200002,2.889676176800001,1.27865908,1.71917929,-3.99733497,,,
imu,243.625144,0.1184342544,-9.5010590752,2.8866854128,1.4431511,1.78647148,-4.0197657,,,
imu,243.633674,0.1250139352,-9.5082369088,2.889078024,1.51044329,1.74161002,-3.99733497,,,
imu,243.642203,0.11963056,-9.487899713600001,2.9034336912,1.62259694,1.60702564,-3.85527368,,,
imu,243.65061,0.1064711984,-9.483712644000002,2.9004429272,1.48801256,1.51730272,-4.0197657,,,
imu,243.659016,0.0980970592,-9.465169907200002,2.913004136000001,1.43567419,1.43505671,-4.012288789999999,,,
imu,243.667422,0.0933118368,-9.474142199200001,2.918985664,1.48053565,1.33785688,-4.15435008,,,
imu,243.675829,0.08733030880000002,-9.501657228000001,2.913004136000001,1.37585891,1.45001053,-4.27398064,,,
imu,243.684235,0.0783580168,-9.537546396000002,2.9171912056,1.368382,1.46496435,-4.26650373,,,
imu,243.692641,0.07955432240000002,-9.5632669664,2.9327431784,1.31604363,1.577118,-4.28145755,,,
imu,243.701048,0.07955432240000002,-9.592576453600001,2.9405191648,1.00201341,1.56216418,-4.35622665,,,
imu,243.70939,0.07775986400000001,-9.589585689600002,2.9333413312,0.97210577,1.46496435,-4.28145755,,,
imu,243.717797,0.07058203040000001,-9.536948243200001,2.921976428000001,0.7253677399999999,1.41262598,-4.44594957,,,
imu,243.726203,0.08015247520000002,-9.477132963200003,2.9195838168,0.66555246,1.46496435,-4.47585721,,,
imu,243.734609,0.04964668240000001,-9.459786532,2.917789358400001,0.63564482,1.46496435,-4.28893446,,,
imu,243.743016,0.0263187232,-9.4843107968,2.924369039200001,0.82256757,1.53973345,-4.11696553,,,
imu,243.751422,0.0143556672,-9.557883591200001,2.9530803736,1.03939796,1.70422547,-4.13191935,,,
imu,243.759828,0.026916876,-9.605735815200001,2.9722212632,0.7552753799999999,1.93600968,-4.15435008,,,
imu,243.768235,0.06998387760000001,-9.599156134400001,2.9740157216,0.5010604399999999,2.19770153,-4.15435008,,,
imu,243.776641,0.0735727944,-9.557883591200001,2.982389860800001,0.1720764,2.22760917,-3.99733497,,,
imu,243.785047,0.06101158560000001,-9.5172092008,2.9734175688,-0.09709236,2.35471664,-3.84779677,,,
imu,243.793454,0.07775986400000001,-9.4962738528,2.957267443200001,-0.127,2.30985518,-3.95247351,,,
imu,243.80186,0.0663949608,-9.4729458936,2.9321450256,0.03749201999999999,2.34723973,-4.057150249999999,,,
imu,243.810266,0.04605776560000001,-9.453805004000001,2.9387247064,0.15712258,2.3995781,-4.341272829999999,,,
imu,243.818673,0.04007623760000001,-9.426888128000002,2.9255653448,0.23189168,2.27247063,-4.70764142,,,
imu,243.827079,0.0466559184,-9.403560168800002,2.9142004416,0.4711528,2.20517844,-4.94690254,,,
imu,243.835485,0.04246884880000001,-9.398176793600001,2.913004136000001,0.70293701,2.30237827,-5.12634838,,,
imu,242.312357,,,,,,,-86.3049148,172.9454756,117.598076
imu,242.41398,,,,,,,-85.5724828,173.5558356,116.1698336
imu,242.515512,,,,,,,-85.8532484,174.1417812,116.7924008
imu,242.617105,,,,,,,-83.43622280000001,174.0807452,113.6795648
imu,242.718637,,,,,,,-84.791222,175.8629964,115.6327168
imu,242.82023,,,,,,,-83.0700068,175.0206996,113.8016368
imu,242.921915,,,,,,,-85.65793319999999,176.1193476,115.0223568
imu,243.023294,,,,,,,-85.53586120000001,176.3390772,115.3641584
imu,243.843891,0.0317020984,-9.440047489600001,2.9261634976,1.02444414,2.23508608,-5.11887147,,,
imu,243.852711,0.0382817792,-9.488497866400001,2.9602582072,1.41324346,2.29490136,-4.87961035,,,
imu,243.861531,0.03947808480000001,-9.522592576000001,2.953678526400001,1.24127453,2.27247063,-4.87213344,,,
imu,243.87035,0.0562263632,-9.5357519376,2.9482951512,1.06182869,2.33228591,-4.75250288,,,
imu,243.87917,0.0783580168,-9.508835061600001,2.9602582072,0.9945364999999999,2.25751681,-4.65530305,,,
imu,243.887989,0.07058203040000001,-9.474142199200001,2.966837888,0.8973366700000001,2.21265535,-4.715118329999999,,,
imu,243.896809,0.0723764888,-9.471151435200001,2.963847124,0.80013684,2.06311715,-4.86465653,,,
imu,243.905629,0.06579680800000001,-9.481918185600001,2.9596600544,0.94219813,1.77151766,-5.07401001,,,
imu,243.914448,0.04785222400000001,-9.495675700000001,2.957267443200001,1.04687487,1.52477963,-5.23102512,,,
imu,243.923268,0.03887993200000001,-9.499862769600002,2.9297524144,1.10669015,1.18831868,-5.47028624,,,
imu,243.932087,0.0137575144,-9.4729458936,2.9124059832,1.28613599,1.06121121,-5.4403786,,,
imu,243.940907,-0.017944584,-9.432869656000001,2.905228149600001,1.51044329,0.76213481,-5.5151477,,,
imu,243.949726,-0.0317020984,-9.396980488,2.895059552,1.99644244,0.5752120599999997,-5.305794219999999,,,
imu,243.958546,-0.04845037680000001,-9.401765710400001,2.910611524800001,2.27308811,0.5153967799999997,-5.07401001,,,
imu,243.967366,-0.080750628,-9.4669643656,2.9231727336,2.5646876,0.5378275100000001,-4.85717962,,,
imu,243.976185,-0.09450814240000002,-9.519601812000001,2.9165930528,2.70674889,0.6275504299999999,-4.74502597,,,
imu,243.985005,-0.09510629520000001,-9.544126076800001,2.927957956,2.68431816,0.76213481,-4.65530305,,,
imu,243.993824,-0.08673215600000002,-9.534555632000002,2.927957956,2.55721069,0.94905756,-4.715118329999999,,,
imu,244.002644,-0.08733030880000002,-9.534555632000002,2.9321450256,2.39271867,1.29299542,-4.61044159,,,
imu,244.011463,-0.08912476720000001,-9.5590798968,2.9207801224,2.40019558,1.56216418,-4.26650373,,,
imu,244.020283,-0.08912476720000001,-9.574631869600001,2.917789358400001,2.31047266,1.82385603,-4.06462716,,,
imu,244.029103,-0.08194693360000001,-9.585398620000001,2.9046299968,2.01887317,1.92853277,-4.0945348,,,
imu,244.037922,-0.0693857248,-9.5632669664,2.895059552,1.77213514,2.13040934,-4.318842099999999,,,
imu,244.046742,-0.0406743904,-9.554294674400001,2.898050316,1.63755076,2.19022462,-4.53567249,,,
imu,244.055208,-0.02871133440000001,-9.552500216,2.9004429272,1.63755076,2.16031698,-4.81979507,,,
imu,244.063674,-0.02871133440000001,-9.5291722568,2.8824983432,1.64502767,2.04068642,-4.954379449999999,,,
imu,244.07214,-0.03110394560000001,-9.501657228000001,2.8609648424,1.58521239,1.86871749,-5.021671639999999,,,
imu,244.080606,-0.03588916800000001,-9.489694172,2.8466091752,1.53287402,1.59954873,-5.15625602,,,
imu,244.089072,-0.03947808480000001,-9.478329268800001,2.8400294944,1.83195042,1.53225654,-4.96185636,,,
imu,244.097538,-0.05084298800000001,-9.483712644000002,2.8436184112,1.80204278,1.65936401,-4.7674567,,,
imu,244.106004,-0.0532355992,-9.5184055064,2.85617962,1.95158098,1.67431783,-4.30388828,,,
imu,244.11447,-0.05802082160000001,-9.551303910400001,2.8627593008,2.07121154,1.59954873,-3.98985806,,,
imu,244.122937,-0.06519865520000001,-9.578818939200001,2.8753205096,2.00391935,1.7266562,-3.88518132,,,
imu,244.131403,-0.07118018320000001,-9.593174606400002,2.8819001904,1.68241222,1.75656384,-4.02724261,,,
imu,244.139869,-0.0532355992,-9.614109954400002,2.8783112736,1.5179202,1.77151766,-4.19921154,,,
imu,244.148335,-0.04486146000000001,-9.599754287200001,2.8693389816,1.15902852,1.75656384,-4.40108811,,,
imu,244.156801,-0.0466559184,-9.5865949256,2.8675445232,1.09173633,1.96591732,-4.46090339,,,
imu,244.165267,-0.05084298800000001,-9.553098368800002,2.8418239528,0.9197674,2.00330187,-4.670256869999999,,,
imu,244.173733,-0.04605776560000001,-9.5237888816,2.8394313416,0.8823828499999999,1.82385603,-4.84970271,,,
imu,244.182199,-0.0526374464,-9.498666464000001,2.8466091752,0.80761375,1.8761944,-4.84970271,,,
imu,244.190665,-0.05742266880000001,-9.501657228000001,2.844216564,0.9571519499999999,2.01825569,-4.75250288,,,
imu,244.199131,-0.0550300576,-9.517807353600002,2.853188856,1.03192105,1.89114822,-4.83474889,,,
imu,244.207597,-0.0634041968,-9.5429297712,2.863955606400001,1.15902852,1.71170238,-4.86465653,,,
imu,244.216063,-0.0693857248,-9.5638651192,2.875918662400001,1.08425942,1.71170238,-4.976810179999999,,,
imu,244.22453,-0.09510629520000001,-9.579417092000002,2.8902743296,0.8674290299999999,1.7266562,-5.25345585,,,
imu,244.232996,-0.0933118368,-9.590183842400002,2.907022608,0.67302937,1.60702564,-5.43290169,,,
imu,244.241462,-0.1058730456,-9.5907819952,2.910013372,0.57582954,1.55468727,-5.60487062,,,
imu,244.249928,-0.1238176296,-9.584800467200001,2.908218913600001,0.3216146,1.45748744,-5.761885729999999,,,
imu,244.258395,-0.1393696024,-9.555490980000002,2.891470635200001,0.12721494,1.42010289,-5.761885729999999,,,
imu,244.266863,-0.1321917688,-9.510031367200002,2.891470635200001,-0.06718472,1.30794924,-5.97123921,,,
imu,244.27533,-0.143556672,-9.477731116000001,2.887283565600001,-0.2017691,1.10607267,-6.068439039999999,,,
imu,244.283797,-0.155519728,-9.468160671200001,2.8854891072,-0.02980017,0.8593346399999997,-6.068439039999999,,,
imu,244.292265,-0.1632957144,-9.470553282400001,2.864553759200001,0.32909151,0.6125966099999998,-6.135731229999999,,,
imu,244.300732,-0.170473548,-9.484908949600001,2.8854891072,0.70293701,0.5303505999999998,-6.1880696,,,
imu,244.309199,-0.1890162848,-9.4980683112,2.914798594400001,0.79265993,0.44062768,-6.10582359,,,
imu,244.317667,-0.2051664104,-9.513022131200001,2.9297524144,0.9571519499999999,0.5378275100000001,-5.589916799999999,,,
imu,244.326134,-0.2147368552,-9.5393408544,2.928556108800001,0.97958268,0.5901658799999998,-4.87213344,,,
imu,244.334601,-0.2356722032,-9.5566872856,2.8986484688,1.00949032,0.76213481,-4.408565019999999,,,
imu,244.343069,-0.2464389536,-9.533957479200001,2.8699371344,0.81509066,0.7995193599999997,-4.55810322,,,
imu,244.351536,-0.2506260232,-9.477731116000001,2.841225800000001,0.80013684,0.84438082,-4.58801086,,,
imu,244.360003,-0.2494297176,-9.430477044800002,2.8208886048,1.2188438,0.9640113799999996,-4.670256869999999,,,
imu,244.368471,-0.2458408008,-9.414326919200002,2.7957661872,1.67493531,1.03878048,-4.81231816,,,
imu,244.376938,-0.2326814392,-9.419112141600001,2.8035421736,2.02635008,1.21822632,-4.87213344,,,
imu,244.385406,-0.2326814392,-9.467562518400001,2.8214867576,2.55721069,1.48739508,-4.81979507,,,
imu,244.393873,-0.212344244,-9.522592576000001,2.822084910400001,2.81142563,1.69674856,-4.72259524,,,
imu,244.40234,-0.1955959656,-9.565061424800001,2.838833188800001,2.89367164,1.86124058,-4.625395409999999,,,
imu,244.410808,-0.2021756464,-9.592576453600001,2.841225800000001,2.89367164,2.06311715,-4.33379592,,,
imu,244.419275,-0.182436604,-9.6087265792,2.843020258400001,2.77404108,2.22013226,-4.146873169999999,,,
imu,244.427742,-0.17944584,-9.617698871200002,2.8406276472,2.29551884,2.23508608,-4.25154991,,,
imu,244.43621,-0.1620994088,-9.623680399200001,2.8328516608,2.10859609,2.324809,-4.34874974,,,
imu,244.444677,-0.1567160336,-9.599156134400001,2.8167015352,1.71231986,2.324809,-4.55810322,,,
imu,244.453144,-0.155519728,-9.556089132800002,2.805934784800001,1.33847436,2.38462428,-4.65530305,,,
imu,244.461619,-0.1507345056,-9.519601812000001,2.798756951200001,1.15902852,2.26499372,-4.8422258,,,
imu,244.470094,-0.1489400472,-9.520199964800002,2.8029440208,1.24127453,2.04068642,-5.11139456,,,
imu,244.478569,-0.16449202,-9.538742701600002,2.8101218544,1.24127453,1.64441019,-5.20111748,,,
imu,244.487044,-0.1860255208,-9.5566872856,2.8149070768,1.31604363,1.45001053,-5.305794219999999,,,
imu,244.495519,-0.1842310624,-9.550705757600001,2.7999532568,1.28613599,1.21822632,-5.10391765,,,
imu,244.503994,-0.1800439928,-9.538742701600002,2.825075674400001,1.16650543,1.24813396,-4.81231816,,,
imu,244.512469,-0.1806421456,-9.5656595776,2.838235036,1.03192105,1.11354958,-4.50576485,,,
imu,244.520944,-0.1920070488,-9.597959828800002,2.835244272,1.09173633,0.9191499199999997,-4.25902682,,,
imu,243.12487,,,,,,,-85.20626680000001,175.9240324,115.7914104
imu,243.226402,,,,,,,-85.59689720000002,175.838582,115.6815456
imu,243.328026,,,,,,,-85.49923960000001,175.7653388,116.2796984
imu,243.429497,,,,,,,-85.0475732,175.6066452,116.6703288
imu,243.53109,,,,,,,-84.99874439999999,175.3258796,115.7792032
imu,243.632652,,,,,,,-85.3771676,175.2160148,116.9755088
imu,243.734215,,,,,,,-83.2409076,174.3370964,114.0824024
imu,243.835777,,,,,,,-85.8776628,174.9108348,116.4017704
imu,244.529419,-0.1967922712,-9.589585689600002,2.8286645912,0.79265993,0.92662683,-4.102011709999999,,,
imu,244.537894,-0.2051664104,-9.5566872856,2.8436184112,0.73284465,0.8518577299999999,-3.88518132,,,
imu,244.546369,-0.2195220776,-9.530966715200002,2.8400294944,0.47862971,0.80699627,-3.7206893,,,
imu,244.554844,-0.2344758976,-9.538742701600002,2.847207328000001,0.57582954,1.09859576,-3.54124346,,,
imu,244.563319,-0.2530186344000001,-9.547116840800001,2.8418239528,0.53844499,1.37524143,-3.43656672,,,
imu,244.571794,-0.2404574256,-9.530368562400001,2.8364405776,0.65059864,1.56216418,-3.36927453,,,
imu,244.580269,-0.233279592,-9.531564868,2.8579740784,0.64312173,1.68179474,-3.3468438,,,
imu,244.588744,-0.2410555784,-9.5501076048,2.866348217600001,0.7253677399999999,1.90610204,-3.45152054,,,
imu,244.597219,-0.2261017584,-9.572239258400002,2.8513943976,0.55339881,2.08554788,-3.60853565,,,
imu,244.605694,-0.2009793408,-9.575828175200002,2.8418239528,0.53096808,2.15284007,-3.86275059,,,
imu,244.614169,-0.1890162848,-9.560874355200001,2.8490017864,0.46367589,2.27247063,-3.93004278,,,
imu,244.622644,-0.1788476872,-9.554892827200002,2.845412869600001,0.53096808,2.36219355,-4.04967334,,,
imu,244.631119,-0.1650901728,-9.556089132800002,2.8484036336,0.7253677399999999,2.33976282,-4.034719519999999,,,
imu,244.639594,-0.1561178808,-9.547116840800001,2.8406276472,0.7253677399999999,2.20517844,-4.13939626,,,
imu,244.648069,-0.1686790896,-9.527975951200002,2.82627198,0.66555246,2.23508608,-4.146873169999999,,,
imu,244.656544,-0.1746606176,-9.51062952,2.831655355200001,0.4861066199999999,2.27247063,-4.102011709999999,,,
imu,244.664996,-0.1848292152,-9.4908904776,2.8328516608,0.53844499,2.24256299,-4.07210407,,,
imu,244.673448,-0.1752587704,-9.502255380800001,2.8370387304,0.60573718,2.11545552,-4.10948862,,,
imu,244.6819,-0.182436604,-9.4980683112,2.8167015352,0.55339881,2.13040934,-4.408565019999999,,,
imu,244.690352,-0.197390424,-9.4669643656,2.8095237016,0.50853735,1.95844041,-4.74502597,,,
imu,244.698805,-0.206362716,-9.4460290176,2.8137107712,0.63564482,1.62197946,-4.909517989999999,,,
imu,244.707257,-0.2045682576000001,-9.450216087200001,2.825075674400001,0.77770611,1.45748744,-5.07401001,,,
imu,244.715709,-0.200381188,-9.477731116000001,2.8280664384,0.9870595899999999,1.30047233,-5.13382529,,,
imu,244.724161,-0.215335008,-9.495675700000001,2.8167015352,1.20388998,1.1285034,-5.14877911,,,
imu,244.732613,-0.2356722032,-9.516012895200001,2.829262744000001,1.38333582,0.9789651999999998,-4.96185636,,,
imu,244.741065,-0.2578038568000001,-9.5213962704,2.850198092000001,1.5179202,0.8892422799999999,-4.715118329999999,,,
imu,244.749517,-0.2667761488000001,-9.537546396000002,2.8519925504,1.46558183,0.9041961000000001,-4.61044159,,,
imu,244.757969,-0.2859170384,-9.5566872856,2.8657500648,1.38333582,0.7097964399999999,-4.73007215,,,
imu,244.766421,-0.3086468448,-9.5429297712,2.8633574536,1.30856672,0.6125966099999998,-4.976810179999999,,,
imu,244.774873,-0.3463304712,-9.5154147424,2.8364405776,1.19641307,0.56025824,-5.238502029999999,,,
imu,244.783326,-0.3642750552,-9.4765348104,2.837636883200001,1.20388998,0.4256738599999998,-5.38804023,,,
imu,244.791778,-0.3696584304000001,-9.5237888816,2.8585722312,1.45810492,0.6350273399999997,-5.38804023,,,
imu,244.800137,-0.35889168,-9.588389384000001,2.8627593008,1.67493531,0.9789651999999998,-5.31327113,,,
imu,244.80859,-0.3523119992,-9.5877912312,2.8603666896,1.74970441,0.9789651999999998,-4.89456417,,,
imu,244.817042,-0.3822196392,-9.5501076048,2.8478054808,1.55530475,0.9565344699999998,-4.84970271,,,
imu,244.825494,-0.3762381112000001,-9.498666464000001,2.8657500648,1.60764312,1.12102649,-4.74502597,,,
imu,244.833946,-0.3822196392,-9.520798117600002,2.8436184112,1.84690424,1.03130357,-4.53567249,,,
imu,244.842398,-0.4001642232,-9.562668813600002,2.835244272,2.01887317,0.9789651999999998,-4.52819558,,,
imu,244.85085,-0.4270810992000001,-9.5740337168,2.8256738272,2.15345755,0.9939190199999999,-4.625395409999999,,,
imu,244.859302,-0.4611758088,-9.5459205352,2.8513943976,2.22822665,1.24065705,-4.47585721,,,
imu,244.868169,-0.4641665728000001,-9.527975951200002,2.877114968,2.1908421,1.53225654,-4.057150249999999,,,
imu,244.877037,-0.4390441552000001,-9.553696521600001,2.8789094264,2.29551884,1.8761944,-3.5711511,,,
imu,244.885904,-0.4384460024000001,-9.581809703200001,2.8579740784,2.19831901,2.26499372,-3.27955161,,,
imu,244.894771,-0.4127254320000001,-9.572837411200002,2.835244272,1.74970441,2.61640849,-2.91318302,,,
imu,244.903639,-0.3923882368,-9.5381445488,2.8101218544,1.52539711,2.87810034,-2.78607555,,,
imu,244.912506,-0.3738455000000001,-9.492086783200001,2.780812367200001,1.52539711,3.02763854,-2.80102937,,,
imu,244.921374,-0.3720510416,-9.453805004000001,2.7556899496,1.88428879,3.26689966,-2.90570611,,,
imu,244.930241,-0.3738455000000001,-9.440645642400002,2.745521352,2.1908421,3.5211146,-2.87579847,,,
imu,244.939108,-0.3463304712,-9.464571754400001,2.736549060000001,2.53477996,3.65569898,-2.92065993,,,
imu,244.947976,-0.3247969704000001,-9.517807353600002,2.742530588,2.87871782,3.65569898,-3.10010577,,,
imu,244.956843,-0.3080486920000001,-9.572837411200002,2.7467176576,3.00582529,3.70056044,-3.03281358,,,
imu,244.96571,-0.3086468448,-9.602146898400001,2.757484408000001,3.00582529,3.85009864,-3.06272122,,,
imu,244.974578,-0.3038616224,-9.6284656216,2.7509047272,2.76656417,3.81271409,-2.92065993,,,
imu,244.983445,-0.2954874832,-9.614109954400002,2.7491102688,2.45253395,3.60336061,-2.86084465,,,
imu,244.992312,-0.2769447464000001,-9.593772759200002,2.7538954912,2.03382699,3.46129932,-2.85336774,,,
imu,245.00118,-0.2715613712,-9.587193078400002,2.759877019200001,1.80204278,3.26689966,-2.88327538,,,
imu,245.010047,-0.2685706072,-9.593174606400002,2.7562881024,1.65998149,3.03511545,-2.95804448,,,
imu,245.018914,-0.2536167872,-9.597361676,2.745521352,1.36090509,2.7734236,-2.80850628,,,
imu,245.027782,-0.2542149400000001,-9.593772759200002,2.748512116,1.0693056,2.43696265,-2.80102937,,,
imu,245.036649,-0.2709632184,-9.5800152448,2.7509047272,0.9048135799999999,2.09302479,-2.8234601,,,
imu,245.045516,-0.2895059552,-9.595567217600001,2.763465936,1.05435178,1.90610204,-2.69635263,,,
imu,245.054384,-0.3062542336,-9.588987536800001,2.75150288,0.94219813,1.94348659,-2.45709151,,,
imu,245.063251,-0.3259932760000001,-9.575230022400001,2.761671477600001,1.03939796,2.09302479,-2.12063056,,,
imu,245.071679,-0.331974804,-9.583604161600002,2.769447464,0.8449983,2.18274771,-2.20287657,,,
imu,245.080107,-0.3505175408000001,-9.580613397600002,2.7670548528,0.76275229,2.34723973,-2.33746095,,,
imu,245.088535,-0.331974804,-9.5656595776,2.7838031312,0.49358353,2.50425484,-2.59167589,,,
imu,245.096963,-0.3164228312,-9.543527924000001,2.7999532568,0.44124516,2.59397776,-2.89075229,,,
imu,245.105391,-0.3122357616,-9.554294674400001,2.7790179088,0.30666078,2.78090051,-2.95056757,,,
imu,245.113819,-0.3152265256,-9.564463272000001,2.7915791176,0.26179932,3.02016163,-2.92065993,,,
imu,245.122247,-0.3008708584000001,-9.574631869600001,2.7915791176,0.21693786,3.10240764,-2.8234601,,,
imu,245.130675,-0.2829262744000001,-9.578220786400001,2.7927754232,0.26179932,3.17717674,-2.68139881,,,
imu,245.139103,-0.2715613712,-9.589585689600002,2.8107200072,0.0001074699999999984,3.11736146,-2.61410662,,,
imu,245.14753,-0.2733558296,-9.590183842400002,2.8035421736,-0.29149202,2.94539253,-2.60662971,,,
imu,245.155958,-0.2673743016,-9.576426328,2.8047384792,-0.2765382,2.89305416,-2.46456842,,,
imu,245.164386,-0.2679724544000001,-9.551303910400001,2.8047384792,-0.20924601,2.76594669,-2.60662971,,,
imu,245.172814,-0.2733558296,-9.524387034400002,2.7951680344,-0.0522309,2.64631613,-2.5991528,,,
imu,245.181242,-0.2637853848,-9.503451686400002,2.7939717288,-0.07466163,2.59397776,-2.58419898,,,
imu,245.18967,-0.2787392048,-9.492684936000002,2.7915791176,0.08235347999999998,2.63883922,-2.51690679,,,
imu,245.198098,-0.2853188856,-9.481918185600001,2.7867938952,0.29918387,2.65379304,-2.45709151,,,
imu,245.206526,-0.3020671640000001,-9.4831144912,2.8035421736,0.55339881,2.80333124,-2.24773803,,,
imu,245.214954,-0.2996745528,-9.505246144800001,2.8011495624,0.65059864,2.97530017,-2.17296893,,,
imu,245.223382,-0.2805336632,-9.5249851872,2.8161033824,0.91229049,3.12483837,-2.1505382,,,
imu,245.23181,-0.281131816,-9.532163020800002,2.805336632,0.94219813,3.15474601,-2.3000764,,,
imu,245.240238,-0.2709632184,-9.522592576000001,2.7975606456,0.88985976,3.30428421,-2.47204533,,,
imu,245.248666,-0.2613927736,-9.5184055064,2.7981587984,0.79265993,3.22951511,-2.60662971,,,
imu,245.257094,-0.266177996,-9.5237888816,2.7885883536,0.9945364999999999,3.18465365,-2.74121409,,,
imu,245.265522,-0.2691687600000001,-9.527377798400002,2.796962492800001,1.12912088,3.33419185,-2.65149117,,,
imu,245.274017,-0.2697669128,-9.546518688,2.7927754232,1.23379762,3.31923803,-2.58419898,,,
imu,245.282512,-0.2476352592,-9.565061424800001,2.8131126184,1.12164397,3.31923803,-2.48699915,,,
imu,245.291008,-0.233279592,-9.572837411200002,2.790382812,1.17398234,3.35662258,-2.45709151,,,
imu,245.299503,-0.2147368552,-9.576426328,2.7820086728,0.8449983,3.33419185,-2.60662971,,,
imu,245.307998,-0.2165313136,-9.551303910400001,2.7772234504,0.82256757,3.31176112,-2.53933752,,,
imu,245.316494,-0.20935348,-9.543527924000001,2.7658585472,0.8749059399999999,3.34166876,-2.48699915,,,
imu,245.324989,-0.2027737992,-9.5590798968,2.7790179088,0.8375213899999999,3.12483837,-2.62906044,,,
imu,245.333484,-0.2105497856,-9.574631869600001,2.7820086728,0.8674290299999999,3.05754618,-2.62906044,,,
imu,245.34198,-0.20935348,-9.6015487456,2.778419756,0.7403215599999999,2.9229618,-2.80850628,,,
imu,243.93734,,,,,,,-83.3751868,174.4103396,114.8392488
imu,244.038963,,,,,,,-85.79221240000001,174.4469612,116.2919056
imu,244.140587,,,,,,,-85.7433836,174.862006,117.3173104
imu,244.242027,,,,,,,-85.71896919999999,174.6422764,117.1586168
imu,244.343529,,,,,,,-85.401582,174.3370964,116.9755088
imu,244.445122,,,,,,,-85.95090599999999,174.3493036,116.6581216
imu,244.546715,,,,,,,-85.7555908,174.1661956,116.194248
imu,244.648277,,,,,,,-85.90207720000001,173.6168716,116.5360496
imu,245.350475,-0.2278962168,-9.634447149600001,2.796962492800001,0.53096808,2.88557725,-2.8982292,,,
imu,245.35897,-0.2195220776,-9.6667474008,2.8029440208,0.26179932,2.96034635,-2.96552139,,,
imu,245.367466,-0.227298064,-9.682299373600001,2.7700456168,0.08983038999999998,2.93043871,-3.0477674,,,
imu,245.375961,-0.2201202304,-9.6434194416,2.775428992000001,-0.11204618,2.9977309,-2.87579847,,,
imu,245.384456,-0.2171294664,-9.567454036,2.7730363808,-0.31392275,2.8481927,-2.93561375,,,
imu,245.392952,-0.200381188,-9.498666464000001,2.7772234504,-0.43355331,2.91548489,-3.1973056,,,
imu,245.401447,-0.2135405496,-9.502853533600002,2.775428992000001,-0.32139966,2.88557725,-3.1973056,,,
imu,245.409942,-0.2290925224000001,-9.537546396000002,2.7449231992,-0.20924601,2.73603905,-3.26459779,,,
imu,245.418438,-0.242251884,-9.571641105600001,2.7509047272,-0.23167674,2.79585433,-3.42908981,,,
imu,245.426933,-0.2470371064,-9.5865949256,2.7748308392,-0.24663056,2.75099287,-3.42908981,,,
imu,245.435428,-0.23926112,-9.599156134400001,2.8077292432,-0.41859949,2.87062343,-3.18235178,,,
imu,245.443924,-0.2530186344000001,-9.648802816800002,2.8238793688,-0.77749117,3.09493073,-2.86832156,,,
imu,245.452419,-0.2374666616,-9.679308609600001,2.8364405776,-1.18872122,3.16222292,-2.56924516,,,
imu,245.460914,-0.2195220776,-9.665551095200001,2.825075674400001,-1.73453565,3.21456129,-2.42718387,,,
imu,245.46941,-0.2117460912,-9.61530626,2.8029440208,-2.2205348,3.23699202,-2.50195297,,,
imu,245.477837,-0.2249054528,-9.557883591200001,2.8131126184,-2.45979592,3.28185348,-2.61410662,,,
imu,245.486265,-0.2237091472,-9.501657228000001,2.8107200072,-2.77382614,3.34166876,-2.8234601,,,
imu,245.494693,-0.2171294664,-9.490292324800002,2.7820086728,-2.60185721,3.42391477,-2.96552139,,,
imu,245.503121,-0.2147368552,-9.509433214400001,2.7897846592,-2.54951884,3.48373005,-3.02533667,,,
imu,245.511549,-0.2099516328,-9.520798117600002,2.8071310904,-2.57942648,3.57345297,-3.15244414,,,
imu,245.519977,-0.19439966,-9.530966715200002,2.8238793688,-2.50465738,3.62579134,-3.18982869,,,
imu,245.528405,-0.2075590216,-9.556089132800002,2.85617962,-2.5196112,3.61083752,-3.22721324,,,
imu,245.536833,-0.2099516328,-9.562668813600002,2.8723297456,-2.67662631,3.60336061,-3.47395127,,,
imu,245.545261,-0.2015774936,-9.564463272000001,2.877713120800001,-2.97570271,3.57345297,-3.78798149,,,
imu,245.553689,-0.1902125904,-9.5638651192,2.8795075792,-3.13271782,3.51363769,-3.95247351,,,
imu,245.562117,-0.1818384512,-9.560874355200001,2.8753205096,-3.117764,3.53606842,-4.08705789,,,
imu,245.570545,-0.191408896,-9.541135312800002,2.8926669408,-3.13271782,3.36409949,-4.19921154,,,
imu,245.578973,-0.1902125904,-9.5154147424,2.8938632464,-2.87850288,3.17717674,-4.17678081,,,
imu,245.587401,-0.182436604,-9.477132963200003,2.8824983432,-2.70653395,3.02763854,-4.244073,,,
imu,245.595829,-0.17944584,-9.457393920800001,2.8765168152,-2.51213429,2.9977309,-4.16182699,,,
imu,245.604257,-0.1812402984,-9.436458572800001,2.8723297456,-2.22801171,2.73603905,-4.13191935,,,
imu,245.612684,-0.1866236736,-9.422701058400001,2.873526051200001,-1.80930475,2.51920866,-4.00481188,,,
imu,245.621112,-0.1830347568,-9.4454308648,2.9058263024,-1.39059779,2.35471664,-3.8702275,,,
imu,245.62954,-0.1836329096,-9.498666464000001,2.9321450256,-1.23358268,2.09302479,-3.90761205,,,
imu,245.637968,-0.188418132,-9.547116840800001,2.9327431784,-1.22610577,2.03320951,-3.98238115,,,
imu,245.646396,-0.1872218264,-9.547714993600001,2.9447062344,-1.36069015,1.81637912,-4.102011709999999,,,
imu,245.654824,-0.203371952,-9.533359326400001,2.952482220800001,-1.66724346,1.63693328,-4.28893446,,,
imu,245.663252,-0.2165313136,-9.5237888816,2.957267443200001,-2.01865823,1.45748744,-4.20668845,,,
imu,245.67168,-0.2314851336,-9.523190728800001,2.9542766792,-2.0709966,1.4275798,-4.102011709999999,,,
imu,245.680216,-0.2326814392,-9.5249851872,2.9506877624,-2.19810407,1.33037997,-4.22911918,,,
imu,245.688752,-0.23926112,-9.5040498392,2.954874832000001,-2.28035008,1.47991817,-4.08705789,,,
imu,245.697288,-0.263187232,-9.477132963200003,2.968632346400001,-2.17567334,1.51730272,-3.95995042,,,
imu,245.705824,-0.2739539824000001,-9.477731116000001,2.9865769304,-2.23548862,1.6518871,-4.012288789999999,,,
imu,245.71436,-0.2709632184,-9.482516338400002,2.999736292,-2.32521154,1.63693328,-4.16182699,,,
imu,245.722896,-0.2625890792,-9.499862769600002,3.0069141256,-2.42241137,1.66684092,-4.37118047,,,
imu,245.731432,-0.2619909264,-9.492684936000002,3.0140919592,-2.30278081,1.6518871,-4.64034923,,,
imu,245.739968,-0.2745521352,-9.484908949600001,3.023662404,-2.30278081,1.6518871,-4.670256869999999,,,
imu,245.748504,-0.2775428992,-9.4669643656,3.030840237600001,-2.26539626,1.63693328,-4.53567249,,,
imu,245.75704,-0.2954874832,-9.4555994624,3.0314383904,-2.33268845,1.71917929,-4.35622665,,,
imu,245.765576,-0.2978800944000001,-9.460982837600001,3.0463922104,-2.370073,1.66684092,-4.25154991,,,
imu,245.774112,-0.3062542336,-9.4801237272,3.0529718912,-2.38502682,1.65936401,-4.30388828,,,
imu,245.782648,-0.2948893304,-9.478927421600002,3.049981127200001,-2.18315025,1.73413311,-4.146873169999999,,,
imu,245.791184,-0.2918985664000001,-9.4765348104,3.0469903632,-1.89902767,1.69674856,-4.13939626,,,
imu,245.79972,-0.3008708584000001,-9.4496179344,3.0463922104,-1.76444329,1.68927165,-4.34874974,,,
imu,245.808256,-0.3158246784000001,-9.4316733504,3.0284476264,-1.67472037,1.69674856,-4.34874974,,,
imu,245.816792,-0.3337692624,-9.4137287664,3.0320365432,-1.34573633,1.67431783,-4.19921154,,,
imu,245.825328,-0.3236006648,-9.405952780000002,3.0122975008,-0.9793677399999999,1.84628676,-4.034719519999999,,,
imu,245.833864,-0.3283858872000001,-9.409541696800002,3.0045215144,-0.46346095,2.1005017,-3.75059694,,,
imu,245.8424,-0.3295821928000001,-9.422701058400001,2.999736292,-0.0522309,2.24256299,-3.62348947,,,
imu,245.850936,-0.3068523864000001,-9.443038253600001,3.0045215144,0.05992275,2.45939338,-3.48890509,,,
imu,245.859472,-0.2853188856,-9.443636406400001,3.011699348,0.19450713,2.6986545,-3.25712088,,,
imu,245.868008,-0.2733558296,-9.465169907200002,3.0320365432,0.26179932,2.94539253,-3.07019813,,,
imu,245.876545,-0.2709632184,-9.48072188,3.0284476264,0.21693786,3.18465365,-3.06272122,,,
imu,245.885292,-0.2548130928,-9.492684936000002,3.012895653600001,0.17955331,3.35662258,-2.94309066,,,
imu,245.893961,-0.2470371064,-9.516012895200001,3.0140919592,0.38142988,3.56597606,-3.16739796,,,
imu,245.902709,-0.2290925224000001,-9.517807353600002,3.014690112,0.50853735,3.55849915,-3.59358183,,,
imu,245.911457,-0.2045682576000001,-9.478329268800001,3.0081104312,0.3963837,3.49868387,-4.0945348,,,
imu,245.920205,-0.1926052016,-9.455001309600002,3.0111011952,0.41133752,3.49868387,-4.43847266,,,
imu,245.928953,-0.170473548,-9.461580990400002,3.0194753344,0.45619898,3.50616078,-4.44594957,,,
imu,245.937701,-0.1728661592,-9.519003659200001,3.0481866688,0.45619898,3.46129932,-4.034719519999999,,,
imu,245.946449,-0.1483418944,-9.572239258400002,3.0667294056,0.27675314,3.22951511,-3.78798149,,,
imu,245.955197,-0.1351825328,-9.5704448,3.056560808,-0.13447691,2.96034635,-3.77302767,,,
imu,245.963945,-0.1262102408,-9.513022131200001,3.0511774328,-0.73262971,2.45191647,-4.034719519999999,,,
imu,245.972693,-0.1393696024,-9.4412437952,3.0487848216,-1.11395212,1.68927165,-4.27398064,,,
imu,245.98144,-0.1626975616,-9.415523224800001,3.044597752,-1.00179847,0.9191499199999997,-4.58801086,,,
imu,245.990188,-0.2117460912,-9.440047489600001,3.0350273072,-0.77749117,0.2537049300000001,-5.193640569999999,,,
imu,245.998936,-0.2554112456,-9.477132963200003,3.0469903632,-0.71019898,-0.1650020300000001,-5.328224949999999,,,
imu,246.007684,-0.3062542336,-9.508835061600001,3.0457940576,-0.68776825,-0.23229422,-4.931948719999999,,,
imu,246.016432,-0.3325729568,-9.519601812000001,3.0428032936,-0.76253735,-0.1051867500000001,-4.47585721,,,
imu,246.02518,-0.370854736,-9.544126076800001,3.0398125296,-0.91207555,0.1565051,-3.9449966,,,
imu,246.033928,-0.3882011672000001,-9.556089132800002,3.0230642512,-0.81487572,0.6125966099999998,-3.53376655,,,
imu,246.042676,-0.3822196392,-9.528574104,3.0009325976,-1.15881358,1.03878048,-3.45152054,,,
imu,246.051424,-0.3798270280000001,-9.499862769600002,2.9859787776,-1.26349032,1.63693328,-3.61601256,,,
imu,246.060172,-0.370854736,-9.492684936000002,2.9692304992,-1.14385976,2.1752708,-4.034719519999999,,,
imu,246.06892,-0.35889168,-9.502255380800001,2.9722212632,-1.08404448,2.59397776,-4.82727198,,,
imu,246.077668,-0.3367600264,-9.5040498392,2.978800944,-1.11395212,2.78837742,-5.57496298,,,
imu,246.086152,-0.3325729568,-9.510031367200002,3.02067164,-1.34573633,3.13231528,-6.120777410000001,,,
imu,246.094635,-0.3128339144,-9.526779645600001,3.049981127200001,-1.63733582,3.25194584,-6.16563887,,,
imu,246.103119,-0.2883096496000001,-9.588987536800001,3.0643367944,-2.10090424,3.31176112,-6.292746339999999,,,
imu,246.111603,-0.2542149400000001,-9.618297024,3.0661312528,-2.39998064,3.35662258,-6.32265398,,,
imu,246.120087,-0.2578038568000001,-9.606932120800002,3.062542336,-3.028041079999999,3.13979219,-6.42733072,,,
imu,246.128571,-0.245242648,-9.549509452,3.0529718912,-3.59628624,2.78837742,-6.45723836,,,
imu,246.137055,-0.2458408008,-9.4873015608,3.0631404888,-3.865455,2.2500399,-6.33013089,,,
imu,246.145539,-0.2733558296,-9.4555994624,3.063738641600001,-4.06733157,1.64441019,-6.360038530000001,,,
imu,246.154023,-0.3265914288,-9.4460290176,3.063738641600001,-4.17948522,1.18831868,-6.32265398,,,
imu,246.162507,-0.3750418056000001,-9.451412392800002,3.040410682400001,-4.18696213,0.7471809899999999,-6.487145999999999,,,
imu,244.74968,,,,,,,-83.509466,172.8966468,115.1200144
imu,244.851273,,,,,,,-86.1584284,173.641286,117.6346976
imu,244.952988,,,,,,,-83.2897364,172.8722324,115.1444288
imu,245.054459,,,,,,,-86.2682932,173.5070068,117.8910488
imu,245.156541,,,,,,,-86.02414920000001,174.1173668,116.6459144
imu,245.257523,,,,,,,-86.12180680000002,173.9342588,118.0375352
imu,245.359208,,,,,,,-86.5124372,173.8366012,117.4882112
imu,245.460679,,,,,,,-85.7555908,174.2150244,118.0497424
imu,246.17099,-0.4001642232,-9.4633754488,3.0577571136,-4.21686977,0.3808123999999999,-6.82360695,,,
imu,246.179474,-0.4013605288,-9.478329268800001,3.070916475200001,-4.299115779999999,0.07425908999999997,-6.883422229999999,,,
imu,246.187958,-0.4240903352000001,-9.5004609224,3.1091982544,-4.42622325,-0.1949096699999999,-6.621730379999999,,,
imu,246.196442,-0.4444275304,-9.534555632000002,3.149274492,-4.78511493,-0.39678624,-6.382469260000001,,,
imu,246.204926,-0.4779240872000001,-9.5501076048,3.1450874224,-5.084191329999999,-0.6136166300000001,-6.53948437,,,
imu,246.21341,-0.5191966304000001,-9.527377798400002,3.1654246176,-5.59262121,-0.8304470200000003,-6.52453055,,,
imu,246.221894,-0.5305615336,-9.498666464000001,3.1899488824,-6.04123581,-0.9799852200000005,-6.419853809999999,,,
imu,246.230378,-0.5610673264,-9.495675700000001,3.2114823832,-6.45994277,-0.8080162900000003,-6.24040797,,,
imu,246.238862,-0.6005454112,-9.5219944232,3.2228472864,-6.691726979999999,-0.5164168,-5.73197809,,,
imu,246.247345,-0.6202844536000002,-9.537546396000002,3.203108244,-6.76649608,-0.1051867500000001,-5.38804023,,,
imu,246.255829,-0.631051204,-9.511227672800002,3.2246417448,-6.975849559999999,0.2462280199999998,-5.24597894,,,
imu,246.264313,-0.631051204,-9.495077547200001,3.2443807872,-7.162772309999999,0.66493498,-5.260932759999999,,,
imu,246.272797,-0.6274622872000001,-9.485507102400002,3.2527549264,-7.19267995,1.21822632,-5.05157928,,,
imu,246.281281,-0.6316493568000001,-9.496872005600002,3.2647179824,-7.4543718,1.66684092,-5.044102369999999,,,
imu,246.289737,-0.6125084672000001,-9.4974701584,3.271895816,-7.656248369999999,1.98834805,-5.15625602,,,
imu,246.298193,-0.5837971328000001,-9.469356976800002,3.2856533304,-7.78335584,2.37714737,-5.238502029999999,,,
imu,246.306649,-0.5730303824,-9.4382530312,3.3041960672,-8.03009387,2.79585433,-5.305794219999999,,,
imu,246.315105,-0.5514968816000001,-9.4203084472,3.3353000128,-8.13477061,3.13979219,-5.17868675,,,
imu,246.323561,-0.5275707696,-9.4107380024,3.372385486400001,-8.344124090000001,3.45382241,-4.909517989999999,,,
imu,246.332016,-0.5185984776000001,-9.413130613600002,3.398106056800001,-8.23944735,3.80523718,-4.55062631,,,
imu,246.340472,-0.5168040192000001,-9.395784182400002,3.405283890400001,-8.49366229,3.93982156,-4.430995749999999,,,
imu,246.348928,-0.4910834488,-9.3628857784,3.402891279200001,-8.47870847,4.18655959,-4.23659609,,,
imu,246.357384,-0.4671573368000001,-9.323407693600002,3.426219238400001,-8.538523750000001,4.08188285,-4.37118047,,,
imu,246.36584,-0.4510072112,-9.301276040000001,3.430406308000001,-8.54600066,4.05197521,-4.66277996,,,
imu,246.374296,-0.43366078,-9.294098206400001,3.433397072000001,-8.388985550000001,3.82766791,-4.931948719999999,,,
imu,246.382752,-0.4294737104000001,-9.285724067200002,3.4459582808,-8.26935499,3.68560662,-4.89456417,,,
imu,246.391208,-0.4282774048000001,-9.267779483200002,3.4489490448,-8.02261696,3.61831443,-4.74502597,,,
imu,246.399664,-0.4264829464000001,-9.236077384800002,3.463304712000001,-7.753448199999999,3.5958837,-4.4683803,,,
imu,246.40812,-0.4163143488000001,-9.2480404408,3.5033809496,-7.43194107,3.51363769,-4.4683803,,,
imu,246.416576,-0.4240903352000001,-9.2797425392,3.5225218392,-7.140341579999999,3.33419185,-4.341272829999999,,,
imu,246.425031,-0.4372496968000001,-9.325800304800001,3.544653492800001,-6.878649729999999,3.33419185,-4.102011709999999,,,
imu,246.433487,-0.439642308,-9.3335762912,3.579346355200001,-6.89360355,3.40148404,-3.85527368,,,
imu,246.441943,-0.4683536424000001,-9.283929608800001,3.600879856,-6.99080338,3.54354533,-3.63844329,,,
imu,246.450399,-0.4749333232000001,-9.258209038400002,3.6409560936,-6.833788269999999,3.65569898,-3.42908981,,,
imu,246.458855,-0.4958686712000001,-9.2827333032,3.6385634824,-6.72911153,3.69308353,-3.496382,,,
imu,246.467311,-0.4857000736000001,-9.283929608800001,3.646937621600001,-6.616957879999999,3.98468302,-3.496382,,,
imu,246.475767,-0.4773259344000001,-9.265386872,3.6589006776,-6.287973839999999,4.194036499999999,-3.66087402,,,
imu,246.484223,-0.4653628784000001,-9.228899551200001,3.6463394688,-6.20572783,4.3435747,-3.93751969,,,
imu,246.492685,-0.4492127528000001,-9.208562356000002,3.6535173024,-5.99637435,4.66508183,-4.04219643,,,
imu,246.501147,-0.4366515440000001,-9.234881079200001,3.680434178400001,-5.74963632,4.6426511,-4.20668845,,,
imu,246.50961,-0.4354552384000001,-9.277948080800002,3.6947898456,-5.390744639999999,4.62769728,-4.42351884,,,
imu,246.518072,-0.4300718632,-9.298883428800002,3.707351054400001,-5.06923751,4.53797436,-4.33379592,,,
imu,246.526534,-0.4073420568000001,-9.254021968800002,3.6923972344,-5.009422229999999,4.552928179999999,-4.430995749999999,,,
imu,246.534996,-0.4025568344,-9.191215924800002,3.7193141104,-5.1365297,4.36600543,-4.602964679999999,,,
imu,246.543459,-0.4175106544000001,-9.194804841600002,3.7366605416,-4.81502257,4.30619015,-4.43847266,,,
imu,246.551921,-0.4187069600000001,-9.221123564800001,3.7498199032,-4.30659269,3.97720611,-4.4683803,,,
imu,246.560383,-0.4264829464000001,-9.250433052000002,3.768960792800001,-3.99256247,3.77532954,-4.66277996,,,
imu,246.568846,-0.4199032656,-9.228899551200001,3.804849960800001,-3.97760865,3.43886859,-4.931948719999999,,,
imu,246.577308,-0.4097346680000001,-9.208562356000002,3.828177920000001,-3.99256247,3.22951511,-4.8422258,,,
imu,246.58577,-0.4103328208,-9.194206688800001,3.818607475200001,-3.67105534,3.15474601,-4.59548777,,,
imu,246.594232,-0.439642308,-9.175663952,3.8054481136,-3.36450203,3.04259236,-4.3936112,,,
imu,246.602695,-0.4438293776000001,-9.134989561600001,3.7916905992,-2.93084125,3.03511545,-4.00481188,,,
imu,246.611157,-0.4695499480000001,-9.094913324,3.7755404736,-2.57194957,2.98277708,-3.99733497,,,
imu,246.619619,-0.4827093096,-9.076370587200001,3.7659700288,-2.12333497,2.87810034,-4.28145755,,,
imu,246.628081,-0.4695499480000001,-9.081155809600002,3.780325696,-1.48779762,2.81828506,-4.65530305,,,
imu,246.636544,-0.4761296288000001,-9.135587714400002,3.782718307200001,-0.78496808,2.70613141,-5.09644074,,,
imu,246.645006,-0.490485296,-9.1684861184,3.7940832104,-0.15690764,2.48930102,-5.522624609999999,,,
imu,246.653468,-0.4803166984,-9.200786369600001,3.8126259472,0.12721494,2.28742445,-5.95628539,,,
imu,246.661931,-0.4593813504000001,-9.212151272800002,3.8204019336,0.29170696,2.05564024,-6.068439039999999,,,
imu,246.670393,-0.4629702672000001,-9.204973439200002,3.826981614400001,0.42629134,1.71170238,-6.01610067,,,
imu,246.678855,-0.4378478496000001,-9.186430702400001,3.8198037808,0.56087572,1.29299542,-5.874039379999999,,,
imu,246.687317,-0.4300718632,-9.171476882400002,3.8066444192,0.68050628,0.6798887999999996,-5.896470109999999,,,
imu,246.69578,-0.4234921824,-9.152335992800001,3.7958776688,0.91229049,0.08921290999999965,-6.01610067,,,
imu,246.704242,-0.4444275304,-9.1224283528,3.7940832104,1.30108981,-0.57623208,-5.90394702,,,
imu,246.712704,-0.4677554896000001,-9.088931796,3.8084388776,1.9665348,-1.24167707,-5.84413174,,,
imu,246.721166,-0.5042428104000001,-9.093717018400001,3.7958776688,2.42262631,-1.83235296,-5.70207045,,,
imu,246.729629,-0.5544876456000001,-9.121830200000002,3.7779330848,2.85628709,-2.24358301,-5.62730135,,,
imu,246.738091,-0.6424161072,-9.152934145600002,3.7845127656,3.44696298,-2.57256705,-5.49271697,,,
imu,246.746553,-0.6896701784000001,-9.158915673600001,3.809635183200001,3.6862241,-2.63238233,-5.34317877,,,
imu,246.755016,-0.7112036792,-9.163700896000002,3.811429641600001,3.81333157,-2.54265941,-5.24597894,,,
imu,246.763478,-0.7171852072000001,-9.205571592000002,3.783914612800001,4.29933072,-2.48284413,-5.25345585,,,
imu,246.77194,-0.7255593464000001,-9.243853371200002,3.7857090712,4.52363802,-2.31835211,-5.328224949999999,,,
imu,246.780402,-0.7381205552000002,-9.2659850248,3.7749423208,4.77785296,-2.2361061,-5.305794219999999,,,
imu,246.788865,-0.7674300424000001,-9.266583177600001,3.746230986400001,4.78532987,-2.019275710000001,-5.13382529,,,
imu,246.797327,-0.8140859608000002,-9.273162858400001,3.746230986400001,4.89000661,-1.60804566,-4.52819558,,,
imu,246.805789,-0.8433954480000001,-9.2851259144,3.741445764000001,4.83766824,-1.06223123,-3.86275059,,,
imu,246.814251,-0.8517695872000001,-9.308453873600001,3.7390531528,4.86009897,-0.2173404000000003,-3.03281358,,,
imu,246.822714,-0.8439936008000001,-9.3269966104,3.7312771664,4.964775710000001,0.6798887999999996,-2.21035348,,,
imu,246.831176,-0.8356194616000001,-9.322809540800002,3.7199122632,4.89748352,1.6518871,-1.47013939,,,
imu,246.839638,-0.8284416280000001,-9.302472345600002,3.717519652,4.59840712,2.37714737,-1.30564737,,,
imu,246.8481,-0.8069081272,-9.287518525600001,3.7013695264,4.47877656,2.81828506,-1.35798574,,,
imu,246.856563,-0.7973376824000001,-9.284527761600001,3.6738544976,4.47877656,3.42391477,-1.49257012,,,
imu,246.865025,-0.7787949456000002,-9.267779483200002,3.6594988304,4.374099820000001,4.11179049,-1.73930815,,,
imu,246.873487,-0.7464946944,-9.2689757888,3.649330232800001,4.40400746,4.837050759999999,-1.5523854,,,
imu,246.88195,-0.7064184568,-9.2641905664,3.6325819544,4.35166909,5.36043446,-1.19349372,,,
imu,246.890412,-0.6567717744000001,-9.255816427200001,3.6176281344,4.33671527,5.73427996,-1.07386316,,,
imu,246.899173,-0.6178918424000002,-9.254021968800002,3.5996835504,4.38905364,6.13055619,-0.9766633299999998,,,
imu,246.907934,-0.5772174520000001,-9.2659850248,3.590711258400001,4.72551459,6.31000203,-0.55047946,,,
imu,246.916695,-0.5395338256000001,-9.2827333032,3.579346355200001,4.68065313,6.38477113,-0.40841817,,,
imu,246.925456,-0.5090280328000001,-9.289312984,3.581140813600001,4.79280678,6.250186749999999,-0.29626452,,,
imu,246.934217,-0.4982612824000001,-9.302472345600002,3.575159285600001,4.86757588,6.17541765,-0.3411259799999999,,,
imu,246.942978,-0.4689517952000001,-9.3108464848,3.567981452000001,4.68813004,5.86138743,-0.4158950799999999,,,
imu,246.951739,-0.4665591840000001,-9.325202152000001,3.576953744000001,4.56849948,5.569787939999999,-0.66263311,,,
imu,246.9605,-0.4438293776000001,-9.353315333600001,3.55900916,4.5834533,5.23332699,-0.88694041,,,
imu,246.969261,-0.4294737104000001,-9.3688673064,3.538073812,4.41148437,5.0164966,-1.28321664,,,
imu,246.978022,-0.4270810992000001,-9.3335762912,3.517138464,4.41148437,4.62022037,-1.61220068,,,
imu,245.562211,,,,,,,-86.0485636,174.4713756,117.0243376
imu,245.663743,,,,,,,-85.8776628,173.9342588,116.2064552
imu,245.765366,,,,,,,-86.24387879999999,174.4103396,116.9510944
imu,245.866929,,,,,,,-83.3996012,173.8121868,115.0101496
imu,245.968461,,,,,,,-86.0485636,174.49579,117.0853736
imu,246.070084,,,,,,,-83.1798716,173.6290788,114.7660056
imu,246.171677,,,,,,,-86.25608600000001,174.2760604,116.7313648
imu,246.273148,,,,,,,-86.072978,174.923042,116.072176
imu,246.986755,-0.4210995712,-9.300079734400002,3.5069698664,4.36662291,4.30619015,-1.81407725,,,
imu,246.995516,-0.4300718632,-9.2851259144,3.512353241600001,4.64326858,4.149175039999999,-1.91127708,,,
imu,247.004276,-0.4258847936,-9.3174261656,3.511755088800001,4.81523751,3.87252937,-2.13558438,,,
imu,247.013037,-0.4330626272,-9.3377633608,3.4920160464,5.04702172,3.66317589,-2.09072292,,,
imu,247.021798,-0.4569887392,-9.337165208000002,3.5009883384,5.23394447,3.49120696,-2.09819983,,,
imu,247.030559,-0.4581850448000001,-9.325202152000001,3.5015864912,5.26385211,3.37905331,-2.29259949,,,
imu,247.03932,-0.4432312248,-9.344941194400002,3.481249296000001,5.20403683,3.30428421,-2.47952224,,,
imu,247.048081,-0.4504090584,-9.364680236800002,3.4650991704,5.29375975,3.13979219,-2.85336774,,,
imu,247.056842,-0.4797185456,-9.402962016000002,3.4585194896,5.30871357,3.05006927,-3.1225365,,,
imu,246.374695,,,,,,,-86.0851852,175.6310596,116.5482568
imu,246.476379,,,,,,,-86.5124372,176.1315548,116.2796984
imu,246.577789,,,,,,,-86.42698680000001,176.448942,116.1820408
imu,246.679443,,,,,,,-86.5124372,176.7907436,115.7181672
imu,246.780945,,,,,,,-86.3903652,176.3756988,115.156636
imu,246.882477,,,,,,,-86.47581559999999,176.1315548,115.766996
imu,246.991852,,,,,,,-86.4636084,175.8874108,116.6459144
