Type,Timestamp,Data Accelerometer X,Data Accelerometer Y,Data Accelerometer Z,Data Gyroscope X,Data Gyroscope Y,Data Gyroscope Z,Data Magnetometer X,Data Magnetometer Y,Data Magnetometer Z
imu,173.028193,-0.5987509528,-9.551303910400001,3.075103544800001,-10.04885957,3.16969983,-3.95995042,,,
imu,173.036589,-0.6053306336000001,-9.4974701584,3.0882629064,-10.52738181,2.99025399,-4.02724261,,,
imu,173.044985,-0.5843952856000001,-9.459786532,3.1157779352,-10.85636585,2.78090051,-4.0945348,,,
imu,173.053381,-0.580208216,-9.409541696800002,3.1241520744,-10.96104259,2.6986545,-4.102011709999999,,,
imu,173.061777,-0.5879842024,-9.349726416800001,3.1630320064,-10.96104259,2.52668557,-4.07210407,,,
imu,173.070174,-0.6149010784000001,-9.33118368,3.209089772,-10.60215091,2.34723973,-4.13939626,,,
imu,173.07857,-0.6089195504,-9.337165208000002,3.2712976632,-10.09372103,2.34723973,-4.11696553,,,
imu,173.087043,-0.6059287864000001,-9.335968902400001,3.3173554288,-9.74978317,2.28742445,-3.90761205,,,
imu,173.095517,-0.6149010784000001,-9.327594763200002,3.352646444,-9.3235993,1.97339423,-3.98985806,,,
imu,173.103991,-0.6549773160000001,-9.312042790400001,3.4010968208,-9.002092170000001,1.89862513,-4.31136519,,,
imu,173.112465,-0.6812960392000001,-9.225310634400001,3.430406308000001,-8.7254465,1.88367131,-4.52819558,,,
imu,173.120938,-0.7285501104000001,-9.178654716,3.4997920328,-8.06747842,1.95844041,-4.42351884,,,
imu,173.129412,-0.7243630408,-9.193608536000001,3.569775910400001,-7.349695059999999,2.09302479,-4.386134289999999,,,
imu,173.137886,-0.7159889016000002,-9.204973439200002,3.588916800000001,-6.43751204,2.58650085,-4.04219643,,,
imu,173.146359,-0.7291482632,-9.1654953544,3.6194225928,-5.80197469,2.88557725,-3.80293531,,,
imu,173.154833,-0.7345316384000001,-9.094315171200002,3.630189343200001,-5.04680678,3.28185348,-3.42908981,,,
imu,173.163307,-0.7052221512000001,-9.0578278504,3.6355727184,-4.05985466,3.45382241,-3.27955161,,,
imu,173.171781,-0.6477994824000001,-9.066201989600001,3.646937621600001,-3.01308726,3.76037572,-3.24964397,,,
imu,173.180254,-0.6388271904000001,-9.073379823200002,3.6481339272,-1.95884295,3.85009864,-3.24216706,,,
imu,173.188728,-0.6627533024,-9.095511476800002,3.642750552,-1.03170611,3.73046808,-3.17487487,,,
imu,173.197202,-0.6525847048000001,-9.13678402,3.648732080000001,-0.37373803,3.70803735,-3.1973056,,,
imu,173.205675,-0.6394253432000001,-9.176262104800001,3.645741316000001,0.15712258,3.64074516,-3.23469015,,,
imu,173.214149,-0.6448087184,-9.193608536000001,3.6152355232,0.83004448,3.76785263,-3.02533667,,,
imu,173.222623,-0.6322475096000001,-9.158915673600001,3.600281703200001,1.28613599,3.85757555,-2.80850628,,,
imu,173.231097,-0.6166955368000001,-9.145158159200001,3.605066925600001,1.87681188,3.85757555,-2.49447606,,,
imu,173.23957,-0.5885823552,-9.1894214664,3.6014780088,2.25813429,3.84262173,-2.45709151,,,
imu,173.248044,-0.5766192992000001,-9.2157401896,3.5823371192,2.64693361,3.64074516,-2.41970696,,,
imu,173.256518,-0.5700396184000001,-9.210954967200001,3.5596073128,2.94601001,3.46129932,-2.24026112,,,
imu,173.264991,-0.5538894928000001,-9.207366050400001,3.553027632,3.27499405,3.39400713,-2.24026112,,,
imu,173.273465,-0.5347486032000001,-9.2689757888,3.5667851464,3.589024269999999,3.28185348,-2.31503022,,,
imu,173.281939,-0.5383375200000001,-9.356904250400001,3.5554202432,3.73856247,2.99025399,-2.50195297,,,
imu,173.290753,-0.535346756,-9.3993730992,3.509960630400001,3.81333157,2.84071579,-2.5991528,,,
imu,173.299567,-0.5180003248000001,-9.379035904000002,3.4758659208,3.62640882,2.75099287,-2.63653735,,,
imu,173.308382,-0.5305615336,-9.3036686512,3.451341656,3.61893191,2.63136231,-2.61410662,,,
imu,173.317196,-0.5239818528000001,-9.262994260800001,3.4405749056,3.76847011,2.61640849,-2.55429134,,,
imu,173.32601,-0.4970649768000001,-9.301276040000001,3.4375841416,4.22456162,2.42948574,-2.46456842,,,
imu,173.334825,-0.5000557408,-9.373054376,3.4256210856,4.7329915,2.24256299,-2.5243837,,,
imu,173.343639,-0.4910834488,-9.396980488,3.3951152928,4.66569931,2.07807097,-2.70382954,,,
imu,173.352453,-0.5078317272000001,-9.324005846400002,3.3622168888,4.55354566,1.83880985,-2.70382954,,,
imu,173.361267,-0.499457588,-9.277349928000001,3.326327720800001,4.80028369,1.73413311,-2.70382954,,,
imu,173.370082,-0.4946723656000001,-9.290509289600001,3.331711096,5.09188318,1.61450255,-2.78607555,,,
imu,173.378896,-0.490485296,-9.3628857784,3.314364664800001,5.30123666,1.45001053,-2.96552139,,,
imu,173.38771,-0.4946723656000001,-9.423897364000002,3.297616386400001,5.39095958,1.27056469,-3.10758268,,,
imu,173.396524,-0.4916816016,-9.4244955168,3.2575401488,5.21151374,1.22570323,-3.21225942,,,
imu,173.405339,-0.5036446576000001,-9.377241445600001,3.2282306616,5.09188318,1.18084177,-3.33188998,,,
imu,173.414153,-0.5311596864,-9.353913486400002,3.2168657584,5.27132902,1.03878048,-3.45899745,,,
imu,173.422967,-0.5401319784,-9.377839598400001,3.217463911200001,5.42834413,1.03130357,-3.52628964,,,
imu,173.431782,-0.5431227424,-9.435262267200002,3.2234454392,5.46572868,0.9415806499999997,-3.65339711,,,
imu,173.440596,-0.5263744640000001,-9.472347740800002,3.212080536000001,5.39843649,0.9341037399999998,-3.83284295,,,
imu,173.44941,-0.5425245896,-9.4938812416,3.2037063968,5.42086722,0.7471809899999999,-3.95247351,,,
imu,173.458224,-0.5622636320000001,-9.481918185600001,3.1935377992,5.20403683,0.6499811599999998,-4.0197657,,,
imu,173.467039,-0.580208216,-9.468758824,3.1749950624,4.90496043,0.5153967799999997,-4.15435008,,,
imu,173.475853,-0.5730303824,-9.461580990400002,3.1624338536,4.76289914,0.4854891399999999,-4.31136519,,,
imu,173.484667,-0.5843952856000001,-9.486105255200002,3.163630159200001,4.76289914,0.5527813299999997,-4.146873169999999,,,
imu,173.493137,-0.5957601888000001,-9.513620284000002,3.1726024512,4.62831476,0.4481045899999998,-3.99733497,,,
imu,173.501607,-0.6071250920000001,-9.538742701600002,3.1648264648,4.45634583,0.4256738599999998,-3.93004278,,,
imu,173.510077,-0.6089195504,-9.5459205352,3.1576486312,4.16474634,0.4630584099999999,-3.90761205,,,
imu,173.518547,-0.5963583416000001,-9.508835061600001,3.1510689504,3.97034668,0.2686587499999997,-3.96742733,,,
imu,173.527017,-0.6226770648,-9.414925072,3.140302200000001,3.73856247,0.2910894799999997,-3.85527368,,,
imu,173.535487,-0.6274622872000001,-9.356904250400001,3.1504707976,3.79837775,0.21632038,-3.92256587,,,
imu,173.543956,-0.6621551496,-9.415523224800001,3.180378437600001,4.11988488,0.08173599999999981,-4.00481188,,,
imu,173.552426,-0.7052221512000001,-9.488497866400001,3.2168657584,4.21708471,-0.007986920000000008,-4.034719519999999,,,
imu,173.560896,-0.7351297912000001,-9.512423978400001,3.221650980800001,4.04511578,0.08921290999999965,-4.079580979999999,,,
imu,173.569366,-0.7219704296,-9.477132963200003,3.2168657584,3.7609932,0.3509047599999997,-4.02724261,,,
imu,173.577836,-0.6878757200000001,-9.410139849600002,3.218062064,3.589024269999999,0.7097964399999999,-3.90013514,,,
imu,173.586306,-0.666940372,-9.340754124800002,3.2037063968,3.67127028,0.94905756,-3.6459202,,,
imu,173.594776,-0.6591643856000001,-9.273761011200001,3.1827710488,4.00025432,1.2032725,-3.36179762,,,
imu,173.603246,-0.6806978864000002,-9.2486385936,3.1666209232,4.41148437,1.06868812,-3.40665908,,,
imu,173.611716,-0.6717255944000001,-9.2785462336,3.1516671032,5.15917537,1.03130357,-3.36927453,,,
imu,173.620186,-0.6543791632000001,-9.325202152000001,3.143292964,5.95172783,1.13598031,-3.39170526,,,
imu,173.628655,-0.6501920936000001,-9.367671000800001,3.1438911168,6.32557333,1.08364194,-3.42908981,,,
imu,173.637125,-0.6262659816,-9.430477044800002,3.136115130400001,6.64708046,0.9041961000000001,-3.36927453,,,
imu,173.645595,-0.61310662,-9.467562518400001,3.1181705464,6.66203428,0.62007352,-3.39170526,,,
imu,173.654065,-0.5963583416000001,-9.468758824,3.094244434400001,6.36295788,0.3209971199999999,-3.54124346,,,
imu,173.662535,-0.6095177032000001,-9.440047489600001,3.084673989600001,6.35548097,0.3135202100000001,-3.48142818,,,
imu,173.671005,-0.648995788,-9.4244955168,3.0828795312,6.26575805,0.02939763000000006,-3.33936689,,,
imu,173.679475,-0.6693329832000001,-9.450216087200001,3.0679257112,6.36295788,0.0368745399999999,-3.21973633,,,
imu,173.687945,-0.6771089696000001,-9.481918185600001,3.0577571136,6.50501917,-0.03041764999999996,-3.30945925,,,
imu,173.696403,-0.6603606912000002,-9.486105255200002,3.0302420848,6.51997299,0.1041667299999998,-3.25712088,,,
imu,173.704862,-0.6693329832000001,-9.4765348104,3.0111011952,6.36295788,-0.0005100100000001717,-3.30198234,,,
imu,173.71332,-0.6783052752000002,-9.477731116000001,3.014690112,6.34052715,-0.0005100100000001717,-3.24964397,,,
imu,173.721779,-0.7070166096,-9.513022131200001,2.9985399864,6.28071187,0.13407437,-3.33936689,,,
imu,173.730237,-0.7195778184000001,-9.530966715200002,2.9853806248,6.27323496,0.3882893099999998,-3.3468438,,,
imu,173.738695,-0.7129981376000001,-9.530368562400001,2.966239735200001,6.05640457,0.4331507699999997,-3.40665908,,,
imu,173.747154,-0.6998387760000001,-9.531564868,2.969828652,5.9292971,0.66493498,-3.25712088,,,
imu,173.755612,-0.6950535536000001,-9.5249851872,2.96085636,5.83209727,1.00887284,-3.07019813,,,
imu,173.764071,-0.7076147624000001,-9.530368562400001,2.957865596,5.51806705,1.31542615,-2.92813684,,,
imu,173.772529,-0.6753145112000001,-9.554892827200002,2.953678526400001,5.47320559,1.51730272,-2.76364482,,,
imu,173.070655,,,,,,,-86.89086040000001,174.8497988,116.6092928
imu,173.780946,-0.684884956,-9.564463272000001,2.9441080816,5.09188318,1.59207182,-2.94309066,,,
imu,173.789404,-0.6747163584000001,-9.5381445488,2.9153967472,4.83766824,1.74161002,-2.98795212,,,
imu,173.797863,-0.684884956,-9.498666464000001,2.8908724824,4.75542223,1.95844041,-2.98795212,,,
imu,173.806321,-0.6711274416,-9.463973601600001,2.8998447744,4.658222400000001,2.16031698,-3.01785976,,,
imu,173.81478,-0.6549773160000001,-9.4843107968,2.8938632464,4.75542223,2.37714737,-2.86084465,,,
imu,173.823238,-0.6436124128,-9.531564868,2.9028355384,5.14422155,2.53416248,-2.72626027,,,
imu,173.831697,-0.6172936896000001,-9.551303910400001,2.8944613992,5.00963717,2.58650085,-2.70382954,,,
imu,173.840155,-0.5987509528,-9.554294674400001,2.9004429272,5.01711408,2.58650085,-2.80850628,,,
imu,173.848614,-0.5915731192000001,-9.554294674400001,2.887283565600001,4.91243734,2.51173175,-2.69635263,,,
imu,173.857072,-0.5993491056000001,-9.5447242296,2.8729278984,4.5834533,2.37714737,-2.76364482,,,
imu,173.865531,-0.5933675776,-9.562668813600002,2.864553759200001,4.55354566,2.24256299,-2.91318302,,,
imu,173.873989,-0.6017417168000001,-9.553098368800002,2.8507962448,4.59840712,2.04068642,-3.16739796,,,
imu,173.882447,-0.5957601888000001,-9.539939007200001,2.847207328000001,4.5086842,1.86124058,-3.36927453,,,
imu,173.890906,-0.61310662,-9.516611048000001,2.8364405776,4.44139201,1.63693328,-3.33936689,,,
imu,173.899376,-0.6262659816,-9.517807353600002,2.8364405776,4.49373038,1.55468727,-3.25712088,,,
imu,173.907846,-0.6298548984000001,-9.526779645600001,2.825075674400001,4.57597639,1.40514907,-3.15992105,,,
imu,173.916316,-0.6190881480000001,-9.526779645600001,2.8214867576,4.53859184,1.30794924,-3.0477674,,,
imu,173.924785,-0.6292567456000001,-9.51062952,2.817897840800001,4.56102257,1.39767216,-2.94309066,,,
imu,173.933255,-0.6412198016000001,-9.495675700000001,2.808327396000001,4.59840712,1.40514907,-2.77112173,,,
imu,173.941725,-0.6525847048000001,-9.513022131200001,2.805336632,4.61336094,1.29299542,-2.87579847,,,
imu,173.950195,-0.6495939408000001,-9.553696521600001,2.798756951200001,4.77037605,1.33037997,-3.01038285,,,
imu,173.958665,-0.6454068712000001,-9.5602762024,2.7867938952,4.56102257,1.33037997,-3.16739796,,,
imu,173.967135,-0.6561736216000001,-9.541135312800002,2.7790179088,4.45634583,1.26308778,-3.30945925,,,
imu,173.975605,-0.6693329832000001,-9.532163020800002,2.789186506400001,4.374099820000001,1.2032725,-3.35432071,,,
imu,173.984075,-0.666940372,-9.547714993600001,2.78141052,4.47129965,1.36028761,-3.25712088,,,
imu,173.992545,-0.6627533024,-9.558481744000002,2.7838031312,4.4339151,1.56964109,-3.22721324,,,
imu,174.001015,-0.6561736216000001,-9.575230022400001,2.7760271448,4.4339151,1.577118,-3.03281358,,,
imu,174.009484,-0.6525847048000001,-9.596763523200002,2.78141052,4.29933072,1.71170238,-3.03281358,,,
imu,174.017954,-0.6681366776000001,-9.599156134400001,2.771241922400001,4.17222325,1.84628676,-3.04029049,,,
imu,174.026424,-0.6800997336000001,-9.564463272000001,2.762269630400001,3.925485220000001,1.97339423,-3.03281358,,,
imu,174.034894,-0.6747163584000001,-9.5393408544,2.761671477600001,3.64883955,2.03320951,-3.02533667,,,
imu,174.043364,-0.6789034280000001,-9.552500216,2.7706437696,3.69370101,2.35471664,-2.90570611,,,
imu,174.051834,-0.6759126640000002,-9.558481744000002,2.7682511584,3.67127028,2.51920866,-2.92813684,,,
imu,174.060304,-0.6753145112000001,-9.560874355200001,2.759877019200001,3.56659354,2.60893158,-3.07019813,,,
imu,174.068774,-0.6663422192,-9.552500216,2.7562881024,3.49182444,2.74351596,-3.18982869,,,
imu,174.077244,-0.6567717744000001,-9.538742701600002,2.745521352,3.45443989,2.80333124,-3.40665908,,,
imu,174.085714,-0.648995788,-9.533359326400001,2.7323619904,3.71613174,2.86314652,-3.17487487,,,
imu,174.094183,-0.6430142600000001,-9.523190728800001,2.726978615200001,3.69370101,3.08745382,-3.04029049,,,
imu,174.102999,-0.6244715232,-9.526181492800001,2.724586004,3.74603938,3.13231528,-2.95804448,,,
imu,174.111815,-0.646005024,-9.5459205352,2.722791545600001,3.62640882,3.0725,-2.8982292,,,
imu,174.12063,-0.648995788,-9.5668558832,2.7024543504,3.82080848,3.06502309,-2.85336774,,,
imu,174.129446,-0.6579680800000002,-9.562070660800002,2.7012580448,3.69370101,3.07997691,-2.81598319,,,
imu,174.138261,-0.648995788,-9.574631869600001,2.699463586400001,3.58154736,3.11736146,-2.8234601,,,
imu,174.147077,-0.6274622872000001,-9.554294674400001,2.703650656000001,3.55163972,3.06502309,-2.87579847,,,
imu,174.155893,-0.6304530512000001,-9.538742701600002,2.7150155592,3.52920899,3.13231528,-3.01785976,,,
imu,174.164708,-0.6316493568000001,-9.5459205352,2.701856197600001,3.49182444,3.11736146,-3.18235178,,,
imu,174.173524,-0.6232752176,-9.575230022400001,2.696472822400001,3.71613174,3.16222292,-3.25712088,,,
imu,174.182339,-0.6202844536000002,-9.592576453600001,2.6839116136,3.69370101,3.2220382,-3.21973633,,,
imu,174.191155,-0.5993491056000001,-9.578220786400001,2.6791263912,3.60397809,3.05006927,-3.29450543,,,
imu,174.199971,-0.5951620360000001,-9.5489112992,2.679724544,3.43948607,2.86314652,-3.40665908,,,
imu,174.208786,-0.6005454112,-9.524387034400002,2.673743016,3.50677826,2.72856214,-3.37675144,,,
imu,174.217602,-0.6340419680000001,-9.505246144800001,2.661779960000001,3.64883955,2.59397776,-3.32441307,,,
imu,174.226417,-0.6430142600000001,-9.511227672800002,2.6683596408,3.74603938,2.40705501,-3.24964397,,,
imu,174.235233,-0.6388271904000001,-9.5213962704,2.6653688768,4.03763887,2.40705501,-3.21225942,,,
imu,174.244049,-0.6340419680000001,-9.5429297712,2.6815190024,4.35166909,2.48182411,-3.07767504,,,
imu,174.252864,-0.6442105656,-9.591978300800001,2.6952765168,4.32176145,2.61640849,-2.9729983,,,
imu,174.26168,-0.6561736216000001,-9.651195428000001,2.697669128,4.41148437,2.66874686,-2.76364482,,,
imu,174.270495,-0.6406216488000002,-9.6912716656,2.680920849600001,4.232038530000001,2.8481927,-2.66644499,,,
imu,174.279311,-0.6358364264000002,-9.706225485600001,2.652807668,3.81333157,3.05006927,-2.72626027,,,
imu,174.288127,-0.6376308848000001,-9.678710456800001,2.6252926392,3.55163972,3.30428421,-2.5991528,,,
imu,174.296942,-0.6178918424000002,-9.611119190400002,2.5864127072,3.18527113,3.49868387,-2.8234601,,,
imu,174.305429,-0.6137047728000001,-9.5447242296,2.569066276,3.06564057,3.58092988,-3.11505959,,,
imu,174.313915,-0.6137047728000001,-9.5249851872,2.564879206400001,3.31985551,3.52859151,-3.15992105,,,
imu,174.322402,-0.5885823552,-9.551303910400001,2.5642810536,3.66379337,3.63326825,-3.08515195,,,
imu,174.330888,-0.565254396,-9.568650341600001,2.5421494,3.6862241,3.5958837,-3.1973056,,,
imu,174.339374,-0.5508987288,-9.5638651192,2.5523179976,3.85071612,3.48373005,-3.30198234,,,
imu,174.347861,-0.5419264368000001,-9.580613397600002,2.5714588872,3.88810067,3.31923803,-3.45152054,,,
imu,174.356347,-0.5550857984,-9.623680399200001,2.5774404152,3.84323921,3.02763854,-3.40665908,,,
imu,174.364834,-0.5730303824,-9.652989886400002,2.5714588872,3.59650118,2.81080815,-3.40665908,,,
imu,174.37332,-0.5778156048000002,-9.669140012000002,2.5565050672,3.5366859,2.66126995,-3.30945925,,,
imu,174.381807,-0.5658525488000001,-9.6523917336,2.5565050672,3.12545585,2.31733209,-3.30198234,,,
imu,174.390293,-0.5748248408000001,-9.630858232800001,2.551121692,2.7889949,2.18274771,-3.36179762,,,
imu,174.398779,-0.5897786608000001,-9.624278552000002,2.5469346224,2.63197979,2.00330187,-3.4216129,,,
imu,174.407266,-0.6154992312,-9.606333968000001,2.5355697192,2.65441052,1.91357895,-3.29450543,,,
imu,174.415752,-0.6340419680000001,-9.609922884800001,2.5349715664,2.60207215,1.8014253,-3.32441307,,,
imu,174.424239,-0.6495939408000001,-9.6224840936,2.533177108,2.34785721,1.73413311,-3.43656672,,,
imu,174.432725,-0.6531828576,-9.620689635200002,2.522410357600001,2.19831901,1.77899457,-3.48142818,,,
imu,174.441212,-0.6531828576,-9.621287788000002,2.515232524,2.15345755,1.88367131,-3.4216129,,,
imu,174.449698,-0.6537810104000001,-9.6051376624,2.5056620792,2.14598064,1.7266562,-3.3468438,,,
imu,174.458184,-0.6693329832000001,-9.597959828800002,2.5170269824,2.01139626,1.70422547,-3.33936689,,,
imu,174.466671,-0.6872775672000001,-9.597361676,2.541551247200001,2.04878081,1.78647148,-3.29450543,,,
imu,174.475157,-0.7076147624000001,-9.625474857600002,2.533177108,2.18336519,1.9509635,-3.17487487,,,
imu,174.483644,-0.7118018320000001,-9.636839760800001,2.5164288296,2.13850373,2.07059406,-3.13001341,,,
imu,174.49213,-0.7040258456,-9.620689635200002,2.536167872,1.98896553,2.19770153,-3.14496723,,,
imu,174.500617,-0.708811068,-9.603343204000002,2.5523179976,1.88428879,2.38462428,-3.1225365,,,
imu,174.509065,-0.6926609424000001,-9.605735815200001,2.554112456,1.95158098,2.60145467,-2.99542903,,,
imu,174.517513,-0.6513883992,-9.6224840936,2.5439438584,2.07868845,2.78837742,-2.98047521,,,
imu,174.525961,-0.6316493568000001,-9.636839760800001,2.554112456,2.07868845,2.91548489,-2.92813684,,,
imu,174.53441,-0.6322475096000001,-9.648204664000001,2.560093984,1.94410407,2.9229618,-2.77112173,,,
imu,174.542858,-0.6250696760000001,-9.636839760800001,2.5475327752,1.89924261,2.93791562,-2.84589083,,,
imu,174.551306,-0.6262659816,-9.593174606400002,2.5307844968,1.79456587,2.93043871,-2.86832156,,,
imu,174.559755,-0.6172936896000001,-9.5638651192,2.5236066632,1.73475059,2.87810034,-2.84589083,,,
imu,174.568203,-0.6089195504,-9.552500216,2.5218122048,1.74970441,3.00520781,-2.92813684,,,
imu,174.576651,-0.6059287864000001,-9.562070660800002,2.5140362184,1.88428879,2.85566961,-2.95056757,,,
imu,174.585099,-0.5903768136,-9.572239258400002,2.504465773600001,2.09364227,2.89305416,-2.96552139,,,
imu,174.593548,-0.5742266880000001,-9.596763523200002,2.5146343712,2.28056502,2.71360832,-2.93561375,,,
imu,173.172214,,,,,,,-86.5124372,175.3747084,115.9989328
imu,173.273899,,,,,,,-86.2316716,176.0583116,115.4862304
imu,173.375278,,,,,,,-86.25608600000001,176.082726,115.8768608
imu,173.477085,,,,,,,-86.3903652,175.4967804,116.1698336
imu,173.578434,,,,,,,-86.6345092,175.045114,115.7425816
imu,173.680179,,,,,,,-84.2907268,174.6300692,115.8036176
imu,173.78162,,,,,,,-85.9386988,174.312682,116.5360496
imu,173.883091,,,,,,,-83.5827092,172.9332684,114.546276
imu,174.601996,-0.571235924,-9.606932120800002,2.51224176,2.28056502,2.43696265,-2.95804448,,,
imu,174.610444,-0.56824516,-9.614109954400002,2.4984842456,2.15345755,2.36967046,-2.95804448,,,
imu,174.618893,-0.5820026744000001,-9.610521037600002,2.504465773600001,2.03382699,2.21265535,-2.92065993,,,
imu,174.627341,-0.5915731192000001,-9.61530626,2.504465773600001,2.0413039,1.98834805,-2.80102937,,,
imu,174.635789,-0.5885823552,-9.602745051200001,2.4865211896,1.92915025,2.06311715,-2.60662971,,,
imu,174.644237,-0.5951620360000001,-9.580613397600002,2.473959980800001,1.94410407,2.15284007,-2.57672207,,,
imu,174.652686,-0.6166955368000001,-9.571042952800001,2.4787452032,1.95158098,2.12293243,-2.36736859,,,
imu,174.661134,-0.6244715232,-9.573435564,2.476352592,2.03382699,2.3995781,-2.3748455,,,
imu,174.669582,-0.6119103144000001,-9.592576453600001,2.4847267312,2.09364227,2.37714737,-2.58419898,,,
imu,174.678031,-0.6071250920000001,-9.612913648800001,2.488315648,2.10111918,2.4743472,-2.69635263,,,
imu,174.686479,-0.6047324808000001,-9.619493329600001,2.4931008704,2.20579592,2.59397776,-2.72626027,,,
imu,174.694927,-0.601143564,-9.6284656216,2.500278704,2.37776485,2.75099287,-2.77112173,,,
imu,174.703375,-0.5879842024,-9.6458120528,2.5104473016,2.22822665,2.66874686,-2.9729983,,,
imu,174.711843,-0.5790119104,-9.6499991224,2.4984842456,2.116073,2.75846978,-2.95056757,,,
imu,174.72031,-0.5658525488000001,-9.651793580800001,2.494895328800001,1.98148862,2.83323888,-2.98047521,,,
imu,174.728777,-0.55329134,-9.633848996800001,2.5056620792,1.82447351,2.69117759,-2.99542903,,,
imu,174.737245,-0.5461135064000001,-9.6218859408,2.499082398400001,1.82447351,2.53416248,-2.86832156,,,
imu,174.745712,-0.5520950344000001,-9.6117173432,2.4954934816,1.86933497,2.40705501,-2.83841392,,,
imu,174.75418,-0.5389356728,-9.627269316000001,2.499082398400001,1.97401171,2.22013226,-2.71878336,,,
imu,174.762647,-0.5449172008000001,-9.618297024,2.4919045648,1.97401171,1.98834805,-2.71878336,,,
imu,174.771114,-0.5604691736,-9.583604161600002,2.476352592,1.93662716,1.70422547,-2.76364482,,,
imu,174.779582,-0.5790119104,-9.540537160000001,2.4667821472,1.92915025,1.49487199,-3.05524431,,,
imu,174.788049,-0.6178918424000002,-9.540537160000001,2.4781470504,2.06373463,1.26308778,-3.16739796,,,
imu,174.796516,-0.6501920936000001,-9.561472508000001,2.4817359672,2.30299575,1.24065705,-3.18982869,,,
imu,174.804984,-0.6759126640000002,-9.597361676,2.4631932304,2.55721069,1.25561087,-3.10758268,,,
imu,174.813451,-0.6806978864000002,-9.592576453600001,2.4536227856,2.66936434,1.38271834,-3.07767504,,,
imu,174.821918,-0.6902683312000001,-9.572837411200002,2.449435716,2.64693361,1.71917929,-2.9729983,,,
imu,174.830386,-0.6938572480000001,-9.554892827200002,2.4536227856,2.80394872,1.97339423,-2.98047521,,,
imu,174.838853,-0.6938572480000001,-9.558481744000002,2.4572117024,3.13293276,2.07807097,-2.95804448,,,
imu,174.84732,-0.6741182056000001,-9.602146898400001,2.4649876888,3.17031731,2.22013226,-2.95056757,,,
imu,174.855788,-0.6627533024,-9.6326526912,2.460202466400001,3.19274804,2.45939338,-2.93561375,,,
imu,174.864255,-0.6609588440000002,-9.648802816800002,2.4476412576,2.99087147,2.6238854,-2.9729983,,,
imu,174.872671,-0.6477994824000001,-9.636241608,2.4482394104,2.81890254,2.6986545,-2.8982292,,,
imu,174.881138,-0.6316493568000001,-9.616502565600001,2.4207243816,2.90862546,2.83323888,-2.71130645,,,
imu,174.889606,-0.58319898,-9.585398620000001,2.3997890336,2.84881018,2.88557725,-2.62158353,,,
imu,174.898073,-0.5724322296000001,-9.574631869600001,2.414144700800001,3.20770186,2.58650085,-2.4496146,,,
imu,174.90654,-0.5778156048000002,-9.573435564,2.42251884,3.33480933,2.4743472,-2.38232241,,,
imu,174.915044,-0.5921712720000001,-9.587193078400002,2.4183317704,3.34976315,2.34723973,-2.40475314,,,
imu,174.923549,-0.5963583416000001,-9.602146898400001,2.434481896,3.56659354,2.42948574,-2.08324601,,,
imu,174.932053,-0.6089195504,-9.633848996800001,2.4380708128,3.72360865,2.40705501,-1.97109236,,,
imu,174.940557,-0.6154992312,-9.666149248000002,2.4572117024,3.67874719,2.56407012,-1.87389253,,,
imu,174.949061,-0.6208826064000001,-9.683495679200002,2.4536227856,3.73856247,2.91548489,-1.64958523,,,
imu,174.957566,-0.6101158560000001,-9.7163940832,2.4518283272,3.37219388,3.19213056,-1.5523854,,,
imu,174.96607,-0.5885823552,-9.713403319200001,2.423715145600001,3.11797894,3.58840679,-1.39537029,,,
imu,174.974574,-0.5449172008000001,-9.679308609600001,2.3902185888,2.90114855,3.99215993,-1.35798574,,,
imu,174.983078,-0.5108224912,-9.639232372,2.369283240800001,2.88619473,4.246374869999999,-1.26826282,,,
imu,174.991583,-0.49347606,-9.597361676,2.3591146432,2.84133327,4.4183438,-1.53743158,,,
imu,175.000087,-0.4833074624000001,-9.591380148,2.3262162392,2.97591765,4.40338998,-1.85893871,,,
imu,175.008591,-0.4587831976000001,-9.6159044128,2.3220291696,3.31985551,4.410866889999999,-2.04586146,,,
imu,175.017095,-0.4270810992000001,-9.647606511200001,2.3184402528,3.60397809,4.36600543,-2.35989168,,,
imu,175.025599,-0.3965753064,-9.667943706400001,2.3321977672,3.57407045,4.03702139,-2.62906044,,,
imu,175.034104,-0.3762381112000001,-9.687084596000002,2.335786684,3.3123786,3.58092988,-2.95056757,,,
imu,175.042608,-0.3893974728000001,-9.717590388800001,2.320832864,3.30490169,3.13231528,-2.90570611,,,
imu,175.051112,-0.4025568344,-9.740918348000001,2.325019933600001,2.90114855,2.57902394,-3.15992105,,,
imu,175.059616,-0.4181088072000001,-9.730749750400001,2.3010938216,2.60954906,2.01825569,-3.43656672,,,
imu,175.068121,-0.4510072112,-9.6918698184,2.2837473904,2.07121154,1.56964109,-3.50385891,,,
imu,175.076625,-0.4976631296000001,-9.633250844,2.2723824872,1.72727368,1.15093413,-3.51133582,,,
imu,175.085129,-0.5329541448,-9.603343204000002,2.281952932,1.68241222,1.07616503,-3.35432071,,,
imu,175.093633,-0.5413282840000001,-9.610521037600002,2.2747750984,1.92167334,0.94905756,-3.09262886,,,
imu,175.102138,-0.5538894928000001,-9.633250844,2.2598212784,1.99644244,0.9640113799999996,-3.11505959,,,
imu,175.110642,-0.580208216,-9.655980650400002,2.2574286672,2.04878081,1.01634975,-3.15244414,,,
imu,175.119434,-0.6005454112,-9.678112304,2.2652046536,2.13102682,1.18831868,-3.33936689,,,
imu,175.128225,-0.62806044,-9.7163940832,2.27298064,1.91419643,1.45748744,-3.46647436,,,
imu,175.137017,-0.6388271904000001,-9.731347903200001,2.2753732512,1.92167334,1.59954873,-3.55619728,,,
imu,175.145809,-0.6424161072,-9.734936820000001,2.2622138896,1.75718132,1.92105586,-3.46647436,,,
imu,175.1546,-0.6292567456000001,-9.734338667200001,2.2783640152,1.27865908,2.1752708,-3.48142818,,,
imu,175.163392,-0.6298548984000001,-9.7504887928,2.2963085992,0.8749059399999999,2.51920866,-3.48142818,,,
imu,175.172184,-0.6298548984000001,-9.7474980288,2.2975049048,0.41133752,2.73603905,-3.496382,,,
imu,175.180976,-0.6077232448000001,-9.724170069600001,2.286738154400001,-0.06718472,2.98277708,-3.40665908,,,
imu,175.189767,-0.5891805080000001,-9.6709344704,2.286738154400001,-0.38121494,3.11736146,-3.24964397,,,
imu,175.198559,-0.5748248408000001,-9.632054538400002,2.2992993632,-0.80739881,3.13979219,-3.15992105,,,
imu,175.207351,-0.5592728680000001,-9.626671163200001,2.3010938216,-0.6503837,3.23699202,-2.86832156,,,
imu,175.216142,-0.5508987288,-9.652989886400002,2.3016919744,-0.67281443,3.24446893,-2.51690679,,,
imu,175.224934,-0.5562821040000001,-9.696056888000001,2.321431016800001,-0.58309151,3.23699202,-2.41970696,,,
imu,175.233726,-0.5455153536,-9.704431027200002,2.3321977672,-0.5681376899999999,3.28185348,-2.38232241,,,
imu,175.242518,-0.5425245896,-9.693066124000001,2.3423663648,-0.69524516,3.24446893,-2.59167589,,,
imu,175.251309,-0.5401319784,-9.718188541600002,2.3525349624,-0.71019898,3.09493073,-2.64401426,,,
imu,175.260101,-0.5508987288,-9.716992236000001,2.3555257264,-0.93450628,2.96034635,-2.81598319,,,
imu,175.268893,-0.5491042704000001,-9.711608860800002,2.359712796,-1.10647521,2.72108523,-2.95804448,,,
imu,175.277684,-0.5425245896,-9.678112304,2.36270356,-1.26349032,2.70613141,-2.9729983,,,
imu,175.286476,-0.5275707696,-9.658373261600001,2.3573201848,-1.51022835,2.58650085,-2.95804448,,,
imu,175.295268,-0.5347486032000001,-9.6087265792,2.3441608232,-1.45788998,2.51173175,-2.8982292,,,
imu,175.30406,-0.5491042704000001,-9.578220786400001,2.3411700592,-1.36816706,2.4743472,-2.62906044,,,
imu,175.312851,-0.5748248408000001,-9.5704448,2.3411700592,-0.9943215599999999,2.48930102,-2.45709151,,,
imu,175.321322,-0.5748248408000001,-9.5800152448,2.353731268,-0.69524516,2.56407012,-2.32998404,,,
imu,175.329794,-0.5676470072,-9.585398620000001,2.3591146432,-0.41112258,2.63883922,-2.32250713,,,
imu,175.338265,-0.5754229936,-9.577024480800002,2.3752647688,-0.13447691,2.78090051,-2.33746095,,,
imu,175.346736,-0.5945638832000001,-9.585398620000001,2.3854333664,0.16459949,2.89305416,-2.42718387,,,
imu,175.355207,-0.5879842024,-9.6009505928,2.4069668672,0.52349117,2.9977309,-2.50195297,,,
imu,175.363678,-0.5700396184000001,-9.618297024,2.4153410064,0.70293701,3.25942275,-2.56176825,,,
imu,175.372149,-0.5676470072,-9.6039413568,2.404574256,0.6132140899999999,3.39400713,-2.57672207,,,
imu,175.380621,-0.5634599376000001,-9.597959828800002,2.4093594784,0.35899915,3.75289881,-2.51690679,,,
imu,175.389092,-0.5431227424,-9.6039413568,2.416537312,0.44872207,4.01459066,-2.38979932,,,
imu,175.397563,-0.5227855472,-9.6009505928,2.3860315192,0.68798319,4.171605769999999,-2.26269185,,,
imu,175.406034,-0.5120187968000001,-9.597361676,2.386629672,0.7253677399999999,4.20899032,-2.39727623,,,
imu,175.414505,-0.5018501992000001,-9.6009505928,2.3824426024,0.7552753799999999,4.16412886,-2.50195297,,,
imu,173.984653,,,,,,,-86.1462212,173.88543,117.0853736
imu,174.086338,,,,,,,-83.6071236,172.2862868,114.4119968
imu,174.187809,,,,,,,-85.9875276,173.4825924,117.7323552
imu,174.289371,,,,,,,-85.462618,172.8722324,118.0619496
imu,174.390903,,,,,,,-85.9264916,172.4327732,117.9154632
imu,174.49271,,,,,,,-85.3893748,172.2252508,118.1351928
imu,174.594028,,,,,,,-85.8044196,172.3961516,117.5614544
imu,174.695591,,,,,,,-84.2052764,171.8468276,117.4393824
imu,175.422977,-0.4833074624000001,-9.612315496,2.380648144,0.82256757,4.02206757,-2.6739219,,,
imu,175.431448,-0.4480164472000001,-9.6117173432,2.3902185888,1.11416706,3.80523718,-2.6739219,,,
imu,175.439919,-0.4288755576000001,-9.6290637744,2.3979945752,1.42819728,3.70803735,-2.70382954,,,
imu,175.44839,-0.430670016,-9.6523917336,2.4039761032,1.55530475,3.40148404,-2.83093701,,,
imu,175.456861,-0.454596128,-9.6775141512,2.4171354648,1.52539711,3.01268472,-2.78607555,,,
imu,175.465332,-0.4569887392,-9.717590388800001,2.423715145600001,1.40576655,2.64631613,-2.78607555,,,
imu,175.473804,-0.472540712,-9.716992236000001,2.4081631728,1.30108981,2.46687029,-2.71878336,,,
imu,175.482275,-0.4886908376000001,-9.721179305600002,2.3997890336,0.79265993,2.25751681,-2.79355246,,,
imu,175.490746,-0.4952705184000001,-9.7056273328,2.3800499912,0.70293701,2.3995781,-2.5991528,,,
imu,175.499217,-0.5138132552000001,-9.702038416,2.3573201848,0.34404533,2.27994754,-2.4496146,,,
imu,175.507688,-0.5329541448,-9.682299373600001,2.3495441984,0.20198404,2.36219355,-2.50195297,,,
imu,175.516159,-0.5389356728,-9.667943706400001,2.3495441984,0.11973803,2.42948574,-2.40475314,,,
imu,175.524625,-0.5479079648000001,-9.6703363176,2.3381792952,0.04496892999999999,2.60893158,-2.39727623,,,
imu,175.533092,-0.5592728680000001,-9.6494009696,2.3549275736,-0.04475399000000001,2.75846978,-2.30755331,,,
imu,175.541558,-0.5640580904000001,-9.648802816800002,2.338777448000001,-0.29149202,3.01268472,-2.35241477,,,
imu,175.550024,-0.5580765624000001,-9.647606511200001,2.3459552816,-0.19429219,3.27437657,-2.26269185,,,
imu,175.55849,-0.5520950344000001,-9.665551095200001,2.3585164904,-0.37373803,3.4463455,-2.18792275,,,
imu,175.566956,-0.5550857984,-9.6637566368,2.3573201848,-0.52327623,3.71551426,-2.25521494,,,
imu,175.575422,-0.5670488544000001,-9.678710456800001,2.3459552816,-0.51579932,4.01459066,-2.06829219,,,
imu,175.583888,-0.5664507016000001,-9.687084596000002,2.3579183376,-0.52327623,4.28375942,-1.90380017,,,
imu,175.592354,-0.5538894928000001,-9.631456385600002,2.3573201848,-0.71767589,4.65760492,-1.75426197,,,
imu,175.60082,-0.5299633808,-9.592576453600001,2.3573201848,-0.78496808,4.88938913,-1.79912343,,,
imu,175.609286,-0.5084298800000001,-9.575230022400001,2.369283240800001,-0.71019898,5.14360407,-1.82155416,,,
imu,175.617752,-0.4952705184000001,-9.572837411200002,2.3722740048,-0.71019898,5.1660348,-2.01595382,,,
imu,175.626218,-0.5006538936,-9.5704448,2.3770592272,-0.36626112,5.34548064,-1.96361545,,,
imu,175.634685,-0.4862982264000001,-9.5656595776,2.3902185888,0.03001510999999998,5.40529592,-1.73930815,,,
imu,175.643151,-0.4821111568000001,-9.543527924000001,2.40756502,0.46367589,5.52492648,-1.64210832,,,
imu,175.651617,-0.4557924336,-9.5291722568,2.4207243816,0.7702292,5.62960322,-1.50004703,,,
imu,175.660083,-0.439642308,-9.5154147424,2.431491132,1.00949032,5.43520356,-1.53743158,,,
imu,175.668549,-0.415716196,-9.532163020800002,2.4482394104,1.368382,5.07631188,-1.63463141,,,
imu,175.677015,-0.3935845424,-9.593772759200002,2.449435716,1.72727368,4.717420199999999,-1.93370781,,,
imu,175.685481,-0.376836264,-9.635643455200002,2.4500338688,2.04878081,4.478159079999999,-2.1505382,,,
imu,175.693947,-0.3642750552,-9.636839760800001,2.4380708128,1.9665348,4.13422122,-2.16549202,,,
imu,175.702413,-0.3594898328000001,-9.636241608,2.4500338688,1.99644244,3.97720611,-1.72435433,,,
imu,175.710879,-0.3523119992,-9.645213900000002,2.447043104800001,2.12354991,3.90991392,-1.4776163,,,
imu,175.719345,-0.3415452488,-9.667943706400001,2.4386689656,2.29551884,3.70803735,-1.4028472,,,
imu,175.72781,-0.3343674152,-9.672130776000001,2.4171354648,2.17588828,3.5958837,-1.5523854,,,
imu,175.736275,-0.3385544848000001,-9.6709344704,2.4207243816,2.20579592,3.43139168,-1.91127708,,,
imu,175.74474,-0.3331711096,-9.672130776000001,2.3997890336,1.88428879,3.32671494,-2.26269185,,,
imu,175.753205,-0.3128339144,-9.681103068,2.3782555328,1.63007385,3.22951511,-2.56176825,,,
imu,175.761669,-0.3032634696000001,-9.706823638400001,2.3513386568,1.36090509,3.12483837,-2.98795212,,,
imu,175.770134,-0.28412258,-9.725366375200002,2.338777448000001,1.1440747,2.96782326,-3.21225942,,,
imu,175.778599,-0.2488315648,-9.727758986400001,2.323823628,0.8749059399999999,2.78837742,-3.30945925,,,
imu,175.787064,-0.245242648,-9.7086180968,2.3226273224,0.6954601,2.50425484,-3.32441307,,,
imu,175.795529,-0.2398592728,-9.6984494992,2.3178421,0.55339881,1.98087114,-3.45152054,,,
imu,175.803994,-0.2500278704,-9.6912716656,2.3130568776,0.3216146,1.53225654,-3.40665908,,,
imu,175.812458,-0.2775428992,-9.684093832000002,2.3100661136,0.1720764,1.1285034,-3.44404363,,,
imu,175.820923,-0.3098431504,-9.6703363176,2.308869808,0.13469185,0.8294269999999999,-3.45899745,,,
imu,175.829388,-0.3331711096,-9.667943706400001,2.320832864,-0.01484635000000001,0.5453044199999999,-3.496382,,,
imu,175.837853,-0.3702565832000001,-9.678710456800001,2.33279592,-0.11952309,0.4481045899999998,-3.51133582,,,
imu,175.846318,-0.4055475984,-9.681103068,2.3262162392,-0.22419983,0.4630584099999999,-3.44404363,,,
imu,175.854782,-0.4163143488000001,-9.676317845600002,2.329805156,-0.23915365,0.7172733499999997,-3.5711511,,,
imu,175.863247,-0.415716196,-9.667345553600002,2.3549275736,-0.5980453299999999,0.72475026,-3.85527368,,,
imu,175.871712,-0.4270810992000001,-9.651793580800001,2.3609091016,-0.80739881,0.9191499199999997,-4.10948862,,,
imu,175.880177,-0.4414367664,-9.641026830400001,2.3662924768,-0.97189083,1.09859576,-4.3936112,,,
imu,175.888642,-0.424688488,-9.631456385600002,2.371675852,-0.8672140899999999,1.40514907,-4.48333412,,,
imu,175.897107,-0.4121272792,-9.6087265792,2.389620436,-0.68029134,1.5023489,-4.53567249,,,
imu,175.905571,-0.4121272792,-9.593174606400002,2.3991908808,-0.59056842,1.74161002,-4.52819558,,,
imu,175.914036,-0.4049494456000001,-9.611119190400002,2.4153410064,-0.32887657,1.71917929,-4.66277996,,,
imu,175.922501,-0.3953790008,-9.612315496,2.4087613256,-0.08213854000000001,1.54721036,-4.78988743,,,
imu,175.930961,-0.3941826952,-9.584800467200001,2.4171354648,-0.03727708,1.4275798,-4.999240909999999,,,
imu,175.93942,-0.4270810992000001,-9.557285438400001,2.4488375632,0.33656842,1.31542615,-5.11139456,,,
imu,175.94788,-0.4510072112,-9.568052188800001,2.460202466400001,0.45619898,1.2780416,-5.07401001,,,
imu,175.95634,-0.4480164472000001,-9.573435564,2.481137814400001,0.66555246,1.24813396,-4.96185636,,,
imu,175.964719,-0.4324644744,-9.5907819952,2.4799415088,0.8524752099999999,1.33785688,-4.73007215,,,
imu,175.973179,-0.4055475984,-9.5740337168,2.481137814400001,0.78518302,1.24813396,-4.8422258,,,
imu,175.981638,-0.3893974728000001,-9.5632669664,2.487717495200001,0.8449983,1.28551851,-4.909517989999999,,,
imu,175.990098,-0.3834159448,-9.573435564,2.4631932304,0.91229049,0.9191499199999997,-5.044102369999999,,,
imu,175.998558,-0.385808556,-9.609324732000001,2.4500338688,1.10669015,0.6275504299999999,-5.27588658,,,
imu,176.007018,-0.3929863896,-9.636839760800001,2.4350800488,1.19641307,0.4256738599999998,-5.41794787,,,
imu,176.015477,-0.391790084,-9.640428677600001,2.4249114512,1.24127453,0.1191205499999999,-5.37308641,,,
imu,176.023937,-0.3941826952,-9.654186192000001,2.420126228800001,1.27118217,-0.4491246100000001,-5.48524006,,,
imu,176.032397,-0.4210995712,-9.661962178400001,2.3979945752,1.15155161,-0.82297011,-5.62730135,,,
imu,176.040856,-0.4390441552000001,-9.638634219200002,2.3728721576,1.2188438,-1.12204651,-5.545055339999999,,,
imu,176.049316,-0.4599795032,-9.617698871200002,2.36270356,1.0693056,-1.4884151,-5.49271697,,,
imu,176.057776,-0.4862982264000001,-9.606932120800002,2.3710776992,1.10669015,-1.70524549,-5.477763149999999,,,
imu,176.066236,-0.5180003248000001,-9.605735815200001,2.3764610744,1.08425942,-1.80992223,-5.41047096,,,
imu,176.074695,-0.5455153536,-9.637437913600001,2.3740684632,1.03939796,-2.10152172,-5.47028624,,,
imu,176.083155,-0.5790119104,-9.658971414400002,2.3758629216,0.8674290299999999,-2.00432189,-5.37308641,,,
imu,176.091615,-0.6035361752000001,-9.665551095200001,2.3543294208,0.7104139199999999,-2.03422953,-5.31327113,,,
imu,176.100075,-0.6274622872000001,-9.642223136000002,2.365694324000001,0.60573718,-1.94450661,-5.13382529,,,
imu,176.108534,-0.6358364264000002,-9.6745233872,2.395601964,0.64312173,-1.58561493,-4.87961035,,,
imu,176.116994,-0.6418179544000001,-9.6703363176,2.369283240800001,0.42629134,-1.44355364,-4.759979789999999,,,
imu,176.125454,-0.6753145112000001,-9.6505972752,2.368685088,0.35152224,-1.1145696,-4.5431494,,,
imu,176.134257,-0.7106055264000001,-9.6494009696,2.3734703104,0.44124516,-0.7482010100000003,-4.19921154,,,
imu,176.143061,-0.7327371800000001,-9.6643547896,2.3764610744,0.53096808,-0.23229422,-4.06462716,,,
imu,176.151865,-0.744700236,-9.6733270816,2.3818444496,0.52349117,0.1789358299999999,-3.95995042,,,
imu,176.160668,-0.7602522088000001,-9.658373261600001,2.3848352136,0.6281679099999999,0.7770886299999997,-3.81041222,,,
imu,176.169472,-0.7674300424000001,-9.6284656216,2.3854333664,0.79265993,1.44253362,-3.57862801,,,
imu,176.178276,-0.7548688336000001,-9.603343204000002,2.3950038112,0.9646288599999999,1.9509635,-3.54124346,,,
imu,176.187079,-0.7213722768,-9.585398620000001,2.3944056584,1.03192105,2.36219355,-3.61601256,,,
imu,176.195883,-0.6800997336000001,-9.5381445488,2.398592728,1.12164397,2.75099287,-3.54124346,,,
imu,176.204687,-0.6513883992,-9.5381445488,2.396798269600001,1.60016621,3.10240764,-3.50385891,,,
imu,176.21349,-0.6226770648,-9.551303910400001,2.389022283200001,1.91419643,3.12483837,-3.27955161,,,
imu,176.222294,-0.6065269392000001,-9.539939007200001,2.4009853392,2.29551884,3.07997691,-3.15244414,,,
imu,176.231098,-0.5808063688,-9.562070660800002,2.398592728,2.34785721,2.93791562,-3.16739796,,,
imu,174.79714,,,,,,,-86.2194644,172.35953,118.1718144
imu,174.898642,,,,,,,-83.3996012,171.016738,115.6205096
imu,175.000235,,,,,,,-86.19505000000001,172.0177284,118.0497424
imu,175.101767,,,,,,,-83.98554680000001,170.9434948,115.5350592
imu,175.203299,,,,,,,-86.1706356,172.3351156,117.4637968
imu,175.304861,,,,,,,-86.02414920000001,172.3961516,118.2816792
imu,175.40679,,,,,,,-85.9753204,171.9078636,117.7323552
imu,175.5082,,,,,,,-85.9386988,171.8834492,117.903256
imu,176.239901,-0.5694414656000001,-9.6087265792,2.3824426024,2.51982614,2.87062343,-3.10010577,,,
imu,176.248705,-0.5646562432000001,-9.672130776000001,2.3525349624,2.53477996,2.73603905,-2.8982292,,,
imu,176.257509,-0.5861897440000001,-9.667943706400001,2.3453571288,2.45253395,2.60145467,-2.6739219,,,
imu,176.266312,-0.5867878968000001,-9.6260730104,2.3226273224,2.25813429,2.75099287,-2.4496146,,,
imu,176.275116,-0.5814045216000001,-9.597959828800002,2.305879044,2.36281103,2.74351596,-2.39727623,,,
imu,176.28392,-0.5676470072,-9.6075302736,2.3064771968,2.48244159,2.8481927,-2.41223005,,,
imu,176.292723,-0.5736285352000001,-9.648204664000001,2.305879044,2.46001086,2.83323888,-2.5243837,,,
imu,176.301527,-0.5718340768000001,-9.7128051664,2.3046827384,2.33290339,2.90800798,-2.68887572,,,
imu,176.310331,-0.5497024232000001,-9.797144711200001,2.3190384056,2.08616536,3.05006927,-2.80102937,,,
imu,176.319134,-0.5461135064000001,-9.863539672000002,2.3022901272,1.45810492,3.02016163,-2.93561375,,,
imu,176.327938,-0.5347486032000001,-9.900625145600001,2.2837473904,0.6132140899999999,3.13231528,-3.15244414,,,
imu,176.336446,-0.5156077136000001,-9.8982325344,2.280756626400001,-0.16438455,3.36409949,-3.24964397,,,
imu,176.344954,-0.4946723656000001,-9.835426490400001,2.2843455432,-0.98684465,3.36409949,-3.22721324,,,
imu,176.353462,-0.4707462536000001,-9.800733628000001,2.284943696,-1.70462801,3.45382241,-3.30945925,,,
imu,176.36197,-0.4528016696000001,-9.764246307200002,2.2891307656,-2.21305789,3.39400713,-3.36179762,,,
imu,176.370478,-0.4432312248,-9.748694334400001,2.321431016800001,-2.61681103,3.20708438,-3.496382,,,
imu,176.378986,-0.439642308,-9.762451848800001,2.3405719064,-2.95327198,3.11736146,-3.58610492,,,
imu,176.387494,-0.415716196,-9.786377960800001,2.3399737536,-3.23739456,3.01268472,-3.69825857,,,
imu,176.396002,-0.4115291264,-9.7540777096,2.3411700592,-3.53647096,2.81828506,-3.75059694,,,
imu,176.40451,-0.4019586816,-9.6918698184,2.33279592,-3.902839549999999,2.60145467,-3.69078166,,,
imu,176.413018,-0.3929863896,-9.572239258400002,2.3513386568,-4.231823589999999,2.39210119,-3.66087402,,,
imu,176.421526,-0.4025568344,-9.491488630400001,2.3854333664,-4.21686977,2.23508608,-3.71321239,,,
imu,176.430034,-0.4288755576000001,-9.481918185600001,2.4249114512,-3.67853225,2.12293243,-3.54124346,,,
imu,176.438542,-0.451605364,-9.516012895200001,2.4398652712,-3.31216366,1.71170238,-3.70573548,,,
imu,176.447051,-0.4575868920000001,-9.536350090400001,2.4530246328,-2.96074889,1.36776452,-3.95247351,,,
imu,176.455559,-0.4695499480000001,-9.537546396000002,2.476352592,-2.51213429,1.24065705,-4.124442439999999,,,
imu,176.464067,-0.49347606,-9.514218436800002,2.51224176,-2.00370441,1.24813396,-4.13191935,,,
imu,176.472575,-0.5072335744,-9.483712644000002,2.5439438584,-1.58499745,1.18084177,-3.93751969,,,
imu,176.481083,-0.5150095608,-9.461580990400002,2.564879206400001,-1.18124431,1.21074941,-3.73564312,,,
imu,176.489591,-0.4946723656000001,-9.4250936696,2.5636829008,-0.65786061,1.24065705,-3.63096638,,,
imu,176.498099,-0.5072335744,-9.435262267200002,2.5582995256,0.05992275,1.19579559,-3.65339711,,,
imu,176.506607,-0.5341504504000001,-9.412532460800001,2.5325789552,0.9048135799999999,1.25561087,-3.60853565,,,
imu,176.515115,-0.5670488544000001,-9.3688673064,2.541551247200001,1.62259694,1.30047233,-3.67582784,,,
imu,176.523623,-0.5873860496000001,-9.3975786408,2.5714588872,2.54225687,1.50982581,-3.85527368,,,
imu,176.532131,-0.5867878968000001,-9.4490197816,2.554112456,3.39462461,1.577118,-4.13939626,,,
imu,176.540564,-0.6041343280000001,-9.4801237272,2.5409530944,3.9105314,1.71917929,-4.28893446,,,
imu,176.548997,-0.6077232448000001,-9.551902063200002,2.5343734136,4.42643819,1.83880985,-4.26650373,,,
imu,176.55743,-0.5963583416000001,-9.626671163200001,2.5283918856,4.5834533,2.0257326,-4.37118047,,,
imu,176.565863,-0.5814045216000001,-9.675121540000001,2.515232524,4.232038530000001,1.96591732,-4.51324176,,,
imu,176.574296,-0.5778156048000002,-9.709814402400001,2.4925027176,4.11240797,1.90610204,-4.6179185,,,
imu,176.582729,-0.5748248408000001,-9.740918348000001,2.461398772,3.77594702,1.66684092,-4.56558013,,,
imu,176.591162,-0.5879842024,-9.7744149048,2.447043104800001,3.11797894,1.36776452,-4.363703559999999,,,
imu,176.599595,-0.6041343280000001,-9.786976113600002,2.414144700800001,2.49739541,1.2032725,-4.19921154,,,
imu,176.608028,-0.6172936896000001,-9.767237071200002,2.3734703104,1.90671952,0.8967191899999998,-4.10948862,,,
imu,176.616461,-0.6388271904000001,-9.711608860800002,2.3573201848,1.60016621,0.7322271699999998,-3.83284295,,,
imu,176.624894,-0.6711274416,-9.6799067624,2.3489460456,1.17398234,0.6873657099999999,-3.74312003,,,
imu,176.633327,-0.6926609424000001,-9.697851346400002,2.3525349624,1.10669015,0.66493498,-3.59358183,,,
imu,176.64176,-0.7147925960000001,-9.709814402400001,2.335786684,1.05435178,0.7546578999999998,-3.53376655,,,
imu,176.650193,-0.7333353328000001,-9.6918698184,2.3351885312,0.85995212,0.9939190199999999,-3.52628964,,,
imu,176.658626,-0.7542706808000001,-9.696655040800001,2.3525349624,0.5982602699999999,1.36776452,-3.46647436,,,
imu,176.667059,-0.7500836112000001,-9.686486443200002,2.3740684632,0.30666078,1.70422547,-3.37675144,,,
imu,176.675492,-0.744700236,-9.675719692800001,2.383638908,0.16459949,2.11545552,-3.30198234,,,
imu,176.683925,-0.7165870544000001,-9.702038416,2.37765738,0.18703022,2.61640849,-3.22721324,,,
imu,176.692358,-0.7094092208000001,-9.675121540000001,2.3615072544,0.007584380000000002,2.88557725,-3.25712088,,,
imu,176.700791,-0.6806978864000002,-9.590183842400002,2.3800499912,-0.11204618,3.21456129,-3.20478251,,,
imu,176.709225,-0.6466031768,-9.52558334,2.4057705616,-0.06718472,3.40148404,-3.03281358,,,
imu,176.717658,-0.5855915912,-9.548313146400002,2.4093594784,0.3216146,3.58840679,-2.89075229,,,
imu,176.726091,-0.565254396,-9.592576453600001,2.406368714400001,0.64312173,3.56597606,-2.78607555,,,
imu,176.734524,-0.5574784096000001,-9.609324732000001,2.4033779504,0.71789083,3.58092988,-2.63653735,,,
imu,176.742988,-0.5168040192000001,-9.591380148,2.413546548,0.91229049,3.34166876,-2.49447606,,,
imu,176.751453,-0.490485296,-9.578818939200001,2.4129483952,1.09173633,3.26689966,-2.45709151,,,
imu,176.759918,-0.502448352,-9.5907819952,2.4033779504,1.18145925,3.03511545,-2.41970696,,,
imu,176.768383,-0.5293652280000001,-9.5865949256,2.374666616,1.38333582,2.93791562,-2.46456842,,,
imu,176.776848,-0.5335522976000001,-9.5949690648,2.3710776992,1.60016621,2.87062343,-2.45709151,,,
imu,176.785312,-0.5275707696,-9.576426328,2.379451838400001,1.76465823,2.71360832,-2.59167589,,,
imu,176.793777,-0.5311596864,-9.600352440000002,2.371675852,1.98148862,2.53416248,-2.72626027,,,
imu,176.802242,-0.5479079648000001,-9.644615747200001,2.3752647688,2.22074974,2.54163939,-2.63653735,,,
imu,176.810707,-0.5520950344000001,-9.6817012208,2.383638908,2.17588828,2.64631613,-2.76364482,,,
imu,176.819172,-0.5514968816000001,-9.672130776000001,2.379451838400001,2.07868845,2.66874686,-2.92813684,,,
imu,176.827637,-0.5359449088000001,-9.672130776000001,2.3854333664,1.91419643,2.68370068,-2.94309066,,,
imu,176.836101,-0.5377393672000002,-9.687084596000002,2.389620436,1.84690424,2.78837742,-2.77859864,,,
imu,176.844566,-0.517402172,-9.7074217912,2.3878259776,1.56278166,2.89305416,-2.79355246,,,
imu,176.853031,-0.5359449088000001,-9.6984494992,2.3884241304,1.2188438,2.88557725,-2.84589083,,,
imu,176.861496,-0.5407301312,-9.678112304,2.3788536856,0.91229049,2.76594669,-2.89075229,,,
imu,176.869961,-0.5191966304000001,-9.676915998400002,2.3860315192,0.76275229,3.03511545,-2.85336774,,,
imu,176.878425,-0.5006538936,-9.690075360000002,2.3938075056,0.49358353,3.10240764,-2.8982292,,,
imu,176.88689,-0.5084298800000001,-9.699645804800001,2.4033779504,0.33656842,3.10988455,-2.99542903,,,
imu,176.895355,-0.4964668240000001,-9.709216249600003,2.4021816448,0.05244583999999999,3.01268472,-3.38422835,,,
imu,176.90382,-0.4988594352000001,-9.702038416,2.3997890336,-0.21672292,2.86314652,-3.60105874,,,
imu,176.912285,-0.49347606,-9.7074217912,2.4159391592,-0.5681376899999999,2.8481927,-3.69825857,,,
imu,176.920749,-0.481513004,-9.678710456800001,2.4147428536,-0.77749117,2.72108523,-3.68330475,,,
imu,176.929214,-0.4976631296000001,-9.634447149600001,2.4069668672,-0.89712173,2.80333124,-3.61601256,,,
imu,176.937679,-0.4976631296000001,-9.602146898400001,2.413546548,-1.06909066,2.72108523,-3.69825857,,,
imu,176.946143,-0.5012520464000001,-9.593772759200002,2.4039761032,-0.8672140899999999,2.85566961,-3.58610492,,,
imu,176.954606,-0.4862982264000001,-9.591978300800001,2.4009853392,-0.5681376899999999,2.88557725,-3.54872037,,,
imu,176.96307,-0.5042428104000001,-9.593772759200002,2.4087613256,-0.5008455,2.68370068,-3.69825857,,,
imu,176.971533,-0.5347486032000001,-9.5812115504,2.4213225344,-0.45598404,2.51173175,-3.95247351,,,
imu,176.979997,-0.5389356728,-9.5740337168,2.4338837432,-0.0522309,2.44443956,-4.21416536,,,
imu,176.98846,-0.5185984776000001,-9.5776226336,2.4398652712,0.15712258,2.43696265,-4.37118047,,,
imu,176.996924,-0.5168040192000001,-9.594370912,2.429696673600001,0.19450713,2.18274771,-4.44594957,,,
imu,177.005387,-0.5305615336,-9.630858232800001,2.434481896,0.33656842,1.91357895,-4.341272829999999,,,
imu,177.013851,-0.535346756,-9.648204664000001,2.4290985208,0.3739529699999999,1.77899457,-4.28893446,,,
imu,177.022315,-0.5245800056000001,-9.635643455200002,2.4261077568,0.43376825,1.62945637,-4.29641137,,,
imu,177.030778,-0.5544876456000001,-9.610521037600002,2.425509604,0.4711528,1.42010289,-4.10948862,,,
imu,177.039242,-0.5837971328000001,-9.594370912,2.4231169928,0.46367589,1.21074941,-4.034719519999999,,,
imu,177.047705,-0.6149010784000001,-9.599156134400001,2.4153410064,0.6954601,1.15093413,-3.81788913,,,
imu,175.609579,,,,,,,-85.6213116,172.3229084,118.3060936
imu,175.711416,,,,,,,-85.7555908,172.4083588,118.0741568
imu,175.812674,,,,,,,-84.791222,172.1886292,117.2196528
imu,175.914633,,,,,,,-86.072978,172.4571876,117.6835264
imu,176.01586,,,,,,,-83.509466,172.0421428,114.8392488
imu,176.117392,,,,,,,-86.2072572,171.8590348,118.2938864
imu,176.218954,,,,,,,-83.2897364,171.0533596,115.0833928
imu,176.320486,,,,,,,-86.1584284,171.7003412,118.0619496
imu,177.056128,-0.6430142600000001,-9.6015487456,2.4057705616,0.7702292,1.13598031,-3.77302767,,,
imu,177.064592,-0.6615569968000001,-9.599754287200001,2.40756502,0.83004448,1.30047233,-3.69825857,,,
imu,177.073055,-0.6777071224000001,-9.603343204000002,2.413546548,0.9870595899999999,1.50982581,-3.68330475,,,
imu,177.081519,-0.6812960392000001,-9.6284656216,2.4039761032,0.9945364999999999,1.82385603,-3.70573548,,,
imu,177.089982,-0.684884956,-9.6535880392,2.3926112,1.01696723,2.04816333,-3.5711511,,,
imu,177.098446,-0.6878757200000001,-9.6703363176,2.3764610744,0.80013684,2.22013226,-3.56367419,,,
imu,177.106909,-0.6890720256,-9.690075360000002,2.3884241304,0.70293701,2.36219355,-3.54872037,,,
imu,177.115373,-0.6771089696000001,-9.7122070136,2.396798269600001,0.7104139199999999,2.55659321,-3.44404363,,,
imu,177.123836,-0.6615569968000001,-9.710412555200001,2.3728721576,0.4711528,2.76594669,-3.4216129,,,
imu,177.1323,-0.6466031768,-9.714001472000001,2.386629672,0.12721494,2.8481927,-3.25712088,,,
imu,177.140764,-0.6352382736000001,-9.70502918,2.396798269600001,-0.01484635000000001,2.98277708,-2.95804448,,,
imu,177.149584,-0.6220789120000001,-9.703832874400002,2.3914148944,-0.127,3.04259236,-2.80850628,,,
imu,177.158405,-0.6119103144000001,-9.699047652,2.383040755200001,-0.38121494,3.01268472,-2.81598319,,,
imu,177.167226,-0.5933675776,-9.672728928800002,2.3938075056,-0.89712173,2.85566961,-2.81598319,,,
imu,177.176047,-0.5730303824,-9.639232372,2.398592728,-1.03170611,2.87810034,-2.80102937,,,
imu,177.184868,-0.5903768136,-9.599156134400001,2.4279022152,-0.9494601,2.6238854,-2.86832156,,,
imu,177.193689,-0.5921712720000001,-9.619493329600001,2.437472660000001,-1.11395212,2.4743472,-2.95056757,,,
imu,177.20251,-0.5975546472000001,-9.641026830400001,2.434481896,-1.18124431,2.26499372,-2.99542903,,,
imu,177.211331,-0.6160973840000001,-9.661364025600001,2.4440523408,-1.04665993,2.44443956,-2.86832156,,,
imu,177.220152,-0.6364345792000001,-9.666149248000002,2.4536227856,-1.07656757,2.6238854,-2.72626027,,,
imu,177.228973,-0.6316493568000001,-9.638036066400002,2.4566135496,-1.25601341,2.91548489,-2.47952224,,,
imu,177.237793,-0.6035361752000001,-9.61530626,2.4560153968,-1.30835178,3.24446893,-2.26269185,,,
imu,177.246614,-0.5867878968000001,-9.613511801600001,2.4619969248,-1.19619813,3.61831443,-2.14306129,,,
imu,177.255435,-0.5610673264,-9.620689635200002,2.45242648,-1.11395212,3.79028336,-2.17296893,,,
imu,177.264256,-0.5413282840000001,-9.585996772800002,2.434481896,-1.16629049,3.86505246,-2.45709151,,,
imu,177.273077,-0.5359449088000001,-9.5381445488,2.440463424,-0.8821679099999999,4.09683667,-2.79355246,,,
imu,177.281898,-0.5048409632,-9.520798117600002,2.4476412576,-0.71767589,4.20899032,-3.18235178,,,
imu,177.290719,-0.4785222400000001,-9.5291722568,2.454819091200001,-0.38121494,4.23142105,-3.36179762,,,
imu,177.29954,-0.4372496968000001,-9.5566872856,2.4709692168,0.03749201999999999,4.06692903,-3.55619728,,,
imu,177.308361,-0.3995660704000001,-9.578220786400001,2.4775488976,0.21693786,3.85009864,-3.6459202,,,
imu,177.317182,-0.3786307224000001,-9.596165370400001,2.4799415088,0.21693786,3.43886859,-3.70573548,,,
imu,177.326003,-0.3702565832000001,-9.603343204000002,2.4984842456,0.23936859,3.03511545,-3.78798149,,,
imu,177.334823,-0.3864067088000001,-9.625474857600002,2.4984842456,0.05244583999999999,2.55659321,-3.90013514,,,
imu,177.343644,-0.4228940296000001,-9.619493329600001,2.4859230368,-0.06718472,1.92105586,-3.81041222,,,
imu,177.352005,-0.4438293776000001,-9.6260730104,2.4769507448,-0.14943073,1.56964109,-3.60105874,,,
imu,177.360366,-0.4659610312,-9.6290637744,2.467380300000001,-0.34383039,1.07616503,-3.59358183,,,
imu,177.368726,-0.4833074624000001,-9.616502565600001,2.479343356,-0.34383039,0.8369039099999998,-3.66087402,,,
imu,177.377087,-0.5084298800000001,-9.592576453600001,2.497287940000001,-0.26158438,0.50044296,-3.74312003,,,
imu,177.385447,-0.5395338256000001,-9.6015487456,2.485324884000001,-0.17933837,0.19388965,-3.96742733,,,
imu,177.393808,-0.5760211464000001,-9.606333968000001,2.494895328800001,-0.14195382,0.2387511099999999,-4.15435008,,,
imu,177.402169,-0.6202844536000002,-9.614708107200002,2.509250996,0.05992275,0.2611818399999999,-4.25154991,,,
imu,177.410529,-0.6495939408000001,-9.6039413568,2.509250996,0.11973803,0.47801223,-4.19921154,,,
imu,177.41889,-0.6501920936000001,-9.599156134400001,2.5134380656,0.26927623,0.7397040799999997,-4.07210407,,,
imu,177.42725,-0.6573699272000001,-9.595567217600001,2.5409530944,0.20198404,0.9415806499999997,-3.93004278,,,
imu,177.435611,-0.6591643856000001,-9.599754287200001,2.557103220000001,0.16459949,1.39019525,-3.92256587,,,
imu,177.443972,-0.6495939408000001,-9.619493329600001,2.548130928,0.32909151,1.66684092,-3.99733497,,,
imu,177.452332,-0.6388271904000001,-9.588389384000001,2.5385604832,0.29918387,1.88367131,-4.0197657,,,
imu,177.460693,-0.6334438152,-9.572239258400002,2.5499253864,0.35152224,1.80890221,-4.21416536,,,
imu,177.469053,-0.6346401208000001,-9.559678049600002,2.5397567888,0.26179932,1.94348659,-4.32631901,,,
imu,177.477414,-0.6394253432000001,-9.5800152448,2.536167872,0.41881443,2.14536316,-4.07210407,,,
imu,177.485775,-0.6376308848000001,-9.600352440000002,2.533177108,0.65059864,2.28742445,-3.60105874,,,
imu,177.494135,-0.6316493568000001,-9.624278552000002,2.5379623304,0.53844499,2.36967046,-3.31693616,,,
imu,177.502496,-0.6149010784000001,-9.6224840936,2.5158306768,0.57582954,2.45939338,-3.13001341,,,
imu,177.510856,-0.6154992312,-9.5740337168,2.500278704,0.6132140899999999,2.52668557,-3.07019813,,,
imu,177.519217,-0.6089195504,-9.5291722568,2.5074565376,0.83004448,2.61640849,-3.1225365,,,
imu,177.527577,-0.6095177032000001,-9.527377798400002,2.494297176,1.06182869,2.56407012,-3.40665908,,,
imu,177.535938,-0.6119103144000001,-9.5602762024,2.4769507448,1.33099745,2.51173175,-3.5711511,,,
imu,177.544299,-0.5909749664,-9.558481744000002,2.455417244,1.61512003,2.29490136,-3.66087402,,,
imu,177.552659,-0.6047324808000001,-9.555490980000002,2.458408008,1.67493531,2.19770153,-3.68330475,,,
imu,177.561232,-0.5993491056000001,-9.5907819952,2.462595077600001,1.70484295,2.0257326,-3.54124346,,,
imu,177.569805,-0.6029380224,-9.61530626,2.4530246328,1.80951969,1.90610204,-3.36927453,,,
imu,177.578378,-0.6107140088,-9.6535880392,2.4458467992,1.8917657,1.93600968,-3.13001341,,,
imu,177.58695,-0.6292567456000001,-9.676915998400002,2.443454188,1.56278166,1.78647148,-2.88327538,,,
imu,177.595523,-0.6483976352,-9.688879054400001,2.4308929792,1.33847436,1.90610204,-2.85336774,,,
imu,177.604096,-0.6472013296000001,-9.693664276800002,2.4392671184,1.21136689,1.9509635,-2.70382954,,,
imu,177.612669,-0.6531828576,-9.689477207200001,2.4356782016,1.03939796,2.1005017,-2.61410662,,,
imu,177.621242,-0.6615569968000001,-9.672728928800002,2.4290985208,0.7702292,2.25751681,-2.75616791,,,
imu,177.629814,-0.6537810104000001,-9.669738164800002,2.423715145600001,0.67302937,2.4743472,-2.81598319,,,
imu,177.638387,-0.6519865520000001,-9.652989886400002,2.4386689656,0.60573718,2.63136231,-2.88327538,,,
imu,177.64696,-0.6328456624000001,-9.659569567200002,2.4440523408,0.44124516,2.79585433,-3.01785976,,,
imu,177.655533,-0.6125084672000001,-9.669140012000002,2.447043104800001,0.13469185,2.93791562,-3.21973633,,,
imu,177.664105,-0.5891805080000001,-9.667345553600002,2.4542209384,0.0001074699999999984,3.04259236,-3.28702852,,,
imu,177.672678,-0.565254396,-9.648802816800002,2.4727636752,-0.04475399000000001,3.12483837,-3.10010577,,,
imu,177.681251,-0.5485061176,-9.636839760800001,2.4667821472,-0.25410747,3.17717674,-3.03281358,,,
imu,177.689824,-0.5377393672000002,-9.625474857600002,2.4661839944,-0.39616876,2.94539253,-3.08515195,,,
imu,177.698397,-0.5233837000000001,-9.605735815200001,2.4787452032,-0.5756146,2.79585433,-3.01038285,,,
imu,177.706969,-0.5239818528000001,-9.597959828800002,2.487717495200001,-0.44103022,2.60893158,-2.96552139,,,
imu,177.715542,-0.5389356728,-9.591978300800001,2.479343356,-0.43355331,2.5491163,-2.89075229,,,
imu,177.724115,-0.5550857984,-9.572239258400002,2.4966897872,-0.39616876,2.43696265,-2.89075229,,,
imu,177.732688,-0.5580765624000001,-9.583006008800002,2.5008768568,-0.20924601,2.29490136,-2.99542903,,,
imu,177.741261,-0.5586747152,-9.599156134400001,2.5170269824,-0.30644584,2.33976282,-3.15244414,,,
imu,177.749833,-0.5568802568000001,-9.613511801600001,2.5236066632,-0.14195382,2.45939338,-3.18982869,,,
imu,177.758307,-0.5455153536,-9.606333968000001,2.525401121600001,-0.127,2.40705501,-3.30945925,,,
imu,177.766781,-0.5383375200000001,-9.588389384000001,2.5146343712,-0.15690764,2.2500399,-3.46647436,,,
imu,177.775254,-0.5461135064000001,-9.572239258400002,2.521214052,-0.08961545,2.30985518,-3.51133582,,,
imu,177.783728,-0.5425245896,-9.564463272000001,2.5038676208,0.08983038999999998,2.26499372,-3.46647436,,,
imu,177.792202,-0.5449172008000001,-9.561472508000001,2.5074565376,0.23189168,2.15284007,-3.47395127,,,
imu,177.800676,-0.5455153536,-9.5812115504,2.5259992744,0.36647606,2.16779389,-3.44404363,,,
imu,177.809149,-0.5640580904000001,-9.595567217600001,2.5218122048,0.53096808,2.13788625,-3.36179762,,,
imu,177.817623,-0.5610673264,-9.599754287200001,2.52719558,0.59078336,2.19770153,-3.40665908,,,
imu,177.826097,-0.5766192992000001,-9.612315496,2.52719558,0.7552753799999999,2.25751681,-3.31693616,,,
imu,177.83457,-0.5784137576,-9.625474857600002,2.533177108,0.78518302,2.28742445,-3.37675144,,,
imu,177.843044,-0.5598710208000001,-9.6260730104,2.541551247200001,0.80761375,2.33228591,-3.39170526,,,
imu,177.851518,-0.5634599376000001,-9.639232372,2.5265974272,0.68050628,2.40705501,-3.62348947,,,
imu,177.859992,-0.5425245896,-9.630260080000001,2.5140362184,0.53096808,2.29490136,-3.84779677,,,
imu,177.868465,-0.5335522976000001,-9.6224840936,2.5230085104,0.41881443,2.1752708,-3.97490424,,,
imu,176.421985,,,,,,,-85.88987000000002,172.4327732,118.2328504
imu,176.523548,,,,,,,-85.56027560000001,172.3961516,118.0131208
imu,176.625202,,,,,,,-85.8776628,171.8956564,117.9276704
imu,176.726673,,,,,,,-85.706762,171.871242,118.0009136
imu,176.828296,,,,,,,-85.23068119999999,171.9444852,118.0009136
imu,176.929828,,,,,,,-84.74239320000001,171.7735844,117.23186
imu,177.031635,,,,,,,-85.6945548,171.44399,117.5492472
imu,177.132953,,,,,,,-83.997754,171.3341252,115.644924
imu,177.876939,-0.5281689224000001,-9.609922884800001,2.5218122048,0.34404533,1.96591732,-4.169303899999999,,,
imu,177.885413,-0.5419264368000001,-9.606932120800002,2.5116436072,0.23189168,1.74908693,-4.244073,,,
imu,177.893886,-0.5580765624000001,-9.599156134400001,2.506858384800001,0.20198404,1.60702564,-4.22164227,,,
imu,177.90236,-0.5736285352000001,-9.6117173432,2.5170269824,0.34404533,1.46496435,-4.102011709999999,,,
imu,177.910834,-0.5766192992000001,-9.623680399200001,2.5259992744,0.3963837,1.24065705,-3.87770441,,,
imu,177.919308,-0.5921712720000001,-9.609922884800001,2.5200177464,0.30666078,1.11354958,-3.81041222,,,
imu,177.927781,-0.5933675776,-9.588987536800001,2.504465773600001,0.13469185,1.02382666,-3.7954584,,,
imu,177.936255,-0.6172936896000001,-9.561472508000001,2.5074565376,0.1720764,0.8144731799999998,-3.80293531,,,
imu,177.944729,-0.6412198016000001,-9.578818939200001,2.5098491488,0.27675314,0.8294269999999999,-3.62348947,,,
imu,177.953202,-0.6741182056000001,-9.621287788000002,2.5110454544,0.20946095,0.6499811599999998,-3.74312003,,,
imu,177.961672,-0.7129981376000001,-9.666149248000002,2.504465773600001,0.3889067899999999,0.7770886299999997,-3.75059694,,,
imu,177.970142,-0.7333353328000001,-9.645213900000002,2.506858384800001,0.29918387,0.9640113799999996,-3.45899745,,,
imu,177.978612,-0.7494854584000001,-9.626671163200001,2.509250996,0.47862971,1.34533379,-3.17487487,,,
imu,177.987082,-0.7656355840000001,-9.6296619272,2.5146343712,0.41133752,1.81637912,-2.77859864,,,
imu,177.995552,-0.7680281952000001,-9.6470083584,2.5020731624,0.41133752,2.40705501,-2.49447606,,,
imu,178.004022,-0.7393168608000001,-9.6458120528,2.4889138008,0.26927623,2.80333124,-2.3748455,,,
imu,178.012492,-0.7225685824,-9.614109954400002,2.470371064,0.2468455,3.12483837,-2.48699915,,,
imu,178.020962,-0.7004369288000002,-9.590183842400002,2.4590061608,0.30666078,3.43139168,-2.42718387,,,
imu,177.234516,,,,,,,-86.48802280000001,171.993314,117.9887064
imu,177.336109,,,,,,,-83.509466,171.2364676,115.3275368
imu,177.43761,,,,,,,-85.9142844,171.9811068,117.8544272
imu,177.539478,,,,,,,-85.8654556,171.8468276,117.720148
imu,177.640735,,,,,,,-86.0363564,172.1886292,117.3783464
imu,177.742328,,,,,,,-85.3283388,172.3229084,117.170824
imu,177.843982,,,,,,,-86.02414920000001,172.1642148,117.6835264
imu,177.945423,,,,,,,-84.76680759999999,172.3473228,116.9388872
