Type,Timestamp,Data Accelerometer X,Data Accelerometer Y,Data Accelerometer Z,Data Gyroscope X,Data Gyroscope Y,Data Gyroscope Z,Data Magnetometer X,Data Magnetometer Y,Data Magnetometer Z
imu,132.644543,0.6860812616,-9.453206851200001,2.7646622416,8.63593852,7.52126145,-3.10010577,,,
imu,132.653362,0.7249611936,-9.4729458936,2.75150288,9.2939066,6.10812546,-2.47952224,,,
imu,132.662182,0.7518780696000001,-9.5004609224,2.727576768,9.592982999999998,4.4931129,-1.86641562,,,
imu,132.671001,0.7877672376000001,-9.5249851872,2.7144174064,9.88458249,2.55659321,-1.43275484,,,
imu,132.679821,0.8212637944000001,-9.566257730400002,2.701856197600001,10.32572018,0.8967191899999998,-0.8121713099999999,,,
imu,132.688641,0.8374139200000001,-9.600352440000002,2.667163335200001,10.49768911,-0.86035466,-0.4532796299999999,,,
imu,132.69746,0.840404684,-9.593174606400002,2.6402464592,10.53507366,-2.65481306,-0.26635688,,,
imu,132.705923,0.8350213088000001,-9.5949690648,2.6234981808,10.69208877,-4.52404056,-0.04204958000000003,,,
imu,132.714386,0.8445917536,-9.608128426400002,2.607946208,10.63227349,-6.48299098,-0.06448030999999999,,,
imu,132.72285,0.9008181168,-9.661364025600001,2.5732533456,10.80424242,-8.43446449,-0.05700339999999993,,,
imu,132.731313,0.9289312984000001,-9.7151977776,2.5523179976,10.67713495,-10.63267603,-0.4458027199999999,,,
imu,132.739776,0.9319220624000001,-9.7845835024,2.5140362184,10.45282765,-12.80845684,-0.71497148,,,
imu,132.748239,0.9737927584000001,-9.822267128800002,2.483530425600001,10.07150524,-14.91694546,-1.05890934,,,
imu,132.756702,1.007887468,-9.855763685600001,2.479343356,9.241568229999999,-17.34694121,-1.41780102,,,
imu,132.765165,0.9887465784000001,-9.8647359776,2.458408008,8.32938521,-19.89656752,-1.37293956,,,
imu,132.773628,0.9044070336000001,-9.840809865600002,2.4153410064,7.23775635,-22.17702507,-0.9467556899999998,,,
imu,132.782091,0.7764023344000002,-9.798341016800002,2.369283240800001,6.46015771,-24.35280588,-0.4308489,,,
imu,132.790555,0.6783052752000002,-9.752283251200002,2.3555257264,5.76480508,-26.12483355,0.2271191799999999,,,
imu,132.799018,0.6166955368000001,-9.746899876,2.3591146432,5.14422155,-27.38095443,0.6832106900000001,,,
imu,132.807481,0.5867878968000001,-9.7995373224,2.3668906296,4.5834533,-28.67445986,0.7729336099999999,,,
imu,132.815944,0.5281689224000001,-9.810902225600001,2.350740504,3.67127028,-29.7511349,0.9972409099999999,,,
imu,132.824407,0.4498109056,-9.7510869456,2.3531331152,2.70674889,-30.54368736,1.13182529,,,
imu,132.83287,0.3995660704000001,-9.6428212888,2.3453571288,2.06373463,-31.01473269,1.42342478,,,
imu,132.841333,0.3445360128,-9.596165370400001,2.3471515872,1.80951969,-31.33623982,1.41594787,,,
imu,132.849797,0.2643835376,-9.614109954400002,2.3633017128,1.89924261,-31.64279313,1.07201001,,,
imu,132.85826,0.2159331608,-9.6218859408,2.3638998656,1.94410407,-31.62783931,0.7953643399999999,,,
imu,132.866723,0.2637853848,-9.621287788000002,2.3674887824,2.0413039,-31.28390145,0.64582614,,,
imu,132.875186,0.3277877344,-9.6470083584,2.4003871864,2.0413039,-31.42596274,-0.08691103999999994,,,
imu,132.883649,0.3487230824000001,-9.6817012208,2.4093594784,2.116073,-31.73999296,-0.82712513,,,
imu,132.892112,0.3379563320000001,-9.7128051664,2.4207243816,2.21327283,-32.12879228,-1.46266248,,,
imu,132.900575,0.3218062064,-9.7193848472,2.425509604,2.05625772,-32.59983761,-1.90380017,,,
imu,132.909038,0.3134320672,-9.693066124000001,2.429696673600001,1.92915025,-32.98116002,-2.14306129,,,
imu,132.917508,0.3086468448,-9.648802816800002,2.4320892848,1.98896553,-33.28771333,-2.21035348,,,
imu,132.925977,0.311039456,-9.657775108800001,2.4685766056,2.13850373,-33.54940518,-2.12810747,,,
imu,132.934446,0.3253951232,-9.6984494992,2.4907082592,2.25813429,-33.85595849,-1.90380017,,,
imu,132.942916,0.3738455000000001,-9.724170069600001,2.499082398400001,2.23570356,-34.34943455,-1.78416961,,,
imu,132.951385,0.415716196,-9.685888290400001,2.5104473016,1.84690424,-34.99244881,-1.7019236,,,
imu,132.959854,0.4946723656000001,-9.600352440000002,2.4901101064,1.89924261,-36.12146222,-1.71687742,,,
imu,132.968324,0.6119103144000001,-9.577024480800002,2.4691747584,2.00391935,-37.47478293,-1.80660034,,,
imu,132.976793,0.7177833600000001,-9.621287788000002,2.4901101064,2.34785721,-39.38139498,-1.79912343,,,
imu,132.985262,0.7799912512000001,-9.616502565600001,2.5056620792,2.54225687,-41.80391382,-1.54490849,,,
imu,132.993731,0.7578595976000001,-9.553696521600001,2.4841285784,2.44505704,-44.52550906,-0.9617095099999999,,,
imu,133.002201,0.6968480120000001,-9.460982837600001,2.4691747584,2.4899185,-47.13495065,-0.32617216,,,
imu,133.01067,0.6262659816,-9.4005694048,2.4572117024,2.88619473,-49.66962314,0.4289957499999999,,,
imu,133.019139,0.6095177032000001,-9.3796340568,2.4542209384,3.61893191,-51.85288086,1.2140713,,,
imu,133.027609,0.6226770648,-9.414326919200002,2.469772911200001,4.19465398,-54.39503026,1.44585551,,,
imu,133.036078,0.5981528,-9.457393920800001,2.4542209384,4.90496043,-56.62314944,1.81970101,,,
imu,133.044547,0.5156077136000001,-9.4382530312,2.4386689656,5.28628284,-58.96342227,2.17111578,,,
imu,133.053016,0.3792288752000001,-9.416719530400002,2.4356782016,5.86948182,-60.84012668,2.68702257,,,
imu,133.061486,0.2685706072,-9.427486280800002,2.4428560352,6.29566569,-62.44018542,3.05339116,,,
imu,133.069955,0.170473548,-9.505844297600001,2.4518283272,6.94615686,-63.49442973,3.68892851,,,
imu,133.078424,0.0933118368,-9.595567217600001,2.4530246328,7.05831051,-64.31688983,3.95809727,,,
imu,133.086894,-0.004785222400000001,-9.658971414400002,2.4709692168,6.83400321,-64.85522734999999,4.2796044,,,
imu,133.095363,-0.1004896704,-9.669140012000002,2.4572117024,6.50501917,-64.90756572,4.638496079999999,,,
imu,133.103832,-0.155519728,-9.616502565600001,2.4177336176,6.0788353,-64.66082768999999,4.989910849999999,,,
imu,133.112311,-0.1603049504,-9.604539509600002,2.410555784,5.91434328,-64.43652039,5.169356690000001,,,
imu,133.12079,-0.185427368,-9.599754287200001,2.3950038112,5.95920474,-64.06267489,5.09458759,,,
imu,133.129269,-0.248233412,-9.543527924000001,2.3770592272,6.0788353,-63.67387557,5.07215686,,,
imu,133.137747,-0.2649816904,-9.536948243200001,2.396798269600001,6.55735754,-62.97104603,5.22169506,,,
imu,133.146226,-0.3295821928000001,-9.5842023144,2.4009853392,6.88634158,-62.41775469,5.18431051,,,
imu,133.154705,-0.3523119992,-9.646410205600002,2.425509604,7.08074124,-61.9018479,5.04224922,,,
imu,133.163184,-0.4216977240000001,-9.648204664000001,2.4069668672,6.92372613,-61.11677235,4.922618659999999,,,
imu,133.171663,-0.601143564,-9.6428212888,2.4027797976,6.61717282,-60.18963551,4.907664840000001,,,
imu,133.180141,-0.7494854584000001,-9.655980650400002,2.410555784,6.42277316,-58.64939205,5.259079610000001,,,
imu,133.18862,-0.8027210576,-9.7086180968,2.410555784,6.19846586,-56.54090343,5.3263718,,,
imu,133.197099,-0.8744993936000002,-9.675121540000001,2.3728721576,5.77228199,-54.05856931,5.31141798,,,
imu,133.205507,-0.8984255056000002,-9.6075302736,2.3441608232,5.71994362,-51.32949716,5.259079610000001,,,
imu,133.213985,-0.8625363376,-9.557285438400001,2.3345903784,5.72742053,-48.80977849,4.750649729999999,,,
imu,133.222464,-0.8350213088000001,-9.5566872856,2.320832864,5.90686637,-46.31996746,4.14502002,,,
imu,133.230943,-0.8039173632000001,-9.5501076048,2.305879044,6.34800406,-44.1815712,3.20292936,,,
imu,133.239422,-0.8051136688,-9.527975951200002,2.2951122936,6.93120304,-42.1628055,2.24588488,,,
imu,133.247901,-0.7883653904000001,-9.519601812000001,2.2927196824,7.52935584,-40.13656289,1.57296298,,,
imu,133.256379,-0.8075062800000001,-9.5423316184,2.2831492376,8.232185379999999,-38.21499702,0.87013344,,,
imu,133.264858,-0.8739012408000001,-9.5602762024,2.280756626400001,8.733138349999999,-36.18875441,0.2719806400000002,,,
imu,133.273337,-0.9396980488000001,-9.5907819952,2.2795603208,9.263998959999999,-34.02792742,0.01028879000000016,,,
imu,133.281816,-0.9438851184000001,-9.626671163200001,2.2765695568,9.570552269999999,-31.49325493,-0.1691570499999999,,,
imu,133.290295,-0.9313239096000001,-9.6458120528,2.2556342088,9.660275189999998,-29.13055137,-0.4233719899999999,,,
imu,133.298773,-0.9379035904000002,-9.6505972752,2.2352970136,9.675229009999999,-26.67064798,-0.6102947399999998,,,
imu,133.307252,-0.9229497704,-9.609922884800001,2.2233339576,9.503260079999999,-24.39766734,-0.76730985,,,
imu,133.315718,-0.9181645480000001,-9.552500216,2.21316536,9.6677521,-22.33404018,-1.0290017,,,
imu,133.324184,-0.88227538,-9.554294674400001,2.1940244704,9.92944395,-20.15078246,-0.99909406,,,
imu,133.33265,-0.8350213088000001,-9.621287788000002,2.1988096928,10.31076636,-18.10958603,-0.9617095099999999,,,
imu,133.341117,-0.7835801680000001,-9.669140012000002,2.2018004568,10.52011984,-16.26278926,-0.8495558599999999,,,
imu,133.349583,-0.7620466672,-9.682897526400001,2.2143616656,10.62479658,-14.65525361,-0.7822636699999999,,,
imu,133.358049,-0.7405131664000002,-9.735534972800002,2.222137652,10.57993512,-13.24959453,-0.7523560299999998,,,
imu,133.366515,-0.6932590952000001,-9.8043225448,2.1898374008,10.51264293,-11.97104292,-0.82712513,,,
imu,133.374981,-0.6238733704,-9.839015407200002,2.1557426912,10.18365889,-10.69249131,-0.90937114,,,
imu,133.383447,-0.571235924,-9.8563618384,2.1395925656,9.62289064,-9.7877852,-0.9542325999999999,,,
imu,133.391913,-0.5221873944000001,-9.864137824800002,2.1318165792,9.069599299999998,-9.122340209999999,-1.14115535,,,
imu,133.400379,-0.4833074624000001,-9.867128588800002,2.1240405928,8.471446499999999,-8.5914796,-1.44023175,,,
imu,133.408845,-0.4366515440000001,-9.901821451200002,2.0959274112,7.92563207,-8.01575753,-1.64958523,,,
imu,133.417311,-0.3935845424,-9.8946436176,2.0660197712,7.32000236,-7.589573659999999,-1.64210832,,,
imu,133.425777,-0.3690602776000001,-9.870717505600002,2.0564493264,6.65455737,-7.33535872,-1.7766927,,,
imu,133.434243,-0.3433397072,-9.858754449600001,2.0462807288,5.9292971,-7.29049726,-1.89632326,,,
imu,133.44271,-0.3188154424,-9.832435726400002,2.045084423200001,5.54049778,-7.16338979,-1.72435433,,,
imu,133.451176,-0.2847207328,-9.825257892800002,2.0402992008,4.97972953,-7.305451079999999,-1.87389253,,,
imu,133.459642,-0.281131816,-9.824659740000001,2.0343176728,4.64326858,-7.38022018,-1.88136944,,,
imu,133.468108,-0.275150288,-9.8013317808,2.0229527696,4.19465398,-7.43255855,-1.7766927,,,
imu,133.476574,-0.2775428992,-9.759461084800002,2.0223546168,3.79837775,-7.395174000000001,-1.61967759,,,
imu,133.48504,-0.2817299688000001,-9.7427128064,2.0229527696,3.611455,-7.178343610000001,-1.38789338,,,
imu,133.493506,-0.2799355104,-9.7265626808,2.0163730888,3.44696298,-6.98394395,-1.22340136,,,
imu,133.501972,-0.2769447464000001,-9.708019944000002,2.0050081856,3.37219388,-6.76711356,-1.13367844,,,
imu,133.510438,-0.251224176,-9.706823638400001,2.00381188,3.28994787,-6.64000609,-0.96918642,,,
imu,133.519243,-0.2255036056,-9.6984494992,1.9996248104,3.17031731,-6.59514463,-1.00657097,,,
imu,133.528048,-0.1896144376,-9.718786694400002,2.0020174216,3.32733242,-6.296068229999999,-0.8645096799999998,,,
imu,133.536853,-0.158510492,-9.748694334400001,2.0151767832,3.30490169,-6.303545140000001,-0.8719865899999999,,,
imu,133.545658,-0.143556672,-9.759461084800002,2.0181675472,3.26004023,-6.453083339999999,-0.91684805,,,
imu,133.554463,-0.1351825328,-9.800733628000001,2.0420936592,3.10302512,-6.52785244,-1.01404788,,,
imu,133.563268,-0.110658268,-9.798341016800002,2.0414955064,3.08059439,-6.43812952,-0.9841402399999999,,,
imu,133.572073,-0.1100601152,-9.796546558400001,2.0229527696,2.82637945,-6.497944800000001,-1.0290017,,,
imu,133.580878,-0.116639796,-9.803724392000001,2.0343176728,2.60207215,-6.587667720000001,-1.02152479,,,
imu,133.589683,-0.1082656568,-9.802528086400002,2.057645632,2.34785721,-6.81197502,-1.05143243,,,
imu,133.598488,-0.1160416432,-9.783387196800001,2.0498696456,2.0413039,-6.669913729999999,-0.90937114,,,
imu,133.607293,-0.13458438,-9.744507264800001,2.0271398392,1.85438115,-6.669913729999999,-0.8944173199999998,,,
imu,132.673835,,,,,,,81.6905716,-28.66863960000001,110.1883056
imu,132.77729,,,,,,,84.42498439999999,-29.59638680000001,108.68682
imu,132.87699,,,,,,,82.1056164,-28.79071160000002,112.776232
imu,133.616098,-0.1028822816,-9.737329431200001,2.045682576,1.74970441,-6.69982137,-0.9467556899999998,,,
imu,133.624903,-0.08972292000000001,-9.730749750400001,2.042691812,1.76465823,-6.58019081,-0.99909406,,,
imu,133.633708,-0.0813487808,-9.7086180968,2.0241490752,1.89924261,-6.50542171,-1.00657097,,,
imu,133.642513,-0.08493769760000001,-9.661962178400001,2.0241490752,1.87681188,-6.59514463,-1.06638625,,,
imu,133.651318,-0.0855358504,-9.644615747200001,2.030728756,1.97401171,-6.849359570000001,-1.35050883,,,
imu,133.660123,-0.08314323920000001,-9.639232372,2.0271398392,2.34785721,-6.78954429,-1.41780102,,,
imu,133.668928,-0.0980970592,-9.635045302400002,2.0175693944,2.54225687,-6.976467039999999,-1.67949287,,,
imu,133.677733,-0.113649032,-9.644017594400001,2.0241490752,2.77404108,-6.737205919999999,-1.73930815,,,
imu,133.686538,-0.143556672,-9.6458120528,2.0074007968,2.94601001,-6.59514463,-1.87389253,,,
imu,133.695343,-0.167482784,-9.651793580800001,2.0103915608,3.02825602,-6.55028317,-2.12810747,,,
imu,133.704148,-0.1920070488,-9.678710456800001,2.021756464,3.17779422,-6.22129913,-2.2253073,,,
imu,133.712953,-0.1967922712,-9.7193848472,2.006802644,3.17031731,-5.996991830000001,-2.35989168,,,
imu,133.721437,-0.2051664104,-9.7337405144,2.0020174216,3.13293276,-5.83249981,-2.58419898,,,
imu,133.729921,-0.2045682576000001,-9.743909112,1.9900543656,3.00582529,-5.51846959,-2.58419898,,,
imu,133.738405,-0.20935348,-9.745703570400002,1.985867296,2.95348692,-5.159577909999999,-2.748691,,,
imu,133.746888,-0.20935348,-9.772620446400001,1.9804839208,2.76656417,-4.89788606,-3.07019813,,,
imu,133.755372,-0.2165313136,-9.7911631832,1.9810820736,2.7142258,-4.71096331,-3.31693616,,,
imu,133.763856,-0.233279592,-9.7989391696,1.9756986984,2.47496468,-4.38945618,-3.39170526,,,
imu,133.77234,-0.2278962168,-9.800135475200001,1.9756986984,2.3403803,-4.1801027,-3.54124346,,,
imu,133.780824,-0.230288828,-9.800733628000001,1.979885768,2.02635008,-3.91093394,-3.66835093,,,
imu,133.789308,-0.2470371064,-9.802528086400002,1.9816802264,1.82447351,-3.55951917,-3.76555076,,,
imu,133.797792,-0.2607946208,-9.801929933600002,1.9840728376,1.60764312,-3.29035041,-3.90761205,,,
imu,133.806276,-0.272159524,-9.785779808000001,1.9751005456,1.33847436,-2.909028,-4.079580979999999,,,
imu,133.814759,-0.2859170384,-9.775611210400001,1.9643337952,1.23379762,-2.44545958,-4.04219643,,,
imu,133.823243,-0.2865151912,-9.758264779200001,1.9667264064,1.1440747,-2.27349065,-4.06462716,,,
imu,133.831727,-0.2793373576,-9.731347903200001,1.9493799752,1.06182869,-1.70524549,-4.19921154,,,
imu,133.840211,-0.2733558296,-9.710412555200001,1.9523707392,1.01696723,-1.39869218,-4.25154991,,,
imu,133.848695,-0.2685706072,-9.706823638400001,1.949978128,1.12912088,-1.08466196,-4.363703559999999,,,
imu,133.857179,-0.2775428992,-9.711608860800002,1.9445947528,1.11416706,-0.9276468500000004,-4.37118047,,,
imu,133.865663,-0.2865151912,-9.711608860800002,1.9583522672,1.10669015,-0.7482010100000003,-4.49081103,,,
imu,133.874147,-0.2972819416,-9.718786694400002,1.9547633504,1.24127453,-0.5463244400000002,-4.57305704,,,
imu,133.882631,-0.2942911776,-9.710412555200001,1.9445947528,1.37585891,-0.25472495,-4.453426479999999,,,
imu,133.891114,-0.2853188856,-9.706225485600001,1.9416039888,1.51044329,0.1490281899999997,-4.46090339,,,
imu,133.899598,-0.2709632184,-9.7301515976,1.9487818224,1.5926893,0.2836125699999998,-4.53567249,,,
imu,133.908082,-0.3026653168,-9.767835224,1.9583522672,1.61512003,0.3957662200000001,-4.602964679999999,,,
imu,133.916566,-0.3188154424,-9.805518850400002,1.967922712,1.63007385,0.7546578999999998,-4.453426479999999,,,
imu,133.92505,-0.3182172896000001,-9.812098531200002,1.9655301008,1.1440747,1.06868812,-4.386134289999999,,,
imu,133.933534,-0.3098431504,-9.788770572,1.9511744336,0.82256757,1.53973345,-4.22164227,,,
imu,133.942018,-0.3092449976000001,-9.792957641600001,1.9487818224,0.55339881,1.77899457,-4.11696553,,,
imu,133.950502,-0.2817299688000001,-9.803126239200001,1.9517725864,0.27675314,2.04816333,-4.00481188,,,
imu,133.958986,-0.2470371064,-9.7612555432,1.9721097816,0.11973803,2.22013226,-3.81788913,,,
imu,133.967469,-0.2506260232,-9.743909112,1.967922712,-0.08961545,2.13788625,-3.9449966,,,
imu,133.975953,-0.2428500368,-9.741516500800001,1.9834746848,-0.18681528,2.07059406,-4.0945348,,,
imu,133.984437,-0.2159331608,-9.7492924872,1.9882599072,-0.17933837,2.08554788,-4.04967334,,,
imu,133.992921,-0.2278962168,-9.745703570400002,1.9990266576,-0.22419983,1.95844041,-4.0197657,,,
imu,134.001405,-0.260196468,-9.731347903200001,2.0026155744,-0.55318387,1.88367131,-3.82536604,,,
imu,134.009889,-0.2625890792,-9.725366375200002,2.015774936,-0.5681376899999999,2.03320951,-3.52628964,,,
imu,134.018373,-0.23926112,-9.727160833600001,2.0223546168,-0.43355331,2.42200883,-3.21225942,,,
imu,134.026857,-0.215335008,-9.713403319200001,2.0050081856,-0.43355331,2.66126995,-2.99542903,,,
imu,134.035341,-0.1991848824,-9.7128051664,2.0301306032,-0.38869185,2.7734236,-3.00290594,,,
imu,134.043824,-0.1776513816,-9.6942624296,2.0133823248,-0.34383039,2.72108523,-3.13001341,,,
imu,134.052308,-0.1513326584,-9.678112304,2.013980477600001,-0.16438455,2.63883922,-3.31693616,,,
imu,134.060792,-0.1208268656,-9.644615747200001,1.9996248104,0.06739966,2.3995781,-3.496382,,,
imu,134.069276,-0.1184342544,-9.614708107200002,1.9894562128,0.35152224,2.16031698,-3.69825857,,,
imu,134.07776,-0.1124527264,-9.6296619272,1.9942414352,0.5982602699999999,2.0257326,-3.74312003,,,
imu,134.086244,-0.1184342544,-9.6470083584,1.9984285048,0.9571519499999999,1.65936401,-3.76555076,,,
imu,134.094728,-0.122621324,-9.651793580800001,1.9924469768,1.18893616,1.24813396,-4.04219643,,,
imu,134.103212,-0.1232194768,-9.652989886400002,2.0032137272,1.2936129,1.00139593,-3.95995042,,,
imu,134.111696,-0.1309954632,-9.666149248000002,2.00381188,1.48801256,0.8219500899999996,-3.90013514,,,
imu,134.120179,-0.1441548248,-9.6799067624,2.0109897136,1.7422275,0.7546578999999998,-3.67582784,,,
imu,134.128659,-0.1489400472,-9.7122070136,2.0109897136,1.65250458,0.5901658799999998,-3.56367419,,,
imu,134.13714,-0.1579123392,-9.7325442088,2.0265416864,1.60016621,0.4929660499999997,-3.36179762,,,
imu,134.14562,-0.1632957144,-9.7403201952,2.0349158256,1.54782784,0.3509047599999997,-3.31693616,,,
imu,134.1541,-0.1698753952,-9.730749750400001,2.0283361448,1.39828964,0.1265974599999997,-3.54124346,,,
imu,134.16258,-0.161501256,-9.735534972800002,2.0385047424,1.24127453,0.2312741999999997,-3.56367419,,,
imu,134.17106,-0.1668846312,-9.7427128064,2.0408973536,1.31604363,0.13407437,-3.51133582,,,
imu,134.17954,-0.1752587704,-9.737329431200001,2.045084423200001,1.19641307,0.05182836000000002,-3.58610492,,,
imu,134.18802,-0.1746606176,-9.713403319200001,2.0468788816,1.12912088,0.06678217999999969,-3.63844329,,,
imu,134.1965,-0.173464312,-9.711010708000002,2.0414955064,1.12164397,0.1041667299999998,-3.60853565,,,
imu,134.20498,-0.1632957144,-9.704431027200002,2.0468788816,1.06182869,0.11164364,-3.60853565,,,
imu,134.21346,-0.1567160336,-9.702636568800001,2.0504677984,1.15902852,0.1639820099999998,-3.55619728,,,
imu,134.22194,-0.1710717008,-9.696655040800001,2.051664104,1.36090509,0.2910894799999997,-3.53376655,,,
imu,134.23042,-0.1710717008,-9.708019944000002,2.0385047424,1.26370526,0.3509047599999997,-3.43656672,,,
imu,134.2389,-0.1549215752,-9.685290137600001,2.0420936592,1.36090509,0.2686587499999997,-3.44404363,,,
imu,134.247381,-0.1280046992,-9.636241608,2.0702068408,1.5926893,0.2088434699999997,-3.42908981,,,
imu,134.255861,-0.1447529776,-9.648204664000001,2.0761883688,1.68241222,0.04435144999999974,-3.40665908,,,
imu,134.264341,-0.1477437416,-9.675121540000001,2.089347730400001,1.82447351,-0.007986920000000008,-3.48890509,,,
imu,134.272821,-0.1321917688,-9.651195428000001,2.0779828272,2.03382699,-0.07527911000000032,-3.33936689,,,
imu,134.281301,-0.13458438,-9.61530626,2.0917403416,2.25813429,-0.1276174800000001,-3.0477674,,,
imu,134.289781,-0.1303973104,-9.5949690648,2.0917403416,2.50487232,-0.5089398900000002,-3.28702852,,,
imu,134.298199,-0.1130508792,-9.5949690648,2.0983200224,2.93105619,-0.5911859000000002,-3.21225942,,,
imu,134.306679,-0.113649032,-9.580613397600002,2.1019089392,3.282470959999999,-0.7781086500000001,-3.27955161,,,
imu,134.315159,-0.1214250184,-9.5566872856,2.1019089392,3.50677826,-1.05475432,-3.24216706,,,
imu,134.323639,-0.1244157824,-9.530368562400001,2.1043015504,3.84323921,-1.30896926,-3.33936689,,,
imu,134.332078,-0.1250139352,-9.516012895200001,2.0851606608,4.44139201,-1.59309184,-3.30945925,,,
imu,134.340517,-0.1178361016,-9.533359326400001,2.0743939104,5.05449863,-1.79496841,-3.15992105,,,
imu,134.348957,-0.1220231712,-9.569248494400002,2.0594400904,5.66760525,-2.05666026,-3.15244414,,,
imu,134.357396,-0.1381732968,-9.5776226336,2.0408973536,6.19846586,-2.2361061,-3.05524431,,,
imu,134.365836,-0.1423603664,-9.568052188800001,2.0432899648,6.66203428,-2.24358301,-2.81598319,,,
imu,134.374275,-0.1620994088,-9.583006008800002,2.0355139784,6.99101832,-2.51275177,-2.73373718,,,
imu,134.382714,-0.1722680064,-9.610521037600002,2.0301306032,7.46206365,-2.67724379,-2.64401426,,,
imu,134.391154,-0.1686790896,-9.627269316000001,2.03371952,7.7237555,-2.63985924,-2.51690679,,,
imu,134.399593,-0.1710717008,-9.623680399200001,2.0385047424,7.96301662,-2.76696671,-2.31503022,,,
imu,134.408033,-0.1609031032,-9.632054538400002,2.0373084368,8.164893189999999,-2.93145873,-2.23278421,,,
imu,134.416472,-0.1447529776,-9.647606511200001,2.0462807288,8.426585039999999,-3.00622783,-2.21783039,,,
imu,134.424911,-0.1399677552,-9.6326526912,2.0480751872,8.471446499999999,-3.08847384,-2.21783039,,,
imu,132.978583,,,,,,,82.996742,-28.94940520000002,114.3509608
imu,133.080085,,,,,,,84.30291240000001,-29.98701720000001,118.0375352
imu,133.181647,,,,,,,86.86642440000001,-30.51192680000001,122.3710912
imu,133.291328,,,,,,,89.771738,-32.55052920000001,123.9091984
imu,133.392585,,,,,,,91.5173676,-32.83129480000002,125.6059992
imu,133.494147,,,,,,,92.32304280000001,-33.67359160000001,126.1675304
imu,133.59574,,,,,,,92.88457400000001,-34.23512280000001,126.5337464
imu,133.697272,,,,,,,95.81430200000001,-34.78444680000001,124.1411352
imu,134.433351,-0.13458438,-9.627269316000001,2.0498696456,8.53126178,-3.26791968,-2.28512258,,,
imu,134.44179,-0.1297991576,-9.627269316000001,2.0480751872,8.478923409999998,-3.60438063,-2.44213769,,,
imu,134.450229,-0.1154434904,-9.611119190400002,2.0444862704,8.718184529999998,-3.68662664,-2.44213769,,,
imu,134.458669,-0.1208268656,-9.6009505928,2.0175693944,8.852768909999998,-3.87354939,-2.47204533,,,
imu,134.467108,-0.1387714496,-9.6015487456,1.9756986984,9.241568229999999,-3.94831849,-2.29259949,,,
imu,134.475548,-0.1495382,-9.641026830400001,1.9535670448,9.73504429,-4.12028742,-2.3000764,,,
imu,134.483987,-0.1626975616,-9.6499991224,1.9194723352,10.05655142,-4.29973326,-2.32998404,,,
imu,134.492426,-0.1890162848,-9.641624983200002,1.875209028,10.31076636,-4.37450236,-2.38979932,,,
imu,134.500866,-0.212344244,-9.634447149600001,1.85427368,10.66218113,-4.48665601,-2.50942988,,,
imu,134.509305,-0.2225128416,-9.676317845600002,1.82436604,11.10331882,-4.37450236,-2.39727623,,,
imu,134.517744,-0.227298064,-9.710412555200001,1.7848879552,11.29024157,-4.26234871,-2.32998404,,,
imu,134.526184,-0.2380648144,-9.7337405144,1.7651489128,11.37996449,-4.11281051,-2.3748455,,,
imu,134.534999,-0.2542149400000001,-9.748096181600001,1.731652356,11.40239522,-4.0305645,-2.51690679,,,
imu,134.543815,-0.2410555784,-9.7809945856,1.6951650352,11.51454887,-3.69410355,-2.31503022,,,
imu,134.552631,-0.2590001624000001,-9.772620446400001,1.641929436,11.43977977,-3.37259642,-2.14306129,,,
imu,134.561446,-0.2655798432,-9.773218599200002,1.620994088,11.40987213,-3.14828912,-2.03838455,,,
imu,134.570262,-0.2578038568000001,-9.7821908912,1.579123392,11.33510303,-2.92398182,-1.97109236,,,
imu,134.579077,-0.2500278704,-9.786377960800001,1.5629732664,11.55193342,-2.6099516,-1.71687742,,,
imu,134.587893,-0.2470371064,-9.789368724800001,1.5157191952,11.75380999,-2.26601374,-1.61220068,,,
imu,134.596709,-0.2368685088,-9.802528086400002,1.4792318744,11.75380999,-1.92955279,-1.4776163,,,
imu,134.605524,-0.215335008,-9.8234634344,1.4600909848,11.81362527,-1.61552257,-1.38789338,,,
imu,134.61434,-0.1985867296,-9.834828337600001,1.4271925808,11.81362527,-1.49589201,-1.35798574,,,
imu,134.623155,-0.1543234224,-9.879091644800003,1.3889108016,11.79119454,-1.37626145,-1.47013939,,,
imu,134.631971,-0.1393696024,-9.899428840000002,1.3380678136,11.57436415,-1.30896926,-1.61220068,,,
imu,134.640787,-0.1740624648,-9.872511964000001,1.2818414504,11.48464123,-1.286538530000001,-1.56733922,,,
imu,134.649602,-0.1441548248,-9.887465784000002,1.2716728528,11.30519539,-1.19681561,-1.35050883,,,
imu,134.658418,-0.1004896704,-9.870717505600002,1.2668876304,11.20051865,-1.00989286,-1.35050883,,,
imu,134.667233,-0.1202287128,-9.879689797600001,1.2429615184,10.76685787,-1.1145696,-1.50004703,,,
imu,134.676049,-0.1321917688,-9.8820824088,1.2238206288,10.340674,-1.16690797,-1.79164652,,,
imu,134.684865,-0.122621324,-9.863539672000002,1.1909222248,10.05655142,-1.13700033,-1.91127708,,,
imu,134.69368,-0.1339862272,-9.824659740000001,1.1711831824,9.652798279999999,-1.1145696,-1.97109236,,,
imu,134.702496,-0.1393696024,-9.818678212000002,1.1508459872,9.413537159999999,-1.0398005,-1.88884635,,,
imu,134.711311,-0.1339862272,-9.858754449600001,1.1568275152,9.241568229999999,-0.8753084800000002,-1.61220068,,,
imu,134.720127,-0.1351825328,-9.881484256,1.154434904,9.039691659999999,-0.7033395499999999,-1.41780102,,,
imu,134.728943,-0.137575144,-9.863539672000002,1.1496496816,8.830338179999998,-0.4865091600000002,-1.23087827,,,
imu,134.737416,-0.143556672,-9.8581562968,1.1568275152,8.74809217,-0.15004821,-1.05890934,,,
imu,134.74589,-0.1369769912,-9.844996935200001,1.142471848,8.426585039999999,-0.1350943900000003,-1.23087827,,,
imu,134.754364,-0.1172379488,-9.831239420800001,1.1520422928,8.33686212,0.05930526999999985,-1.24583209,,,
imu,134.762838,-0.092713684,-9.809107767200002,1.1329014032,8.164893189999999,0.1490281899999997,-1.34303192,,,
imu,134.771311,-0.0562263632,-9.8061170032,1.1400792368,8.277046839999999,0.3733354899999997,-1.29069355,,,
imu,134.779785,-0.0430670016,-9.8264541984,1.1352940144,8.38172358,0.21632038,-1.60472377,,,
imu,134.788259,-0.04486146000000001,-9.842604324000002,1.1257235696,8.456492679999998,-0.007986920000000008,-1.86641562,,,
imu,134.796732,-0.0592171272,-9.8294449624,1.1167512776,8.40415431,-0.1201405700000002,-2.12063056,,,
imu,134.805206,-0.05682451600000001,-9.831837573600001,1.1167512776,8.366769759999999,-0.007986920000000008,-2.18044584,,,
imu,134.81368,-0.0550300576,-9.848585852000001,1.1041900688,8.22470847,-0.1051867500000001,-2.27764567,,,
imu,134.822154,-0.03947808480000001,-9.847389546400002,1.097610388,8.262093019999998,-0.06780220000000003,-2.30755331,,,
imu,134.830627,-0.0155519728,-9.842604324000002,1.1017974576,8.12003173,-0.1051867500000001,-2.27016876,,,
imu,134.839101,0.0005981528000000001,-9.8228652816,1.1053863744,7.9480628,-0.23229422,-2.42718387,,,
imu,134.847575,0.0107667504,-9.802528086400002,1.0988066936,7.76861696,-0.2995864100000003,-2.36736859,,,
imu,134.856048,0.0233279592,-9.7510869456,1.0778713456,7.64150949,-0.4117400600000001,-2.56176825,,,
imu,134.864522,0.026916876,-9.711608860800002,1.0659082896,7.34991,-0.82297011,-2.80850628,,,
imu,134.872996,0.0233279592,-9.659569567200002,1.0593286088,7.2003718,-1.00989286,-2.86084465,,,
imu,134.88147,0.0323002512,-9.6260730104,1.0700953592,6.9760645,-1.24915398,-3.00290594,,,
imu,134.889943,0.04007623760000001,-9.66016772,1.0934233184,7.04335669,-1.43607673,-3.08515195,,,
imu,134.898417,0.04785222400000001,-9.723571916800001,1.109573444,7.13307961,-1.66038403,-3.11505959,,,
imu,134.906891,0.04246884880000001,-9.656578803200002,1.0970122352,7.10317197,-1.86973751,-3.07767504,,,
imu,134.915364,0.0275150288,-9.6051376624,1.1370884728,7.10317197,-2.10899863,-2.9729983,,,
imu,134.923838,0.0017944584,-9.682897526400001,1.1687905712,7.29757163,-2.56509014,-3.18982869,,,
imu,134.932312,-0.0155519728,-9.739722042400002,1.154434904,7.61907876,-2.7594898,-3.22721324,,,
imu,134.940775,-0.026916876,-9.7193848472,1.148453376,7.977970440000001,-2.69967452,-2.90570611,,,
imu,134.949239,-0.0352910152,-9.717590388800001,1.1550330568,8.35929285,-2.909028,-2.94309066,,,
imu,134.957702,-0.0466559184,-9.744507264800001,1.145462612,9.002307109999999,-3.02118165,-2.83841392,,,
imu,134.966166,-0.04605776560000001,-9.810304072800001,1.1406773896,9.615413729999998,-3.24548895,-2.6739219,,,
imu,134.97463,-0.0382817792,-9.923354952,1.13649032,10.07898215,-3.2828735,-2.50195297,,,
imu,134.983093,-0.0185427368,-10.0142741776,1.10658268,10.67713495,-3.40250406,-2.27016876,,,
imu,134.991557,-0.020935348,-10.0567430264,1.0623193728,11.05845736,-3.67914973,-2.24773803,,,
imu,135.00002,-0.03648732080000001,-10.0746876104,1.0132708432,11.41734904,-3.70158046,-2.12810747,,,
imu,135.008484,-0.05203929360000001,-10.051957804,0.9540537160000001,11.5369796,-3.85859557,-2.06081528,,,
imu,135.016947,-0.07177833600000001,-10.0172649416,0.9157719368000001,11.64165634,-3.86607248,-1.86641562,,,
imu,135.025411,-0.07177833600000001,-9.986160996000002,0.8990236584000001,11.70147162,-4.01561068,-1.82903107,,,
imu,135.033874,-0.08194693360000001,-9.957449661600002,0.8595455736000001,11.6865178,-3.83616484,-1.69444669,,,
imu,135.042338,-0.092713684,-9.922158646400002,0.8152822664000001,11.5369796,-3.83616484,-1.58976995,,,
imu,135.050801,-0.1034804344,-9.872511964000001,0.7692245008,11.42482595,-3.76887265,-1.48509321,,,
imu,135.059265,-0.1082656568,-9.817481906400001,0.7387187080000002,11.40239522,-3.39502715,-1.1785399,,,
imu,135.067728,-0.110658268,-9.7995373224,0.7016332344,11.08088809,-3.02865856,-0.9467556899999998,,,
imu,135.076192,-0.08972292000000001,-9.803724392000001,0.6573699272000001,10.95378062,-2.65481306,-0.6775869299999999,,,
imu,135.084656,-0.05742266880000001,-9.802528086400002,0.6220789120000001,10.97621135,-2.43050576,-0.4458027199999999,,,
imu,135.093119,-0.03349655680000001,-9.786377960800001,0.5951620360000001,10.59488894,-2.16881391,-0.2140185099999998,,,
imu,135.101583,0.008374139200000002,-9.7845835024,0.5556839512000001,10.42292001,-1.97441425,-0.02709575999999991,,,
imu,135.110046,0.03349655680000001,-9.802528086400002,0.5341504504000001,10.38553546,-1.98189116,-0.03457266999999997,,,
imu,135.11851,0.0490485296,-9.8168837536,0.5347486032000001,10.10888979,-1.88469133,0.1149655300000001,,,
imu,135.126973,0.06460050240000001,-9.80970592,0.5102243384,10.07898215,-1.98936807,0.2345960900000001,,,
imu,135.135437,0.0903210728,-9.8234634344,0.4940742128000001,10.06402833,-1.98189116,0.1972115400000001,,,
imu,135.143902,0.1280046992,-9.865932283200001,0.4593813504000001,10.02664378,-1.82487605,0.242073,,,
imu,135.152366,0.146547436,-9.9269438688,0.4109309736,9.652798279999999,-1.88469133,0.1149655300000001,,,
imu,135.160831,0.1752587704,-9.9969277464,0.331974804,9.219137499999999,-2.14638318,-0.11681868,,,
imu,135.169296,0.2015774936,-10.025040928,0.272159524,8.56864633,-2.28844447,-0.3037414299999999,,,
imu,135.177761,0.20935348,-9.976590551200001,0.2255036056,7.65646331,-2.43050576,-0.57291019,,,
imu,135.186226,0.2045682576000001,-9.937710619200002,0.1979885768,7.03587978,-2.74453598,-0.7598329399999999,,,
imu,135.194691,0.2296906752000001,-9.935916160800002,0.1860255208,6.61717282,-2.909028,-0.90937114,,,
imu,135.203155,0.2338777448,-9.9401032304,0.16449202,6.0040662,-3.18567367,-1.39537029,,,
imu,135.21162,0.2278962168,-9.938906924800001,0.167482784,5.48815941,-3.55951917,-1.82155416,,,
imu,135.220085,0.2266999112,-9.940701383200002,0.1662864784,5.00963717,-3.81373411,-1.97109236,,,
imu,135.22855,0.2165313136,-9.950869980800002,0.1728661592,4.62831476,-4.00065686,-2.03838455,,,
imu,135.237015,0.2207183832,-9.983768384800001,0.2069608688,4.44139201,-4.12028742,-2.08324601,,,
imu,135.245479,0.2231109944,-10.0166667888,0.2518223288000001,4.21708471,-4.41188691,-2.2253073,,,
imu,133.798793,,,,,,,93.8733572,-34.1008436,126.8511336
imu,133.900356,,,,,,,96.485698,-34.86989720000003,124.8125312
imu,134.001949,,,,,,,93.70245640000002,-33.97877160000002,127.8155024
imu,134.111354,,,,,,,94.00763640000001,-33.90552840000001,126.2163592
imu,134.212886,,,,,,,94.4470956,-34.3327804,126.99762
imu,134.314449,,,,,,,94.1907444,-34.1740868,127.8399168
imu,134.417537,,,,,,,94.16633000000002,-34.18629400000002,126.814512
imu,134.517574,,,,,,,94.3250236,-34.99196920000001,127.119692
imu,135.253944,0.2129423968,-10.054948568,0.2781410520000001,3.94043904,-4.45674837,-2.21035348,,,
imu,135.262409,0.2057645632,-10.0543504152,0.2954874832,3.46939371,-4.62124039,-2.19539966,,,
imu,135.270874,0.1920070488,-10.0663134712,0.3367600264,3.08059439,-4.79320932,-2.17296893,,,
imu,135.279339,0.1788476872,-10.0537522624,0.3612842912,2.90862546,-4.86050151,-2.16549202,,,
imu,135.287803,0.1830347568,-10.0262372336,0.4079402096,2.62450288,-4.86050151,-2.01595382,,,
imu,135.296268,0.1818384512,-9.980179468000001,0.4414367664,2.21327283,-4.89788606,-2.0757691,,,
imu,135.304733,0.1776513816,-9.946084758400001,0.439642308,2.20579592,-5.152101,-2.04586146,,,
imu,135.313198,0.1758569232,-9.921560493600001,0.4533998224,2.10859609,-5.25677774,-1.91875399,,,
imu,135.321663,0.1890162848,-9.8647359776,0.4617739616000001,1.87681188,-5.294162289999999,-1.93370781,,,
imu,135.330128,0.218325772,-9.800135475200001,0.4857000736000001,1.73475059,-5.249300829999999,-1.91875399,,,
imu,135.338592,0.23926112,-9.755274015200001,0.4862982264000001,1.79456587,-5.361454480000001,-1.85893871,,,
imu,135.347042,0.2655798432,-9.7265626808,0.4749333232000001,1.98896553,-5.668007790000001,-1.83650798,,,
imu,135.355491,0.3457323184,-9.713403319200001,0.4928779072000001,2.37776485,-6.086714750000001,-1.8514618,,,
imu,135.363941,0.4839056152000001,-9.735534972800002,0.4946723656000001,2.6394567,-6.714775189999999,-2.13558438,,,
imu,135.372391,0.5772174520000001,-9.764246307200002,0.5221873944000001,2.69179507,-7.73911186,-2.23278421,,,
imu,135.38084,0.6232752176,-9.785779808000001,0.5431227424,2.59459524,-9.29430914,-2.21035348,,,
imu,135.389229,0.6412198016000001,-9.785779808000001,0.5401319784,2.65441052,-10.90184479,-2.09819983,,,
imu,135.397678,0.6262659816,-9.803724392000001,0.5658525488000001,2.84133327,-12.67387246,-2.05333837,,,
imu,135.406128,0.5969564944000001,-9.825856045600002,0.5909749664,2.66936434,-14.2739312,-2.02343073,,,
imu,135.414578,0.5341504504000001,-9.834230184800003,0.5610673264,2.61702597,-15.67211337,-1.65706214,,,
imu,135.423027,0.472540712,-9.827650504000003,0.535346756,2.54225687,-16.77869605,-1.34303192,,,
imu,135.431477,0.4031549872,-9.8144911424,0.5538894928000001,2.64693361,-17.69835598,-0.8121713099999999,,,
imu,135.439926,0.272159524,-9.801929933600002,0.565254396,2.57216451,-18.2366935,-0.4308489,,,
imu,135.448376,0.0980970592,-9.7923594888,0.5993491056000001,2.60207215,-18.20678586,0.1074886200000003,,,
imu,135.456825,-0.2039701048,-9.849184004800001,0.6663422192,2.87871782,-17.38432576,0.5934877699999999,,,
imu,135.465275,-0.7297464160000001,-9.897634381600001,0.6717255944000001,2.998348379999999,-15.50762135,0.4215188400000001,,,
imu,135.473724,-1.33088998,-9.836622796,0.6591643856000001,2.7889949,-11.35045939,-0.3336490699999999,,,
imu,135.482174,-1.6975576464,-9.658373261600001,0.6495939408000001,2.65441052,-4.74087095,-1.5523854,,,
imu,135.490624,-2.0133823248,-9.520798117600002,0.6430142600000001,2.98339456,3.51363769,-4.20668845,,,
imu,135.499073,-2.2747750984,-9.419112141600001,0.580208216,3.925485220000001,12.65042171,-8.02738946,,,
imu,135.507523,-2.379451838400001,-9.3658765424,0.5927694248,4.964775710000001,22.75920403,-12.38642799,,,
imu,135.515972,-2.404574256,-9.4412437952,0.6340419680000001,5.98163547,33.00257073,-17.28380404,,,
imu,135.524422,-2.4512301744,-9.608128426400002,0.6238733704,6.81157248,42.97676867,-21.79985768,,,
imu,135.532871,-2.4966897872,-9.837220948800002,0.5628617848,7.34243309,53.07807407999999,-25.06726735,,,
imu,135.541321,-2.5325789552,-10.0884451248,0.502448352,7.11064888,63.26162549999999,-27.72904731,,,
imu,135.550139,-2.3902185888,-10.2062812264,0.4892889904,5.86948182,73.16853125,-29.5907979,,,
imu,135.558957,-2.2305117912,-10.1590271552,0.439642308,4.16474634,82.35017673,-31.16842591,,,
imu,135.567776,-2.1246387456,-10.0142741776,0.3283858872000001,2.87124091,90.49253172,-32.70866937,,,
imu,135.576594,-2.0779828272,-9.8820824088,0.19439966,1.76465823,97.82738043,-33.6283293,,,
imu,135.585412,-1.946987364,-9.80970592,0.1489400472,1.38333582,104.63136853,-33.88254424,,,
imu,135.59423,-1.7597655376,-9.783985349600002,0.1022841288,1.39828964,110.52317361,-34.38349720999999,,,
imu,135.603049,-1.6371442136,-9.7504887928,0.05742266880000001,1.5926893,115.50279567,-35.07137293,,,
imu,135.611867,-1.4678669712,-9.596165370400001,0.0293094872,2.03382699,119.67491145,-35.69943336999999,,,
imu,135.620685,-1.1759684048,-9.3766432928,0.0191408896,2.7889949,122.75539837,-36.36487836,,,
imu,135.629503,-0.9737927584000001,-9.401167557600001,0.04545961280000001,4.66569931,124.61714896,-37.13500009,,,
imu,135.638322,-0.9600352440000001,-9.572239258400002,-0.004187069600000001,6.47511153,125.60410108,-38.31635187,,,
imu,135.64714,-1.0551415392,-9.667943706400001,-0.06519865520000001,7.65646331,126.26954607,-38.92945848999999,,,
imu,135.655958,-0.9121830200000002,-9.675121540000001,-0.0305057928,8.493877229999999,126.98732943,-38.95188922,,,
imu,135.664776,-0.5497024232000001,-9.7295534448,-0.0221316536,9.346244969999999,126.65086848,-39.13881197,,,
imu,135.673595,-0.2225128416,-9.724768222400002,0.0053833752,9.936920859999999,124.93117918,-39.4603191,,,
imu,135.682413,0.004187069600000001,-9.7128051664,-0.0185427368,10.50516602,121.46189294,-39.43041145999999,,,
imu,135.691231,0.0323002512,-9.7492924872,-0.0185427368,11.37996449,116.86359329,-39.60238038999999,,,
imu,135.700049,0.06519865520000001,-9.7714241408,-0.007775986400000001,12.09774785,111.56994101,-39.43788837,,,
imu,135.708868,0.09630260080000001,-9.834828337600001,-0.0346928624,12.90525413,106.14918126,-38.80982793,,,
imu,135.717686,0.0113649032,-9.935916160800002,-0.05443190480000001,13.6305144,100.75832915,-37.86026036,,,
imu,135.726504,-0.0861340032,-9.9753942456,-0.0693857248,14.0043599,95.42729232,-36.20786325,,,
imu,135.735322,-0.1220231712,-9.925747563200002,-0.0675912664,14.33334394,90.23083987,-34.84706563,,,
imu,135.744141,-0.0903210728,-9.852174768800001,-0.068787572,14.63242034,84.91475686,-33.56103711,,,
imu,135.752623,-0.0550300576,-9.797144711200001,-0.0861340032,14.80438927,79.38184346,-32.02827056,,,
imu,135.761106,-0.08673215600000002,-9.935318008000001,-0.1357806856,15.52964954,73.70686877,-30.71981131,,,
imu,135.769589,-0.2380648144,-10.0585374848,-0.08015247520000002,15.69414156,67.88235588,-30.05436632,,,
imu,135.778071,-0.4264829464000001,-10.0483688872,-0.1124527264,15.31281915,62.43916539999999,-29.54593644,,,
imu,135.786554,-0.5395338256000001,-9.9849646904,-0.1058730456,14.82682,57.86329648,-29.17956785,,,
imu,135.795036,-0.499457588,-9.8467913936,-0.1040785872,14.54269742,53.64631924,-28.03560062,,,
imu,135.803519,-0.4701481008,-9.809107767200002,-0.08912476720000001,14.14642119,49.16765015,-26.12898857,,,
imu,135.812002,-0.5419264368000001,-9.852174768800001,-0.0855358504,13.78752951,44.48710449,-24.34948399,,,
imu,135.820484,-0.6627533024,-9.946084758400001,-0.1238176296,13.47349929,39.79160501,-22.16622627,,,
imu,135.828967,-0.7076147624000001,-10.0035074272,-0.1836329096,13.06974615,35.13349007999999,-19.99792237,,,
imu,135.837449,-0.726755652,-9.992142524000002,-0.2584020096,12.74076211,30.89408211,-17.91186448,,,
imu,135.845932,-0.8655271016000001,-9.917971576800003,-0.3361618736,12.33700897,26.5499974,-16.16974445,,,
imu,135.854415,-1.0276265104,-9.8593526024,-0.3666676664,12.23980914,22.69191184,-14.711747,,,
imu,135.862897,-1.070693512,-9.8563618384,-0.3852104032000001,12.49402408,19.24505633,-13.2911341,,,
imu,135.87138,-0.9935318008000001,-9.947879216800002,-0.4013605288,12.77814666,15.9327852,-11.87799811,,,
imu,135.879863,-0.8894532136000001,-10.1321102792,-0.430670016,12.71085447,12.14199183,-10.94338436,,,
imu,135.888345,-0.8398065312,-10.2954059936,-0.49347606,11.77624072,8.022214420000001,-9.91157078,,,
imu,135.896828,-0.7584577504000002,-10.3791473856,-0.5790119104,10.60236585,3.40148404,-8.82741883,,,
imu,135.90531,-0.6615569968000001,-10.3576138848,-0.6525847048000001,9.136891489999998,-1.39869218,-7.61615941,,,
imu,135.913793,-0.5706377712,-10.2152535184,-0.7046239984,7.7985246,-6.5727139,-5.91142393,,,
imu,135.922276,-0.4665591840000001,-10.1105767784,-0.7829820152,6.71437265,-12.20282713,-3.96742733,,,
imu,135.930758,-0.4767277816000001,-10.0842580552,-0.8242545584000001,6.19846586,-17.70583289,-1.60472377,,,
imu,135.939241,-0.5855915912,-10.1398862656,-0.8039173632000001,5.88443564,-23.32846921,1.1393022,,,
imu,135.947723,-0.6693329832000001,-10.2505445336,-0.7961413768000002,5.19655992,-28.58473694,4.100158560000001,,,
imu,135.956179,-0.7016332344,-10.3223228696,-0.8158804192000001,3.88062376,-33.30266715,7.1955993,,,
imu,135.964635,-0.7201759712000001,-10.3468471344,-0.8523677400000002,2.4899185,-37.81124388,9.75270252,,,
imu,135.973091,-0.7405131664000002,-10.2481519224,-0.8864624496000001,1.05435178,-42.19271314,11.59949929,,,
imu,135.981547,-0.7500836112000001,-10.102800792,-0.8768920048000002,-0.08213854000000001,-46.47698257,12.90795854,,,
imu,135.990003,-0.7345316384000001,-10.0561448736,-0.8828735328,-0.73262971,-50.64909835,13.60331117,,,
imu,135.998459,-0.6992406232000001,-10.0752857632,-0.8739012408000001,-0.90459864,-54.82121413,13.66312645,,,
imu,136.006915,-0.6382290376000002,-10.0932303472,-0.8625363376,-1.36069015,-58.81388407,13.65564954,,,
imu,136.015371,-0.5945638832000001,-10.1063897088,-0.8756956992000001,-1.86912003,-62.82898474,13.67808027,,,
imu,136.023827,-0.7231667352000001,-10.0716968464,-0.8960328944000001,-2.65419558,-66.68707029999999,14.0743565,,,
imu,136.032283,-1.0665064424,-10.0770802216,-0.9091922560000001,-3.52151714,-69.90961850999999,14.8968166,,,
imu,136.040739,-1.5516083632,-10.1691957528,-0.9175663952000002,-4.351454149999999,-71.21060084999999,16.51182916,,,
imu,136.049194,-1.9116963488,-10.3043782856,-0.9193608536000001,-5.555236659999999,-70.50029439999999,18.73247143,,,
imu,136.05765,-2.0121860192,-10.360006496,-0.9020144224000001,-7.26744905,-68.08525246999999,20.77366786,,,
imu,136.066106,-1.997830352,-10.282246632,-0.900219964,-9.002092170000001,-65.19916520999999,21.91763509,,,
imu,134.619411,,,,,,,94.959798,-35.57791480000001,127.8399168
imu,134.720668,,,,,,,97.3035804,-39.05696680000001,125.4839272
imu,134.822261,,,,,,,95.41146440000001,-38.28791320000002,127.6934304
imu,134.923793,,,,,,,97.81628280000001,-40.13120040000003,124.7759096
imu,135.026271,,,,,,,95.58236520000001,-40.21665080000001,127.363836
imu,135.126918,,,,,,,95.9852028,-40.54624520000001,126.4116744
imu,135.228481,,,,,,,96.16831080000001,-41.93786600000002,126.8023048
imu,135.330074,,,,,,,96.4368692,-41.62047880000001,126.9854128
imu,136.074562,-2.0056063384,-10.1219416816,-0.8613400320000001,-10.25073614,-62.32055485999999,22.05221947,,,
imu,136.083018,-1.9751005456,-10.0106852608,-0.8170767248000002,-10.87131967,-59.55409816,21.48397431,,,
imu,136.091474,-1.9248557104,-9.926345716,-0.7775986400000001,-11.17039607,-56.63062635,20.63160657,,,
imu,136.09993,-1.8040288448,-9.893447312000001,-0.684884956,-11.14048843,-53.85669274,19.88391557,,,
imu,136.108386,-1.67482784,-9.8982325344,-0.6005454112,-10.99095023,-51.47155845,18.8595789,,,
imu,136.116842,-1.5785252392,-9.883876867200001,-0.5311596864,-10.90122731,-49.26587,18.08198026,,,
imu,136.125298,-1.5055505976,-9.886269478400003,-0.4450256832000001,-10.83393512,-47.48636542,17.19222797,,,
imu,136.133754,-1.4762411104,-9.9269438688,-0.3654713608,-10.95356568,-45.81153758,16.0931222,,,
imu,136.142209,-1.441548248,-9.925747563200002,-0.3289840400000001,-11.0432886,-44.032033,15.09121626,,,
imu,136.150665,-1.3972849408,-9.861147060800002,-0.2936930248,-11.17787298,-42.27495915,13.75284937,,,
imu,136.159131,-1.3930978712,-9.8013317808,-0.2308869808,-11.21525753,-40.34591637,12.17522136,,,
imu,136.167598,-1.327899216,-9.741516500800001,-0.170473548,-10.95356568,-38.25985848,10.92657739,,,
imu,136.176064,-1.2417652128,-9.711010708000002,-0.1214250184,-10.69935074,-36.30838497,9.62559505,,,
imu,136.18453,-1.1646035016,-9.706225485600001,-0.07596540560000001,-10.16101322,-34.40177292,8.204982150000001,,,
imu,136.192996,-1.097610388,-9.6846919848,-0.04545961280000001,-9.67501407,-32.77180654,7.090922560000001,,,
imu,136.201462,-1.0162616072,-9.684093832000002,-0.0137575144,-9.16658419,-31.18670162,5.75255567,,,
imu,136.209928,-0.9426888128,-9.725964528,0.03110394560000001,-8.52356993,-30.01282675,4.556250070000001,,,
imu,136.218394,-0.8828735328,-9.746899876,0.06699311360000001,-7.985232409999999,-29.02587463,3.5319134,,,
imu,136.22686,-0.8493769760000001,-9.7534795568,0.09211553120000002,-7.798309659999999,-28.14359925,2.84403768,,,
imu,136.235326,-0.8254508640000001,-9.754675862400001,0.1124527264,-7.559048539999999,-27.41833898,2.26831561,,,
imu,136.243792,-0.8087025856000001,-9.798341016800002,0.13458438,-6.975849559999999,-26.4612945,2.15616196,,,
imu,136.252258,-0.7865709320000001,-9.8270523512,0.1513326584,-6.691726979999999,-25.77341878,1.89447011,,,
imu,136.260724,-0.7614485144,-9.8617452136,0.17944584,-6.74406535,-25.08554306,1.52062461,,,
imu,136.269191,-0.7494854584000001,-9.900625145600001,0.1776513816,-6.72911153,-24.45000571,1.29631731,,,
imu,136.277657,-0.7668318896,-9.9197660352,0.1830347568,-7.0057572,-23.77708381,0.8252719800000001,,,
imu,136.286123,-0.744700236,-9.893447312000001,0.2051664104,-7.22258759,-23.11163882,0.3542266500000002,,,
imu,136.294589,-0.7231667352000001,-9.8402117128,0.2290925224000001,-7.33474124,-22.39385546,0.1224424399999999,,,
imu,136.303055,-0.7106055264000001,-9.786976113600002,0.2261017584,-7.349695059999999,-21.68354901,-0.1990646899999999,,,
imu,136.311521,-0.7010350816000002,-9.744507264800001,0.2560093984,-7.24501832,-21.17511913,-0.60281783,,,
imu,136.319987,-0.6735200528,-9.748096181600001,0.2924967192,-7.0057572,-20.53958178,-0.8196482199999999,,,
imu,136.328453,-0.6436124128,-9.783985349600002,0.3080486920000001,-6.803880629999999,-20.09096718,-0.9243249599999999,,,
imu,136.336919,-0.6101158560000001,-9.7714241408,0.3104413032000001,-6.527234959999999,-19.55262966,-0.8944173199999998,,,
imu,136.345385,-0.6119103144000001,-9.748096181600001,0.3415452488,-6.43751204,-19.23112253,-0.8495558599999999,,,
imu,136.353851,-0.6023398696000001,-9.76484446,0.3517138464,-6.34031221,-18.81241557,-0.73740221,,,
imu,136.362311,-0.5903768136,-9.766040765600001,0.3726491944000001,-6.37021985,-18.3862317,-0.68506384,,,
imu,136.370771,-0.5861897440000001,-9.7361331256,0.367863972,-6.25058929,-18.11706294,-0.49066418,,,
imu,136.379231,-0.5808063688,-9.706225485600001,0.3535083048,-5.96646671,-17.84041727,-0.3560797999999998,,,
imu,136.38769,-0.5592728680000001,-9.720581152800001,0.3337692624,-5.54775975,-17.48152559,-0.1915877799999999,,,
imu,136.39615,-0.5377393672000002,-9.777405668800002,0.3301803456000001,-5.24120644,-17.45161795,-0.28878761,,,
imu,136.40461,-0.5323559920000001,-9.811500378400002,0.3086468448,-4.94960695,-17.23478756,-0.3560797999999998,,,
imu,136.413069,-0.5168040192000001,-9.805518850400002,0.3008708584000001,-4.92717622,-17.03291099,-0.4981410899999998,,,
imu,136.421529,-0.5293652280000001,-9.798341016800002,0.3032634696000001,-4.81502257,-16.95814189,-0.76730985,,,
imu,136.429989,-0.5335522976000001,-9.801929933600002,0.3116376088,-4.680438189999999,-16.84598824,-0.8495558599999999,,,
imu,136.438449,-0.5275707696,-9.818678212000002,0.3098431504,-4.635576729999999,-16.61420403,-0.96918642,,,
imu,136.446908,-0.5150095608,-9.827650504000003,0.3247969704000001,-4.605669089999999,-16.44971201,-1.08881698,,,
imu,136.455368,-0.5449172008000001,-9.857558144000002,0.3283858872000001,-4.583238359999999,-16.13568179,-1.08881698,,,
imu,136.463828,-0.5706377712,-9.831239420800001,0.3493212352000001,-4.680438189999999,-15.94128213,-1.16358608,,,
imu,136.472288,-0.5921712720000001,-9.7815927384,0.3469286240000001,-4.78511493,-15.50762135,-1.18601681,,,
imu,136.480656,-0.5969564944000001,-9.788770572,0.3547046104000001,-4.81502257,-15.00666838,-1.50752394,,,
imu,136.489116,-0.5897786608000001,-9.822267128800002,0.3570972216000001,-4.64305364,-14.55057687,-1.76921579,,,
imu,136.497576,-0.5778156048000002,-9.848585852000001,0.3594898328000001,-4.55333072,-14.0496239,-2.03838455,,,
imu,136.506035,-0.5849934384000001,-9.866530436000001,0.3594898328000001,-4.583238359999999,-13.64587076,-2.24773803,,,
imu,136.514495,-0.5748248408000001,-9.879091644800003,0.370854736,-4.55333072,-13.06267178,-2.44213769,,,
imu,136.522955,-0.5646562432000001,-9.876699033600001,0.3816214864,-4.680438189999999,-12.629011,-2.60662971,,,
imu,136.531415,-0.5592728680000001,-9.878493492,0.3911919312,-4.725299649999999,-12.24021168,-2.68139881,,,
imu,136.539874,-0.5658525488000001,-9.870717505600002,0.4133235848,-4.66548437,-11.89627382,-2.77112173,,,
imu,136.548334,-0.5622636320000001,-9.847389546400002,0.4348570856000001,-4.65053055,-11.58972051,-2.89075229,,,
imu,136.556794,-0.5622636320000001,-9.8593526024,0.4575868920000001,-4.56828454,-11.15605973,-2.92065993,,,
imu,136.565612,-0.5742266880000001,-9.83961356,0.4868963792000001,-4.680438189999999,-10.91679861,-2.94309066,,,
imu,136.57443,-0.5754229936,-9.802528086400002,0.5114206440000001,-4.583238359999999,-10.6850144,-2.87579847,,,
imu,136.583249,-0.5766192992000001,-9.789966877600001,0.5251781584,-4.613146,-10.385938,-2.83093701,,,
imu,136.592067,-0.5658525488000001,-9.802528086400002,0.5395338256000001,-4.42622325,-9.96723104,-2.77112173,,,
imu,136.600885,-0.5562821040000001,-9.797144711200001,0.5497024232000001,-4.24677741,-9.638247,-2.74121409,,,
imu,136.609703,-0.5413282840000001,-9.7923594888,0.5568802568000001,-4.29163887,-9.33169369,-2.77859864,,,
imu,136.618522,-0.5287670752,-9.794752100000002,0.5574784096000001,-4.34397724,-9.16720167,-2.83093701,,,
imu,136.62734,-0.5114206440000001,-9.802528086400002,0.5592728680000001,-4.134623759999999,-9.02514038,-2.89075229,,,
imu,136.636158,-0.499457588,-9.802528086400002,0.5706377712,-4.00751629,-8.94289437,-2.88327538,,,
imu,136.644976,-0.5018501992000001,-9.802528086400002,0.5855915912,-4.06733157,-8.815786899999999,-2.98795212,,,
imu,136.653795,-0.4970649768000001,-9.803126239200001,0.5748248408000001,-3.69348607,-8.79335617,-2.91318302,,,
imu,136.662613,-0.4922797544,-9.801929933600002,0.5933675776,-3.58133242,-8.72606398,-2.86832156,,,
imu,136.671431,-0.4952705184000001,-9.803126239200001,0.6196863008000001,-3.53647096,-8.73354089,-2.80102937,,,
imu,136.680249,-0.4952705184000001,-9.818678212000002,0.6370327320000001,-3.23739456,-8.79335617,-2.62158353,,,
imu,136.689068,-0.4845037680000001,-9.832435726400002,0.6424161072,-3.13271782,-8.76344853,-2.4496146,,,
imu,136.697886,-0.4952705184000001,-9.8270523512,0.6466031768,-3.20748692,-8.63634106,-2.16549202,,,
imu,136.706704,-0.4976631296000001,-9.802528086400002,0.6579680800000002,-3.028041079999999,-8.60643342,-2.001,,,
imu,136.715522,-0.4868963792000001,-9.796546558400001,0.6711274416,-2.94579507,-8.70363325,-1.8514618,,,
imu,136.724341,-0.5102243384,-9.813892989600001,0.6800997336000001,-2.86354906,-8.47932595,-1.68696978,,,
imu,136.733159,-0.4910834488,-9.820472670400001,0.6890720256,-2.78130305,-8.2924032,-1.55986231,,,
imu,136.741977,-0.4940742128000001,-9.805518850400002,0.7040258456,-2.77382614,-8.11295736,-1.5523854,,,
imu,136.750795,-0.5060372688000001,-9.803724392000001,0.7153907488000001,-2.84111833,-8.00080371,-1.48509321,,,
imu,136.759614,-0.5030465048,-9.812098531200002,0.7195778184000001,-2.90841052,-7.83631169,-1.41032411,,,
imu,136.768092,-0.4827093096,-9.812098531200002,0.7129981376000001,-2.82616451,-7.53723529,-1.35050883,,,
imu,136.776571,-0.4898871432,-9.815687448000002,0.7123999848000001,-2.82616451,-7.33535872,-1.26078591,,,
imu,136.78505,-0.4821111568000001,-9.844996935200001,0.7123999848000001,-2.61681103,-6.98394395,-1.06638625,,,
imu,136.793529,-0.4629702672000001,-9.843800629600002,0.7040258456,-2.55699575,-6.77459047,-0.8719865899999999,,,
imu,136.802008,-0.4498109056,-9.825257892800002,0.6986424704000002,-2.53456502,-6.28859132,-0.55047946,,,
imu,136.810486,-0.4252866408000001,-9.8079114616,0.7094092208000001,-2.51213429,-6.25120677,-0.3635567099999999,,,
imu,136.818965,-0.406743904,-9.800135475200001,0.7052221512000001,-2.18315025,-6.00446874,-0.15420323,,,
imu,136.827444,-0.3882011672000001,-9.768433376800001,0.7076147624000001,-2.13828879,-5.94465346,-0.23644924,,,
imu,136.835923,-0.3750418056000001,-9.737927584000001,0.7225685824,-1.83173548,-5.974561100000001,-0.1915877799999999,,,
imu,136.844402,-0.3762381112000001,-9.719983000000001,0.7147925960000001,-1.61490509,-6.034376379999999,-0.3112183399999999,,,
imu,136.85288,-0.3720510416,-9.703234721600001,0.7177833600000001,-1.31582869,-5.85493054,-0.2065416,,,
imu,136.861359,-0.376836264,-9.704431027200002,0.723764888,-0.9494601,-5.76520762,-0.29626452,,,
imu,136.869838,-0.3654713608,-9.727160833600001,0.7219704296,-0.59056842,-5.86988436,-0.43832581,,,
imu,136.878317,-0.370854736,-9.7570684736,0.7303445688000001,-0.62047606,-5.839976719999999,-0.55047946,,,
imu,136.886796,-0.3493212352000001,-9.7989391696,0.741709472,-0.56066078,-5.81006908,-0.57291019,,,
imu,135.439343,,,,,,,97.0228148,-42.03552360000003,126.8267192
imu,135.540905,,,,,,,97.54772439999999,-42.89002760000002,127.241764
imu,135.642468,,,,,,,92.1155204,-42.99989240000001,123.6528472
imu,135.744824,,,,,,,85.4259748,-42.51160440000001,119.1483904
imu,135.845593,,,,,,,85.3649388,-43.97646840000002,113.3377632
imu,135.947155,,,,,,,82.96012040000001,-43.41493720000003,114.3875824
imu,136.048718,,,,,,,86.69552359999999,-44.08633320000001,113.4964568
imu,136.15028,,,,,,,87.208226,-43.95205400000002,118.2816792
imu,136.895274,-0.3385544848000001,-9.822267128800002,0.7375224024000001,-0.45598404,-5.690438520000001,-0.68506384,,,
imu,136.903753,-0.3331711096,-9.842006171200001,0.7381205552000002,-0.58309151,-5.623146330000001,-0.6177716499999999,,,
imu,136.912232,-0.3206099008000001,-9.863539672000002,0.7464946944,-0.5980453299999999,-5.578284869999999,-0.40841817,,,
imu,136.920711,-0.3134320672,-9.873110116800001,0.7411113192000001,-0.74758353,-5.6754847,-0.4682334499999998,,,
imu,136.92919,-0.311039456,-9.878493492,0.7518780696000001,-0.80739881,-5.85493054,-0.49066418,,,
imu,136.937668,-0.323002512,-9.865932283200001,0.7578595976000001,-0.71767589,-5.57080796,-0.23644924,,,
imu,136.946147,-0.3247969704000001,-9.858754449600001,0.7578595976000001,-0.7550604399999999,-5.63062324,-0.3859874399999998,,,
imu,136.954626,-0.3283858872000001,-9.833632032,0.7542706808000001,-0.77001426,-5.5259465,-0.4757103599999999,,,
imu,136.963105,-0.3295821928000001,-9.825856045600002,0.7578595976000001,-0.68029134,-5.39136212,-0.5056179999999999,,,
imu,136.971595,-0.3385544848000001,-9.824659740000001,0.7602522088000001,-0.5008455,-5.122193360000001,-0.5280487299999999,,,
imu,136.980085,-0.3343674152,-9.851576616000001,0.7728134176000001,-0.32887657,-4.8530246,-0.5803870999999998,,,
imu,136.988576,-0.3026653168,-9.85456738,0.7602522088000001,-0.3513073,-4.75582477,-0.76730985,,,
imu,136.997066,-0.2972819416,-9.8581562968,0.7572614448000001,-0.55318387,-4.61376348,-0.9841402399999999,,,
imu,137.005556,-0.3002727056,-9.862343366400001,0.7542706808000001,-0.5681376899999999,-4.18757961,-1.01404788,,,
imu,137.014046,-0.275150288,-9.859950755200002,0.7458965416000001,-0.46346095,-3.88850321,-1.16358608,,,
imu,137.022537,-0.281131816,-9.8270523512,0.7435039304000001,-0.30644584,-3.72401119,-1.21592445,,,
imu,137.031027,-0.272159524,-9.8234634344,0.7590559032000002,-0.43355331,-3.58942681,-1.28321664,,,
imu,137.039517,-0.2859170384,-9.8264541984,0.7686263480000001,-0.25410747,-3.42493479,-1.37293956,,,
imu,137.048007,-0.2715613712,-9.824659740000001,0.7770004872000001,-0.14943073,-3.02118165,-1.30564737,,,
imu,137.056497,-0.2488315648,-9.834230184800003,0.7704208064000001,-0.127,-2.84921272,-1.42527793,,,
imu,137.064988,-0.2356722032,-9.831837573600001,0.7662337368000001,-0.20924601,-2.69219761,-1.52995467,,,
imu,137.073478,-0.2189239248,-9.8294449624,0.7572614448000001,-0.02980017,-2.48284413,-1.57481613,,,
imu,137.081968,-0.2069608688,-9.839015407200002,0.7500836112000001,-0.11952309,-2.29592138,-1.79164652,,,
imu,137.090458,-0.19439966,-9.8300431152,0.7369242496000001,-0.17933837,-2.13142936,-1.81407725,,,
imu,137.098949,-0.1812402984,-9.831239420800001,0.7279519576000001,-0.05970781,-2.0865679,-1.95613854,,,
imu,137.107439,-0.1668846312,-9.824659740000001,0.7243630408,-0.05970781,-1.99684498,-2.25521494,,,
imu,137.115929,-0.1722680064,-9.815089295200002,0.7189796656000002,0.05992275,-1.9370297,-2.26269185,,,
imu,137.124419,-0.1567160336,-9.824659740000001,0.723764888,0.06739966,-1.89964515,-2.33746095,,,
imu,137.13291,-0.146547436,-9.8719138112,0.7339334856000002,0.17955331,-2.00432189,-2.46456842,,,
imu,137.1414,-0.1393696024,-9.896438076,0.7363260968000002,0.3216146,-1.98936807,-2.4496146,,,
imu,137.14989,-0.1297991576,-9.9101955904,0.7506817640000001,0.36647606,-2.06413717,-2.50942988,,,
imu,137.15838,-0.1369769912,-9.9131863544,0.7584577504000002,0.05244583999999999,-2.13142936,-2.66644499,,,
imu,137.166871,-0.1513326584,-9.9048122152,0.7620466672,-0.03727708,-2.15386009,-2.77112173,,,
imu,137.17552,-0.1471455888,-9.895839923200002,0.7674300424000001,-0.13447691,-2.10152172,-2.84589083,,,
imu,137.184169,-0.1453511304,-9.880287950400001,0.7770004872000001,-0.43355331,-2.31835211,-3.07767504,,,
imu,137.192818,-0.1603049504,-9.843800629600002,0.7524762224000001,-0.5980453299999999,-2.40807503,-3.24216706,,,
imu,137.201467,-0.1752587704,-9.838417254400001,0.7381205552000002,-0.94198319,-2.5351825,-3.44404363,,,
imu,137.210117,-0.1722680064,-9.827650504000003,0.7452983888000001,-1.09152139,-2.46789031,-3.58610492,,,
imu,137.218766,-0.1800439928,-9.815687448000002,0.7482891528000001,-1.24105959,-2.61742851,-3.78798149,,,
imu,137.227415,-0.1830347568,-9.822267128800002,0.7405131664000002,-1.05413684,-2.74453598,-3.75807385,,,
imu,137.236064,-0.1979885768,-9.824659740000001,0.7333353328000001,-0.95693701,-2.5351825,-3.75059694,,,
imu,137.244713,-0.2081571744,-9.8432024768,0.7351297912000001,-0.91207555,-2.50527486,-3.78050458,,,
imu,137.253363,-0.2207183832,-9.8581562968,0.7476910000000001,-0.7550604399999999,-2.42302885,-3.51133582,,,
imu,137.262012,-0.2147368552,-9.879091644800003,0.7536725280000001,-0.7550604399999999,-2.28096756,-3.3468438,,,
imu,137.270661,-0.2165313136,-9.890456548000001,0.7644392784,-0.63542988,-2.05666026,-2.99542903,,,
imu,137.27931,-0.2207183832,-9.906008520800002,0.7644392784,-0.64290679,-1.98936807,-2.95804448,,,
imu,137.287959,-0.2021756464,-9.941299536000002,0.7590559032000002,-0.67281443,-1.87721442,-2.90570611,,,
imu,137.296609,-0.197390424,-9.946084758400001,0.7698226536000001,-0.68776825,-1.66786094,-2.95804448,,,
imu,137.305258,-0.1932033544,-9.939505077600002,0.7740097232000002,-0.93450628,-1.5631842,-2.93561375,,,
imu,137.313907,-0.1866236736,-9.935916160800002,0.7668318896,-1.27844414,-1.51832274,-3.00290594,,,
imu,137.322556,-0.1728661592,-9.953860744800002,0.7638411256000001,-1.5476129,-1.42112291,-3.07019813,,,
imu,137.331205,-0.1597067976,-9.943692147200002,0.7548688336000001,-1.6971511,-1.35383072,-3.17487487,,,
imu,137.339854,-0.1609031032,-9.9580478144,0.7770004872000001,-1.91398149,-1.40616909,-3.39170526,,,
imu,137.348504,-0.1489400472,-9.977188704000001,0.7937487656000001,-2.12333497,-1.54075347,-3.45899745,,,
imu,137.357153,-0.1399677552,-9.977786856800002,0.7961413768000002,-2.39250373,-1.50336892,-3.52628964,,,
imu,137.365802,-0.1381732968,-9.982572079200002,0.8093007384,-2.57194957,-1.63047639,-3.6459202,,,
imu,137.374451,-0.1626975616,-9.989151760000002,0.8410028368000001,-2.6691494,-1.67533785,-3.70573548,,,
imu,137.382701,-0.1567160336,-9.985562843200002,0.8577511152000001,-2.90841052,-1.58561493,-3.87770441,,,
imu,137.390951,-0.1710717008,-9.956253356,0.8786864632000002,-3.17757928,-1.62299948,-4.00481188,,,
imu,137.399201,-0.1752587704,-9.9137845072,0.8972292000000002,-3.58880933,-1.57813802,-4.169303899999999,,,
imu,137.407451,-0.1830347568,-9.876699033600001,0.9067996448000001,-3.760778259999999,-1.51832274,-4.25902682,,,
imu,137.415701,-0.1860255208,-9.8270523512,0.9121830200000002,-3.98508556,-1.51084583,-4.42351884,,,
imu,137.423951,-0.1920070488,-9.766040765600001,0.9151737840000002,-4.134623759999999,-1.55570729,-4.59548777,,,
imu,137.432201,-0.2069608688,-9.6846919848,0.900219964,-4.28416196,-1.57813802,-4.70016451,,,
imu,137.440451,-0.2147368552,-9.596763523200002,0.8930421304000001,-4.209392859999999,-1.570661110000001,-4.74502597,,,
imu,137.448701,-0.230288828,-9.6015487456,0.9121830200000002,-3.91031646,-1.58561493,-4.77493361,,,
imu,137.45695,-0.2135405496,-9.6284656216,0.9157719368000001,-3.46170186,-1.49589201,-4.58801086,,,
imu,137.4652,-0.1949978128,-9.642223136000002,0.9199590064000001,-3.07290254,-1.286538530000001,-4.169303899999999,,,
imu,137.47345,-0.1991848824,-9.685888290400001,0.9361091320000001,-2.57942648,-1.09961578,-3.9449966,,,
imu,137.4817,-0.2075590216,-9.752283251200002,0.9456795768000001,-2.24296553,-1.1145696,-3.7954584,,,
imu,137.48995,-0.2021756464,-9.7989391696,0.9450814240000001,-2.11585806,-1.05475432,-3.58610492,,,
imu,137.4982,-0.212344244,-9.810304072800001,0.9444832712000001,-1.80930475,-0.8379239300000001,-3.28702852,,,
imu,137.50645,-0.20935348,-9.836024643200002,0.9702038416000002,-1.8466893,-0.82297011,-3.18235178,,,
imu,137.5147,-0.1848292152,-9.9048122152,0.9851576616000001,-1.63733582,-0.6210935399999999,-2.81598319,,,
imu,137.52295,-0.1638938672,-9.939505077600002,0.9785779808,-1.73453565,-0.5687551700000002,-2.70382954,,,
imu,137.5312,-0.1363788384,-9.9550570504,0.9708019944000001,-1.9962275,-0.5238937100000003,-2.73373718,,,
imu,137.53945,-0.1178361016,-9.980179468000001,0.9899428840000002,-2.2205348,-0.5313706200000001,-2.89075229,,,
imu,137.5477,-0.09390998960000001,-9.992740676800002,0.9947281064000002,-2.43736519,-0.7033395499999999,-3.16739796,,,
imu,137.555949,-0.08912476720000001,-9.979581315200003,1.0054948568,-2.60185721,-0.9276468500000004,-3.45152054,,,
imu,137.564199,-0.09510629520000001,-9.960440425600002,1.0060930096,-2.96074889,-1.22672325,-3.82536604,,,
imu,137.572384,-0.1118545736,-9.938906924800001,1.0210468296,-3.17010237,-1.50336892,-4.25154991,,,
imu,137.581206,-0.1573141864,-9.8916528536,1.0234394408,-3.37945585,-1.88469133,-4.70764142,,,
imu,137.590028,-0.1932033544,-9.839015407200002,1.0413840248,-3.74582444,-2.07161408,-5.09644074,,,
imu,137.59885,-0.2159331608,-9.811500378400002,1.0533470808,-3.88040882,-2.04918335,-5.238502029999999,,,
imu,137.607672,-0.2524204816,-9.802528086400002,1.0599267616,-4.07480848,-1.95946043,-5.350655679999999,,,
imu,137.616495,-0.260196468,-9.805518850400002,1.0718898176,-4.29163887,-1.90712206,-5.260932759999999,,,
imu,137.625317,-0.2685706072,-9.8234634344,1.0880399432,-4.3888387,-1.60056875,-5.10391765,,,
imu,137.634139,-0.272159524,-9.835426490400001,1.0970122352,-4.35893106,-1.43607673,-4.83474889,,,
imu,136.251843,,,,,,,88.56322519999999,-43.53700920000001,119.2094264
imu,136.353405,,,,,,,89.3689004,-43.72011720000002,121.443344
imu,136.454968,,,,,,,90.30885479999999,-43.68349560000002,121.8217672
imu,136.5565,,,,,,,91.6150252,-43.86660360000001,123.213388
imu,136.658245,,,,,,,92.06669160000001,-43.62245960000002,123.9091984
imu,136.760693,,,,,,,93.5193484,-43.5736308,123.9702344
imu,136.861248,,,,,,,93.5071412,-43.29286520000002,124.5683872
imu,136.96278,,,,,,,95.9729956,-44.11074760000002,122.5297848
imu,137.064291,,,,,,,94.044258,-43.36610840000002,125.1299184
imu,137.165854,,,,,,,96.75425639999999,-44.00088280000001,123.213388
imu,137.267416,,,,,,,94.3982668,-43.37831560000001,125.0566752
imu,137.368979,,,,,,,95.2283564,-43.15858600000002,125.410684
imu,137.470572,,,,,,,95.05745560000001,-43.0487212,125.4839272
imu,137.572104,,,,,,,95.6800228,-42.84119880000002,125.7769
