Type,Timestamp,Data Accelerometer X,Data Accelerometer Y,Data Accelerometer Z,Data Gyroscope X,Data Gyroscope Y,Data Gyroscope Z,Data Magnetometer X,Data Magnetometer Y,Data Magnetometer Z
imu,294.610645,0.1770532288,-9.5668558832,2.7664567,0.85995212,-1.72019931,-2.34493786,,,
imu,294.619106,0.1866236736,-9.559678049600002,2.748512116,1.02444414,-1.74263004,-2.74121409,,,
imu,294.627567,0.1896144376,-9.5357519376,2.7509047272,1.15902852,-2.03422953,-2.95804448,,,
imu,294.636028,0.17944584,-9.523190728800001,2.7491102688,1.35342818,-2.19124464,-3.22721324,,,
imu,294.644489,0.1698753952,-9.5381445488,2.750306574400001,1.42819728,-2.41555194,-3.6459202,,,
imu,294.65295,0.1274065464,-9.535153784800002,2.745521352,1.57025857,-2.59499778,-3.90761205,,,
imu,294.661411,0.1172379488,-9.547116840800001,2.7491102688,1.58521239,-2.58752087,-4.146873169999999,,,
imu,294.669872,0.107667504,-9.555490980000002,2.745521352,1.50296638,-2.41555194,-4.32631901,,,
imu,294.678333,0.092713684,-9.5602762024,2.750306574400001,1.50296638,-2.22862919,-4.386134289999999,,,
imu,294.686794,0.0861340032,-9.554892827200002,2.7562881024,1.40576655,-2.16881391,-4.51324176,,,
imu,294.69561,0.09390998960000001,-9.560874355200001,2.7568862552,1.48801256,-1.89964515,-4.40108811,,,
imu,294.704427,0.08733030880000002,-9.574631869600001,2.7676530056,1.27118217,-1.8622606,-4.55810322,,,
imu,294.713244,0.08433954480000001,-9.574631869600001,2.7610733248,1.11416706,-1.72019931,-4.52819558,,,
imu,294.722061,0.08433954480000001,-9.5877912312,2.771241922400001,1.06182869,-1.712722400000001,-4.4683803,,,
imu,294.730878,0.09749890640000002,-9.594370912,2.787392048000001,0.94219813,-1.69029167,-4.602964679999999,,,
imu,294.739695,0.09450814240000002,-9.5907819952,2.7802142144,1.00201341,-1.72019931,-4.51324176,,,
imu,294.748512,0.09211553120000002,-9.5877912312,2.773634533600001,0.8749059399999999,-1.69029167,-4.52819558,,,
imu,294.757329,0.092713684,-9.591978300800001,2.773634533600001,0.8524752099999999,-1.69029167,-4.52071867,,,
imu,294.766146,0.0861340032,-9.5907819952,2.78141052,0.8823828499999999,-1.68281476,-4.46090339,,,
imu,294.774963,0.0741709472,-9.5698466472,2.7867938952,0.8674290299999999,-1.69776858,-4.37118047,,,
imu,294.78378,0.068787572,-9.546518688,2.779616061600001,0.91229049,-1.45850746,-4.28145755,,,
imu,294.792597,0.068787572,-9.556089132800002,2.808327396000001,0.8674290299999999,-1.57813802,-4.363703559999999,,,
imu,294.801414,0.0592171272,-9.5907819952,2.8089255488,0.97958268,-1.49589201,-4.40108811,,,
imu,294.81023,0.05742266880000001,-9.583604161600002,2.7975606456,0.9272443100000001,-1.39121527,-4.46090339,,,
imu,294.819047,0.0406743904,-9.536350090400001,2.793373576,0.7702292,-1.50336892,-4.49828794,,,
imu,294.827864,0.03349655680000001,-9.5172092008,2.793373576,0.74779847,-1.40616909,-4.3936112,,,
imu,294.836681,0.0251224176,-9.536948243200001,2.799355104,0.83004448,-1.21924634,-4.35622665,,,
imu,294.845498,0.0352910152,-9.554294674400001,2.7927754232,1.03192105,-1.22672325,-4.42351884,,,
imu,294.854315,0.0281131816,-9.547714993600001,2.793373576,1.06182869,-1.09961578,-4.34874974,,,
imu,294.863132,0.0305057928,-9.546518688,2.790382812,1.04687487,-0.9725083100000003,-4.37865738,,,
imu,294.871949,0.0340947096,-9.531564868,2.787392048000001,1.23379762,-0.9201699400000001,-4.37865738,,,
imu,294.880766,0.03588916800000001,-9.541135312800002,2.778419756,1.2936129,-1.04727741,-4.41604193,,,
imu,294.889583,0.04486146000000001,-9.538742701600002,2.7730363808,1.48801256,-0.9575544899999997,-4.49828794,,,
imu,294.898076,0.0340947096,-9.531564868,2.7646622416,1.61512003,-0.9500775800000003,-4.52819558,,,
imu,294.906556,0.0245242648,-9.519601812000001,2.7718400752,1.72727368,-0.9500775800000003,-4.64034923,,,
imu,294.915036,0.0221316536,-9.530966715200002,2.7526991856,1.77213514,-0.9949390400000002,-4.715118329999999,,,
imu,294.923516,0.0125612088,-9.531564868,2.7562881024,1.89924261,-0.9874621299999999,-4.63287232,,,
imu,294.931997,0.0155519728,-9.5184055064,2.75150288,2.0413039,-0.9201699400000001,-4.55810322,,,
imu,294.940477,0.009570444800000001,-9.535153784800002,2.743726893600001,2.16093446,-0.8753084800000002,-4.58053395,,,
imu,294.948957,0.005981528000000001,-9.555490980000002,2.7538954912,2.33290339,-0.8902623000000003,-4.64034923,,,
imu,294.957437,0.005981528000000001,-9.560874355200001,2.7497084216,2.49739541,-0.82297011,-4.58801086,,,
imu,294.965917,0.0065796808,-9.566257730400002,2.743726893600001,2.57964142,-0.9575544899999997,-4.51324176,,,
imu,294.974397,0.0,-9.582407856000001,2.7491102688,2.60954906,-0.8304470200000003,-4.408565019999999,,,
imu,294.982877,0.002990764,-9.578220786400001,2.7473158104,2.51234923,-0.9575544899999997,-4.48333412,,,
imu,294.991357,0.0,-9.591380148,2.7467176576,2.29551884,-0.9351237599999997,-4.40108811,,,
imu,294.999837,-0.004187069600000001,-9.568650341600001,2.7562881024,2.25813429,-0.9575544899999997,-4.37865738,,,
imu,295.008317,-0.0137575144,-9.5668558832,2.7556899496,2.2656112,-0.9575544899999997,-4.32631901,,,
imu,295.016797,-0.009570444800000001,-9.596165370400001,2.725184156800001,2.35533412,-0.8678315700000003,-4.18425772,,,
imu,295.025277,-0.0233279592,-9.632054538400002,2.6910894472,2.38524176,-0.8528777500000002,-4.07210407,,,
imu,295.033757,-0.0155519728,-9.624278552000002,2.7072395728,2.22074974,-0.6360473600000001,-4.06462716,,,
imu,295.042237,-0.0053833752,-9.593772759200002,2.712622948,1.97401171,-0.6883857300000003,-3.96742733,,,
imu,295.050718,-0.003588916800000001,-9.6009505928,2.6958746696,1.91419643,-0.6883857300000003,-3.90761205,,,
imu,295.059198,-0.0023926112,-9.6009505928,2.706043267200001,1.99644244,-0.4715553400000001,-3.90013514,,,
imu,295.067678,0.007177833600000002,-9.5907819952,2.718604476,2.01887317,-0.5837089900000003,-3.8702275,,,
imu,295.076158,0.008374139200000002,-9.579417092000002,2.7221933928,1.8169966,-0.7033395499999999,-3.90013514,,,
imu,295.084638,0.007177833600000002,-9.594370912,2.7162118648,1.71979677,-0.6958626400000001,-4.034719519999999,,,
imu,295.093118,0.004187069600000001,-9.593772759200002,2.7114266424,1.93662716,-0.7706317400000002,-3.98985806,,,
imu,295.101579,0.005981528000000001,-9.585996772800002,2.7108284896,1.88428879,-0.7108164600000002,-3.88518132,,,
imu,295.11004,0.0065796808,-9.5776226336,2.701856197600001,1.87681188,-0.86035466,-3.95247351,,,
imu,295.118501,-0.0011963056,-9.589585689600002,2.706043267200001,1.95158098,-0.7930624700000002,-3.89265823,,,
imu,295.126962,0.002990764,-9.5877912312,2.6880986832,2.07121154,-0.6734319100000001,-3.73564312,,,
imu,295.135423,-0.007775986400000001,-9.594370912,2.6928839056,2.13850373,-0.7033395499999999,-3.78798149,,,
imu,295.143884,-0.0125612088,-9.596763523200002,2.6916876,2.10859609,-0.7930624700000002,-3.89265823,,,
imu,295.152345,-0.0173464312,-9.614708107200002,2.6904912944,2.15345755,-0.9201699400000001,-3.8702275,,,
imu,295.160806,-0.0197390424,-9.6260730104,2.6851079192,2.06373463,-0.7407241,-3.82536604,,,
imu,295.169267,-0.011963056,-9.618895176800002,2.685706072000001,1.99644244,-0.6061397200000003,-3.90761205,,,
imu,295.177728,-0.007775986400000001,-9.623082246400001,2.6845097664,1.98896553,-0.5164168,-3.74312003,,,
imu,295.186189,-0.007775986400000001,-9.627867468800002,2.6845097664,1.86185806,-0.4491246100000001,-3.66087402,,,
imu,295.19465,0.0,-9.633250844,2.686902377600001,1.62259694,-0.5238937100000003,-3.71321239,,,
imu,295.203111,-0.007775986400000001,-9.626671163200001,2.6940802112,1.368382,-0.45660152,-3.71321239,,,
imu,295.211572,-0.0167482784,-9.630260080000001,2.7084358784,1.21136689,-0.4939860700000001,-3.95995042,,,
imu,295.220033,-0.0203371952,-9.635643455200002,2.7090340312,1.01696723,-0.5089398900000002,-4.06462716,,,
imu,295.228494,-0.0352910152,-9.642223136000002,2.7180063232,0.73284465,-0.3818324200000003,-4.04219643,,,
imu,295.236955,-0.04127254320000001,-9.608128426400002,2.712622948,0.56835263,-0.3893093300000001,-4.0197657,,,
imu,295.245416,-0.0370854736,-9.5865949256,2.7072395728,0.45619898,-0.1126636599999999,-3.90013514,,,
imu,295.253877,-0.05084298800000001,-9.5590798968,2.697669128,0.41133752,0.02939763000000006,-3.86275059,,,
imu,295.262338,-0.0466559184,-9.555490980000002,2.7024543504,0.56087572,0.21632038,-3.68330475,,,
imu,295.270799,-0.0197390424,-9.552500216,2.704248808800001,0.65807555,0.3733354899999997,-3.46647436,,,
imu,295.27926,-0.007177833600000002,-9.564463272000001,2.6952765168,0.7702292,0.52287369,-3.51133582,,,
imu,295.287721,0.004187069600000001,-9.568650341600001,2.699463586400001,1.01696723,0.5378275100000001,-3.60105874,,,
imu,295.296182,0.0173464312,-9.554892827200002,2.7000617392,1.20388998,0.4555814999999996,-3.75807385,,,
imu,295.3047,0.0167482784,-9.556089132800002,2.6904912944,1.35342818,0.2611818399999999,-3.98985806,,,
imu,295.313218,0.0113649032,-9.554294674400001,2.686902377600001,1.45062801,0.2013665599999999,-4.124442439999999,,,
imu,295.321737,0.009570444800000001,-9.564463272000001,2.6803226968,1.60016621,0.02939763000000006,-4.25154991,,,
imu,295.330255,0.0005981528000000001,-9.558481744000002,2.685706072000001,1.72727368,0.05930526999999985,-4.31136519,,,
imu,295.338773,-0.007775986400000001,-9.554294674400001,2.679724544,1.80204278,-0.01546383000000029,-4.41604193,,,
imu,295.347291,-0.007177833600000002,-9.559678049600002,2.6934820584,1.76465823,-0.06780220000000003,-4.43847266,,,
imu,295.355809,-0.0245242648,-9.565061424800001,2.6815190024,1.82447351,-0.007986920000000008,-4.29641137,,,
imu,295.364328,-0.0197390424,-9.571641105600001,2.680920849600001,1.75718132,-0.1799558500000003,-4.386134289999999,,,
imu,295.372846,-0.017944584,-9.5812115504,2.692285752800001,1.80951969,-0.1575251200000003,-4.34874974,,,
imu,295.381364,-0.0203371952,-9.5842023144,2.692285752800001,1.80204278,-0.15004821,-4.33379592,,,
imu,295.389882,-0.0227298064,-9.596763523200002,2.701856197600001,1.92167334,-0.25472495,-4.18425772,,,
imu,295.3984,-0.02990764000000001,-9.609324732000001,2.713221100800001,1.62259694,-0.3220171400000003,-4.34874974,,,
imu,295.406919,-0.03887993200000001,-9.614109954400002,2.7102303368,1.54035093,-0.39678624,-4.27398064,,,
imu,295.415437,-0.04605776560000001,-9.61530626,2.7012580448,1.45810492,-0.2696787700000001,-4.19921154,,,
imu,295.423955,-0.05742266880000001,-9.612913648800001,2.7090340312,1.45810492,-0.2696787700000001,-4.057150249999999,,,
imu,295.432473,-0.0562263632,-9.611119190400002,2.70664142,1.38333582,-0.3369709599999999,-4.13939626,,,
imu,295.440992,-0.0592171272,-9.6087265792,2.700659892,1.40576655,-0.1201405700000002,-4.00481188,,,
imu,295.44951,-0.05742266880000001,-9.613511801600001,2.700659892,1.53287402,-0.08275602000000015,-3.93751969,,,
imu,295.458028,-0.0317020984,-9.604539509600002,2.7030525032,1.52539711,0.0368745399999999,-3.87770441,,,
imu,295.466546,-0.0346928624,-9.6015487456,2.694678364,1.42072037,-0.0603252900000002,-3.82536604,,,
imu,295.475064,-0.03588916800000001,-9.6260730104,2.7108284896,1.30108981,-0.20986349,-4.04967334,,,
imu,295.483583,-0.0221316536,-9.6326526912,2.7054451144,1.27865908,-0.17247894,-4.22164227,,,
imu,295.492101,-0.0221316536,-9.596165370400001,2.692285752800001,1.1440747,-0.0603252900000002,-4.00481188,,,
imu,295.500619,-0.0275150288,-9.576426328,2.700659892,1.33099745,-0.0603252900000002,-3.99733497,,,
imu,295.509031,-0.0376836264,-9.564463272000001,2.700659892,1.22632071,-0.1874327600000001,-3.98985806,,,
imu,295.517442,-0.04785222400000001,-9.5800152448,2.697669128,1.2188438,-0.1201405700000002,-3.90761205,,,
imu,295.525853,-0.0352910152,-9.585996772800002,2.703650656000001,1.26370526,-0.1874327600000001,-3.75059694,,,
imu,295.534265,-0.03588916800000001,-9.566257730400002,2.6970709752,1.24127453,-0.1051867500000001,-3.69825857,,,
imu,295.542676,-0.03648732080000001,-9.547116840800001,2.6982672808,1.18145925,-0.17247894,-3.69078166,,,
imu,295.551088,-0.03349655680000001,-9.568650341600001,2.6875005304,1.35342818,-0.09770984000000027,-3.59358183,,,
imu,295.559499,-0.011963056,-9.583604161600002,2.680920849600001,1.51044329,-0.1874327600000001,-3.57862801,,,
imu,295.56791,-0.023926112,-9.556089132800002,2.670752252,1.45062801,-0.23229422,-3.55619728,,,
imu,295.576322,-0.0382817792,-9.551902063200002,2.6653688768,1.57025857,-0.2173404000000003,-3.5711511,,,
imu,295.584733,-0.0352910152,-9.554294674400001,2.6719485576,1.80204278,-0.4042631500000002,-3.70573548,,,
imu,295.593145,-0.0376836264,-9.553696521600001,2.6581910432,1.85438115,-0.5612782599999999,-3.88518132,,,
imu,295.601556,-0.03887993200000001,-9.559678049600002,2.6569947376,1.80204278,-0.6958626400000001,-3.92256587,,,
imu,295.609967,-0.04545961280000001,-9.585996772800002,2.6623781128,2.07121154,-0.59866281,-3.92256587,,,
imu,295.618379,-0.06699311360000001,-9.594370912,2.6504150568,2.07868845,-0.6285704500000002,-3.9449966,,,
imu,295.62679,-0.0813487808,-9.593772759200002,2.6540039736,2.08616536,-0.6659550000000003,-3.81041222,,,
imu,295.635202,-0.08792846160000001,-9.597959828800002,2.6450316816,2.06373463,-0.4640784300000003,-3.72816621,,,
imu,295.643613,-0.08852661440000001,-9.617100718400001,2.6516113624,2.01139626,-0.43417079,-3.63096638,,,
imu,295.652024,-0.09510629520000001,-9.630858232800001,2.6432372232,2.05625772,-0.1874327600000001,-3.55619728,,,
imu,295.660436,-0.09450814240000002,-9.638036066400002,2.6504150568,2.02635008,-0.08275602000000015,-3.59358183,,,
imu,295.668847,-0.09151737840000002,-9.639830524800002,2.648022445600001,1.83195042,-0.02294074000000013,-3.73564312,,,
imu,295.677259,-0.08433954480000001,-9.639830524800002,2.6444335288,1.60764312,0.05930526999999985,-3.67582784,,,
imu,295.68567,-0.0933118368,-9.652989886400002,2.648022445600001,1.41324346,0.04435144999999974,-3.83284295,,,
imu,295.694081,-0.09151737840000002,-9.657176956,2.6492187512,1.47305874,0.3209971199999999,-3.68330475,,,
imu,295.702493,-0.08433954480000001,-9.659569567200002,2.649816904,1.30856672,0.5453044199999999,-3.75059694,,,
imu,295.711319,-0.08733030880000002,-9.651793580800001,2.6432372232,1.04687487,0.7696117199999999,-3.9449966,,,
imu,295.720145,-0.0813487808,-9.632054538400002,2.6611818072,0.97958268,0.7696117199999999,-4.0945348,,,
imu,295.728972,-0.08314323920000001,-9.617698871200002,2.64682614,0.9945364999999999,0.8219500899999996,-4.10948862,,,
imu,295.737798,-0.0675912664,-9.614109954400002,2.6450316816,0.8674290299999999,1.00139593,-4.06462716,,,
imu,295.746624,-0.06101158560000001,-9.6117173432,2.655200279200001,0.65059864,0.9789651999999998,-4.19173463,,,
imu,295.75545,-0.06460050240000001,-9.581809703200001,2.6492187512,0.60573718,0.9191499199999997,-4.169303899999999,,,
imu,295.764276,-0.0490485296,-9.583604161600002,2.64682614,0.64312173,0.9116730099999999,-4.169303899999999,,,
imu,295.773103,-0.04486146000000001,-9.593174606400002,2.6450316816,0.65059864,1.01634975,-4.20668845,,,
imu,295.781929,-0.0406743904,-9.587193078400002,2.6486205984,0.68050628,0.84438082,-4.124442439999999,,,
imu,295.790755,-0.0352910152,-9.590183842400002,2.658789196,0.7253677399999999,0.6798887999999996,-4.21416536,,,
imu,295.799581,-0.0466559184,-9.597959828800002,2.6546021264,0.7403215599999999,0.6574580699999997,-4.10948862,,,
imu,295.808407,-0.06101158560000001,-9.6039413568,2.6522095152,0.9272443100000001,0.5752120599999997,-4.034719519999999,,,
imu,295.817234,-0.06460050240000001,-9.596165370400001,2.6540039736,1.01696723,0.5303505999999998,-4.00481188,,,
imu,295.82606,-0.08314323920000001,-9.600352440000002,2.6629762656,0.94219813,0.4854891399999999,-4.079580979999999,,,
imu,295.834886,-0.08194693360000001,-9.61530626,2.6605836544,1.0693056,0.50044296,-3.92256587,,,
imu,295.843712,-0.0903210728,-9.6296619272,2.6623781128,1.09173633,0.56025824,-3.88518132,,,
imu,295.852539,-0.07656355840000001,-9.6224840936,2.657592890400001,1.01696723,0.5453044199999999,-3.90013514,,,
imu,295.861365,-0.0855358504,-9.596165370400001,2.6563965848,0.8674290299999999,0.5453044199999999,-3.95247351,,,
imu,295.870191,-0.09570444800000001,-9.604539509600002,2.652807668,0.8674290299999999,0.7920424499999998,-3.7954584,,,
imu,295.879017,-0.07895616960000001,-9.6159044128,2.6605836544,1.00201341,0.9415806499999997,-3.66087402,,,
imu,295.887843,-0.0753672528,-9.597959828800002,2.668957793600001,0.9048135799999999,0.8967191899999998,-3.69825857,,,
imu,295.89667,-0.08733030880000002,-9.593174606400002,2.678528238400001,0.81509066,0.8892422799999999,-3.72816621,,,
imu,295.905496,-0.09390998960000001,-9.600352440000002,2.6863042248,0.6954601,0.80699627,-3.90013514,,,
imu,295.913966,-0.08493769760000001,-9.617100718400001,2.6863042248,0.4861066199999999,0.9565344699999998,-3.98985806,,,
imu,295.922436,-0.1040785872,-9.599754287200001,2.682715308000001,0.33656842,0.9789651999999998,-3.87770441,,,
imu,295.930906,-0.110658268,-9.585398620000001,2.685706072000001,0.26927623,1.06868812,-3.81788913,,,
imu,295.939375,-0.09749890640000002,-9.5800152448,2.680920849600001,0.3739529699999999,1.21822632,-3.66835093,,,
imu,295.947845,-0.0855358504,-9.569248494400002,2.6934820584,0.44124516,1.36776452,-3.61601256,,,
imu,295.956315,-0.07716171120000001,-9.571042952800001,2.696472822400001,0.60573718,1.62197946,-3.38422835,,,
imu,295.964785,-0.0562263632,-9.578220786400001,2.6982672808,0.51601426,1.4275798,-3.51881273,,,
imu,295.973255,-0.03887993200000001,-9.585398620000001,2.6934820584,0.80013684,1.45748744,-3.55619728,,,
imu,295.981725,-0.0173464312,-9.573435564,2.685706072000001,0.8524752099999999,1.4275798,-3.67582784,,,
imu,294.702224,,,,,,,91.1877732,-32.06224120000001,125.5449632
imu,294.803787,,,,,,,91.1267372,-32.91674520000001,123.2622168
imu,294.905349,,,,,,,91.50516040000001,-32.03782680000003,125.9722152
imu,295.006912,,,,,,,91.89579080000001,-32.0012052,126.1553232
imu,295.108505,,,,,,,91.9324124,-32.91674520000001,125.16654
imu,295.210037,,,,,,,92.03007000000001,-32.5261148,126.3140168
imu,295.990167,-0.020935348,-9.554294674400001,2.679724544,0.97210577,1.3528107,-3.80293531,,,
imu,295.998637,-0.03289840400000001,-9.553696521600001,2.680920849600001,1.15155161,1.06121121,-3.91508896,,,
imu,296.007107,-0.03648732080000001,-9.5489112992,2.6701540992,1.39828964,0.92662683,-3.98985806,,,
imu,296.015577,-0.0514411408,-9.555490980000002,2.6653688768,1.54035093,0.8369039099999998,-4.07210407,,,
imu,296.024047,-0.0532355992,-9.5501076048,2.6641725712,1.58521239,0.66493498,-4.23659609,,,
imu,296.032517,-0.04964668240000001,-9.556089132800002,2.6504150568,1.70484295,0.7397040799999997,-4.19173463,,,
imu,296.040987,-0.05742266880000001,-9.5698466472,2.6599855016,1.77213514,0.6350273399999997,-4.25154991,,,
imu,296.049457,-0.05383375200000001,-9.575828175200002,2.657592890400001,1.82447351,0.52287369,-4.18425772,,,
imu,296.057927,-0.06041343280000001,-9.592576453600001,2.667163335200001,1.78708896,0.66493498,-4.079580979999999,,,
imu,296.066397,-0.0562263632,-9.600352440000002,2.6683596408,1.77961205,0.72475026,-4.00481188,,,
imu,296.074866,-0.06460050240000001,-9.602745051200001,2.6839116136,1.60016621,0.5901658799999998,-4.034719519999999,,,
imu,296.083336,-0.06998387760000001,-9.606932120800002,2.6815190024,1.47305874,0.5378275100000001,-4.13191935,,,
imu,296.091806,-0.08912476720000001,-9.614109954400002,2.6791263912,1.50296638,0.44062768,-4.079580979999999,,,
imu,296.100276,-0.09390998960000001,-9.6087265792,2.685706072000001,1.38333582,0.3509047599999997,-4.102011709999999,,,
imu,296.108746,-0.101685976,-9.602146898400001,2.6719485576,1.43567419,0.5378275100000001,-4.19173463,,,
imu,296.11721,-0.1184342544,-9.597361676,2.671350404800001,1.45810492,0.6873657099999999,-4.22911918,,,
imu,296.125673,-0.101685976,-9.5949690648,2.6755374744,1.43567419,0.7920424499999998,-4.06462716,,,
imu,296.134137,-0.1100601152,-9.606333968000001,2.6719485576,1.40576655,0.72475026,-4.02724261,,,
imu,296.1426,-0.1064711984,-9.604539509600002,2.6803226968,1.45810492,0.8817653699999997,-4.04967334,,,
imu,296.151064,-0.1058730456,-9.567454036,2.6880986832,1.38333582,0.9415806499999997,-4.0197657,,,
imu,296.159527,-0.1208268656,-9.604539509600002,2.682715308000001,1.4431511,1.06868812,-4.07210407,,,
imu,296.167991,-0.1004896704,-9.6703363176,2.682715308000001,1.45810492,1.29299542,-4.079580979999999,,,
imu,296.176454,-0.08852661440000001,-9.633848996800001,2.6749393216,1.31604363,1.41262598,-4.22911918,,,
imu,296.184918,-0.1130508792,-9.551303910400001,2.670752252,1.09921324,1.36776452,-4.27398064,,,
imu,296.193381,-0.1238176296,-9.548313146400002,2.6695559464,1.15155161,1.48739508,-4.35622665,,,
imu,296.201845,-0.1118545736,-9.575230022400001,2.6749393216,1.39828964,1.60702564,-4.28145755,,,
imu,296.210309,-0.1070693512,-9.572837411200002,2.668957793600001,1.38333582,1.69674856,-4.244073,,,
imu,296.218772,-0.1142471848,-9.571641105600001,2.6761356272,1.57025857,1.73413311,-4.16182699,,,
imu,296.227236,-0.1004896704,-9.5566872856,2.6569947376,1.71231986,1.75656384,-4.00481188,,,
imu,296.235699,-0.08194693360000001,-9.560874355200001,2.646227987200001,1.74970441,1.91357895,-4.15435008,,,
imu,296.244163,-0.08314323920000001,-9.574631869600001,2.648022445600001,1.8169966,1.94348659,-4.13191935,,,
imu,296.252626,-0.07058203040000001,-9.5698466472,2.6426390704,1.94410407,1.98834805,-4.11696553,,,
imu,296.26109,-0.0747691,-9.575230022400001,2.6372556952,2.12354991,1.86124058,-4.10948862,,,
imu,296.269553,-0.080750628,-9.577024480800002,2.6252926392,2.15345755,1.77151766,-4.146873169999999,,,
imu,296.278017,-0.08912476720000001,-9.576426328,2.619909264,2.28056502,1.74161002,-4.22911918,,,
imu,296.28648,-0.08254508640000002,-9.593174606400002,2.6211055696,2.2656112,1.67431783,-4.23659609,,,
imu,296.294944,-0.08852661440000001,-9.609324732000001,2.6115351248,2.37028794,1.53225654,-4.22164227,,,
imu,296.303408,-0.08852661440000001,-9.6284656216,2.6103388192,2.37776485,1.41262598,-4.28145755,,,
imu,296.311871,-0.0903210728,-9.640428677600001,2.6163203472,2.29551884,1.37524143,-4.19921154,,,
imu,296.320331,-0.101685976,-9.651793580800001,2.6091425136,2.23570356,1.4275798,-4.13939626,,,
imu,296.328791,-0.1058730456,-9.659569567200002,2.6115351248,2.18336519,1.39019525,-4.012288789999999,,,
imu,296.33725,-0.1130508792,-9.652989886400002,2.6085443608,2.06373463,1.37524143,-4.00481188,,,
imu,296.34571,-0.1220231712,-9.66016772,2.6097406664,1.86185806,1.45748744,-3.96742733,,,
imu,296.35417,-0.1274065464,-9.665551095200001,2.6103388192,1.68988913,1.48739508,-3.95247351,,,
imu,296.362629,-0.137575144,-9.6499991224,2.6055535968,1.5179202,1.53225654,-4.02724261,,,
imu,296.371089,-0.1429585192,-9.640428677600001,2.6073480552,1.33847436,1.61450255,-3.97490424,,,
imu,296.379549,-0.1447529776,-9.651793580800001,2.6055535968,1.4431511,1.90610204,-3.81788913,,,
imu,296.388009,-0.1477437416,-9.635045302400002,2.6007683744,1.2936129,2.00330187,-3.77302767,,,
imu,296.396468,-0.1489400472,-9.636839760800001,2.6115351248,1.19641307,2.21265535,-3.70573548,,,
imu,296.404928,-0.1363788384,-9.631456385600002,2.6085443608,1.12164397,2.16031698,-3.80293531,,,
imu,296.413388,-0.1214250184,-9.6290637744,2.610936972000001,1.00201341,2.27247063,-3.90013514,,,
imu,296.421848,-0.1244157824,-9.616502565600001,2.610936972000001,0.94967504,2.33976282,-3.95247351,,,
imu,296.430307,-0.11963056,-9.606932120800002,2.6127314304,0.7403215599999999,2.33976282,-3.95247351,,,
imu,296.438767,-0.1184342544,-9.591978300800001,2.613329583200001,0.7253677399999999,2.33228591,-4.079580979999999,,,
imu,296.447227,-0.1178361016,-9.575828175200002,2.6223018752,0.7702292,2.51920866,-4.07210407,,,
imu,296.455686,-0.1088638096,-9.575828175200002,2.6145258888,0.9048135799999999,2.67622377,-3.91508896,,,
imu,296.464146,-0.1034804344,-9.5740337168,2.6163203472,0.8823828499999999,2.51173175,-4.102011709999999,,,
imu,296.472606,-0.1034804344,-9.575230022400001,2.6073480552,0.8674290299999999,2.58650085,-4.0945348,,,
imu,296.481066,-0.09450814240000002,-9.5877912312,2.610936972000001,1.05435178,2.44443956,-4.012288789999999,,,
imu,296.489525,-0.08194693360000001,-9.5985579816,2.6127314304,1.30856672,2.42200883,-3.95247351,,,
imu,296.497985,-0.08015247520000002,-9.599754287200001,2.619909264,1.30108981,2.30985518,-4.0197657,,,
imu,296.506445,-0.0753672528,-9.6087265792,2.6223018752,1.25622835,2.25751681,-3.98985806,,,
imu,296.514905,-0.0861340032,-9.6224840936,2.6234981808,1.33847436,2.13788625,-3.98238115,,,
imu,296.523376,-0.08912476720000001,-9.635045302400002,2.6264889448,1.48801256,2.16031698,-3.81041222,,,
imu,296.531847,-0.0813487808,-9.642223136000002,2.6330686256,1.42072037,2.01077878,-3.84779677,,,
imu,296.540318,-0.0855358504,-9.651195428000001,2.627685250400001,1.32352054,1.92853277,-3.85527368,,,
imu,296.548789,-0.0933118368,-9.641624983200002,2.6252926392,1.28613599,1.90610204,-3.84031986,,,
imu,296.55726,-0.09211553120000002,-9.618297024,2.6312741672,1.2936129,1.91357895,-3.7954584,,,
imu,296.565732,-0.08912476720000001,-9.609922884800001,2.6282834032,1.00949032,1.79394839,-3.80293531,,,
imu,296.574203,-0.09690075360000001,-9.611119190400002,2.6211055696,1.03939796,1.8761944,-3.6459202,,,
imu,296.582674,-0.07716171120000001,-9.597361676,2.6330686256,1.03192105,1.71170238,-3.63096638,,,
imu,296.591145,-0.0723764888,-9.587193078400002,2.627685250400001,0.9048135799999999,1.73413311,-3.76555076,,,
imu,296.599616,-0.0813487808,-9.593174606400002,2.6402464592,0.85995212,1.62197946,-3.98238115,,,
imu,296.608087,-0.09749890640000002,-9.609922884800001,2.643835376000001,0.80013684,1.48739508,-3.95247351,,,
imu,296.616559,-0.110658268,-9.595567217600001,2.6444335288,0.64312173,1.46496435,-3.9449966,,,
imu,296.62503,-0.1148453376,-9.591978300800001,2.6294797088,0.68798319,1.52477963,-3.76555076,,,
imu,296.633501,-0.1172379488,-9.569248494400002,2.6324704728,0.6954601,1.68179474,-3.70573548,,,
imu,296.641972,-0.11963056,-9.561472508000001,2.6282834032,0.7403215599999999,1.91357895,-3.50385891,,,
imu,296.650443,-0.1190324072,-9.575828175200002,2.6366575424,0.79265993,2.07059406,-3.45152054,,,
imu,296.658914,-0.1190324072,-9.591380148,2.638452000800001,0.9945364999999999,2.22013226,-3.38422835,,,
imu,296.667386,-0.09390998960000001,-9.597959828800002,2.6432372232,1.12164397,2.29490136,-3.51133582,,,
imu,296.675857,-0.07596540560000001,-9.600352440000002,2.6372556952,1.33847436,2.36967046,-3.52628964,,,
imu,296.684328,-0.07656355840000001,-9.6009505928,2.6264889448,1.37585891,2.27994754,-3.81041222,,,
imu,296.692799,-0.07955432240000002,-9.5949690648,2.6175166528,1.49548947,2.34723973,-4.06462716,,,
imu,296.70127,-0.08912476720000001,-9.593772759200002,2.6157221944,1.65998149,2.38462428,-4.17678081,,,
imu,296.709741,-0.09869521200000002,-9.585398620000001,2.6217037224,1.83195042,2.23508608,-4.430995749999999,,,
imu,296.718213,-0.1124527264,-9.593174606400002,2.6097406664,1.91419643,2.29490136,-4.65530305,,,
imu,296.727023,-0.1160416432,-9.587193078400002,2.597179457600001,1.83195042,2.48930102,-4.715118329999999,,,
imu,296.735833,-0.1214250184,-9.593772759200002,2.6043572912,1.86185806,2.56407012,-4.7674567,,,
imu,296.744644,-0.125612088,-9.602146898400001,2.603759138400001,1.65250458,2.53416248,-4.93942563,,,
imu,296.753454,-0.1363788384,-9.6009505928,2.613927736,1.7422275,2.6986545,-4.9169949,,,
imu,296.762264,-0.1309954632,-9.612315496,2.603759138400001,1.60764312,2.72108523,-4.81231816,,,
imu,296.771074,-0.1351825328,-9.613511801600001,2.6061517496,1.57773548,2.81080815,-4.82727198,,,
imu,296.779885,-0.1357806856,-9.61530626,2.6181148056,1.58521239,2.94539253,-4.6179185,,,
imu,296.788695,-0.1471455888,-9.6218859408,2.6217037224,1.31604363,3.10988455,-4.65530305,,,
imu,296.797505,-0.1531271168,-9.6159044128,2.6264889448,1.28613599,3.07997691,-4.82727198,,,
imu,295.311577,,,,,,,92.1155204,-32.77025880000002,125.9722152
imu,295.41314,,,,,,,94.4959244,-33.42944760000002,126.326224
imu,295.514702,,,,,,,92.49394360000001,-32.53832200000002,126.1187016
imu,295.616265,,,,,,,94.81331159999999,-33.68579880000002,124.5439728
imu,295.717827,,,,,,,92.6282228,-32.5261148,125.8257288
imu,295.81939,,,,,,,93.00664599999999,-33.99097880000001,124.0923064
imu,295.920952,,,,,,,92.518358,-33.27075400000001,126.3628456
imu,296.022484,,,,,,,92.3840788,-33.0510244,126.326224
imu,296.806316,-0.1656883256,-9.602745051200001,2.613329583200001,1.20388998,3.35662258,-4.70016451,,,
imu,296.815126,-0.1722680064,-9.619493329600001,2.6127314304,1.28613599,3.42391477,-4.72259524,,,
imu,296.823936,-0.1800439928,-9.614708107200002,2.622900028000001,1.28613599,3.68560662,-4.75250288,,,
imu,296.832746,-0.1896144376,-9.594370912,2.6181148056,1.18893616,3.90243701,-4.85717962,,,
imu,296.841557,-0.1926052016,-9.593772759200002,2.6264889448,1.35342818,4.216467229999999,-4.78988743,,,
imu,296.850367,-0.1806421456,-9.593174606400002,2.6252926392,1.42819728,4.478159079999999,-4.8422258,,,
imu,296.859177,-0.1776513816,-9.5985579816,2.6324704728,1.48801256,4.82957385,-4.87213344,,,
imu,296.867988,-0.17944584,-9.641026830400001,2.6390501536,1.57773548,5.12865025,-4.98428709,,,
imu,296.876798,-0.1698753952,-9.6428212888,2.6312741672,1.70484295,5.375388279999999,-4.92447181,,,
imu,296.885608,-0.1609031032,-9.6051376624,2.6103388192,1.50296638,5.49501884,-5.021671639999999,,,
imu,296.894418,-0.1758569232,-9.597959828800002,2.615124041600001,1.45062801,5.64455704,-5.13382529,,,
imu,296.903229,-0.191408896,-9.603343204000002,2.6169185,1.56278166,5.80904906,-5.20111748,,,
imu,296.912039,-0.176455076,-9.6224840936,2.6121332776,1.4431511,5.92867962,-5.22354821,,,
imu,296.920849,-0.1609031032,-9.616502565600001,2.607946208,1.55530475,6.11560237,-5.11887147,,,
imu,296.929323,-0.1597067976,-9.6087265792,2.6055535968,1.58521239,6.35486349,-4.991764,,,
imu,296.937797,-0.1513326584,-9.600352440000002,2.5923942352,1.5926893,6.556740059999999,-4.98428709,,,
imu,296.94627,-0.1327899216,-9.595567217600001,2.5935905408,1.50296638,6.59412461,-5.021671639999999,,,
imu,296.954744,-0.128602852,-9.596763523200002,2.576244109600001,1.61512003,6.59412461,-4.94690254,,,
imu,296.963218,-0.128602852,-9.594370912,2.5798330264,1.79456587,6.601601519999999,-4.80484125,,,
imu,296.971692,-0.1178361016,-9.585996772800002,2.5606921368,1.77961205,6.52683242,-4.887087259999999,,,
imu,296.980165,-0.1100601152,-9.5865949256,2.566075512,1.74970441,6.4371095,-4.73007215,,,
imu,296.988639,-0.09989151760000002,-9.591380148,2.555308761600001,1.71231986,6.19784838,-4.759979789999999,,,
imu,296.997113,-0.08374139200000001,-9.597361676,2.5493272336,1.92167334,6.033356359999999,-4.63287232,,,
imu,297.005586,-0.0747691,-9.603343204000002,2.5385604832,1.9665348,5.876341249999999,-4.5431494,,,
imu,297.01406,-0.0663949608,-9.625474857600002,2.5547106088,1.86185806,5.40529592,-4.51324176,,,
imu,297.022534,-0.05981528000000001,-9.639232372,2.5475327752,1.94410407,5.20341935,-4.341272829999999,,,
imu,297.031008,-0.0532355992,-9.6505972752,2.5463364696,1.89924261,4.9417275,-4.124442439999999,,,
imu,297.039481,-0.0502448352,-9.66016772,2.5397567888,1.84690424,4.65760492,-3.97490424,,,
imu,297.047955,-0.0466559184,-9.654784344800001,2.5439438584,1.77961205,4.18655959,-3.84779677,,,
imu,297.056429,-0.04725407120000001,-9.658971414400002,2.5427475528,1.77961205,3.97720611,-3.66087402,,,
imu,297.064902,-0.0430670016,-9.658971414400002,2.5517198448,1.68988913,3.52859151,-3.63096638,,,
imu,297.073376,-0.0466559184,-9.661962178400001,2.543345705600001,1.48801256,3.26689966,-3.496382,,,
imu,297.081781,-0.0430670016,-9.667345553600002,2.548130928,1.33847436,2.97530017,-3.36927453,,,
imu,297.090255,-0.0526374464,-9.672728928800002,2.548130928,1.19641307,2.78090051,-3.23469015,,,
imu,297.098729,-0.0663949608,-9.662560331200002,2.5523179976,1.09921324,2.53416248,-3.10010577,,,
imu,297.107203,-0.0675912664,-9.648204664000001,2.5493272336,1.04687487,2.3995781,-3.00290594,,,
imu,297.115676,-0.068787572,-9.6434194416,2.533177108,0.9945364999999999,2.19022462,-2.98047521,,,
imu,297.12415,-0.0663949608,-9.666149248000002,2.5355697192,0.97210577,1.98087114,-2.99542903,,,
imu,297.132624,-0.068787572,-9.636241608,2.548130928,0.79265993,1.83880985,-3.06272122,,,
imu,297.141097,-0.06220789120000001,-9.6087265792,2.5594958312,0.80761375,1.77899457,-2.99542903,,,
imu,297.149571,-0.08673215600000002,-9.6009505928,2.5517198448,0.97958268,1.79394839,-3.13001341,,,
imu,297.158045,-0.101685976,-9.597959828800002,2.5535143032,1.00949032,1.8014253,-3.1225365,,,
imu,297.166519,-0.09630260080000001,-9.595567217600001,2.555308761600001,0.91229049,1.8014253,-3.14496723,,,
imu,297.174992,-0.1010878232,-9.591380148,2.5612902896,0.97210577,1.99582496,-3.18982869,,,
imu,297.183466,-0.1130508792,-9.597361676,2.5547106088,1.03939796,2.01077878,-3.20478251,,,
imu,297.19194,-0.1172379488,-9.605735815200001,2.562486595200001,1.07678251,2.0257326,-3.32441307,,,
imu,297.200413,-0.1064711984,-9.611119190400002,2.5618884424,1.20388998,2.1752708,-3.37675144,,,
imu,297.208887,-0.1064711984,-9.609922884800001,2.563084748,1.13659779,2.20517844,-3.54124346,,,
imu,297.217361,-0.09929336480000002,-9.61530626,2.557103220000001,1.24875144,2.30985518,-3.67582784,,,
imu,297.225835,-0.1052748928,-9.632054538400002,2.5577013728,1.19641307,2.38462428,-3.6459202,,,
imu,297.234308,-0.1052748928,-9.641624983200002,2.566075512,1.39081273,2.55659321,-3.54124346,,,
imu,297.242782,-0.09929336480000002,-9.6494009696,2.569066276,1.5179202,2.60893158,-3.71321239,,,
imu,297.251256,-0.08912476720000001,-9.666149248000002,2.57205704,1.28613599,2.45939338,-3.90013514,,,
imu,297.259729,-0.08972292000000001,-9.669738164800002,2.563084748,1.16650543,2.54163939,-3.97490424,,,
imu,297.268203,-0.08194693360000001,-9.667943706400001,2.580431179200001,1.12164397,2.6238854,-4.08705789,,,
imu,297.276677,-0.07656355840000001,-9.6470083584,2.569066276,0.91229049,2.63136231,-4.02724261,,,
imu,297.285151,-0.0735727944,-9.6428212888,2.576244109600001,0.82256757,2.66874686,-3.96742733,,,
imu,297.293624,-0.08194693360000001,-9.636241608,2.5852164016,0.7702292,2.63883922,-4.0197657,,,
imu,297.302098,-0.08015247520000002,-9.638036066400002,2.5852164016,0.44124516,2.50425484,-3.9449966,,,
imu,297.310572,-0.0783580168,-9.6117173432,2.5953849992,0.35152224,2.37714737,-4.0945348,,,
imu,297.319045,-0.09091922560000001,-9.6015487456,2.5941886936,0.40386061,2.43696265,-3.98238115,,,
imu,297.327519,-0.1052748928,-9.6159044128,2.6097406664,0.2468455,2.36219355,-3.98985806,,,
imu,297.335976,-0.113649032,-9.613511801600001,2.599572068800001,0.14964567,2.30985518,-4.13191935,,,
imu,297.344434,-0.1274065464,-9.576426328,2.6055535968,0.07487657,2.33228591,-4.08705789,,,
imu,297.352891,-0.1303973104,-9.554892827200002,2.597179457600001,0.25432241,2.41453192,-3.88518132,,,
imu,297.361348,-0.1303973104,-9.5602762024,2.595983152,0.46367589,2.61640849,-3.65339711,,,
imu,297.369805,-0.107667504,-9.559678049600002,2.5888053184,0.620691,2.79585433,-3.46647436,,,
imu,297.378262,-0.09630260080000001,-9.560874355200001,2.5768422624,0.94967504,2.85566961,-3.39918217,,,
imu,297.386719,-0.07895616960000001,-9.5740337168,2.5714588872,0.9646288599999999,2.84071579,-3.43656672,,,
imu,297.395177,-0.04964668240000001,-9.604539509600002,2.576244109600001,1.30856672,2.71360832,-3.44404363,,,
imu,297.403634,-0.03110394560000001,-9.621287788000002,2.5738514984,1.6674584,2.68370068,-3.50385891,,,
imu,297.412091,-0.0161501256,-9.61530626,2.5702625816,1.83195042,2.43696265,-3.63844329,,,
imu,297.420548,-0.026916876,-9.626671163200001,2.557103220000001,1.77961205,2.24256299,-3.69825857,,,
imu,297.429005,-0.0340947096,-9.6290637744,2.5618884424,1.92167334,1.99582496,-3.74312003,,,
imu,297.437463,-0.04187069600000001,-9.638036066400002,2.5523179976,1.87681188,1.76404075,-3.7954584,,,
imu,297.44592,-0.062806044,-9.6296619272,2.5505235392,1.76465823,1.577118,-3.80293531,,,
imu,297.454377,-0.05682451600000001,-9.6260730104,2.5469346224,1.54035093,1.18831868,-3.83284295,,,
imu,297.462834,-0.062806044,-9.626671163200001,2.551121692,1.46558183,1.08364194,-3.69825857,,,
imu,297.471291,-0.06101158560000001,-9.636241608,2.557103220000001,1.41324346,1.17336486,-3.58610492,,,
imu,297.479748,-0.062806044,-9.630858232800001,2.560093984,1.09921324,0.9341037399999998,-3.61601256,,,
imu,297.488206,-0.07775986400000001,-9.631456385600002,2.5636829008,0.9197674,0.7696117199999999,-3.51133582,,,
imu,297.496663,-0.08792846160000001,-9.633848996800001,2.566075512,0.9048135799999999,0.6724118899999998,-3.496382,,,
imu,297.50512,-0.09510629520000001,-9.6326526912,2.5714588872,0.9571519499999999,0.7397040799999997,-3.35432071,,,
imu,297.513577,-0.1124527264,-9.637437913600001,2.5672718176,0.77770611,0.6798887999999996,-3.53376655,,,
imu,297.522034,-0.1208268656,-9.630260080000001,2.575047804,0.8375213899999999,0.7995193599999997,-3.39170526,,,
imu,297.530492,-0.125612088,-9.634447149600001,2.5726551928,0.8524752099999999,0.94905756,-3.4216129,,,
imu,297.538961,-0.1387714496,-9.632054538400002,2.5726551928,0.73284465,1.09859576,-3.48890509,,,
imu,297.547431,-0.1363788384,-9.6434194416,2.5768422624,0.8375213899999999,1.41262598,-3.27955161,,,
imu,297.555901,-0.1309954632,-9.633848996800001,2.5714588872,0.8449983,1.62197946,-3.20478251,,,
imu,297.564371,-0.116639796,-9.612913648800001,2.57205704,0.97210577,1.85376367,-3.18235178,,,
imu,297.572841,-0.1208268656,-9.6326526912,2.584020096,0.9347212199999999,2.04068642,-3.33188998,,,
imu,297.581311,-0.101685976,-9.667943706400001,2.5965813048,1.09173633,2.19022462,-3.31693616,,,
imu,297.589781,-0.08374139200000001,-9.648802816800002,2.5846182488,0.8973366700000001,2.14536316,-3.60105874,,,
imu,297.598251,-0.08733030880000002,-9.606333968000001,2.581029332,0.63564482,2.25751681,-3.66835093,,,
imu,297.606721,-0.08972292000000001,-9.5985579816,2.580431179200001,0.8749059399999999,2.44443956,-3.68330475,,,
imu,297.615191,-0.0903210728,-9.6117173432,2.585814554400001,0.8524752099999999,2.48182411,-3.68330475,,,
imu,296.124077,,,,,,,92.9944388,-32.91674520000001,126.5947824
imu,296.22564,,,,,,,92.823538,-32.88012360000001,126.8389264
imu,296.327202,,,,,,,92.9334028,-33.38061880000001,126.326224
imu,296.428765,,,,,,,92.64043,-33.22192520000002,125.9478008
imu,296.530327,,,,,,,94.78889720000001,-33.95435720000002,125.6914496
imu,296.63192,,,,,,,92.4695292,-33.00219560000001,126.753476
imu,296.733452,,,,,,,94.837726,-34.5647172,123.5551896
imu,296.835015,,,,,,,92.6282228,-33.19751080000002,126.4605032
imu,297.62366,-0.07058203040000001,-9.609324732000001,2.5768422624,0.8524752099999999,2.61640849,-3.6459202,,,
imu,297.63213,-0.0634041968,-9.597361676,2.5756459568,0.77770611,2.61640849,-3.54872037,,,
imu,297.6406,-0.05861897440000001,-9.591978300800001,2.5732533456,0.91229049,2.45191647,-3.5711511,,,
imu,297.64907,-0.04785222400000001,-9.564463272000001,2.5702625816,1.12912088,2.48930102,-3.52628964,,,
imu,297.65754,-0.0275150288,-9.5812115504,2.5439438584,1.21136689,2.41453192,-3.58610492,,,
imu,297.66601,-0.0215335008,-9.597361676,2.5397567888,1.28613599,2.27994754,-3.67582784,,,
imu,297.67448,-0.0221316536,-9.596763523200002,2.5517198448,1.42072037,2.07059406,-3.6459202,,,
imu,297.68295,-0.0293094872,-9.5842023144,2.5469346224,1.42819728,1.94348659,-3.67582784,,,
imu,297.69142,-0.04545961280000001,-9.6087265792,2.543345705600001,1.47305874,1.70422547,-3.75807385,,,
imu,297.69989,-0.0526374464,-9.6296619272,2.5493272336,1.49548947,1.52477963,-3.83284295,,,
imu,297.708359,-0.0562263632,-9.623680399200001,2.5427475528,1.45810492,1.45748744,-3.81788913,,,
imu,297.716829,-0.0681894192,-9.6326526912,2.5427475528,1.61512003,1.45001053,-3.77302767,,,
imu,297.725299,-0.07297464160000001,-9.6470083584,2.543345705600001,1.78708896,1.46496435,-3.68330475,,,
imu,297.733769,-0.08374139200000001,-9.655980650400002,2.5385604832,1.45062801,1.47991817,-3.70573548,,,
imu,297.74259,-0.08792846160000001,-9.655382497600002,2.5475327752,1.42072037,1.56216418,-3.69078166,,,
imu,297.751411,-0.09390998960000001,-9.667345553600002,2.541551247200001,1.368382,1.38271834,-3.68330475,,,
imu,297.760232,-0.09390998960000001,-9.662560331200002,2.5505235392,1.2188438,1.51730272,-3.73564312,,,
imu,297.769053,-0.09869521200000002,-9.672130776000001,2.5475327752,1.11416706,1.64441019,-3.7206893,,,
imu,297.777874,-0.09570444800000001,-9.671532623200001,2.5547106088,0.80013684,1.61450255,-3.7954584,,,
imu,297.786695,-0.1094619624,-9.6775141512,2.5517198448,0.59078336,1.74908693,-3.72816621,,,
imu,297.795515,-0.1142471848,-9.669140012000002,2.555308761600001,0.41881443,1.75656384,-3.75807385,,,
imu,297.804336,-0.1058730456,-9.666149248000002,2.5642810536,0.29170696,1.77899457,-3.70573548,,,
imu,297.813157,-0.1034804344,-9.654186192000001,2.5594958312,0.31413769,1.98834805,-3.76555076,,,
imu,297.821978,-0.1034804344,-9.647606511200001,2.560093984,0.4861066199999999,2.18274771,-3.54872037,,,
imu,297.830799,-0.1028822816,-9.6248767048,2.5654773592,0.44124516,2.15284007,-3.57862801,,,
imu,297.83962,-0.1022841288,-9.618297024,2.5732533456,0.21693786,2.22760917,-3.57862801,,,
imu,297.848441,-0.09869521200000002,-9.610521037600002,2.5732533456,0.20946095,2.22013226,-3.69825857,,,
imu,297.857262,-0.09151737840000002,-9.591978300800001,2.563084748,0.34404533,2.42200883,-3.59358183,,,
imu,297.866083,-0.09749890640000002,-9.5812115504,2.5636829008,0.43376825,2.49677793,-3.62348947,,,
imu,297.874904,-0.09570444800000001,-9.594370912,2.5714588872,0.32909151,2.59397776,-3.59358183,,,
imu,297.883725,-0.1004896704,-9.593772759200002,2.578636720800001,0.35152224,2.55659321,-3.59358183,,,
imu,297.892545,-0.1058730456,-9.575230022400001,2.578636720800001,0.40386061,2.66874686,-3.66835093,,,
imu,297.901366,-0.10467674,-9.574631869600001,2.5744496512,0.5982602699999999,2.76594669,-3.69825857,,,
imu,297.910187,-0.09989151760000002,-9.572837411200002,2.583421943200001,0.9048135799999999,2.99025399,-3.70573548,,,
imu,297.919008,-0.1112564208,-9.5638651192,2.5822256376,0.9048135799999999,3.04259236,-3.91508896,,,
imu,297.927829,-0.1142471848,-9.596763523200002,2.563084748,1.00201341,3.13231528,-3.92256587,,,
imu,297.93665,-0.1070693512,-9.642223136000002,2.575047804,1.39828964,3.45382241,-3.90013514,,,
imu,297.945114,-0.11963056,-9.637437913600001,2.5852164016,1.45810492,3.64822207,-3.93004278,,,
imu,297.953577,-0.13458438,-9.5949690648,2.580431179200001,1.50296638,3.91739083,-4.04219643,,,
imu,297.962041,-0.1441548248,-9.6326526912,2.5792348736,1.48053565,4.15665195,-4.102011709999999,,,
imu,297.970504,-0.1369769912,-9.659569567200002,2.5768422624,1.36090509,4.56040509,-4.33379592,,,
imu,297.978968,-0.1220231712,-9.641026830400001,2.5846182488,1.2936129,4.95668132,-4.47585721,,,
imu,297.987431,-0.146547436,-9.6218859408,2.5953849992,1.07678251,5.12117334,-4.65530305,,,
imu,297.995895,-0.128602852,-9.631456385600002,2.597179457600001,1.02444414,5.547357209999999,-4.90204108,,,
imu,298.004358,-0.113649032,-9.635045302400002,2.6091425136,0.7552753799999999,5.90624889,-5.08148692,,,
imu,298.012822,-0.1112564208,-9.632054538400002,2.6085443608,0.7253677399999999,6.13055619,-5.20859439,,,
imu,298.021285,-0.1280046992,-9.6326526912,2.6103388192,0.44872207,6.17541765,-5.47028624,,,
imu,298.029749,-0.1232194768,-9.635643455200002,2.6270870976,0.3739529699999999,6.47449405,-5.53010152,,,
imu,298.038212,-0.125612088,-9.614109954400002,2.6181148056,0.29170696,6.728708989999999,-5.48524006,,,
imu,298.046676,-0.1297991576,-9.593772759200002,2.6073480552,0.22441477,7.080123759999999,-5.38804023,,,
imu,298.05514,-0.1333880744,-9.577024480800002,2.604955444,0.17955331,7.319384879999999,-5.31327113,,,
imu,298.063603,-0.11963056,-9.5656595776,2.5894034712,0.57582954,7.767999479999999,-5.10391765,,,
imu,298.072067,-0.1124527264,-9.553696521600001,2.585814554400001,0.79265993,8.03716824,-5.05157928,,,
imu,298.08053,-0.0855358504,-9.5590798968,2.5846182488,0.9646288599999999,8.29886009,-5.23102512,,,
imu,298.088994,-0.06220789120000001,-9.575230022400001,2.575047804,1.30108981,8.44839829,-5.27588658,,,
imu,298.097457,-0.03349655680000001,-9.564463272000001,2.57205704,1.60016621,8.50073666,-5.50767079,,,
imu,298.105921,-0.02990764000000001,-9.5590798968,2.5654773592,1.86933497,8.47830593,-5.64973208,,,
imu,298.114384,-0.0382817792,-9.572239258400002,2.5738514984,2.13850373,8.40353683,-5.79927028,,,
imu,298.122848,-0.05443190480000001,-9.574631869600001,2.5642810536,2.31047266,8.34372155,-5.91142393,,,
imu,298.131311,-0.0753672528,-9.5776226336,2.5606921368,2.28804193,8.25399863,-6.031054489999999,,,
imu,298.139775,-0.0753672528,-9.5949690648,2.563084748,2.35533412,8.351198459999999,-6.098346680000001,,,
imu,298.148246,-0.0741709472,-9.6039413568,2.5577013728,2.34785721,8.38858301,-6.23293106,,,
imu,298.156717,-0.0592171272,-9.612913648800001,2.5636829008,2.24318047,8.27642936,-6.360038530000001,,,
imu,298.165189,-0.05443190480000001,-9.624278552000002,2.562486595200001,2.24318047,8.17922953,-6.270315609999999,,,
imu,298.173628,-0.03947808480000001,-9.616502565600001,2.5594958312,2.20579592,8.044645150000001,-6.2628387,,,
imu,298.182099,-0.02871133440000001,-9.630260080000001,2.563084748,2.08616536,7.887630039999999,-6.270315609999999,,,
imu,298.19057,-0.0143556672,-9.6326526912,2.5594958312,2.08616536,7.603507459999999,-6.08339286,,,
imu,298.199042,-0.0065796808,-9.636839760800001,2.5577013728,1.99644244,7.32686179,-6.008623759999999,,,
imu,298.207513,-0.0011963056,-9.651195428000001,2.5547106088,1.83942733,6.94553938,-5.97871612,,,
imu,298.215984,0.0011963056,-9.644017594400001,2.555308761600001,1.72727368,6.54926315,-5.70954736,,,
imu,298.224455,0.01495382,-9.638036066400002,2.5588976784,1.63755076,6.272617479999999,-5.38804023,,,
imu,298.232926,0.0125612088,-9.651195428000001,2.555308761600001,1.71979677,5.8389567,-5.05905619,,,
imu,298.241397,0.0107667504,-9.639830524800002,2.548729080800001,1.75718132,5.45763429,-4.83474889,,,
imu,298.249869,0.0203371952,-9.635045302400002,2.5439438584,1.69736604,5.001542779999999,-4.75250288,,,
imu,298.25834,0.0281131816,-9.626671163200001,2.5409530944,1.7422275,4.530497449999999,-4.64034923,,,
imu,298.266811,0.0065796808,-9.647606511200001,2.551121692,1.82447351,4.17908268,-4.453426479999999,,,
imu,298.275282,0.007775986400000001,-9.667345553600002,2.5499253864,1.88428879,3.6706528,-4.430995749999999,,,
imu,298.283753,0.0155519728,-9.641026830400001,2.5439438584,1.77213514,3.19960747,-4.3936112,,,
imu,298.292224,0.003588916800000001,-9.6009505928,2.543345705600001,1.5926893,2.78837742,-4.21416536,,,
imu,298.300696,-0.0191408896,-9.588987536800001,2.536167872,1.71979677,2.45191647,-4.034719519999999,,,
imu,298.309167,-0.0131593616,-9.609922884800001,2.5493272336,1.69736604,2.19022462,-3.77302767,,,
imu,298.317638,-0.0215335008,-9.625474857600002,2.539158636000001,1.76465823,1.98087114,-3.65339711,,,
imu,298.326109,-0.026916876,-9.605735815200001,2.5289900384,1.76465823,1.68179474,-3.41413599,,,
imu,298.33458,-0.0263187232,-9.596165370400001,2.524204816,1.86933497,1.39019525,-3.42908981,,,
imu,298.343051,-0.03289840400000001,-9.593772759200002,2.5307844968,1.92915025,1.15841104,-3.31693616,,,
imu,298.351507,-0.0382817792,-9.594370912,2.521214052,1.97401171,0.8144731799999998,-3.46647436,,,
imu,298.359963,-0.06041343280000001,-9.599156134400001,2.5116436072,2.10859609,0.7322271699999998,-3.43656672,,,
imu,298.368419,-0.07716171120000001,-9.588389384000001,2.5146343712,2.27308811,0.6724118899999998,-3.41413599,,,
imu,298.376875,-0.09151737840000002,-9.591978300800001,2.509250996,2.407672489999999,0.66493498,-3.47395127,,,
imu,298.385331,-0.1130508792,-9.593772759200002,2.5146343712,2.47496468,0.7696117199999999,-3.5711511,,,
imu,298.393787,-0.1244157824,-9.6051376624,2.5158306768,2.49739541,0.78456554,-3.59358183,,,
imu,298.402243,-0.1244157824,-9.6009505928,2.509250996,2.51982614,0.9415806499999997,-3.63096638,,,
imu,298.410699,-0.1303973104,-9.617698871200002,2.5164288296,2.6394567,1.11354958,-3.66835093,,,
imu,298.419155,-0.1309954632,-9.630858232800001,2.4745581336,2.76656417,1.18831868,-3.80293531,,,
imu,298.427611,-0.1357806856,-9.644017594400001,2.4919045648,2.87871782,1.46496435,-3.80293531,,,
imu,298.436066,-0.13458438,-9.633848996800001,2.4931008704,2.81890254,1.59207182,-3.97490424,,,
imu,296.936546,,,,,,,92.1399348,-33.97877160000002,123.762712
imu,297.038109,,,,,,,91.5173676,-33.14868200000001,125.8257288
imu,297.139702,,,,,,,91.6516468,-33.39282600000002,126.1064944
imu,297.241234,,,,,,,91.43191719999999,-33.67359160000001,125.9111792
imu,297.342827,,,,,,,91.9202052,-32.77025880000002,125.6182064
imu,297.444359,,,,,,,91.846962,-32.9533668,125.5693776
imu,297.545921,,,,,,,91.3220524,-32.9533668,126.1064944
imu,297.647484,,,,,,,93.88556439999999,-33.61255560000001,125.4595128
imu,298.444522,-0.1262102408,-9.6523917336,2.460202466400001,2.87124091,1.85376367,-3.98985806,,,
imu,298.452978,-0.1268083936,-9.6703363176,2.487717495200001,2.84881018,1.9509635,-3.9449966,,,
imu,298.461434,-0.1052748928,-9.651793580800001,2.4787452032,2.77404108,1.97339423,-4.18425772,,,
imu,298.46989,-0.107667504,-9.658373261600001,2.4661839944,2.75908726,2.11545552,-4.124442439999999,,,
imu,298.478346,-0.101685976,-9.694860582400002,2.455417244,2.73665653,2.07059406,-4.10948862,,,
imu,298.486802,-0.08972292000000001,-9.7122070136,2.4817359672,2.42262631,2.07059406,-4.18425772,,,
imu,298.495258,-0.08194693360000001,-9.682299373600001,2.4805396616,2.19831901,2.08554788,-4.19921154,,,
imu,298.503714,-0.08254508640000002,-9.661364025600001,2.470371064,2.2656112,2.16779389,-4.034719519999999,,,
imu,298.51217,-0.08254508640000002,-9.6499991224,2.4667821472,1.99644244,2.13040934,-3.95995042,,,
imu,298.520626,-0.07297464160000001,-9.669140012000002,2.4691747584,1.87681188,2.0257326,-3.90013514,,,
imu,298.529081,-0.08015247520000002,-9.639830524800002,2.4536227856,1.83195042,2.04816333,-3.83284295,,,
imu,298.537537,-0.06460050240000001,-9.627867468800002,2.4590061608,1.65998149,1.86124058,-3.88518132,,,
imu,298.545993,-0.07058203040000001,-9.625474857600002,2.458408008,1.78708896,1.89114822,-3.81041222,,,
imu,298.554458,-0.05981528000000001,-9.632054538400002,2.4500338688,1.8169966,1.75656384,-3.84779677,,,
imu,298.562923,-0.0550300576,-9.634447149600001,2.4512301744,1.86185806,1.61450255,-4.034719519999999,,,
imu,298.571388,-0.05802082160000001,-9.636839760800001,2.4536227856,1.99644244,1.56216418,-3.97490424,,,
imu,298.579853,-0.0634041968,-9.6296619272,2.45242648,1.75718132,1.34533379,-4.0945348,,,
imu,298.588317,-0.06220789120000001,-9.632054538400002,2.449435716,1.90671952,1.25561087,-4.02724261,,,
imu,298.596782,-0.0741709472,-9.636241608,2.447043104800001,1.97401171,1.22570323,-4.04967334,,,
imu,298.605247,-0.0753672528,-9.6499991224,2.447043104800001,2.16841137,1.03130357,-4.04967334,,,
imu,298.613712,-0.07716171120000001,-9.680504915200002,2.4458467992,2.22074974,1.00139593,-3.95995042,,,
imu,298.622177,-0.07297464160000001,-9.689477207200001,2.450632021600001,2.24318047,0.8892422799999999,-3.98238115,,,
imu,298.630641,-0.07955432240000002,-9.6876827488,2.4482394104,2.24318047,0.98644211,-3.96742733,,,
imu,298.639106,-0.0813487808,-9.682897526400001,2.446444952,2.07868845,0.8967191899999998,-4.16182699,,,
imu,298.647571,-0.08194693360000001,-9.661364025600001,2.4368745072,2.03382699,0.78456554,-4.04219643,,,
imu,298.656036,-0.080750628,-9.6458120528,2.428500368,1.91419643,0.8967191899999998,-3.73564312,,,
imu,298.664501,-0.080750628,-9.666149248000002,2.4362763544,1.82447351,0.7397040799999997,-3.7954584,,,
imu,298.672966,-0.0747691,-9.667345553600002,2.4380708128,1.74970441,0.7696117199999999,-3.77302767,,,
imu,298.68143,-0.06699311360000001,-9.656578803200002,2.440463424,1.68988913,0.7770886299999997,-3.98985806,,,
imu,298.689895,-0.08673215600000002,-9.651793580800001,2.4446504936,1.5926893,0.5976427899999996,-4.0945348,,,
imu,298.69836,-0.08912476720000001,-9.672130776000001,2.4578098552,1.48053565,0.4256738599999998,-4.169303899999999,,,
imu,298.706825,-0.09570444800000001,-9.676915998400002,2.454819091200001,1.33099745,0.4481045899999998,-4.11696553,,,
imu,298.71529,-0.1112564208,-9.658373261600001,2.446444952,1.0693056,0.4630584099999999,-4.034719519999999,,,
imu,298.723754,-0.1094619624,-9.6159044128,2.4488375632,1.00949032,0.5752120599999997,-3.85527368,,,
imu,298.732219,-0.116639796,-9.606932120800002,2.4566135496,1.04687487,0.8294269999999999,-3.69825857,,,
imu,298.740684,-0.1052748928,-9.61530626,2.4380708128,1.24127453,0.9191499199999997,-3.51881273,,,
imu,298.749149,-0.08254508640000002,-9.633848996800001,2.4320892848,1.58521239,1.04625739,-3.45899745,,,
imu,298.757971,-0.0723764888,-9.637437913600001,2.4482394104,1.72727368,1.01634975,-3.52628964,,,
imu,298.766793,-0.06220789120000001,-9.633250844,2.443454188,1.83195042,0.9640113799999996,-3.63844329,,,
imu,298.775616,-0.0526374464,-9.620689635200002,2.4362763544,1.98148862,0.7995193599999997,-3.91508896,,,
imu,298.784438,-0.05682451600000001,-9.631456385600002,2.4261077568,2.13102682,0.72475026,-4.012288789999999,,,
imu,298.79326,-0.05802082160000001,-9.647606511200001,2.4171354648,2.16093446,0.5378275100000001,-4.19173463,,,
imu,298.802082,-0.07656355840000001,-9.642223136000002,2.4159391592,2.10111918,0.2462280199999998,-4.49828794,,,
imu,298.810904,-0.08792846160000001,-9.638634219200002,2.4129483952,2.38524176,0.2237972899999998,-4.363703559999999,,,
imu,298.819727,-0.0980970592,-9.6499991224,2.4117520896,2.3403803,0.2088434699999997,-4.41604193,,,
imu,298.828549,-0.09749890640000002,-9.657775108800001,2.3997890336,2.14598064,0.2088434699999997,-4.41604193,,,
imu,298.837371,-0.1058730456,-9.6643547896,2.410555784,2.10859609,0.1490281899999997,-4.363703559999999,,,
imu,298.846193,-0.0855358504,-9.658971414400002,2.4177336176,2.13850373,0.04435144999999974,-4.453426479999999,,,
imu,298.855016,-0.1022841288,-9.672130776000001,2.4153410064,1.95905789,0.006966899999999665,-4.29641137,,,
imu,298.863838,-0.1070693512,-9.6709344704,2.4302948264,1.78708896,0.006966899999999665,-4.22911918,,,
imu,298.87266,-0.116639796,-9.669140012000002,2.4219206872,1.65250458,-0.2173404000000003,-4.40108811,,,
imu,298.881482,-0.1250139352,-9.6667474008,2.4308929792,1.5179202,-0.3668786000000002,-4.3936112,,,
imu,298.890305,-0.125612088,-9.66016772,2.4290985208,1.55530475,-0.2995864100000003,-4.363703559999999,,,
imu,298.899127,-0.1333880744,-9.648204664000001,2.4302948264,1.43567419,-0.43417079,-4.40108811,,,
imu,298.907949,-0.1453511304,-9.655382497600002,2.4452486464,1.5926893,-0.3444478700000002,-4.22911918,,,
imu,298.916771,-0.1477437416,-9.651195428000001,2.4350800488,1.61512003,-0.2397711300000003,-4.04219643,,,
imu,298.925593,-0.1441548248,-9.6470083584,2.4386689656,1.64502767,-0.15004821,-3.89265823,,,
imu,298.934416,-0.131593616,-9.648204664000001,2.440463424,1.64502767,-0.17247894,-3.93004278,,,
imu,298.943238,-0.1232194768,-9.639232372,2.4446504936,1.73475059,-0.02294074000000013,-3.73564312,,,
imu,298.95206,-0.1244157824,-9.6296619272,2.4446504936,1.77961205,-0.1201405700000002,-3.85527368,,,
imu,298.960539,-0.1297991576,-9.667345553600002,2.45242648,1.86933497,-0.2248173100000002,-3.9449966,,,
imu,298.969018,-0.1268083936,-9.672728928800002,2.4440523408,2.0413039,-0.1425713000000002,-4.012288789999999,,,
imu,298.977497,-0.1190324072,-9.642223136000002,2.450632021600001,1.80951969,-0.17247894,-4.00481188,,,
imu,298.985975,-0.1399677552,-9.61530626,2.4428560352,1.8169966,-0.05284837999999992,-3.97490424,,,
imu,298.994454,-0.1495382,-9.620091482400001,2.4446504936,1.9665348,-0.03041764999999996,-4.00481188,,,
imu,299.002933,-0.137575144,-9.619493329600001,2.4302948264,2.1908421,-0.03789456000000024,-3.93004278,,,
imu,299.011412,-0.1303973104,-9.608128426400002,2.416537312,2.27308811,-0.02294074000000013,-3.82536604,,,
imu,299.019891,-0.1118545736,-9.613511801600001,2.4279022152,2.18336519,0.05930526999999985,-3.91508896,,,
imu,299.028369,-0.09510629520000001,-9.630858232800001,2.42251884,2.27308811,0.02939763000000006,-3.97490424,,,
imu,299.036848,-0.06041343280000001,-9.623680399200001,2.4177336176,2.35533412,0.07425908999999997,-3.8702275,,,
imu,299.045327,-0.04187069600000001,-9.627269316000001,2.4159391592,2.43758013,0.02192071999999978,-3.78050458,,,
imu,299.053806,-0.020935348,-9.6290637744,2.409957631200001,2.46748777,-0.3070633200000001,-3.95247351,,,
imu,299.062285,-0.007775986400000001,-9.621287788000002,2.3944056584,2.42262631,-0.6285704500000002,-4.102011709999999,,,
imu,299.070763,0.008972292000000002,-9.6087265792,2.3944056584,2.58711833,-0.90521612,-4.25154991,,,
imu,299.079242,0.0173464312,-9.609324732000001,2.371675852,2.63197979,-1.30896926,-4.30388828,,,
imu,299.087721,0.0161501256,-9.588987536800001,2.3579183376,2.87871782,-1.83235296,-4.408565019999999,,,
imu,299.0962,0.0203371952,-9.554892827200002,2.34774974,2.77404108,-2.34825975,-4.6179185,,,
imu,299.104679,0.0257205704,-9.5429297712,2.321431016800001,2.83385636,-2.88659727,-4.70764142,,,
imu,299.113157,0.0161501256,-9.5447242296,2.325019933600001,2.88619473,-3.26044277,-4.715118329999999,,,
imu,299.121636,0.0143556672,-9.538742701600002,2.3262162392,2.80394872,-3.85111866,-4.77493361,,,
imu,299.130115,0.0017944584,-9.541135312800002,2.3292070032,2.5646876,-4.59133275,-4.84970271,,,
imu,299.138594,-0.011963056,-9.522592576000001,2.3363848368,2.53477996,-5.144624090000001,-4.89456417,,,
imu,299.147073,-0.0305057928,-9.544126076800001,2.341768212,2.45253395,-5.65305397,-5.021671639999999,,,
imu,299.155551,-0.06699311360000001,-9.596165370400001,2.3519368096,2.59459524,-6.213822220000001,-5.1413022,,,
imu,299.164024,-0.080750628,-9.613511801600001,2.3609091016,2.58711833,-6.59514463,-5.31327113,,,
imu,299.172496,-0.122621324,-9.5590798968,2.36270356,2.57964142,-6.976467039999999,-5.3656095,,,
imu,299.180969,-0.1842310624,-9.578220786400001,2.3818444496,2.75161035,-7.350312539999999,-5.500193879999999,,,
imu,299.189441,-0.2075590216,-9.6290637744,2.3854333664,3.25256332,-7.36526636,-5.5151477,,,
imu,299.197914,-0.2326814392,-9.6470083584,2.383040755200001,3.82080848,-7.245635800000001,-5.328224949999999,,,
imu,299.206386,-0.2643835376,-9.675121540000001,2.3848352136,4.40400746,-7.305451079999999,-4.999240909999999,,,
imu,299.214859,-0.2799355104,-9.767835224,2.4003871864,4.97972953,-7.11852833,-4.90204108,,,
imu,299.223331,-0.2655798432,-9.8402117128,2.4057705616,5.69751289,-6.77459047,-4.65530305,,,
imu,299.231803,-0.2655798432,-9.8850731728,2.3842370608,6.26575805,-6.520375530000001,-4.31136519,,,
imu,299.240276,-0.2446444952,-9.9430939944,2.3991908808,6.64708046,-6.303545140000001,-3.98238115,,,
imu,299.248748,-0.2350740504,-10.0262372336,2.4177336176,6.79661866,-6.26616059,-4.10948862,,,
imu,299.257221,-0.20935348,-10.0507614984,2.416537312,6.65455737,-6.37831424,-4.23659609,,,
imu,297.749077,,,,,,,91.0901156,-33.14868200000001,126.0454584
imu,297.850609,,,,,,,94.2151588,-34.14967240000002,123.5673968
imu,297.952171,,,,,,,91.30984520000001,-33.16088920000002,126.2529808
imu,298.053734,,,,,,,91.52957479999999,-33.90552840000001,123.457532
imu,298.155296,,,,,,,90.90700760000001,-33.45386200000002,125.3984768
imu,298.256828,,,,,,,90.57741320000001,-33.53931240000001,125.2153688
imu,298.358421,,,,,,,90.24781879999999,-33.86890680000001,125.1299184
imu,298.460106,,,,,,,89.97926039999999,-33.83228520000002,124.86136
imu,299.265619,-0.227298064,-9.997525899200001,2.380648144,6.38538861,-6.363360419999999,-4.31136519,,,
imu,299.274091,-0.2530186344000001,-9.906008520800002,2.34774974,6.07135839,-6.39326806,-4.37865738,,,
imu,299.282564,-0.2584020096,-9.830641268,2.3172439472,5.6302207,-6.61757536,-4.715118329999999,,,
imu,299.291036,-0.2745521352,-9.761853696000001,2.2837473904,5.30123666,-6.625052269999999,-4.8422258,,,
imu,299.299509,-0.3098431504,-9.680504915200002,2.2556342088,4.97225262,-6.68486755,-4.89456417,,,
imu,299.307981,-0.3301803456000001,-9.6075302736,2.2358951664,4.61336094,-6.67739064,-4.84970271,,,
imu,299.316454,-0.3570972216000001,-9.551303910400001,2.2059875264,4.47877656,-6.565236990000001,-4.87961035,,,
imu,299.324926,-0.3732473472,-9.5082369088,2.192230012,4.36662291,-6.25120677,-4.50576485,,,
imu,299.333398,-0.4019586816,-9.453206851200001,2.1766780392,4.25446926,-6.02689947,-4.28145755,,,
imu,299.341871,-0.4043512928,-9.409541696800002,2.1521537744,4.31428454,-5.555854139999999,-3.85527368,,,
imu,299.350343,-0.4109309736,-9.3754469872,2.1258350512,4.45634583,-5.12967027,-3.38422835,,,
imu,299.358816,-0.3983697648000001,-9.364680236800002,2.10848862,4.5834533,-4.57637893,-2.84589083,,,
imu,299.367267,-0.3899956256000001,-9.346137500000001,2.087553272,4.83019133,-4.1053336,-2.62906044,,,
imu,299.375717,-0.3672658192000001,-9.344941194400002,2.0737957576,5.0320679,-3.69410355,-2.20287657,,,
imu,299.384168,-0.3343674152,-9.382624820800002,2.0672160768,5.49563632,-3.11838148,-1.73930815,,,
imu,299.392619,-0.305057928,-9.4250936696,2.0660197712,5.86200491,-2.81182817,-1.50752394,,,
imu,299.40107,-0.2859170384,-9.468758824,2.048673340000001,6.21341968,-2.57256705,-1.54490849,,,
imu,299.409521,-0.2554112456,-9.527377798400002,2.0558511736,6.3031426,-2.28844447,-1.52247776,,,
imu,299.417972,-0.2320832864,-9.618895176800002,2.0540567152,6.54988063,-2.22115228,-1.48509321,,,
imu,299.426422,-0.2195220776,-9.727160833600001,2.0731976048,6.7517572,-2.22115228,-1.79164652,,,
imu,299.434873,-0.1848292152,-9.8264541984,2.1019089392,6.7517572,-2.28096756,-2.18044584,,,
imu,299.443324,-0.1680809368,-9.8778953392,2.112675689600001,6.66951119,-2.29592138,-2.35241477,,,
imu,299.451775,-0.1549215752,-9.911391896000003,2.1306202736,6.40781934,-2.6099516,-2.58419898,,,
imu,299.460226,-0.1537252696,-9.970609023200002,2.159331608,6.01902002,-2.85668963,-2.98047521,,,
imu,299.468677,-0.1591086448,-10.0346113728,2.1718928168,5.71246671,-3.25296586,-3.36179762,,,
imu,299.477127,-0.1698753952,-10.0501633456,2.188042942400001,5.33862121,-3.52213462,-3.6459202,,,
imu,299.485578,-0.1680809368,-10.045976276,2.2059875264,4.85262206,-3.79130338,-3.93004278,,,
imu,299.494029,-0.1806421456,-10.0274335392,2.2047912208,4.48625347,-4.26234871,-4.102011709999999,,,
imu,299.50248,-0.2021756464,-9.9813757736,2.1970152344,3.9853005,-4.54647129,-4.079580979999999,,,
imu,299.510931,-0.227298064,-9.926345716,2.1958189288,3.61893191,-4.7034864,-4.012288789999999,,,
imu,299.519382,-0.257205704,-9.868923047200001,2.1934263176,3.14788658,-4.92031679,-4.0945348,,,
imu,299.527832,-0.2799355104,-9.8162856008,2.180266956,2.96844074,-4.92031679,-3.66087402,,,
imu,299.536283,-0.2913004136,-9.760059237600002,2.1575371496,2.76656417,-4.67357876,-3.14496723,,,
imu,299.544734,-0.3008708584000001,-9.719983000000001,2.1521537744,2.7889949,-4.63619421,-2.79355246,,,
imu,299.553185,-0.2895059552,-9.6643547896,2.1330128848,3.00582529,-4.28477944,-2.27764567,,,
imu,299.561636,-0.2847207328,-9.6051376624,2.1186572176,3.14788658,-4.09037978,-1.87389253,,,
imu,299.570462,-0.2715613712,-9.550705757600001,2.0959274112,3.49930135,-3.85859557,-1.29069355,,,
imu,299.579288,-0.2590001624000001,-9.5082369088,2.069608688,3.95539286,-3.70158046,-1.05143243,,,
imu,299.588114,-0.2518223288000001,-9.472347740800002,2.0414955064,4.374099820000001,-3.48475007,-0.9243249599999999,,,
imu,299.59694,-0.2368685088,-9.4490197816,2.0199620056,4.75542223,-3.36511951,-1.14115535,,,
imu,299.605767,-0.2338777448,-9.435860420000001,2.0020174216,5.15917537,-3.26044277,-1.23087827,,,
imu,298.569346,,,,,,,89.9060172,-33.71021320000001,125.532756
imu,298.663035,,,,,,,92.49394360000001,-34.62575320000001,124.9712248
imu,298.764567,,,,,,,90.38209800000001,-33.91773560000002,125.532756
imu,298.866191,,,,,,,93.1409252,-35.13845560000001,122.9326224
imu,298.967723,,,,,,,90.57741320000001,-34.38160920000002,125.6059992
imu,299.069285,,,,,,,90.15016120000001,-35.01638360000001,123.0058656
imu,299.170848,,,,,,,90.2966476,-34.95534760000001,125.1787472
imu,299.272441,,,,,,,91.37088120000001,-35.23611320000002,125.8257288
imu,299.373973,,,,,,,91.7493044,-36.00516680000001,126.204152
imu,299.475535,,,,,,,92.4451148,-35.90750920000001,126.4238816
imu,299.58491,,,,,,,93.2263756,-36.00516680000001,125.9844224
