Type,Timestamp,Data Accelerometer X,Data Accelerometer Y,Data Accelerometer Z,Data Gyroscope X,Data Gyroscope Y,Data Gyroscope Z,Data Magnetometer X,Data Magnetometer Y,Data Magnetometer Z
imu,343.858248,-1.034804344,-9.616502565600001,2.374666616,-0.19429219,0.6574580699999997,-3.43656672,,,
imu,343.866732,-1.0276265104,-9.620091482400001,2.3615072544,-0.19429219,0.7920424499999998,-3.20478251,,,
imu,343.875216,-1.0270283576,-9.6224840936,2.3591146432,-0.01484635000000001,0.9116730099999999,-3.08515195,,,
imu,343.8837,-0.998915176,-9.6051376624,2.3740684632,0.27675314,1.07616503,-2.90570611,,,
imu,343.892184,-0.9869521200000001,-9.597361676,2.3728721576,0.31413769,0.9714882899999999,-3.01038285,,,
imu,343.900668,-0.9714001472000001,-9.606333968000001,2.374666616,0.68798319,0.9789651999999998,-2.85336774,,,
imu,343.909152,-0.9666149248000001,-9.614708107200002,2.3698813936,0.7702292,0.9191499199999997,-2.98795212,,,
imu,343.917636,-0.9582407856000001,-9.612913648800001,2.362105407200001,0.88985976,0.6873657099999999,-3.11505959,,,
imu,343.926119,-0.9636241608000001,-9.618895176800002,2.3513386568,0.9945364999999999,0.6275504299999999,-3.10010577,,,
imu,343.934603,-0.9708019944000001,-9.626671163200001,2.353731268,0.9870595899999999,0.6574580699999997,-3.15244414,,,
imu,343.943087,-0.9684093832000001,-9.632054538400002,2.3561238792,0.94219813,0.5976427899999996,-3.07019813,,,
imu,343.951571,-0.9791761336000001,-9.641026830400001,2.3573201848,0.97210577,0.6051196999999999,-3.0477674,,,
imu,343.960055,-0.9743909112000002,-9.66016772,2.3525349624,1.00201341,0.6275504299999999,-2.86084465,,,
imu,343.968539,-0.9456795768000001,-9.680504915200002,2.3591146432,0.83004448,0.5079198699999998,-2.77112173,,,
imu,343.977023,-0.9492684936000001,-9.681103068,2.3609091016,0.65059864,0.47801223,-2.63653735,,,
imu,343.985507,-0.9420906600000001,-9.673925234400002,2.3680869352,0.33656842,0.3434278499999999,-2.70382954,,,
imu,343.993991,-0.9319220624000001,-9.678112304,2.3812462968,0.11226112,0.21632038,-2.65149117,,,
imu,344.002474,-0.9396980488000001,-9.687084596000002,2.389620436,-0.11952309,0.21632038,-2.60662971,,,
imu,344.010958,-0.9420906600000001,-9.6745233872,2.3884241304,-0.2765382,0.1415512799999998,-2.77112173,,,
imu,344.019442,-0.9396980488000001,-9.638634219200002,2.4033779504,-0.37373803,-0.04537147000000008,-2.80850628,,,
imu,344.027926,-0.9486703408000001,-9.608128426400002,2.4039761032,-0.60552224,-0.1575251200000003,-2.95804448,,,
imu,344.03641,-0.9582407856000001,-9.605735815200001,2.3932093528,-0.47841477,-0.1425713000000002,-3.01038285,,,
imu,344.044894,-0.9672130776000001,-9.583006008800002,2.389620436,-0.37373803,-0.1051867500000001,-2.99542903,,,
imu,344.053378,-0.9725964528000002,-9.567454036,2.37765738,-0.14195382,-0.1650020300000001,-2.92813684,,,
imu,344.061764,-0.9702038416000002,-9.536948243200001,2.3854333664,0.14964567,-0.1051867500000001,-2.98795212,,,
imu,344.070222,-0.963026008,-9.551303910400001,2.362105407200001,0.45619898,-0.1051867500000001,-2.9729983,,,
imu,344.078679,-0.9636241608000001,-9.561472508000001,2.3561238792,0.65059864,-0.04537147000000008,-2.91318302,,,
imu,344.087136,-0.9612315496000001,-9.596165370400001,2.371675852,0.94219813,-0.03789456000000024,-2.90570611,,,
imu,344.095593,-0.9474740352000001,-9.6458120528,2.3710776992,1.1440747,-0.05284837999999992,-2.71130645,,,
imu,344.10405,-0.9498666464000002,-9.667345553600002,2.36270356,1.19641307,-0.007986920000000008,-2.60662971,,,
imu,344.112507,-0.9702038416000002,-9.678112304,2.3680869352,1.15155161,0.11164364,-2.4496146,,,
imu,344.120965,-0.9606333968,-9.724170069600001,2.3991908808,1.07678251,0.1639820099999998,-2.11315365,,,
imu,344.129422,-0.9510629520000001,-9.772620446400001,2.413546548,0.9571519499999999,0.2237972899999998,-2.06829219,,,
imu,344.137879,-0.9367072848000002,-9.797742864000002,2.4308929792,0.6954601,0.2237972899999998,-2.05333837,,,
imu,344.146336,-0.9325202152000002,-9.8013317808,2.4512301744,0.41133752,0.3060432999999998,-2.05333837,,,
imu,344.154793,-0.9408943544,-9.7815927384,2.458408008,0.20946095,0.21632038,-2.13558438,,,
imu,344.163251,-0.9331183680000001,-9.7295534448,2.4590061608,-0.23167674,0.13407437,-2.27764567,,,
imu,344.171708,-0.9390998960000001,-9.684093832000002,2.4631932304,-0.49336859,0.1864127399999997,-2.36736859,,,
imu,344.180165,-0.9438851184000001,-9.630858232800001,2.4518283272,-0.43355331,0.1789358299999999,-2.60662971,,,
imu,344.188622,-0.9516611048000001,-9.583604161600002,2.4452486464,-0.34383039,0.41819695,-2.64401426,,,
imu,344.197079,-0.9480721880000001,-9.541135312800002,2.4320892848,-0.26906129,0.52287369,-2.69635263,,,
imu,344.205536,-0.9385017432000002,-9.512423978400001,2.4213225344,0.02253820000000001,0.4854891399999999,-2.80850628,,,
imu,344.213994,-0.9325202152000002,-9.502853533600002,2.4087613256,0.45619898,0.6350273399999997,-2.95804448,,,
imu,344.222451,-0.9175663952000002,-9.499862769600002,2.3908167416,0.9646288599999999,0.72475026,-2.89075229,,,
imu,344.230908,-0.9050051864,-9.514218436800002,2.374666616,1.40576655,0.72475026,-2.93561375,,,
imu,344.239365,-0.8930421304000001,-9.5501076048,2.3728721576,1.91419643,0.76213481,-2.93561375,,,
imu,344.247822,-0.8984255056000002,-9.575230022400001,2.3872278248,2.17588828,0.7770886299999997,-2.9729983,,,
imu,344.25628,-0.8876587552000001,-9.589585689600002,2.3722740048,2.31794957,0.64250425,-3.08515195,,,
imu,344.264737,-0.8960328944000001,-9.627269316000001,2.3848352136,2.4151494,0.64250425,-3.04029049,,,
imu,344.273199,-0.9097904088000002,-9.658971414400002,2.3938075056,2.18336519,0.4854891399999999,-3.0477674,,,
imu,344.281661,-0.9056033392000001,-9.6846919848,2.4039761032,1.95158098,0.56025824,-2.95804448,,,
imu,344.290124,-0.900219964,-9.6984494992,2.404574256,1.54035093,0.6798887999999996,-2.96552139,,,
imu,344.298586,-0.9079959504000001,-9.702038416,2.423715145600001,1.13659779,0.5453044199999999,-3.07019813,,,
imu,344.307048,-0.9050051864,-9.702636568800001,2.423715145600001,0.80013684,0.7097964399999999,-2.90570611,,,
imu,344.31551,-0.9008181168,-9.706823638400001,2.4416597296,0.53096808,0.70231953,-2.87579847,,,
imu,344.323973,-0.8936402832000001,-9.685290137600001,2.4362763544,0.34404533,0.6350273399999997,-2.80850628,,,
imu,344.332435,-0.8990236584000001,-9.652989886400002,2.4362763544,0.11226112,0.6499811599999998,-2.83841392,,,
imu,344.340897,-0.8840698384000001,-9.634447149600001,2.437472660000001,0.25432241,0.6724118899999998,-2.77859864,,,
imu,344.349359,-0.8744993936000002,-9.599156134400001,2.4380708128,0.35899915,0.6051196999999999,-2.87579847,,,
imu,344.357822,-0.8733030880000001,-9.592576453600001,2.427304062400001,0.53096808,0.4481045899999998,-2.95804448,,,
imu,344.366284,-0.8774901576000002,-9.581809703200001,2.416537312,1.03192105,0.4481045899999998,-3.07019813,,,
imu,344.374746,-0.8709104768000001,-9.580613397600002,2.4027797976,1.37585891,0.3434278499999999,-3.11505959,,,
imu,344.383209,-0.8595455736000001,-9.590183842400002,2.401583492,1.65250458,0.4854891399999999,-3.10758268,,,
imu,344.391671,-0.8613400320000001,-9.6051376624,2.389022283200001,1.95905789,0.44062768,-3.15244414,,,
imu,344.400133,-0.8691160184000001,-9.618297024,2.3782555328,2.14598064,0.2387511099999999,-3.1225365,,,
imu,344.408595,-0.8595455736000001,-9.6296619272,2.3914148944,2.14598064,0.1265974599999997,-3.24964397,,,
imu,344.417058,-0.8631344904,-9.6434194416,2.389022283200001,2.24318047,0.05182836000000002,-3.36927453,,,
imu,344.42552,-0.8727049352000001,-9.657775108800001,2.3932093528,2.06373463,-0.1350943900000003,-3.44404363,,,
imu,344.433982,-0.8876587552000001,-9.661364025600001,2.3860315192,1.92167334,-0.2846325900000002,-3.7206893,,,
imu,344.442444,-0.8936402832000001,-9.669140012000002,2.3818444496,1.68988913,-0.3294940500000001,-3.89265823,,,
imu,344.450907,-0.900219964,-9.669140012000002,2.3914148944,1.55530475,-0.3668786000000002,-3.93004278,,,
imu,344.459369,-0.9091922560000001,-9.647606511200001,2.369283240800001,1.39828964,-0.5313706200000001,-4.07210407,,,
imu,344.467831,-0.9157719368000001,-9.630858232800001,2.3603109488,1.34595127,-0.4939860700000001,-4.012288789999999,,,
imu,344.4763,-0.9175663952000002,-9.606932120800002,2.3549275736,1.23379762,-0.3668786000000002,-3.81788913,,,
imu,344.484769,-0.9133793256000001,-9.605735815200001,2.341768212,1.30856672,-0.3818324200000003,-3.73564312,,,
imu,344.493237,-0.9008181168,-9.604539509600002,2.3375811424,1.24875144,-0.4790322499999999,-3.72816621,,,
imu,344.501706,-0.8876587552000001,-9.617698871200002,2.3453571288,1.16650543,-0.5014629800000003,-3.78050458,,,
imu,344.510174,-0.9085941032000001,-9.6224840936,2.3423663648,1.24127453,-0.6136166300000001,-3.6459202,,,
imu,344.518643,-0.9145756312000002,-9.635643455200002,2.3585164904,1.26370526,-0.6285704500000002,-3.53376655,,,
imu,344.527112,-0.9187627008000002,-9.665551095200001,2.3752647688,1.16650543,-0.7108164600000002,-3.43656672,,,
imu,344.53558,-0.9187627008000002,-9.6912716656,2.380648144,1.11416706,-0.7033395499999999,-3.3468438,,,
imu,344.544049,-0.9325202152000002,-9.690075360000002,2.3842370608,0.78518302,-0.5837089900000003,-3.21225942,,,
imu,344.552518,-0.9385017432000002,-9.679308609600001,2.383638908,0.6281679099999999,-0.5538013500000001,-2.93561375,,,
imu,344.560986,-0.9295294512000001,-9.673925234400002,2.3902185888,0.58330645,-0.3444478700000002,-2.76364482,,,
imu,344.569455,-0.9091922560000001,-9.672728928800002,2.3991908808,0.51601426,-0.3220171400000003,-2.71130645,,,
imu,344.577923,-0.9062014920000001,-9.672728928800002,2.396798269600001,0.67302937,-0.4790322499999999,-2.89075229,,,
imu,344.586392,-0.9067996448000001,-9.668541859200001,2.3944056584,0.68798319,-0.4715553400000001,-2.92813684,,,
imu,344.594861,-0.9145756312000002,-9.648204664000001,2.380648144,0.78518302,-0.5612782599999999,-3.05524431,,,
imu,344.603329,-0.9145756312000002,-9.6284656216,2.3788536856,1.15155161,-0.5313706200000001,-3.03281358,,,
imu,344.611798,-0.9367072848000002,-9.634447149600001,2.3788536856,1.36090509,-0.5687551700000002,-3.22721324,,,
imu,344.620267,-0.9420906600000001,-9.630260080000001,2.3740684632,1.56278166,-0.37435551,-3.10758268,,,
imu,344.628735,-0.9612315496000001,-9.635045302400002,2.3788536856,1.57773548,-0.4491246100000001,-3.22721324,,,
imu,344.637204,-0.9767835224000002,-9.638634219200002,2.3878259776,1.77213514,-0.2846325900000002,-3.30198234,,,
imu,344.645672,-0.9714001472000001,-9.6470083584,2.3848352136,1.93662716,0.01444380999999995,-3.21225942,,,
imu,344.654141,-0.9761853696000001,-9.640428677600001,2.389620436,1.82447351,0.2088434699999997,-3.16739796,,,
imu,344.66261,-0.9929336480000002,-9.632054538400002,2.3979945752,1.8169966,0.4705353199999998,-3.21225942,,,
imu,344.671078,-0.9833632032,-9.610521037600002,2.4009853392,1.55530475,0.7322271699999998,-3.15992105,,,
imu,344.679893,-1.0025040928,-9.591380148,2.4033779504,1.55530475,1.01634975,-3.1973056,,,
imu,344.688707,-1.0222431352,-9.5698466472,2.4039761032,1.62259694,1.27056469,-3.32441307,,,
imu,344.697521,-1.0270283576,-9.5776226336,2.3944056584,1.68241222,1.61450255,-3.53376655,,,
imu,344.706335,-1.0240375936,-9.581809703200001,2.4033779504,1.87681188,2.00330187,-3.65339711,,,
imu,344.71515,-1.025832052,-9.5602762024,2.4117520896,1.91419643,2.51920866,-3.7206893,,,
imu,344.723964,-1.0383932608,-9.541135312800002,2.3950038112,2.03382699,2.80333124,-3.90761205,,,
imu,344.732778,-1.0365988024,-9.5423316184,2.3914148944,2.28056502,3.16969983,-3.9449966,,,
imu,343.889789,,,,,,,91.6394396,-36.7009772,127.0464488
imu,343.991352,,,,,,,92.43290760000001,-36.48124760000002,126.8999624
imu,344.092914,,,,,,,91.9446196,-36.77422040000003,127.1563136
imu,344.741593,-1.0479637056,-9.553696521600001,2.4033779504,2.50487232,3.65569898,-4.057150249999999,,,
imu,344.750407,-1.043776636,-9.5632669664,2.4039761032,2.74413344,4.01459066,-4.04967334,,,
imu,344.759221,-1.0360006496,-9.578818939200001,2.4021816448,2.93105619,4.56040509,-4.012288789999999,,,
imu,344.768035,-1.0360006496,-9.600352440000002,2.4117520896,3.26751714,5.03145042,-3.95995042,,,
imu,344.77685,-1.0324117328,-9.602146898400001,2.404574256,3.30490169,5.33800373,-4.07210407,,,
imu,344.785664,-1.0342061912,-9.635643455200002,2.4219206872,3.37967079,5.79409524,-4.19921154,,,
imu,344.794478,-1.0180560656,-9.697851346400002,2.425509604,3.49930135,6.07821782,-4.44594957,,,
imu,344.803292,-0.9983170232,-9.699047652,2.4219206872,3.49930135,6.49692478,-4.44594957,,,
imu,344.812107,-1.0013077872,-9.685888290400001,2.419528076,3.31985551,6.80347809,-4.56558013,,,
imu,344.820921,-0.9977188704000002,-9.708019944000002,2.4362763544,3.3123786,7.09507758,-4.692687599999999,,,
imu,344.829735,-0.9773816752000002,-9.710412555200001,2.4440523408,3.26751714,7.3343387,-4.625395409999999,,,
imu,344.83855,-0.9510629520000001,-9.6846919848,2.450632021600001,3.11050203,7.835291669999999,-4.453426479999999,,,
imu,344.847364,-0.9504647992000002,-9.651195428000001,2.4416597296,3.15536349,8.01473751,-4.341272829999999,,,
imu,344.856178,-0.9361091320000001,-9.630260080000001,2.4338837432,3.10302512,8.01473751,-4.40108811,,,
imu,344.864992,-0.8948365888000002,-9.6248767048,2.4320892848,3.37219388,8.12689116,-4.27398064,,,
imu,344.873807,-0.8691160184000001,-9.617100718400001,2.4117520896,3.69370101,8.0820297,-4.124442439999999,,,
imu,344.882285,-0.8601437264,-9.592576453600001,2.3932093528,3.88062376,8.08950661,-3.95247351,,,
imu,344.890764,-0.8398065312,-9.588389384000001,2.368685088,4.26942308,7.94744532,-3.7954584,,,
imu,344.899243,-0.8445917536,-9.568650341600001,2.3435626704,4.48625347,7.76052257,-3.86275059,,,
imu,344.907722,-0.8445917536,-9.572239258400002,2.3142531832,4.89000661,7.49135381,-3.77302767,,,
imu,344.916201,-0.8362176144000002,-9.581809703200001,2.3100661136,5.06945245,7.27452342,-3.72816621,,,
imu,344.924679,-0.8529658928000001,-9.597361676,2.3010938216,5.38348267,7.1848005,-3.59358183,,,
imu,344.933158,-0.8780883104000001,-9.627269316000001,2.2747750984,5.72742053,7.16236977,-3.4216129,,,
imu,344.941637,-0.8900513664000002,-9.635643455200002,2.255036056,5.82462036,7.20723123,-3.48890509,,,
imu,344.950116,-0.9133793256000001,-9.639830524800002,2.232306249600001,5.89191255,7.23713887,-3.57862801,,,
imu,344.958595,-0.9145756312000002,-9.6499991224,2.2149598184,5.82462036,7.386677069999999,-3.62348947,,,
imu,344.967073,-0.9169682424000002,-9.672130776000001,2.2006041512,5.73489744,7.65584583,-3.69825857,,,
imu,344.975552,-0.9056033392000001,-9.693066124000001,2.1910337064,5.62274379,7.85024549,-3.95247351,,,
imu,344.984031,-0.9103885616000001,-9.722973764,2.1790706504,5.44329795,8.0820297,-3.95247351,,,
imu,344.99251,-0.9265386872000001,-9.745703570400002,2.171294664,5.36852885,8.26147554,-4.20668845,,,
imu,345.000989,-0.9450814240000001,-9.752881404000002,2.1641168304,5.09936009,8.33624464,-4.31136519,,,
imu,345.009467,-0.9624278552000001,-9.758264779200001,2.1491630104,4.80028369,8.83719761,-4.4683803,,,
imu,345.017946,-0.9875502728000001,-9.7995373224,2.1288258152,4.68065313,9.30824294,-4.56558013,,,
imu,345.026425,-0.9863539672000001,-9.818678212000002,2.1407888712,4.22456162,9.6521808,-4.737549059999999,,,
imu,345.034904,-0.9905410368000002,-9.803126239200001,2.130022120800001,3.85819303,10.34005652,-4.84970271,,,
imu,345.043383,-0.9785779808,-9.789368724800001,2.1252368984,3.64136264,11.02793224,-4.8422258,,,
imu,345.051861,-0.9504647992000002,-9.8013317808,2.1288258152,3.33480933,11.55131594,-5.10391765,,,
imu,345.06034,-0.9343146736000002,-9.802528086400002,2.1395925656,2.83385636,11.70833105,-5.477763149999999,,,
imu,345.068819,-0.9229497704,-9.783387196800001,2.1282276624,2.53477996,11.95506908,-5.67216281,,,
imu,345.077298,-0.9121830200000002,-9.751685098400001,2.1258350512,2.27308811,12.14946874,-5.874039379999999,,,
imu,345.08614,-0.8978273528000001,-9.731946056000002,2.12344244,2.05625772,12.29153003,-6.0385314,,,
imu,345.094983,-0.8733030880000001,-9.7325442088,2.1210498288,2.10111918,12.29900694,-6.046008309999999,,,
imu,345.103825,-0.8601437264,-9.7265626808,2.1108812312,1.9665348,12.40368368,-6.046008309999999,,,
imu,345.112668,-0.8547603512000002,-9.7265626808,2.1150683008,1.86185806,12.27657621,-6.02357758,,,
imu,345.12151,-0.8469843648000001,-9.737927584000001,2.1210498288,1.97401171,12.21676093,-5.94880848,,,
imu,345.130353,-0.8433954480000001,-9.746899876,2.1228442872,1.77213514,12.18685329,-5.93385466,,,
imu,345.139195,-0.8344231560000002,-9.745703570400002,2.1192553704,1.77961205,11.96254599,-5.86656247,,,
imu,345.148038,-0.8284416280000001,-9.737329431200001,2.1210498288,1.84690424,11.75319251,-5.784316459999999,,,
imu,345.15681,-0.8386102256000002,-9.725366375200002,2.1162646064,1.90671952,11.65599268,-5.57496298,,,
imu,345.165653,-0.8439936008000001,-9.7265626808,2.1252368984,1.70484295,11.38682392,-5.500193879999999,,,
imu,345.174495,-0.8493769760000001,-9.756470320800002,2.132414732,1.63755076,11.21485499,-5.44785551,,,
imu,345.183338,-0.8410028368000001,-9.783387196800001,2.1348073432,1.43567419,10.96064005,-5.26840967,,,
imu,345.19218,-0.8344231560000002,-9.762451848800001,2.1425833296,1.33099745,10.96811696,-5.16373293,,,
imu,345.201023,-0.8392083784000002,-9.745703570400002,2.1437796352,1.09921324,10.81110185,-5.18616366,,,
imu,345.209865,-0.8451899064,-9.7403201952,2.141387024,0.9571519499999999,10.67651747,-4.976810179999999,,,
imu,345.218707,-0.8380120728000001,-9.721179305600002,2.1395925656,0.8449983,10.48211781,-4.80484125,,,
imu,345.22755,-0.8176748776000001,-9.710412555200001,2.1545463856,0.79265993,10.38491798,-4.78241052,,,
imu,345.236392,-0.8134878080000001,-9.711010708000002,2.1605279136,0.58330645,10.11574922,-4.70764142,,,
imu,345.245235,-0.8146841136000001,-9.7217774584,2.1796688032,0.34404533,9.756857539999999,-4.80484125,,,
imu,345.254077,-0.8104970440000001,-9.716992236000001,2.18325772,0.07487657,9.45030423,-4.8422258,,,
imu,345.26292,-0.8266471696000001,-9.702038416,2.188042942400001,-0.03727708,9.233473839999998,-4.647826139999999,,,
imu,345.271762,-0.8481806704000001,-9.6876827488,2.1886410952,-0.28401511,9.01664345,-4.42351884,,,
imu,345.280605,-0.8709104768000001,-9.701440263200002,2.2006041512,-0.34383039,9.06150491,-4.102011709999999,,,
imu,345.289447,-0.8912476720000001,-9.7361331256,2.2113709016,-0.32139966,9.13627401,-3.66087402,,,
imu,345.297534,-0.9331183680000001,-9.7504887928,2.2083801376,-0.38869185,9.31571985,-3.0477674,,,
imu,345.305622,-0.9379035904000002,-9.758862932000001,2.210174596,-0.81487572,9.68208844,-2.75616791,,,
imu,345.313709,-0.9079959504000001,-9.744507264800001,2.2095764432,-0.8672140899999999,10.07836467,-2.43466078,,,
imu,345.321796,-0.8828735328,-9.737927584000001,2.2077819848,-0.98684465,10.34753343,-2.29259949,,,
imu,345.329883,-0.8762938520000002,-9.730749750400001,2.208978290400001,-0.98684465,10.52697927,-2.26269185,,,
imu,345.33797,-0.8667234072000001,-9.7086180968,2.2023986096,-1.03918302,10.60922528,-2.35241477,,,
imu,345.346057,-0.8547603512000002,-9.6876827488,2.2047912208,-1.03918302,10.66904056,-2.50942988,,,
imu,345.354144,-0.840404684,-9.681103068,2.2059875264,-1.03918302,10.60922528,-2.83093701,,,
imu,345.362232,-0.8326286976000001,-9.689477207200001,2.2119690544,-0.83730645,10.53445618,-2.94309066,,,
imu,345.370319,-0.8194693360000002,-9.681103068,2.2239321104,-0.55318387,10.57931764,-3.15992105,,,
imu,345.378406,-0.7883653904000001,-9.6745233872,2.2263247216,-0.50832241,10.2503336,-3.24216706,,,
imu,345.386493,-0.771617112,-9.6499991224,2.2275210272,-0.56066078,10.07836467,-3.38422835,,,
imu,345.39458,-0.7638411256000001,-9.6284656216,2.2203431936,-0.50832241,9.801718999999999,-3.45899745,,,
imu,345.402667,-0.7644392784,-9.6284656216,2.2239321104,-0.3513073,9.48021187,-3.39170526,,,
imu,345.410755,-0.7405131664000002,-9.6470083584,2.2329044024,-0.11952309,9.36058131,-3.27955161,,,
imu,345.418842,-0.7219704296,-9.684093832000002,2.2424748472,0.10478421,9.13627401,-3.10758268,,,
imu,345.426929,-0.7123999848000001,-9.723571916800001,2.2478582224,-0.04475399000000001,8.8297207,-3.10010577,,,
imu,345.435016,-0.6986424704000002,-9.741516500800001,2.2616157368,-0.17186146,8.485782839999999,-3.06272122,,,
imu,345.443103,-0.6902683312000001,-9.724768222400002,2.2687935704,-0.35878421,8.11193734,-2.93561375,,,
imu,345.45119,-0.6896701784000001,-9.697851346400002,2.2777658624,-0.51579932,7.73809184,-2.8982292,,,
imu,345.459278,-0.6723237472000001,-9.6745233872,2.2843455432,-0.6503837,7.35676943,-2.78607555,,,
imu,345.467365,-0.6723237472000001,-9.686486443200002,2.2981030576,-0.77749117,6.908154829999999,-2.89075229,,,
imu,345.475452,-0.6615569968000001,-9.715795930400002,2.3172439472,-0.7401066199999999,6.39224804,-2.83093701,,,
imu,345.483539,-0.648995788,-9.724170069600001,2.3274125448,-0.82982954,6.07074091,-2.66644499,,,
imu,345.491996,-0.6442105656,-9.675121540000001,2.3280106976,-0.93450628,5.726803049999999,-2.58419898,,,
imu,345.500453,-0.6531828576,-9.668541859200001,2.3351885312,-1.00927538,5.12117334,-2.59167589,,,
imu,345.508911,-0.6328456624000001,-9.665551095200001,2.3441608232,-0.91207555,4.672558739999999,-2.65896808,,,
imu,345.517368,-0.6364345792000001,-9.635643455200002,2.3244217808,-0.92702937,4.216467229999999,-2.57672207,,,
imu,345.525825,-0.6531828576,-9.6075302736,2.326814392,-0.8672140899999999,3.93982156,-2.50195297,,,
imu,345.534282,-0.6735200528,-9.604539509600002,2.3315996144,-0.79244499,3.58092988,-2.38232241,,,
imu,345.542739,-0.6717255944000001,-9.632054538400002,2.3286088504,-0.65786061,3.33419185,-2.26269185,,,
imu,345.551196,-0.6693329832000001,-9.635045302400002,2.3160476416,-0.3513073,3.33419185,-2.03838455,,,
imu,344.194428,,,,,,,94.55696040000001,-37.05498600000001,127.241764
imu,344.29596,,,,,,,91.60281800000001,-36.932914,126.570368
imu,344.397523,,,,,,,92.2986284,-36.51786920000002,127.180728
imu,344.499116,,,,,,,93.06768199999999,-37.48223800000001,124.7148736
imu,344.609773,,,,,,,92.20097080000001,-36.4080044,127.485908
imu,344.710023,,,,,,,93.2141684,-36.45683320000002,127.363836
imu,344.811585,,,,,,,92.42070040000002,-36.4080044,127.3028
imu,344.913148,,,,,,,92.03007000000001,-36.59111240000001,126.4605032
imu,345.559654,-0.6687348304,-9.6296619272,2.3196365584,-0.28401511,3.02016163,-1.94118472,,,
imu,345.568111,-0.6699311360000001,-9.617100718400001,2.3411700592,-0.2765382,2.76594669,-1.93370781,,,
imu,345.576568,-0.666940372,-9.632054538400002,2.3411700592,-0.19429219,2.6986545,-2.0757691,,,
imu,345.585025,-0.6711274416,-9.6523917336,2.3638998656,0.08983038999999998,2.67622377,-2.0757691,,,
imu,345.593482,-0.6806978864000002,-9.661364025600001,2.36270356,0.09730729999999999,2.55659321,-2.24773803,,,
imu,345.60194,-0.6950535536000001,-9.640428677600001,2.3740684632,0.09730729999999999,2.31733209,-2.39727623,,,
imu,345.610397,-0.7219704296,-9.631456385600002,2.3573201848,0.11973803,2.22013226,-2.64401426,,,
imu,345.618854,-0.7327371800000001,-9.635045302400002,2.3549275736,0.44872207,2.39210119,-2.8234601,,,
imu,345.627311,-0.7452983888000001,-9.66016772,2.3459552816,0.53096808,2.35471664,-2.93561375,,,
imu,345.635768,-0.7482891528000001,-9.6775141512,2.3405719064,0.68050628,2.54163939,-2.96552139,,,
imu,345.644226,-0.7542706808000001,-9.694860582400002,2.3411700592,0.88985976,2.81828506,-2.93561375,,,
imu,345.652683,-0.7638411256000001,-9.7086180968,2.3220291696,1.0693056,3.11736146,-2.8982292,,,
imu,345.66114,-0.7530743752000001,-9.7295534448,2.3262162392,1.03192105,3.43139168,-2.83841392,,,
imu,345.669597,-0.7506817640000001,-9.7403201952,2.3160476416,1.00949032,3.61083752,-2.8234601,,,
imu,345.678054,-0.7369242496000001,-9.734936820000001,2.3220291696,0.82256757,3.85009864,-2.74121409,,,
imu,345.686511,-0.7189796656000002,-9.7163940832,2.3232254752,0.50853735,3.99963684,-2.77859864,,,
imu,345.695331,-0.7064184568,-9.687084596000002,2.3106642664,0.33656842,4.06692903,-2.8234601,,,
imu,345.704151,-0.6950535536000001,-9.669140012000002,2.305879044,0.08235347999999998,4.00711375,-2.92813684,,,
imu,345.71297,-0.6681366776000001,-9.648802816800002,2.2957104464,-0.11952309,4.02206757,-3.03281358,,,
imu,345.72179,-0.6705292888000001,-9.634447149600001,2.2963085992,-0.33635348,3.8949601,-3.08515195,,,
imu,345.730609,-0.6693329832000001,-9.618297024,2.296906752,-0.39616876,3.78280645,-3.21973633,,,
imu,345.739429,-0.6759126640000002,-9.597361676,2.2963085992,-0.35878421,3.73794499,-3.28702852,,,
imu,345.748249,-0.681894192,-9.606932120800002,2.3034864328,-0.41859949,3.54354533,-3.496382,,,
imu,345.757068,-0.7004369288000002,-9.6260730104,2.3124587248,-0.45598404,3.53606842,-3.60105874,,,
imu,345.765888,-0.7016332344,-9.636839760800001,2.3106642664,-0.51579932,3.3715764,-3.68330475,,,
imu,345.774707,-0.6890720256,-9.637437913600001,2.3070753496,-0.62047606,3.40896095,-3.86275059,,,
imu,345.783527,-0.7141944432000001,-9.639232372,2.3154494888,-0.6279529699999999,3.45382241,-3.87770441,,,
imu,345.792346,-0.7297464160000001,-9.636241608,2.3184402528,-0.78496808,3.43139168,-4.079580979999999,,,
imu,345.801166,-0.7536725280000001,-9.635045302400002,2.314851336,-0.85973718,3.64074516,-4.06462716,,,
imu,345.809986,-0.7584577504000002,-9.630858232800001,2.3256180864,-0.7999219,3.80523718,-3.99733497,,,
imu,345.818805,-0.7548688336000001,-9.6326526912,2.3292070032,-0.82235263,3.97720611,-3.9449966,,,
imu,345.827625,-0.7614485144,-9.630858232800001,2.3280106976,-0.85973718,4.13422122,-3.91508896,,,
imu,345.836444,-0.741709472,-9.635045302400002,2.3393756008,-0.77001426,4.171605769999999,-3.88518132,,,
imu,345.845264,-0.7094092208000001,-9.688879054400001,2.3818444496,-0.52327623,4.23142105,-4.11696553,,,
imu,345.854083,-0.7177833600000001,-9.737329431200001,2.3782555328,-0.52327623,4.15665195,-4.16182699,,,
imu,345.862903,-0.7351297912000001,-9.725964528,2.3788536856,-0.5980453299999999,4.14169813,-4.169303899999999,,,
imu,345.871723,-0.7387187080000002,-9.709814402400001,2.3979945752,-0.68776825,4.20899032,-4.13191935,,,
imu,345.880542,-0.7285501104000001,-9.728955292000002,2.4243132984,-0.79244499,4.32862088,-4.102011709999999,,,
imu,345.889362,-0.7225685824,-9.772022293600001,2.4386689656,-0.73262971,4.410866889999999,-4.169303899999999,,,
imu,345.897913,-0.7231667352000001,-9.7821908912,2.446444952,-0.92702937,4.3435747,-4.23659609,,,
imu,345.906464,-0.7327371800000001,-9.737927584000001,2.4452486464,-1.23358268,4.48563599,-3.96742733,,,
imu,345.915016,-0.7441020832,-9.672728928800002,2.4338837432,-1.31582869,4.44825144,-3.87770441,,,
imu,345.923567,-0.7345316384000001,-9.645213900000002,2.446444952,-1.12142903,4.62769728,-3.69078166,,,
imu,345.932118,-0.7153907488000001,-9.652989886400002,2.4446504936,-1.05413684,4.762281659999999,-3.53376655,,,
imu,345.940669,-0.7046239984,-9.633250844,2.4452486464,-1.15881358,4.68751256,-3.68330475,,,
imu,345.949221,-0.7004369288000002,-9.599156134400001,2.446444952,-1.1737674,4.62022037,-3.74312003,,,
imu,345.957772,-0.7004369288000002,-9.572837411200002,2.45242648,-1.0989983,4.61274346,-3.82536604,,,
imu,345.966323,-0.6968480120000001,-9.594370912,2.4530246328,-0.92702937,4.672558739999999,-3.72816621,,,
imu,345.974875,-0.6902683312000001,-9.591978300800001,2.4446504936,-0.7999219,4.762281659999999,-3.52628964,,,
imu,345.983426,-0.6908664840000001,-9.596165370400001,2.4530246328,-0.84478336,4.62769728,-3.53376655,,,
imu,345.991977,-0.6830904976000001,-9.6039413568,2.4619969248,-0.7550604399999999,4.61274346,-3.39170526,,,
imu,346.000528,-0.6693329832000001,-9.608128426400002,2.4560153968,-0.53823005,4.90434295,-3.06272122,,,
imu,346.00908,-0.6549773160000001,-9.596165370400001,2.4560153968,-0.59056842,4.85200458,-3.01038285,,,
imu,346.017631,-0.6316493568000001,-9.591380148,2.4560153968,-0.35878421,4.79966621,-3.02533667,,,
imu,346.026182,-0.61310662,-9.608128426400002,2.455417244,-0.22419983,4.50806672,-3.0477674,,,
imu,346.034734,-0.6047324808000001,-9.630858232800001,2.461398772,0.10478421,4.37348234,-3.07019813,,,
imu,346.043285,-0.5963583416000001,-9.638634219200002,2.4542209384,0.09730729999999999,4.126744309999999,-3.21225942,,,
imu,346.051836,-0.5933675776,-9.633250844,2.4578098552,0.27675314,3.88000628,-3.28702852,,,
imu,346.060387,-0.601143564,-9.632054538400002,2.4560153968,0.41881443,3.6706528,-3.32441307,,,
imu,346.068939,-0.6077232448000001,-9.644615747200001,2.4566135496,0.76275229,3.50616078,-3.23469015,,,
imu,346.07749,-0.6065269392000001,-9.651793580800001,2.449435716,0.82256757,3.25942275,-3.31693616,,,
imu,346.086041,-0.6137047728000001,-9.648802816800002,2.4530246328,0.53844499,2.97530017,-3.33188998,,,
imu,346.094592,-0.6137047728000001,-9.6523917336,2.4572117024,0.50853735,2.95286944,-3.21225942,,,
imu,346.103009,-0.6071250920000001,-9.651793580800001,2.4578098552,0.3963837,2.79585433,-3.07767504,,,
imu,346.111425,-0.6071250920000001,-9.66016772,2.4536227856,0.16459949,2.74351596,-3.10010577,,,
imu,346.119842,-0.5939657304000001,-9.665551095200001,2.4637913832,0.14216876,2.53416248,-3.04029049,,,
imu,346.128258,-0.6083213976,-9.66016772,2.461398772,-0.04475399000000001,2.33228591,-3.15244414,,,
imu,346.136675,-0.6077232448000001,-9.6505972752,2.462595077600001,-0.11952309,2.1752708,-3.24216706,,,
imu,346.145091,-0.6101158560000001,-9.6326526912,2.4631932304,-0.24663056,2.12293243,-3.18235178,,,
imu,346.153508,-0.6137047728000001,-9.634447149600001,2.4596043136,-0.31392275,1.92853277,-3.24964397,,,
imu,346.161924,-0.6214807592000001,-9.627269316000001,2.460202466400001,-0.25410747,1.82385603,-3.30945925,,,
imu,346.170341,-0.6340419680000001,-9.6117173432,2.4655858416,-0.33635348,1.71170238,-3.35432071,,,
imu,346.178757,-0.6483976352,-9.605735815200001,2.4536227856,-0.35878421,1.60702564,-3.40665908,,,
imu,346.187174,-0.6483976352,-9.6015487456,2.4631932304,-0.08961545,1.48739508,-3.31693616,,,
imu,346.19559,-0.6633514552,-9.608128426400002,2.467380300000001,-0.10456927,1.56964109,-3.30945925,,,
imu,346.204007,-0.6543791632000001,-9.590183842400002,2.4572117024,-0.15690764,1.62197946,-3.24964397,,,
imu,346.212423,-0.6579680800000002,-9.584800467200001,2.4596043136,-0.09709236,1.75656384,-3.27955161,,,
imu,346.22084,-0.6603606912000002,-9.623082246400001,2.471567369600001,0.02253820000000001,1.75656384,-3.3468438,,,
imu,346.229256,-0.6406216488000002,-9.662560331200002,2.479343356,0.04496892999999999,1.79394839,-3.39918217,,,
imu,346.237673,-0.6394253432000001,-9.656578803200002,2.476352592,-0.07466163,1.93600968,-3.47395127,,,
imu,346.246013,-0.6633514552,-9.639830524800002,2.4727636752,-0.15690764,1.74161002,-3.4216129,,,
imu,346.25443,-0.6657440664000001,-9.640428677600001,2.4847267312,0.07487657,1.8761944,-3.21225942,,,
imu,346.262846,-0.6597625384000001,-9.678710456800001,2.5038676208,0.18703022,2.03320951,-3.13001341,,,
imu,346.271263,-0.6537810104000001,-9.6984494992,2.499082398400001,0.22441477,2.1005017,-3.10758268,,,
imu,346.279679,-0.6561736216000001,-9.679308609600001,2.494895328800001,0.05244583999999999,2.04816333,-3.09262886,,,
imu,346.288096,-0.6430142600000001,-9.661364025600001,2.500278704,0.05244583999999999,2.09302479,-3.05524431,,,
imu,346.296512,-0.6262659816,-9.6535880392,2.5056620792,-0.0522309,2.23508608,-3.07019813,,,
imu,346.305141,-0.6166955368000001,-9.651195428000001,2.5038676208,0.03749201999999999,2.1752708,-3.04029049,,,
imu,346.31377,-0.6154992312,-9.6458120528,2.509250996,0.05244583999999999,2.33976282,-3.11505959,,,
imu,346.322399,-0.6101158560000001,-9.619493329600001,2.5140362184,-0.0522309,2.26499372,-3.1973056,,,
imu,346.331028,-0.5915731192000001,-9.6159044128,2.512839912800001,-0.04475399000000001,2.1752708,-3.27955161,,,
imu,346.339656,-0.6053306336000001,-9.626671163200001,2.5158306768,0.01506129,2.18274771,-3.3468438,,,
imu,346.348285,-0.601143564,-9.617100718400001,2.512839912800001,0.08983038999999998,2.01825569,-3.53376655,,,
imu,346.356914,-0.6023398696000001,-9.616502565600001,2.5188214408,0.07487657,1.90610204,-3.67582784,,,
imu,346.365543,-0.6053306336000001,-9.611119190400002,2.522410357600001,0.08235347999999998,1.64441019,-3.66087402,,,
imu,346.374172,-0.6190881480000001,-9.602745051200001,2.5259992744,0.21693786,1.71917929,-3.51881273,,,
imu,345.01471,,,,,,,91.7126828,-36.87187800000002,127.1563136
imu,345.116273,,,,,,,90.83376439999999,-37.81183240000001,126.0332512
imu,345.217866,,,,,,,92.55497960000001,-37.75079640000001,125.2641976
imu,345.319428,,,,,,,89.19799960000002,-37.86066120000002,125.5693776
imu,345.42096,,,,,,,91.56619640000001,-38.34894920000001,123.1157304
imu,345.522492,,,,,,,88.7097116,-37.01836440000002,125.6792424
imu,345.624085,,,,,,,89.405522,-37.83624680000002,123.1035232
imu,345.725648,,,,,,,88.3923244,-37.34795880000001,125.227576
imu,346.382801,-0.6244715232,-9.605735815200001,2.5194195936,0.29918387,1.59207182,-3.51133582,,,
imu,346.391429,-0.631051204,-9.6015487456,2.5158306768,0.3739529699999999,1.63693328,-3.51133582,,,
imu,346.400058,-0.6316493568000001,-9.597361676,2.506858384800001,0.30666078,1.577118,-3.43656672,,,
imu,346.408687,-0.6238733704,-9.594370912,2.51224176,0.41881443,1.43505671,-3.37675144,,,
imu,346.417316,-0.6292567456000001,-9.589585689600002,2.521214052,0.5459219,1.47244126,-3.36179762,,,
imu,346.425945,-0.6501920936000001,-9.5907819952,2.5265974272,0.6132140899999999,1.61450255,-3.21973633,,,
imu,346.434574,-0.6334438152,-9.5842023144,2.5439438584,0.7702292,1.68927165,-3.26459779,,,
imu,346.443202,-0.6244715232,-9.575230022400001,2.5313826496,0.77770611,1.62945637,-3.31693616,,,
imu,346.451831,-0.6298548984000001,-9.571641105600001,2.5397567888,0.71789083,1.56964109,-3.35432071,,,
imu,346.46046,-0.6250696760000001,-9.575230022400001,2.5343734136,0.80761375,1.62197946,-3.57862801,,,
imu,346.469089,-0.6298548984000001,-9.585398620000001,2.5248029688,0.9272443100000001,1.66684092,-3.67582784,,,
imu,346.477718,-0.6238733704,-9.591380148,2.522410357600001,0.9571519499999999,1.60702564,-3.87770441,,,
imu,346.486347,-0.6172936896000001,-9.609324732000001,2.5403549416,1.09173633,1.66684092,-3.92256587,,,
imu,346.494976,-0.6137047728000001,-9.623680399200001,2.5385604832,1.24127453,1.54721036,-3.93004278,,,
imu,346.503604,-0.6232752176,-9.635045302400002,2.5349715664,1.05435178,1.32290306,-4.02724261,,,
imu,346.511878,-0.6382290376000002,-9.6248767048,2.5373641776,0.9646288599999999,1.33037997,-3.96742733,,,
imu,346.520153,-0.6430142600000001,-9.613511801600001,2.531980802400001,0.8823828499999999,1.42010289,-4.04967334,,,
imu,346.528427,-0.6430142600000001,-9.609324732000001,2.5367660248,1.00949032,1.37524143,-4.012288789999999,,,
imu,346.536701,-0.6352382736000001,-9.611119190400002,2.5403549416,0.97958268,1.37524143,-3.93751969,,,
imu,346.544975,-0.6376308848000001,-9.604539509600002,2.5421494,1.01696723,1.29299542,-3.88518132,,,
imu,346.553249,-0.6358364264000002,-9.614708107200002,2.5385604832,1.19641307,1.31542615,-3.84031986,,,
imu,346.561523,-0.6394253432000001,-9.596165370400001,2.5355697192,1.23379762,1.29299542,-3.84779677,,,
imu,346.569797,-0.6525847048000001,-9.593174606400002,2.530186344,1.35342818,1.31542615,-3.8702275,,,
imu,346.578071,-0.6483976352,-9.610521037600002,2.5265974272,1.43567419,1.18084177,-3.9449966,,,
imu,346.586345,-0.6495939408000001,-9.635643455200002,2.5259992744,1.8169966,1.18084177,-3.85527368,,,
imu,346.594619,-0.646005024,-9.662560331200002,2.5379623304,1.75718132,1.28551851,-3.7954584,,,
imu,346.602893,-0.6483976352,-9.654784344800001,2.52719558,1.80951969,1.19579559,-3.78798149,,,
imu,346.611167,-0.6400234960000001,-9.647606511200001,2.5265974272,1.8169966,1.19579559,-3.73564312,,,
imu,346.619442,-0.6316493568000001,-9.633848996800001,2.512839912800001,1.5926893,1.18084177,-3.75807385,,,
imu,346.627716,-0.6226770648,-9.612315496,2.5146343712,1.47305874,1.30047233,-3.66087402,,,
imu,346.63599,-0.6274622872000001,-9.608128426400002,2.5164288296,1.43567419,1.09111885,-3.6459202,,,
imu,346.644264,-0.6172936896000001,-9.6039413568,2.5164288296,1.4431511,1.08364194,-3.48890509,,,
imu,346.652538,-0.6101158560000001,-9.592576453600001,2.5188214408,1.23379762,1.18084177,-3.51881273,,,
imu,346.660812,-0.6304530512000001,-9.5865949256,2.52719558,1.24127453,1.07616503,-3.51133582,,,
imu,346.669086,-0.6507902464,-9.587193078400002,2.52719558,1.25622835,0.9116730099999999,-3.50385891,,,
imu,346.67736,-0.6442105656,-9.596165370400001,2.5373641776,1.26370526,0.9341037399999998,-3.4216129,,,
imu,346.685634,-0.646005024,-9.591978300800001,2.5337752608,1.20388998,1.11354958,-3.40665908,,,
imu,346.693908,-0.6651459136000001,-9.577024480800002,2.52719558,1.22632071,1.30047233,-3.43656672,,,
imu,346.702182,-0.6627533024,-9.568052188800001,2.530186344,1.39828964,1.45748744,-3.25712088,,,
imu,346.710997,-0.6537810104000001,-9.572239258400002,2.522410357600001,1.82447351,1.62197946,-3.14496723,,,
imu,346.719811,-0.648995788,-9.5656595776,2.5164288296,1.95158098,1.60702564,-3.32441307,,,
imu,346.728625,-0.6274622872000001,-9.558481744000002,2.5116436072,2.21327283,1.56216418,-3.496382,,,
imu,346.737439,-0.6005454112,-9.597361676,2.5176251352,2.76656417,1.67431783,-3.51881273,,,
imu,346.746254,-0.5820026744000001,-9.624278552000002,2.5098491488,3.02077911,1.53973345,-3.77302767,,,
imu,346.755068,-0.5784137576,-9.638036066400002,2.4966897872,3.12545585,1.49487199,-3.95247351,,,
imu,346.763882,-0.5885823552,-9.651195428000001,2.4901101064,3.05816366,1.26308778,-4.22911918,,,
imu,346.772696,-0.5873860496000001,-9.661962178400001,2.4919045648,2.99087147,1.09859576,-4.23659609,,,
imu,346.781511,-0.5843952856000001,-9.658971414400002,2.4978860928,2.80394872,1.00887284,-4.42351884,,,
imu,346.790325,-0.6017417168000001,-9.6470083584,2.494895328800001,2.72917962,1.01634975,-4.29641137,,,
imu,346.799139,-0.5975546472000001,-9.632054538400002,2.491306412,2.57216451,0.7920424499999998,-4.341272829999999,,,
imu,346.807954,-0.5975546472000001,-9.616502565600001,2.4805396616,2.58711833,0.62007352,-4.32631901,,,
imu,346.816768,-0.6101158560000001,-9.596763523200002,2.487717495200001,2.58711833,0.4555814999999996,-4.25902682,,,
imu,346.825582,-0.6119103144000001,-9.5842023144,2.4847267312,2.37776485,0.5303505999999998,-4.146873169999999,,,
imu,346.834396,-0.6184899952000001,-9.5842023144,2.4721655224,2.2656112,0.2387511099999999,-4.25154991,,,
imu,346.843211,-0.6298548984000001,-9.591380148,2.4727636752,2.6394567,0.11164364,-4.18425772,,,
imu,346.852025,-0.6472013296000001,-9.593174606400002,2.469772911200001,2.55721069,0.09668981999999993,-4.15435008,,,
imu,346.860839,-0.6519865520000001,-9.5949690648,2.467380300000001,2.66188743,0.04435144999999974,-4.04967334,,,
imu,346.869653,-0.6525847048000001,-9.593772759200002,2.4685766056,2.82637945,0.05930526999999985,-4.079580979999999,,,
imu,346.878468,-0.6657440664000001,-9.5949690648,2.4655858416,3.04320984,0.19388965,-3.99733497,,,
imu,346.887282,-0.6651459136000001,-9.602146898400001,2.4691747584,3.08059439,0.1415512799999998,-4.02724261,,,
imu,346.896096,-0.6621551496,-9.6224840936,2.4596043136,3.14788658,0.3882893099999998,-3.84031986,,,
imu,346.904911,-0.6657440664000001,-9.638634219200002,2.454819091200001,3.28994787,0.4107200399999997,-3.75059694,,,
imu,346.913386,-0.6448087184,-9.634447149600001,2.455417244,3.3871477,0.3957662200000001,-3.83284295,,,
imu,346.921861,-0.6513883992,-9.633848996800001,2.4590061608,3.29742478,0.4107200399999997,-3.85527368,,,
imu,346.930336,-0.6735200528,-9.672130776000001,2.4751562864,3.11797894,0.4630584099999999,-3.87770441,,,
imu,346.938811,-0.6609588440000002,-9.714599624800002,2.4787452032,3.23013259,0.5677351499999999,-4.02724261,,,
imu,346.947285,-0.6495939408000001,-9.725964528,2.4727636752,3.0133022,0.6051196999999999,-4.04967334,,,
imu,346.95576,-0.6735200528,-9.704431027200002,2.469772911200001,2.80394872,0.5527813299999997,-3.92256587,,,
imu,346.964235,-0.6800997336000001,-9.6817012208,2.4637913832,2.80394872,0.6051196999999999,-3.75807385,,,
imu,346.97271,-0.6741182056000001,-9.675719692800001,2.4578098552,2.72917962,0.6499811599999998,-3.65339711,,,
imu,346.981185,-0.6591643856000001,-9.678112304,2.4458467992,2.81890254,0.8817653699999997,-3.67582784,,,
imu,346.98966,-0.6627533024,-9.682897526400001,2.4332855904,2.87871782,0.9041961000000001,-3.75059694,,,
imu,346.998135,-0.6555754688000001,-9.655980650400002,2.414144700800001,3.12545585,1.00139593,-3.67582784,,,
imu,347.00661,-0.6525847048000001,-9.639232372,2.4033779504,3.05816366,0.7696117199999999,-3.74312003,,,
imu,347.015085,-0.6477994824000001,-9.634447149600001,2.386629672,3.13293276,0.7546578999999998,-3.78050458,,,
imu,347.02356,-0.6472013296000001,-9.651195428000001,2.3764610744,3.21517877,0.5901658799999998,-3.91508896,,,
imu,347.032035,-0.6579680800000002,-9.6428212888,2.362105407200001,3.2376095,0.5378275100000001,-3.98985806,,,
imu,347.04051,-0.6657440664000001,-9.641624983200002,2.3543294208,3.37967079,0.6125966099999998,-3.87770441,,,
imu,347.048985,-0.6472013296000001,-9.638634219200002,2.3435626704,3.28994787,0.5677351499999999,-3.87770441,,,
imu,347.05746,-0.6531828576,-9.667943706400001,2.3256180864,3.39462461,0.4705353199999998,-3.92256587,,,
imu,347.065935,-0.6591643856000001,-9.682299373600001,2.3202347112,3.34976315,0.5752120599999997,-3.92256587,,,
imu,347.07441,-0.6675385248000001,-9.715795930400002,2.3292070032,3.15536349,0.4929660499999997,-3.78798149,,,
imu,347.082885,-0.6783052752000002,-9.731946056000002,2.3184402528,2.863764,0.44062768,-3.85527368,,,
imu,347.09136,-0.681894192,-9.7403201952,2.3202347112,2.78151799,0.44062768,-3.77302767,,,
imu,347.099835,-0.6860812616,-9.739722042400002,2.3196365584,2.60207215,0.52287369,-3.60105874,,,
imu,347.10831,-0.6920627896000001,-9.745703570400002,2.314851336,2.20579592,0.3808123999999999,-3.66087402,,,
imu,347.116776,-0.6926609424000001,-9.760059237600002,2.3070753496,2.04878081,0.50044296,-3.67582784,,,
imu,347.125242,-0.7010350816000002,-9.746301723200002,2.3154494888,1.86933497,0.41819695,-3.61601256,,,
imu,347.133708,-0.6974461648000001,-9.7337405144,2.326814392,1.62259694,0.5079198699999998,-3.53376655,,,
imu,347.142175,-0.6926609424000001,-9.7128051664,2.329805156,1.41324346,0.5901658799999998,-3.47395127,,,
imu,347.150641,-0.6783052752000002,-9.688280901600002,2.3232254752,1.38333582,0.6948426199999997,-3.28702852,,,
imu,347.159107,-0.6866794144,-9.680504915200002,2.3262162392,1.24875144,0.76213481,-3.41413599,,,
imu,347.167573,-0.6872775672000001,-9.675121540000001,2.3244217808,1.27865908,0.84438082,-3.42908981,,,
imu,347.176039,-0.6914646368,-9.672130776000001,2.3375811424,1.09921324,0.80699627,-3.46647436,,,
imu,347.184505,-0.6806978864000002,-9.655382497600002,2.3393756008,1.18893616,0.9415806499999997,-3.39170526,,,
imu,347.192971,-0.684884956,-9.6494009696,2.3435626704,1.23379762,0.92662683,-3.41413599,,,
imu,345.827126,,,,,,,88.40453159999998,-37.44561640000001,125.1421256
imu,345.928688,,,,,,,87.9528652,-36.78642760000002,124.8369456
imu,346.030251,,,,,,,88.0261084,-36.83525640000001,125.2641976
imu,346.131844,,,,,,,87.92845080000001,-36.66435560000001,125.2153688
imu,346.233376,,,,,,,87.51340599999999,-36.29813960000001,124.55618
imu,346.334938,,,,,,,89.97926039999999,-36.82304920000001,123.884784
imu,346.436501,,,,,,,87.4889916,-35.44363560000001,124.678252
imu,346.538155,,,,,,,89.771738,-36.88408520000002,121.443344
imu,347.201437,-0.6735200528,-9.644017594400001,2.3339922256,1.19641307,0.9939190199999999,-3.36927453,,,
imu,347.209903,-0.6705292888000001,-9.6499991224,2.3423663648,1.21136689,1.13598031,-3.17487487,,,
imu,347.218369,-0.6681366776000001,-9.667943706400001,2.3495441984,1.21136689,0.9640113799999996,-3.21973633,,,
imu,347.226835,-0.6633514552,-9.6703363176,2.365694324000001,1.42819728,1.12102649,-3.09262886,,,
imu,347.235301,-0.6495939408000001,-9.684093832000002,2.365694324000001,1.37585891,1.21074941,-3.00290594,,,
imu,347.243768,-0.6507902464,-9.679308609600001,2.3758629216,1.18145925,1.15093413,-3.13749032,,,
imu,347.252234,-0.6507902464,-9.6733270816,2.380648144,1.12164397,1.1285034,-3.01038285,,,
imu,347.2607,-0.6358364264000002,-9.669738164800002,2.3908167416,0.9870595899999999,1.06121121,-3.1973056,,,
imu,347.269166,-0.6394253432000001,-9.666149248000002,2.386629672,1.00949032,1.0537343,-3.22721324,,,
imu,347.277632,-0.6424161072,-9.641624983200002,2.396798269600001,1.04687487,1.00887284,-3.15244414,,,
imu,347.286098,-0.6400234960000001,-9.641026830400001,2.3932093528,0.9272443100000001,0.8967191899999998,-3.15244414,,,
imu,347.294564,-0.6346401208000001,-9.654784344800001,2.4009853392,1.0693056,0.9191499199999997,-3.15992105,,,
imu,347.30303,-0.6382290376000002,-9.661962178400001,2.398592728,1.15902852,0.84438082,-3.18235178,,,
imu,347.311496,-0.6358364264000002,-9.661364025600001,2.3926112,1.30108981,0.8219500899999996,-3.10010577,,,
imu,347.319959,-0.6208826064000001,-9.646410205600002,2.389620436,1.25622835,0.7920424499999998,-3.09262886,,,
imu,347.328421,-0.6274622872000001,-9.631456385600002,2.3872278248,1.31604363,0.7397040799999997,-3.10758268,,,
imu,347.336998,-0.6328456624000001,-9.639232372,2.3824426024,1.39081273,0.6724118899999998,-3.15244414,,,
imu,347.34546,-0.6232752176,-9.646410205600002,2.3764610744,1.26370526,0.6499811599999998,-3.08515195,,,
imu,347.353922,-0.6053306336000001,-9.644017594400001,2.383638908,1.33099745,0.6948426199999997,-3.08515195,,,
imu,347.362384,-0.6184899952000001,-9.635643455200002,2.3932093528,1.08425942,0.4854891399999999,-3.31693616,,,
imu,347.370847,-0.6472013296000001,-9.635643455200002,2.4027797976,1.12164397,0.4705353199999998,-3.29450543,,,
imu,347.379309,-0.6346401208000001,-9.6434194416,2.4003871864,1.09173633,0.66493498,-3.1973056,,,
imu,347.387771,-0.6358364264000002,-9.637437913600001,2.4003871864,1.08425942,0.78456554,-3.13749032,,,
imu,347.396234,-0.6466031768,-9.617100718400001,2.3848352136,1.20388998,0.8144731799999998,-3.09262886,,,
imu,347.404696,-0.6418179544000001,-9.609922884800001,2.371675852,1.12912088,0.7770886299999997,-3.01038285,,,
imu,347.413158,-0.6262659816,-9.597959828800002,2.3728721576,1.43567419,0.8593346399999997,-3.01785976,,,
imu,347.42162,-0.6119103144000001,-9.6039413568,2.3638998656,1.87681188,0.9565344699999998,-3.15992105,,,
imu,347.430083,-0.6077232448000001,-9.605735815200001,2.3459552816,2.08616536,0.8593346399999997,-3.30945925,,,
imu,347.438545,-0.6101158560000001,-9.6290637744,2.3280106976,2.45253395,0.8144731799999998,-3.36927453,,,
imu,347.447007,-0.5909749664,-9.6709344704,2.329805156,2.63197979,0.70231953,-3.54124346,,,
imu,347.455469,-0.5927694248,-9.699047652,2.3196365584,2.79647181,0.64250425,-3.73564312,,,
imu,347.463932,-0.6065269392000001,-9.687084596000002,2.299897516,2.75908726,0.5677351499999999,-3.82536604,,,
imu,347.472394,-0.6172936896000001,-9.673925234400002,2.2945141408,2.54973378,0.27613566,-3.95247351,,,
imu,347.480856,-0.6334438152,-9.686486443200002,2.2927196824,2.57216451,0.2537049300000001,-3.93004278,,,
imu,347.489318,-0.6394253432000001,-9.708019944000002,2.2855418488,2.45253395,0.2836125699999998,-3.86275059,,,
imu,347.497781,-0.6358364264000002,-9.706823638400001,2.286738154400001,2.18336519,0.1639820099999998,-3.75807385,,,
imu,347.506243,-0.6388271904000001,-9.704431027200002,2.2885326128,1.94410407,0.07425908999999997,-3.82536604,,,
imu,347.514705,-0.6370327320000001,-9.690673512800002,2.2861400016,1.71231986,0.08921290999999965,-3.75807385,,,
imu,347.523174,-0.646005024,-9.689477207200001,2.2921215296,1.69736604,0.1789358299999999,-3.5711511,,,
imu,347.531643,-0.6442105656,-9.688879054400001,2.3010938216,1.53287402,0.1041667299999998,-3.52628964,,,
imu,347.540111,-0.6418179544000001,-9.702038416,2.311860572000001,1.42072037,0.1265974599999997,-3.53376655,,,
imu,347.54858,-0.6501920936000001,-9.694860582400002,2.2992993632,1.18145925,0.1191205499999999,-3.55619728,,,
imu,347.557048,-0.6627533024,-9.690075360000002,2.305879044,1.24875144,0.04435144999999974,-3.39918217,,,
imu,347.565517,-0.666940372,-9.678112304,2.3070753496,1.21136689,0.08921290999999965,-3.4216129,,,
imu,347.573986,-0.666940372,-9.684093832000002,2.3130568776,1.22632071,-0.0005100100000001717,-3.46647436,,,
imu,347.582454,-0.6783052752000002,-9.688280901600002,2.3130568776,1.30108981,0.13407437,-3.29450543,,,
imu,347.590923,-0.6729219000000001,-9.693066124000001,2.3106642664,1.368382,0.2312741999999997,-3.27955161,,,
imu,347.599392,-0.6633514552,-9.701440263200002,2.3046827384,1.37585891,0.35838167,-3.26459779,,,
imu,347.60786,-0.6531828576,-9.714001472000001,2.3256180864,1.2188438,0.44062768,-3.17487487,,,
imu,347.616329,-0.6513883992,-9.708019944000002,2.3190384056,1.17398234,0.5079198699999998,-3.26459779,,,
imu,347.624797,-0.6681366776000001,-9.701440263200002,2.3082716552,1.0693056,0.47801223,-3.36927453,,,
imu,347.633266,-0.6651459136000001,-9.720581152800001,2.3280106976,1.24875144,0.44062768,-3.47395127,,,
imu,347.641735,-0.6597625384000001,-9.7265626808,2.326814392,1.03192105,0.50044296,-3.55619728,,,
imu,347.650203,-0.663949608,-9.690075360000002,2.3220291696,0.78518302,0.6798887999999996,-3.45899745,,,
imu,347.658672,-0.681894192,-9.66016772,2.3232254752,0.64312173,0.7097964399999999,-3.37675144,,,
imu,347.667141,-0.6795015808000001,-9.665551095200001,2.3333940728,0.7702292,0.9116730099999999,-3.32441307,,,
imu,347.675609,-0.666940372,-9.6775141512,2.3363848368,0.8823828499999999,1.00887284,-3.33936689,,,
imu,347.684078,-0.6454068712000001,-9.671532623200001,2.335786684,0.8674290299999999,1.07616503,-3.20478251,,,
imu,347.692546,-0.6328456624000001,-9.6470083584,2.3399737536,0.80761375,1.06121121,-3.28702852,,,
imu,347.701015,-0.6232752176,-9.617100718400001,2.3280106976,0.77770611,0.9714882899999999,-3.31693616,,,
imu,347.709484,-0.6196863008000001,-9.6117173432,2.320832864,0.8674290299999999,0.8518577299999999,-3.39918217,,,
imu,347.717952,-0.6089195504,-9.616502565600001,2.3232254752,1.13659779,0.92662683,-3.36179762,,,
imu,347.726779,-0.6184899952000001,-9.6296619272,2.3142531832,1.2188438,0.7172733499999997,-3.42908981,,,
imu,347.735605,-0.6286585928,-9.631456385600002,2.3046827384,1.35342818,0.6051196999999999,-3.50385891,,,
imu,347.744431,-0.6400234960000001,-9.633848996800001,2.3100661136,1.43567419,0.6350273399999997,-3.44404363,,,
imu,347.753257,-0.6238733704,-9.664952942400001,2.3094679608,1.54035093,0.5079198699999998,-3.40665908,,,
imu,347.762083,-0.6388271904000001,-9.678710456800001,2.311262419200001,1.63007385,0.66493498,-3.32441307,,,
imu,347.77091,-0.6340419680000001,-9.701440263200002,2.308869808,1.60016621,0.6499811599999998,-3.24964397,,,
imu,347.779736,-0.6304530512000001,-9.696056888000001,2.3100661136,1.56278166,0.58268897,-3.13001341,,,
imu,347.788562,-0.6358364264000002,-9.706225485600001,2.3154494888,1.30856672,0.4630584099999999,-3.09262886,,,
imu,347.797388,-0.6304530512000001,-9.710412555200001,2.3130568776,1.33099745,0.5378275100000001,-2.98795212,,,
imu,347.806215,-0.6232752176,-9.711608860800002,2.3130568776,1.24875144,0.4630584099999999,-2.92065993,,,
imu,347.815041,-0.6340419680000001,-9.70502918,2.3100661136,0.9870595899999999,0.44062768,-2.95056757,,,
imu,347.823867,-0.6274622872000001,-9.679308609600001,2.3070753496,0.94219813,0.5303505999999998,-2.92813684,,,
imu,347.832693,-0.6292567456000001,-9.676915998400002,2.311262419200001,1.04687487,0.44062768,-2.99542903,,,
imu,347.841519,-0.6232752176,-9.657176956,2.3100661136,1.00201341,0.4555814999999996,-2.93561375,,,
imu,347.850346,-0.6083213976,-9.635643455200002,2.30288828,0.8524752099999999,0.3658585799999998,-2.89075229,,,
imu,347.859172,-0.6113121616,-9.654784344800001,2.28793446,0.9272443100000001,0.1565051,-3.01785976,,,
imu,347.867998,-0.6089195504,-9.6709344704,2.3034864328,1.09173633,0.2462280199999998,-2.90570611,,,
imu,347.876824,-0.5879842024,-9.654186192000001,2.307673502400001,1.03192105,0.13407437,-2.92065993,,,
imu,347.88565,-0.5987509528,-9.6494009696,2.2981030576,1.00949032,0.02192071999999978,-2.95804448,,,
imu,347.894477,-0.5999472584000001,-9.6637566368,2.305879044,1.09921324,-0.1051867500000001,-2.89075229,,,
imu,347.903303,-0.5843952856000001,-9.665551095200001,2.3070753496,1.12912088,-0.2622018600000002,-3.02533667,,,
imu,347.912129,-0.5927694248,-9.678112304,2.311262419200001,1.33099745,-0.3444478700000002,-2.8982292,,,
imu,347.920955,-0.5849934384000001,-9.6912716656,2.325019933600001,1.30856672,-0.5911859000000002,-2.80850628,,,
imu,347.929463,-0.5784137576,-9.675121540000001,2.3256180864,1.28613599,-0.65847809,-2.79355246,,,
imu,347.937971,-0.5957601888000001,-9.669140012000002,2.3160476416,1.18145925,-0.8080162900000003,-2.68887572,,,
imu,347.946479,-0.5945638832000001,-9.667943706400001,2.3196365584,1.31604363,-0.82297011,-2.53933752,,,
imu,347.954987,-0.5999472584000001,-9.669738164800002,2.329805156,1.39081273,-0.8753084800000002,-2.5243837,,,
imu,347.963496,-0.5921712720000001,-9.668541859200001,2.3286088504,1.41324346,-1.08466196,-2.41970696,,,
imu,347.972004,-0.6119103144000001,-9.668541859200001,2.3244217808,1.47305874,-1.20429252,-2.42718387,,,
imu,347.980512,-0.6113121616,-9.675719692800001,2.3220291696,1.60016621,-1.02484668,-2.25521494,,,
imu,347.98902,-0.6208826064000001,-9.678710456800001,2.3160476416,1.57025857,-1.18186179,-2.32998404,,,
imu,347.997528,-0.6160973840000001,-9.675121540000001,2.3094679608,1.58521239,-1.2641078,-2.31503022,,,
imu,348.006036,-0.6160973840000001,-9.6942624296,2.3178421,1.52539711,-1.30149235,-2.18044584,,,
imu,348.014544,-0.6143029256000001,-9.709216249600003,2.325019933600001,1.57773548,-1.21924634,-2.2253073,,,
imu,346.639626,,,,,,,87.52561320000001,-36.00516680000001,124.7270808
imu,346.741219,,,,,,,88.3801172,-37.27471560000002,122.0903256
imu,346.842751,,,,,,,87.4035412,-36.26151800000002,125.1177112
imu,346.952126,,,,,,,87.91624360000002,-36.12723880000001,125.8013144
imu,347.053719,,,,,,,88.0871444,-36.53007640000001,125.1787472
imu,347.155251,,,,,,,87.81858600000001,-36.62773400000001,124.5683872
imu,347.256813,,,,,,,88.1603876,-36.78642760000002,124.8979816
imu,347.358376,,,,,,,90.21119719999999,-37.21367960000001,123.9091984
imu,348.023052,-0.6154992312,-9.708019944000002,2.321431016800001,1.63755076,-1.19681561,-2.19539966,,,
imu,348.03156,-0.6125084672000001,-9.706225485600001,2.3184402528,1.45062801,-1.22672325,-2.28512258,,,
imu,348.040068,-0.5951620360000001,-9.6942624296,2.3046827384,1.35342818,-1.16690797,-2.25521494,,,
imu,348.048576,-0.5945638832000001,-9.6912716656,2.3082716552,1.39081273,-1.24167707,-2.20287657,,,
imu,348.057084,-0.5927694248,-9.7074217912,2.3166457944,1.28613599,-1.33139999,-2.12810747,,,
imu,348.065592,-0.5885823552,-9.711608860800002,2.3154494888,1.05435178,-1.35383072,-2.18792275,,,
imu,348.0741,-0.5885823552,-9.709814402400001,2.3160476416,0.83004448,-1.33139999,-2.18792275,,,
imu,348.082608,-0.5903768136,-9.6912716656,2.3220291696,0.81509066,-1.39869218,-2.24773803,,,
imu,348.091116,-0.5969564944000001,-9.681103068,2.3286088504,0.70293701,-1.37626145,-2.33746095,,,
imu,348.099624,-0.5999472584000001,-9.6667474008,2.3202347112,0.56835263,-1.40616909,-2.27764567,,,
imu,348.108132,-0.5999472584000001,-9.635045302400002,2.30288828,0.50853735,-1.38373836,-2.25521494,,,
imu,348.11664,-0.6035361752000001,-9.614109954400002,2.3172439472,0.45619898,-1.21924634,-2.16549202,,,
imu,348.125148,-0.5843952856000001,-9.595567217600001,2.308869808,0.64312173,-1.15195415,-2.04586146,,,
imu,348.133559,-0.5736285352000001,-9.585996772800002,2.3154494888,0.8973366700000001,-1.1893387,-1.90380017,,,
imu,348.14197,-0.5389356728,-9.5698466472,2.2945141408,1.12164397,-1.1145696,-1.82903107,,,
imu,348.15038,-0.5257763112000001,-9.5668558832,2.2951122936,1.53287402,-1.24167707,-1.88136944,,,
imu,348.158791,-0.5120187968000001,-9.577024480800002,2.2897289184,1.78708896,-1.60056875,-2.03090764,,,
imu,348.167202,-0.5132151024,-9.595567217600001,2.278962168,2.07868845,-1.78001459,-2.18792275,,,
imu,348.175612,-0.5102243384,-9.6051376624,2.2628120424,2.49739541,-1.79496841,-2.16549202,,,
imu,348.184023,-0.5180003248000001,-9.613511801600001,2.2544379032,2.64693361,-2.02675262,-2.27016876,,,
imu,348.192434,-0.5215892416000001,-9.633250844,2.2526434448,2.69927198,-2.09404481,-2.25521494,,,
imu,348.200844,-0.5233837000000001,-9.646410205600002,2.2574286672,2.87871782,-2.21367537,-2.47952224,,,
imu,348.209255,-0.5347486032000001,-9.6535880392,2.2466619168,2.85628709,-2.28844447,-2.6739219,,,
imu,348.217665,-0.5257763112000001,-9.639232372,2.2269228744,2.69179507,-2.56509014,-2.80102937,,,
imu,348.226076,-0.5347486032000001,-9.657775108800001,2.231109944,2.73665653,-2.60247469,-2.91318302,,,
imu,348.234487,-0.5239818528000001,-9.669738164800002,2.2526434448,2.54973378,-2.65481306,-2.80102937,,,
imu,348.242897,-0.5000557408,-9.651195428000001,2.237091472,2.30299575,-2.72958216,-2.98795212,,,
imu,348.251308,-0.5126169496,-9.656578803200002,2.2472600696,2.21327283,-3.07352002,-3.10758268,,,
imu,348.259719,-0.5126169496,-9.6799067624,2.2598212784,2.116073,-3.47727316,-3.18982869,,,
imu,348.268129,-0.5018501992000001,-9.704431027200002,2.2801584736,1.98148862,-3.67914973,-3.30945925,,,
imu,348.27654,-0.5012520464000001,-9.711010708000002,2.2837473904,1.88428879,-3.82868793,-3.30945925,,,
imu,348.284951,-0.5060372688000001,-9.719983000000001,2.2915233768,1.83195042,-4.15019506,-3.47395127,,,
imu,348.293361,-0.5162058664000001,-9.717590388800001,2.3064771968,1.69736604,-4.36702545,-3.36927453,,,
imu,348.301772,-0.5359449088000001,-9.716992236000001,2.3226273224,1.68241222,-4.51656365,-3.15244414,,,
imu,348.310183,-0.5526931872,-9.7151977776,2.308869808,1.77213514,-4.66610185,-3.13001341,,,
imu,348.318593,-0.5604691736,-9.708019944000002,2.3172439472,1.72727368,-4.74087095,-2.91318302,,,
imu,348.327004,-0.5556839512000001,-9.711010708000002,2.3321977672,1.68988913,-4.86797842,-2.748691,,,
imu,348.335415,-0.5610673264,-9.676317845600002,2.3244217808,1.63755076,-4.99508589,-2.60662971,,,
imu,348.343877,-0.5784137576,-9.6505972752,2.3280106976,1.65250458,-5.010039709999999,-2.68139881,,,
imu,348.35234,-0.5945638832000001,-9.672130776000001,2.3435626704,1.8169966,-4.965178249999999,-2.61410662,,,
imu,348.360802,-0.5957601888000001,-9.699645804800001,2.3315996144,1.97401171,-4.95022443,-2.47204533,,,
imu,348.369265,-0.6005454112,-9.685888290400001,2.320832864,2.10111918,-4.97265516,-2.34493786,,,
imu,348.377728,-0.6137047728000001,-9.671532623200001,2.3292070032,2.22074974,-5.03994735,-2.3000764,,,
imu,348.38619,-0.6184899952000001,-9.697253193600002,2.3339922256,2.60207215,-4.83807078,-2.0757691,,,
imu,348.394653,-0.6172936896000001,-9.749890640000002,2.3375811424,2.84881018,-4.73339404,-1.94866163,,,
imu,348.403116,-0.6214807592000001,-9.765442612800001,2.3465534344,2.75908726,-4.66610185,-1.82155416,,,
imu,348.411578,-0.6119103144000001,-9.730749750400001,2.3286088504,2.66188743,-4.51656365,-1.76921579,,,
imu,348.420041,-0.6143029256000001,-9.689477207200001,2.3232254752,2.76656417,-4.1801027,-1.64958523,,,
imu,348.428821,-0.6226770648,-9.671532623200001,2.308869808,2.96096383,-4.06794905,-1.52995467,,,
imu,348.437283,-0.6232752176,-9.648204664000001,2.2861400016,2.94601001,-3.85111866,-1.4776163,,,
imu,348.445746,-0.6388271904000001,-9.6015487456,2.2616157368,2.98339456,-3.56699608,-1.51500085,,,
imu,348.454209,-0.6400234960000001,-9.589585689600002,2.2448674584,2.998348379999999,-3.23801204,-1.45518557,,,
imu,348.462671,-0.6334438152,-9.594370912,2.21316536,3.34976315,-2.96136637,-1.4776163,,,
imu,348.471134,-0.6190881480000001,-9.606333968000001,2.204193068,3.70865483,-2.62490542,-1.5523854,,,
imu,348.479597,-0.6077232448000001,-9.6296619272,2.1904355536,3.88810067,-2.37069048,-1.52995467,,,
imu,348.488059,-0.5951620360000001,-9.641624983200002,2.1766780392,4.25446926,-2.0865679,-1.56733922,,,
imu,348.496522,-0.5736285352000001,-9.6470083584,2.1671075944,4.33671527,-1.94450661,-1.67949287,,,
imu,348.504985,-0.5592728680000001,-9.661962178400001,2.159331608,4.44886892,-1.66786094,-1.73930815,,,
imu,348.513447,-0.5508987288,-9.669140012000002,2.1527519272,4.56849948,-1.45850746,-1.74678506,,,
imu,348.52191,-0.5257763112000001,-9.678112304,2.130022120800001,4.59840712,-1.54075347,-1.89632326,,,
imu,348.530373,-0.5144114080000001,-9.704431027200002,2.12344244,4.56849948,-1.57813802,-2.13558438,,,
imu,348.539172,-0.4982612824000001,-9.7403201952,2.1330128848,4.56849948,-1.63047639,-2.1505382,,,
imu,348.547971,-0.4940742128000001,-9.7780038216,2.1198535232,4.40400746,-1.64543021,-2.27016876,,,
imu,348.55677,-0.4898871432,-9.802528086400002,2.1228442872,4.19465398,-1.7874915,-2.31503022,,,
imu,348.56557,-0.4916816016,-9.803724392000001,2.1138719952,3.85071612,-1.97441425,-2.47952224,,,
imu,348.574369,-0.4898871432,-9.803126239200001,2.1132738424,3.43200916,-2.0865679,-2.5991528,,,
imu,348.583168,-0.4922797544,-9.783387196800001,2.1096849256,3.18527113,-2.21367537,-2.60662971,,,
imu,348.591967,-0.4886908376000001,-9.769031529600001,2.1001144808,2.83385636,-2.18376773,-2.50195297,,,
imu,348.600766,-0.4964668240000001,-9.741516500800001,2.0935348,2.57964142,-2.33330593,-2.53186061,,,
imu,348.609566,-0.4928779072000001,-9.709814402400001,2.090544036,2.30299575,-2.44545958,-2.71878336,,,
imu,348.618365,-0.4970649768000001,-9.704431027200002,2.087553272,2.30299575,-2.52770559,-2.77859864,,,
imu,348.627164,-0.5114206440000001,-9.703234721600001,2.0803754384,2.16841137,-2.69219761,-2.8234601,,,
imu,348.635963,-0.5150095608,-9.7122070136,2.0911421888,2.31794957,-2.73705907,-2.79355246,,,
imu,348.644763,-0.5257763112000001,-9.714001472000001,2.0923384944,2.27308811,-2.8342589,-2.90570611,,,
imu,348.653562,-0.5341504504000001,-9.721179305600002,2.0857588136,2.39271867,-2.7594898,-2.77859864,,,
imu,348.662361,-0.5520950344000001,-9.723571916800001,2.0791791328,2.51982614,-2.65481306,-2.63653735,,,
imu,348.67116,-0.5610673264,-9.731347903200001,2.089347730400001,2.48244159,-2.77444362,-2.65149117,,,
imu,348.67996,-0.5508987288,-9.735534972800002,2.0887495776,2.57216451,-2.55013632,-2.60662971,,,
imu,348.688759,-0.5604691736,-9.727758986400001,2.0743939104,2.65441052,-2.57256705,-2.60662971,,,
imu,348.697558,-0.5520950344000001,-9.734338667200001,2.0648234656,2.62450288,-2.3856443,-2.54681443,,,
imu,348.706357,-0.5497024232000001,-9.737329431200001,2.069608688,2.62450288,-2.37069048,-2.60662971,,,
imu,348.715157,-0.5431227424,-9.744507264800001,2.06362716,2.57216451,-2.27349065,-2.39727623,,,
imu,348.723956,-0.5443190480000001,-9.7337405144,2.062430854400001,2.69179507,-2.13890627,-2.34493786,,,
imu,348.732755,-0.5455153536,-9.746899876,2.0570474792,2.72917962,-2.09404481,-2.27764567,,,
imu,348.741554,-0.5395338256000001,-9.751685098400001,2.0630290072,2.54973378,-2.13142936,-2.34493786,,,
imu,348.750017,-0.5347486032000001,-9.767237071200002,2.0708049936,2.2656112,-2.07909099,-2.33746095,,,
imu,348.758479,-0.5407301312,-9.7959484056,2.0761883688,2.14598064,-1.89964515,-2.38979932,,,
imu,348.766941,-0.5365430616000001,-9.7959484056,2.089347730400001,1.89924261,-1.9370297,-2.4496146,,,
imu,348.775403,-0.5389356728,-9.769629682400002,2.0833662024,1.53287402,-1.9370297,-2.47204533,,,
imu,348.783866,-0.5263744640000001,-9.7295534448,2.0714031464,1.368382,-1.87721442,-2.44213769,,,
imu,348.792328,-0.5389356728,-9.710412555200001,2.0839643552,1.10669015,-1.75758386,-2.29259949,,,
imu,348.80079,-0.5359449088000001,-9.709216249600003,2.0989181752,1.10669015,-1.59309184,-2.36736859,,,
imu,348.809252,-0.5215892416000001,-9.706823638400001,2.1156664536,1.09921324,-1.64543021,-2.49447606,,,
imu,348.817715,-0.5227855472,-9.702636568800001,2.12344244,1.11416706,-1.67533785,-2.63653735,,,
imu,348.826177,-0.5371412144000001,-9.715795930400002,2.1348073432,1.18145925,-1.54075347,-2.68887572,,,
imu,348.834639,-0.5419264368000001,-9.721179305600002,2.1342091904,1.2188438,-1.45103055,-2.66644499,,,
imu,347.460224,,,,,,,88.22142360000001,-36.60331960000001,124.495144
imu,347.561817,,,,,,,89.954846,-37.18926520000001,122.3466768
imu,347.663379,,,,,,,88.245838,-36.76201320000001,124.55618
imu,347.764972,,,,,,,88.184802,-37.82403960000001,121.7729384
imu,347.866504,,,,,,,88.11155880000001,-36.72539160000001,124.8369456
imu,347.968067,,,,,,,87.92845080000001,-36.65214840000002,124.739288
imu,348.069629,,,,,,,88.63646839999998,-36.7375988,124.5683872
imu,348.171192,,,,,,,89.0515132,-36.60331960000001,124.6294232
imu,348.843101,-0.5311596864,-9.709814402400001,2.129423968,1.40576655,-1.24167707,-2.57672207,,,
imu,348.851564,-0.5293652280000001,-9.690673512800002,2.1246387456,1.46558183,-1.2641078,-2.5243837,,,
imu,348.272754,,,,,,,89.0637204,-36.65214840000002,125.2519904
imu,348.374317,,,,,,,89.68628759999999,-36.38359000000002,124.3852792
imu,348.475879,,,,,,,92.0056556,-36.82304920000001,125.16654
imu,348.577472,,,,,,,89.6984948,-36.57890520000002,125.3740624
imu,348.679004,,,,,,,92.396286,-37.61651720000001,122.8105504
imu,348.780567,,,,,,,90.8215572,-36.71318440000002,125.7036568
