Type,Timestamp,Data Accelerometer X,Data Accelerometer Y,Data Accelerometer Z,Data Gyroscope X,Data Gyroscope Y,Data Gyroscope Z,Data Magnetometer X,Data Magnetometer Y,Data Magnetometer Z
imu,96.101542,-0.8679197128000001,-9.405354627200001,1.9595485728,-4.1645314,3.95477538,-1.45518557,,,
imu,96.109998,-0.8475825176000001,-9.399971252000002,1.9577541144,-3.59628624,4.38095925,-1.61220068,,,
imu,96.118454,-0.8314323920000001,-9.432869656000001,1.982876532,-2.99065653,4.59778964,-1.76173888,,,
imu,96.12691,-0.7967395296000002,-9.456197615200002,1.961941184,-2.49718047,4.94920441,-2.02343073,,,
imu,96.135366,-0.7913561544000001,-9.485507102400002,1.9595485728,-2.26539626,5.2408039,-2.31503022,,,
imu,96.143822,-0.7632429728000001,-9.485507102400002,1.9547633504,-2.07847351,5.315573,-2.62158353,,,
imu,96.152278,-0.7536725280000001,-9.519601812000001,1.9613430312,-1.88407385,5.330526819999999,-2.8234601,,,
imu,96.160733,-0.7470928472,-9.489096019200002,1.9541651976,-1.72705874,5.397819009999999,-3.03281358,,,
imu,96.169189,-0.7309427216000001,-9.470553282400001,1.9673245592,-1.59247436,5.375388279999999,-3.18982869,,,
imu,96.177652,-0.7189796656000002,-9.533957479200001,1.9762968512,-1.26349032,5.34548064,-3.32441307,,,
imu,96.186114,-0.7040258456,-9.576426328,1.9756986984,-1.03170611,5.315573,-3.11505959,,,
imu,96.194576,-0.6896701784000001,-9.5776226336,1.9756986984,-0.8672140899999999,5.18098862,-2.76364482,,,
imu,96.203038,-0.6824923448,-9.585996772800002,1.9601467256,-0.67281443,5.05388115,-2.57672207,,,
imu,96.211501,-0.6615569968000001,-9.669140012000002,1.9960358936,-0.44103022,4.82957385,-2.26269185,,,
imu,96.219963,-0.6681366776000001,-9.66016772,1.9745023928,-0.44103022,4.567882,-1.98604618,,,
imu,96.228425,-0.6800997336000001,-9.576426328,1.9673245592,-0.69524516,4.29123633,-1.79164652,,,
imu,96.236888,-0.6693329832000001,-9.5393408544,1.9625393368,-0.5980453299999999,3.99963684,-1.76921579,,,
imu,96.24535,-0.6765108168000001,-9.597361676,1.9655301008,-0.2765382,3.70803735,-1.76921579,,,
imu,96.253812,-0.684884956,-9.6667474008,1.9583522672,-0.41112258,3.52859151,-1.97109236,,,
imu,96.262274,-0.7159889016000002,-9.637437913600001,1.946987364,-0.66533752,3.4463455,-2.12810747,,,
imu,96.270737,-0.7112036792,-9.561472508000001,1.9374169192,-0.6279529699999999,3.41643786,-2.25521494,,,
imu,96.279199,-0.7153907488000001,-9.5566872856,1.9308372384,-0.61299915,3.53606842,-2.19539966,,,
imu,96.287661,-0.7243630408,-9.585996772800002,1.9284446272,-0.28401511,3.69308353,-2.27016876,,,
imu,96.296123,-0.7411113192000001,-9.5800152448,1.9128926544,-0.38869185,3.81271409,-2.35241477,,,
imu,96.304586,-0.7393168608000001,-9.551902063200002,1.9122945016,-0.40364567,3.88748319,-2.38979932,,,
imu,96.313048,-0.7255593464000001,-9.550705757600001,1.8985369872,-0.33635348,4.25385178,-2.39727623,,,
imu,96.32151,-0.7046239984,-9.597361676,1.902125904,-0.08961545,4.567882,-2.3000764,,,
imu,96.329972,-0.6675385248000001,-9.633250844,1.9116963488,0.05244583999999999,4.72489711,-2.26269185,,,
imu,96.338435,-0.6603606912000002,-9.585398620000001,1.9099018904,-0.01484635000000001,4.88938913,-2.24026112,,,
imu,96.346897,-0.6370327320000001,-9.527377798400002,1.9045185152,-0.31392275,4.91181986,-2.50942988,,,
imu,96.355359,-0.6119103144000001,-9.569248494400002,1.9128926544,-0.34383039,4.979112049999999,-2.58419898,,,
imu,96.363822,-0.5969564944000001,-9.638634219200002,1.9332298496,-0.44103022,4.814620029999999,-2.6739219,,,
imu,96.372284,-0.6005454112,-9.693066124000001,1.955959656,-0.55318387,4.57535891,-2.92813684,,,
imu,96.381115,-0.6154992312,-9.704431027200002,1.946987364,-1.15881358,4.35852852,-3.1973056,,,
imu,96.389947,-0.6328456624000001,-9.6523917336,1.955959656,-1.59995127,4.22394414,-3.09262886,,,
imu,96.398778,-0.6125084672000001,-9.648204664000001,1.9326316968,-1.70462801,4.20899032,-2.92065993,,,
imu,96.40761,-0.6208826064000001,-9.6458120528,1.9212667936,-1.7719202,4.216467229999999,-2.75616791,,,
imu,96.416441,-0.5975546472000001,-9.658373261600001,1.9093037376,-1.72705874,4.30619015,-2.50942988,,,
imu,96.425273,-0.5981528,-9.711010708000002,1.9236594048,-1.57752054,4.23889796,-2.32998404,,,
imu,96.434104,-0.6101158560000001,-9.6912716656,1.9099018904,-1.91398149,4.09683667,-2.4496146,,,
imu,96.442936,-0.5981528,-9.6499991224,1.9105000432,-1.83173548,4.05197521,-2.43466078,,,
imu,96.451768,-0.6143029256000001,-9.603343204000002,1.9158834184,-1.74201256,3.94729847,-2.65896808,,,
imu,96.460599,-0.6370327320000001,-9.6039413568,1.9182760296,-1.52518217,3.82766791,-2.9729983,,,
imu,96.469431,-0.6645477608,-9.593772759200002,1.9116963488,-1.622382,3.63326825,-3.51133582,,,
imu,96.478262,-0.6789034280000001,-9.5489112992,1.9033222096,-1.73453565,3.46129932,-3.92256587,,,
imu,96.487094,-0.6956517064000001,-9.539939007200001,1.9158834184,-1.59995127,3.20708438,-4.0197657,,,
imu,96.495925,-0.70282954,-9.5566872856,1.9057148208,-1.46536689,3.26689966,-4.0945348,,,
imu,96.504757,-0.7141944432000001,-9.5877912312,1.9093037376,-1.54013599,3.24446893,-4.146873169999999,,,
imu,96.513588,-0.7273538048000001,-9.5865949256,1.9212667936,-1.48032071,3.39400713,-3.96742733,,,
imu,96.52242,-0.7285501104000001,-9.5800152448,1.9428002944,-1.73453565,3.53606842,-3.72816621,,,
imu,96.531251,-0.7381205552000002,-9.597361676,1.9374169192,-1.89155076,3.50616078,-3.57862801,,,
imu,96.540083,-0.7452983888000001,-9.6284656216,1.9338280024,-2.09342733,3.60336061,-3.58610492,,,
imu,96.548914,-0.7261574992000001,-9.6087265792,1.9368187664,-2.35511918,3.76785263,-3.48142818,,,
imu,96.557746,-0.7387187080000002,-9.602745051200001,1.9487818224,-2.60185721,3.70803735,-3.47395127,,,
imu,96.566577,-0.7249611936,-9.625474857600002,1.9511744336,-2.5943803,3.65569898,-3.60105874,,,
imu,96.575409,-0.7297464160000001,-9.6290637744,1.95895042,-2.62428794,3.60336061,-3.54124346,,,
imu,96.583874,-0.7004369288000002,-9.5865949256,1.9535670448,-2.83364142,3.50616078,-3.56367419,,,
imu,96.592338,-0.723764888,-9.545322382400002,1.964931948,-3.06542563,3.47625314,-3.72816621,,,
imu,96.600803,-0.7213722768,-9.5590798968,1.9774931568,-2.85607215,3.50616078,-3.75059694,,,
imu,96.609268,-0.7291482632,-9.6218859408,1.9733060872,-2.55699575,3.46129932,-3.82536604,,,
imu,96.617733,-0.7524762224000001,-9.6494009696,1.979885768,-2.56447266,3.38653022,-3.93751969,,,
imu,96.626198,-0.7482891528000001,-9.630858232800001,2.00381188,-2.62428794,3.26689966,-3.91508896,,,
imu,96.634663,-0.7644392784,-9.587193078400002,2.004410032800001,-2.99813344,3.20708438,-3.93751969,,,
imu,96.643127,-0.7668318896,-9.5949690648,2.0151767832,-2.69158013,3.18465365,-3.73564312,,,
imu,96.651592,-0.7530743752000001,-9.645213900000002,2.027737992,-2.6691494,3.28185348,-3.39170526,,,
imu,96.660057,-0.7644392784,-9.641624983200002,2.009793408,-2.76634923,3.43139168,-3.2720747,,,
imu,96.668424,-0.7638411256000001,-9.602745051200001,2.0079989496,-2.87850288,3.47625314,-3.05524431,,,
imu,96.676889,-0.7357279440000001,-9.596763523200002,2.0109897136,-2.72896468,3.47625314,-2.85336774,,,
imu,96.685354,-0.726755652,-9.599156134400001,2.0181675472,-2.72896468,3.54354533,-2.91318302,,,
imu,96.693818,-0.7207741240000002,-9.593772759200002,2.0259435336,-2.78130305,3.55102224,-2.92813684,,,
imu,96.702283,-0.7112036792,-9.555490980000002,2.0253453808,-2.99813344,3.35662258,-2.98795212,,,
imu,96.710748,-0.7076147624000001,-9.520199964800002,2.0480751872,-2.80373378,3.43139168,-2.94309066,,,
imu,96.719213,-0.7135962904,-9.5154147424,2.0420936592,-2.71401086,3.50616078,-2.96552139,,,
imu,96.727678,-0.7076147624000001,-9.516611048000001,2.03371952,-2.52708811,3.46877623,-2.59167589,,,
imu,96.736142,-0.6986424704000002,-9.513620284000002,2.0259435336,-2.66167249,3.63326825,-2.43466078,,,
imu,96.744607,-0.6932590952000001,-9.5154147424,2.0283361448,-2.80373378,3.79028336,-2.26269185,,,
imu,96.753072,-0.6723237472000001,-9.5004609224,2.0361121312,-2.62428794,3.99963684,-2.10567674,,,
imu,96.761537,-0.6854831088000001,-9.4873015608,2.0301306032,-2.62428794,4.13422122,-1.87389253,,,
imu,96.770002,-0.6681366776000001,-9.478927421600002,2.039701048,-2.54951884,4.05945212,-2.08324601,,,
imu,96.778466,-0.6621551496,-9.508835061600001,2.072599452,-2.34016536,4.02954448,-2.40475314,,,
imu,96.78693,-0.6418179544000001,-9.551902063200002,2.0702068408,-2.02613514,4.00711375,-2.45709151,,,
imu,96.795394,-0.6430142600000001,-9.551902063200002,2.0564493264,-1.79435093,3.797760269999999,-2.80850628,,,
imu,96.803857,-0.6531828576,-9.548313146400002,2.0708049936,-2.00370441,3.66317589,-3.33188998,,,
imu,96.812321,-0.6687348304,-9.572239258400002,2.0672160768,-1.7719202,3.47625314,-3.6459202,,,
imu,96.820784,-0.6567717744000001,-9.5949690648,2.0821698968,-1.63733582,3.37905331,-3.66087402,,,
imu,96.829248,-0.6687348304,-9.599156134400001,2.0887495776,-1.83921239,3.23699202,-3.60853565,,,
imu,96.837711,-0.684884956,-9.593174606400002,2.0899458832,-1.83921239,3.22951511,-3.52628964,,,
imu,96.846175,-0.6824923448,-9.600352440000002,2.0983200224,-1.89155076,3.17717674,-3.29450543,,,
imu,96.854638,-0.6884738728,-9.618895176800002,2.0971237168,-1.57004363,3.0725,-3.13749032,,,
imu,96.863102,-0.6974461648000001,-9.590183842400002,2.090544036,-1.89155076,2.94539253,-3.18982869,,,
imu,96.871565,-0.7004369288000002,-9.534555632000002,2.0839643552,-2.19810407,2.87062343,-3.31693616,,,
imu,96.880029,-0.6968480120000001,-9.533359326400001,2.07858098,-1.98127368,2.79585433,-3.40665908,,,
imu,96.888493,-0.6998387760000001,-9.5327611736,2.0731976048,-1.82425857,2.75846978,-3.42908981,,,
imu,96.896956,-0.7333353328000001,-9.520798117600002,2.0690105352,-1.64481273,2.57154703,-3.59358183,,,
imu,96.90542,-0.7500836112000001,-9.499862769600002,2.0570474792,-1.48779762,2.48930102,-3.57862801,,,
imu,96.913883,-0.7614485144,-9.4962738528,2.051664104,-1.13638285,2.48930102,-3.43656672,,,
imu,96.922347,-0.7859727792000001,-9.483712644000002,2.0749920632,-1.16629049,2.51173175,-3.43656672,,,
imu,96.93081,-0.804515516,-9.499264616800001,2.0743939104,-0.9644139199999999,2.63136231,-3.39918217,,,
imu,96.160778,,,,,,,-92.481758,182.2717764,118.9896968
imu,96.939274,-0.8182730304000002,-9.537546396000002,2.0552530208,-0.53823005,2.98277708,-3.28702852,,,
imu,96.947737,-0.8075062800000001,-9.551902063200002,2.0522622568,-0.56066078,3.25194584,-3.18982869,,,
imu,96.956201,-0.8110951968000001,-9.567454036,2.0767865216,-0.59056842,3.51363769,-2.98795212,,,
imu,96.964664,-0.8260490168000001,-9.591978300800001,2.0737957576,-0.54570696,3.73046808,-2.92813684,,,
imu,96.973128,-0.8158804192000001,-9.561472508000001,2.0408973536,-0.5681376899999999,3.9697292,-2.87579847,,,
imu,96.981591,-0.8278434752000001,-9.547714993600001,2.0660197712,-0.68776825,4.28375942,-2.86832156,,,
imu,96.990061,-0.8344231560000002,-9.617100718400001,2.0708049936,-0.69524516,4.37348234,-2.95804448,,,
imu,96.998531,-0.8212637944000001,-9.657775108800001,2.0761883688,-1.05413684,4.762281659999999,-2.94309066,,,
imu,97.007001,-0.8063099744000001,-9.6428212888,2.072001299200001,-1.34573633,4.95668132,-2.92065993,,,
imu,97.015471,-0.8098988912000001,-9.6470083584,2.0749920632,-1.72705874,5.091265699999999,-3.0477674,,,
imu,97.023941,-0.7901598488000001,-9.654186192000001,2.0809735912,-1.93641222,4.95668132,-3.14496723,,,
imu,97.032411,-0.7871690848,-9.673925234400002,2.0791791328,-2.05604278,5.091265699999999,-3.08515195,,,
imu,97.040881,-0.744700236,-9.662560331200002,2.0618327016,-2.4448421,5.09874261,-2.94309066,,,
imu,97.049351,-0.7333353328000001,-9.613511801600001,2.0522622568,-2.73644159,5.12117334,-3.01785976,,,
imu,97.057821,-0.7554669864000001,-9.594370912,2.0660197712,-2.72148777,5.001542779999999,-2.91318302,,,
imu,97.06629,-0.7195778184000001,-9.588389384000001,2.0540567152,-2.57194957,4.95668132,-2.81598319,,,
imu,97.07476,-0.7273538048000001,-9.5501076048,2.0414955064,-2.63924176,4.87443531,-2.80850628,,,
imu,97.08323,-0.723764888,-9.5172092008,2.0594400904,-2.60185721,4.784712389999999,-2.68139881,,,
imu,97.0917,-0.7189796656000002,-9.530368562400001,2.0432899648,-2.45231901,4.7921893,-2.5243837,,,
imu,97.10017,-0.7076147624000001,-9.520199964800002,2.0343176728,-2.40745755,4.784712389999999,-2.49447606,,,
imu,97.10864,-0.7076147624000001,-9.4831144912,2.0391028952,-2.01118132,4.717420199999999,-2.45709151,,,
imu,97.11711,-0.7153907488000001,-9.503451686400002,2.0684123824,-1.89902767,4.4931129,-2.5243837,,,
imu,97.12558,-0.7004369288000002,-9.530966715200002,2.0731976048,-1.77939711,4.28375942,-2.46456842,,,
imu,97.13405,-0.7046239984,-9.509433214400001,2.0749920632,-1.6971511,4.05945212,-2.43466078,,,
imu,97.14252,-0.7189796656000002,-9.484908949600001,2.0857588136,-1.71210492,3.93234465,-2.35989168,,,
imu,97.150989,-0.7147925960000001,-9.5040498392,2.0857588136,-1.59995127,3.86505246,-2.32998404,,,
imu,97.159459,-0.7129981376000001,-9.524387034400002,2.1001144808,-1.51770526,3.82766791,-2.31503022,,,
imu,97.167929,-0.7315408744,-9.531564868,2.1060960088,-1.51770526,3.65569898,-2.40475314,,,
imu,97.176399,-0.7441020832,-9.532163020800002,2.111479384,-1.53265908,3.47625314,-2.30755331,,,
imu,97.184869,-0.7351297912000001,-9.527975951200002,2.1078904672,-1.5476129,3.67812971,-2.16549202,,,
imu,97.193333,-0.7363260968000002,-9.568052188800001,2.1276295096,-1.622382,3.66317589,-2.33746095,,,
imu,97.201796,-0.7195778184000001,-9.599156134400001,2.1150683008,-1.51770526,3.68560662,-2.35241477,,,
imu,97.21026,-0.7375224024000001,-9.588389384000001,2.0977218696,-1.63733582,3.5958837,-2.32250713,,,
imu,97.218723,-0.7357279440000001,-9.553696521600001,2.1288258152,-1.61490509,3.66317589,-2.41970696,,,
imu,97.227187,-0.726755652,-9.567454036,2.1479667048,-1.80182784,3.66317589,-2.47952224,,,
imu,97.23565,-0.7249611936,-9.6159044128,2.1306202736,-1.8466893,3.6706528,-2.50942988,,,
imu,97.244114,-0.7375224024000001,-9.632054538400002,2.130022120800001,-1.68967419,3.66317589,-2.65896808,,,
imu,97.252577,-0.7333353328000001,-9.594370912,2.1461722464,-1.87659694,3.67812971,-2.748691,,,
imu,97.261041,-0.7441020832,-9.5704448,2.1838558728,-1.9962275,3.55102224,-2.66644499,,,
imu,97.269504,-0.7441020832,-9.592576453600001,2.1826595672,-1.93641222,3.75289881,-2.48699915,,,
imu,97.277968,-0.7536725280000001,-9.6039413568,2.1760798864,-2.05604278,3.98468302,-2.17296893,,,
imu,97.286432,-0.7470928472,-9.592576453600001,2.178472497600001,-2.01865823,4.31366706,-1.81407725,,,
imu,97.294895,-0.7793930984000002,-9.585996772800002,2.1820614144,-2.01118132,4.73237402,-1.54490849,,,
imu,97.303359,-0.8051136688,-9.576426328,2.1700983584,-2.1457657,5.05388115,-1.33555501,,,
imu,97.311822,-0.8302360864000001,-9.538742701600002,2.1629205248,-2.16819643,5.50249575,-1.3280781,,,
imu,97.320286,-0.8768920048000002,-9.495077547200001,2.164714983200001,-2.13081188,6.12307928,-1.54490849,,,
imu,97.328749,-0.9462777296000001,-9.4974701584,2.1557426912,-2.01118132,6.68384753,-2.001,,,
imu,97.337213,-1.070693512,-9.5082369088,2.156340844,-1.71958183,7.73061493,-2.3000764,,,
imu,97.345676,-1.1975019056,-9.468758824,2.1425833296,-1.5476129,9.1287971,-2.71878336,,,
imu,97.35414,-1.3332825912,-9.4843107968,2.1826595672,-1.57752054,11.18494735,-3.26459779,,,
imu,97.362603,-1.5827123088,-9.547116840800001,2.1641168304,-1.43545925,13.7644813,-4.0197657,,,
imu,97.371067,-1.7531858568,-9.5842023144,2.1312184264,-1.53265908,17.41321338,-4.67773378,,,
imu,97.379531,-1.85427368,-9.61530626,2.1013107864,-1.54013599,21.96665157,-5.216071299999999,,,
imu,97.387994,-1.9087055848,-9.657176956,2.1120775368,-1.78687402,26.94627363,-5.5151477,,,
imu,97.39681,-1.863245972,-9.642223136000002,2.075590216,-2.16819643,32.232449,-6.08339286,,,
imu,97.405625,-1.7902713304,-9.547714993600001,2.0379065896,-2.66167249,37.18964033,-7.13763717,,,
imu,97.414441,-1.668846312,-9.487899713600001,2.036710284,-2.92336434,41.49634048999999,-8.46105024,,,
imu,97.423256,-1.423603664,-9.527377798400002,2.057645632,-2.70653395,45.36190295999999,-9.39566399,,,
imu,97.432072,-1.1909222248,-9.571042952800001,2.0408973536,-2.52708811,48.25546713,-10.36018538,,,
imu,97.440888,-1.0216449824,-9.534555632000002,2.0552530208,-2.54951884,50.07235626,-11.27984531,,,
imu,97.449703,-0.8158804192000001,-9.4454308648,2.0588419376,-2.5943803,50.88733945,-12.17707451,,,
imu,97.458519,-0.6472013296000001,-9.450814240000001,2.090544036,-2.04108896,50.85743180999999,-12.8425195,,,
imu,97.467334,-0.499457588,-9.4490197816,2.075590216,-1.51022835,50.37143266,-13.40328775,,,
imu,97.47615,-0.3971734592000001,-9.414925072,2.1037033976,-0.92702937,49.40691126999999,-13.50048758,,,
imu,97.484966,-0.3253951232,-9.418513988800001,2.1371999544,-0.5307531400000001,48.04611365,-13.62759505,,,
imu,97.493781,-0.2434481896,-9.457992073600002,2.1401907184,0.15712258,46.44605490999999,-13.38085702,,,
imu,97.502597,-0.170473548,-9.461580990400002,2.1348073432,0.53096808,44.38990466,-12.79018113,,,
imu,97.511412,-0.10467674,-9.435860420000001,2.1677057472,0.9870595899999999,42.16926239,-12.12473614,,,
imu,97.520228,-0.04187069600000001,-9.469356976800002,2.1850521784,1.37585891,39.64954372,-11.22750694,,,
imu,97.529044,0.0137575144,-9.536350090400001,2.2035949152,1.63007385,36.91299466,-10.24055482,,,
imu,97.537859,0.0741709472,-9.567454036,2.225128416,1.79456587,34.00447667,-9.39566399,,,
imu,97.546675,0.1471455888,-9.549509452,2.2077819848,1.83195042,30.75949773,-8.29655822,,,
imu,97.55549,0.1860255208,-9.553098368800002,2.2245302632,1.82447351,27.23787312,-7.361944469999999,,,
imu,97.564306,0.1770532288,-9.606932120800002,2.2346988608,1.79456587,23.5592334,-6.49462291,,,
imu,97.573122,0.1752587704,-9.644615747200001,2.2155579712,1.53287402,20.15723935,-5.35813259,,,
imu,97.581937,0.1094619624,-9.630260080000001,2.1958189288,1.01696723,16.88235277,-4.07210407,,,
imu,97.590753,0.0490485296,-9.633848996800001,2.1994078456,0.77770611,13.78691203,-2.88327538,,,
imu,97.599233,-0.04187069600000001,-9.6733270816,2.216156124,0.28423005,11.03540915,-1.84398489,,,
imu,97.607713,-0.1399677552,-9.675121540000001,2.1904355536,-0.08213854000000001,8.597936489999999,-1.16358608,,,
imu,97.616193,-0.2416537312,-9.638036066400002,2.171294664,-0.65786061,6.54178624,-0.5878640099999999,,,
imu,97.624673,-0.3008708584000001,-9.591380148,2.1677057472,-1.19619813,4.784712389999999,-0.29626452,,,
imu,97.633153,-0.3523119992,-9.592576453600001,2.1665094416,-1.16629049,3.46129932,-0.2140185099999998,,,
imu,97.641633,-0.3983697648000001,-9.557883591200001,2.133611037600001,-1.30835178,2.27994754,-0.4308489,,,
imu,97.650113,-0.451605364,-9.499862769600002,2.126433204,-1.37564397,1.21074941,-0.5953409199999999,,,
imu,97.658593,-0.5114206440000001,-9.4908904776,2.1569389968,-1.27844414,0.27613566,-0.7523560299999998,,,
imu,97.667074,-0.5377393672000002,-9.530966715200002,2.1748835808,-1.20367504,-0.2622018600000002,-0.9318018699999999,,,
imu,97.675554,-0.5688433128,-9.529770409600001,2.165313136,-1.16629049,-0.6659550000000003,-0.9766633299999998,,,
imu,97.684034,-0.5993491056000001,-9.52558334,2.1874447896,-0.93450628,-1.02484668,-0.8495558599999999,,,
imu,97.692514,-0.6501920936000001,-9.532163020800002,2.2006041512,-1.01675229,-1.22672325,-0.71497148,,,
imu,97.700994,-0.6549773160000001,-9.560874355200001,2.1748835808,-0.8821679099999999,-0.8977392100000001,-0.5056179999999999,,,
imu,97.709474,-0.6693329832000001,-9.577024480800002,2.1754817336,-1.06161375,-0.7033395499999999,-0.29626452,,,
imu,97.717954,-0.70282954,-9.553696521600001,2.1748835808,-1.18872122,-0.3818324200000003,-0.1990646899999999,,,
imu,97.726434,-0.7010350816000002,-9.5327611736,2.177276192,-1.01675229,0.02939763000000006,-0.1392494099999999,,,
imu,97.734914,-0.6597625384000001,-9.554294674400001,2.1766780392,-0.7401066199999999,0.47801223,-0.2140185099999998,,,
imu,97.743394,-0.6627533024,-9.541733465600002,2.1557426912,-0.54570696,0.6125966099999998,-0.54300255,,,
imu,97.751874,-0.6531828576,-9.502255380800001,2.1419851768,-0.43355331,0.6873657099999999,-0.8944173199999998,,,
imu,96.26223,,,,,,,-92.115542,182.0886684,118.7699672
imu,96.363823,,,,,,,-91.8836052,182.186326,118.4769944
imu,96.465386,,,,,,,-92.2254068,182.4426772,119.0141112
imu,96.567101,,,,,,,-91.6638756,182.4670916,118.4892016
imu,96.668541,,,,,,,-92.115542,182.0398396,118.8920392
imu,96.770043,,,,,,,-89.71072360000001,181.6492092,116.4017704
imu,96.871605,,,,,,,-91.7737404,182.1130828,118.3671296
imu,96.973198,,,,,,,-89.674102,181.8323172,116.3407344
imu,97.760276,-0.6376308848000001,-9.519003659200001,2.1766780392,-0.32887657,0.8518577299999999,-1.35798574,,,
imu,97.768757,-0.6256678288,-9.5184055064,2.1611260664,-0.07466163,0.98644211,-1.72435433,,,
imu,97.777237,-0.6119103144000001,-9.474740352000001,2.1724909696,-0.10456927,0.9565344699999998,-2.08324601,,,
imu,97.785717,-0.5927694248,-9.452010545600002,2.195220776,-0.08213854000000001,0.8967191899999998,-2.5991528,,,
imu,97.794197,-0.5718340768000001,-9.5118258256,2.1964170816,0.08983038999999998,0.6948426199999997,-2.748691,,,
imu,97.80266,-0.5365430616000001,-9.532163020800002,2.1940244704,0.09730729999999999,0.52287369,-2.79355246,,,
imu,97.811124,-0.5078317272000001,-9.470553282400001,2.2029967624,-0.08961545,0.1191205499999999,-2.83093701,,,
imu,97.819587,-0.4749333232000001,-9.4454308648,2.204193068,0.0001074699999999984,-0.1575251200000003,-2.74121409,,,
imu,97.828051,-0.4139217376000001,-9.471151435200001,2.2077819848,0.14964567,-0.7332471900000002,-2.5991528,,,
imu,97.836514,-0.3553027632,-9.486105255200002,2.1964170816,0.20946095,-1.61552257,-2.35241477,,,
imu,97.844978,-0.3032634696000001,-9.450216087200001,2.207183832,0.41133752,-2.6847207,-2.27764567,,,
imu,97.853442,-0.2440463424,-9.413130613600002,2.207183832,0.71789083,-4.04551832,-2.14306129,,,
imu,97.861905,-0.1632957144,-9.436458572800001,2.2155579712,1.16650543,-5.59323869,-1.95613854,,,
imu,97.870369,-0.137575144,-9.485507102400002,2.189239248,1.39081273,-7.53723529,-1.76921579,,,
imu,97.878832,-0.1280046992,-9.4765348104,2.1808651088,1.88428879,-9.4887088,-1.36546265,,,
imu,97.887296,-0.1280046992,-9.426888128000002,2.1521537744,2.30299575,-11.47756686,-0.8121713099999999,,,
imu,97.895759,-0.1381732968,-9.404756474400001,2.162322372,2.75908726,-13.60848621,-0.1990646899999999,,,
imu,97.904223,-0.1573141864,-9.453206851200001,2.1730891224,3.2376095,-15.58239045,0.3766573800000002,,,
imu,97.912686,-0.2039701048,-9.553098368800002,2.174285428,3.67874719,-17.46657177,0.87013344,,,
imu,97.92115,-0.2320832864,-9.66016772,2.186248484,3.96286977,-19.18626107,1.55053225,,,
imu,97.929613,-0.3122357616,-9.6326526912,2.1665094416,3.86566994,-20.7040738,2.25336179,,,
imu,97.938077,-0.3822196392,-9.6051376624,2.1796688032,3.61893191,-21.96767159,2.99357588,,,
imu,97.94654,-0.4342589328000001,-9.585398620000001,2.1497611632,3.57407045,-22.77517787,3.86837435,,,
imu,97.955004,-0.5060372688000001,-9.6260730104,2.1557426912,3.282470959999999,-23.40323831,4.444096419999999,,,
imu,97.963468,-0.5754229936,-9.678112304,2.129423968,3.1628404,-23.70979162,5.079633769999999,,,
imu,97.971931,-0.6466031768,-9.657176956,2.0767865216,2.96844074,-23.65745325,5.81237095,,,
imu,97.980395,-0.7165870544000001,-9.585996772800002,2.0408973536,2.407672489999999,-23.45557668,6.103970440000001,,,
imu,97.988858,-0.7793930984000002,-9.558481744000002,2.0438881176,2.43010322,-22.80508551,6.16378572,,,
imu,97.997322,-0.8421991424,-9.5842023144,2.0385047424,2.51234923,-22.16954816,5.96938606,,,
imu,98.005778,-0.8840698384000001,-9.578220786400001,2.0133823248,2.22074974,-21.5265339,5.19926433,,,
imu,98.014234,-0.9289312984000001,-9.514218436800002,1.9703153232,2.18336519,-20.6293047,4.339419680000001,,,
imu,98.022689,-0.9444832712000001,-9.508835061600001,1.952968892,2.23570356,-19.57506039,3.37489829,,,
imu,98.031145,-0.9516611048000001,-9.538742701600002,1.9553615032,2.44505704,-18.46847771,2.1860696,,,
imu,98.039601,-0.9660167720000001,-9.5638651192,1.923061252,2.72170271,-17.34694121,1.20659439,,,
imu,98.048057,-0.9289312984000001,-9.5393408544,1.9015277512,3.02077911,-16.08334342,0.18225772,,,
imu,98.056513,-0.8996218112000001,-9.5219944232,1.8997332928,3.18527113,-14.872084,-0.8420789499999999,,,
imu,98.064969,-0.8601437264,-9.547714993600001,1.8907610008,3.40210152,-13.69073222,-1.61220068,,,
imu,98.073425,-0.8308342392000001,-9.575828175200002,1.8823868616,3.43948607,-12.65144173,-2.14306129,,,
imu,98.081881,-0.804515516,-9.603343204000002,1.8764053336,3.731085559999999,-11.49999759,-2.26269185,,,
imu,98.090337,-0.8003284464,-9.580613397600002,1.8793960976,3.73856247,-10.49809165,-2.27016876,,,
imu,98.098793,-0.7740097232000002,-9.5776226336,1.872218264,3.64136264,-9.61581627,-2.39727623,,,
imu,98.107249,-0.7470928472,-9.639830524800002,1.8740127224,3.80585466,-8.79335617,-2.35241477,,,
imu,98.115705,-0.7189796656000002,-9.669738164800002,1.8704238056,3.60397809,-8.18024955,-2.55429134,,,
imu,98.12416,-0.7046239984,-9.6637566368,1.8799942504,3.49182444,-7.62695821,-2.77859864,,,
imu,98.132616,-0.7034276928000001,-9.668541859200001,1.8692275,3.26751714,-7.238158889999999,-2.96552139,,,
imu,98.141072,-0.6950535536000001,-9.714599624800002,1.8787979448,3.09554821,-6.66243682,-3.08515195,,,
imu,98.149528,-0.708811068,-9.7427128064,1.878199792,2.69179507,-6.146530029999999,-3.13749032,,,
imu,98.157984,-0.7195778184000001,-9.730749750400001,1.8758071808,2.25813429,-5.817545989999999,-3.18982869,,,
imu,98.16644,-0.7327371800000001,-9.741516500800001,1.8758071808,1.70484295,-5.383885210000001,-3.32441307,,,
imu,98.174896,-0.7494854584000001,-9.709814402400001,1.860255208,1.34595127,-4.76330168,-3.32441307,,,
imu,98.183352,-0.7429057776,-9.6846919848,1.8644422776,1.10669015,-4.1801027,-3.2720747,,,
imu,98.191808,-0.7764023344000002,-9.685290137600001,1.8554699856,0.8674290299999999,-3.61185754,-3.29450543,,,
imu,98.200264,-0.7781967928000002,-9.671532623200001,1.8435069296,0.60573718,-3.02118165,-3.30198234,,,
imu,98.208734,-0.7560651392000002,-9.656578803200002,1.8411143184,0.02253820000000001,-2.60247469,-3.30198234,,,
imu,98.217203,-0.7596540560000001,-9.644017594400001,1.83931986,-0.127,-2.10899863,-3.41413599,,,
imu,98.225673,-0.7698226536000001,-9.6494009696,1.8399180128,-0.44103022,-1.69029167,-3.48890509,,,
imu,98.234143,-0.7500836112000001,-9.6290637744,1.8225715816,-0.44103022,-1.144477240000001,-3.37675144,,,
imu,98.242613,-0.7668318896,-9.595567217600001,1.8219734288,-0.52327623,-0.7033395499999999,-3.30945925,,,
imu,98.251083,-0.741709472,-9.590183842400002,1.8249641928,-0.40364567,-0.1650020300000001,-3.1225365,,,
imu,98.259553,-0.7399150136000001,-9.603343204000002,1.8165900536,-0.26158438,0.08173599999999981,-2.92813684,,,
imu,98.268023,-0.7273538048000001,-9.612913648800001,1.8381235544,-0.34383039,0.4032431299999999,-2.87579847,,,
imu,98.276493,-0.7177833600000001,-9.6326526912,1.8369272488,-0.29149202,0.7097964399999999,-2.86084465,,,
imu,98.284963,-0.6944554008000001,-9.608128426400002,1.806421456,-0.41112258,1.03878048,-2.70382954,,,
imu,98.293433,-0.7052221512000001,-9.579417092000002,1.818384512,-0.43355331,1.33785688,-2.59167589,,,
imu,98.301902,-0.6842868032,-9.575828175200002,1.8135992896,-0.45598404,1.45001053,-2.66644499,,,
imu,98.310372,-0.6675385248000001,-9.609324732000001,1.8345346376,-0.44103022,1.33037997,-2.74121409,,,
imu,98.318842,-0.6693329832000001,-9.657176956,1.8297494152,-0.38869185,1.30047233,-2.96552139,,,
imu,98.327312,-0.6741182056000001,-9.6775141512,1.8470958464,-0.5008455,1.31542615,-3.30198234,,,
imu,98.335782,-0.6812960392000001,-9.721179305600002,1.872218264,-0.84478336,1.15841104,-3.50385891,,,
imu,98.344252,-0.6747163584000001,-9.7540777096,1.878199792,-1.05413684,1.07616503,-3.88518132,,,
imu,98.352722,-0.6980443176000002,-9.764246307200002,1.88418132,-1.48032071,0.84438082,-4.18425772,,,
imu,98.361192,-0.70282954,-9.744507264800001,1.9003314456,-1.86164312,0.62007352,-4.23659609,,,
imu,98.369662,-0.7058203040000001,-9.718786694400002,1.8853776256,-2.28035008,0.5453044199999999,-4.124442439999999,,,
imu,98.378132,-0.7118018320000001,-9.687084596000002,1.8877702368,-2.52708811,0.4854891399999999,-4.16182699,,,
imu,98.386601,-0.7129981376000001,-9.633250844,1.8758071808,-2.57194957,0.2686587499999997,-4.169303899999999,,,
imu,98.395071,-0.6507902464,-9.611119190400002,1.8919573064,-2.48222665,0.1041667299999998,-3.93751969,,,
imu,98.403541,-0.5784137576,-9.5776226336,1.893153612,-2.48222665,-0.2921095,-3.85527368,,,
imu,98.412359,-0.4791203928000001,-9.509433214400001,1.8949480704,-2.43736519,-0.9874621299999999,-3.86275059,,,
imu,98.421178,-0.2936930248,-9.422701058400001,1.9009295984,-2.34016536,-1.8622606,-3.95995042,,,
imu,98.429996,0.1118545736,-9.349128264,1.9039203624,-2.01865823,-3.7314881,-3.74312003,,,
imu,98.438814,0.6322475096000001,-9.3317818328,1.9715116288,-1.25601341,-7.193297429999999,-3.5711511,,,
imu,98.447632,1.1598182792,-9.300079734400002,1.9822783792,-0.6503837,-12.62153409,-3.39170526,,,
imu,98.456451,1.6580795616,-9.204375286400001,1.9565578088,0.5459219,-20.15825937,-2.50942988,,,
imu,98.465269,2.0020174216,-9.0787631984,1.9188741824,1.88428879,-29.41467395,-1.19349372,,,
imu,98.474087,2.126433204,-9.055435239200001,1.8554699856,3.52173208,-39.94216323,0.1897346300000002,,,
imu,98.482906,2.1048997032,-8.990236584000002,1.7310542032,5.64517452,-51.1350975,1.69259354,,,
imu,98.491724,1.8997332928,-8.908289650400002,1.6275737688,7.65646331,-61.74483279,3.97305109,,,
imu,98.500542,1.9009295984,-8.9627215552,1.603049504,10.31824327,-71.44238505999999,7.307752950000001,,,
imu,98.50936,1.878199792,-9.010573779200001,1.4576983736,13.03983851,-80.93058384999999,9.977009820000001,,,
imu,98.518179,1.4786337216,-9.073977976,1.3332825912,15.96331032,-90.15709079,12.10045226,,,
imu,98.526997,1.0748805816,-9.1960011472,1.2477467408,19.14099707,-98.13495375999999,15.15850845,,,
imu,98.535815,0.6071250920000001,-9.3126409432,1.1436681536,22.18409944,-104.22863541,18.62031778,,,
imu,98.544633,0.08972292000000001,-9.340754124800002,1.06172122,24.4720339,-108.4829972,21.67089706,,,
imu,98.553452,-0.334965568,-9.329389221600001,1.0120745376,26.52070724,-110.53167054,24.45230758,,,
imu,98.56227,-0.7847764736,-9.376045140000002,1.0060930096,29.02547209,-110.84570076,26.77014968,,,
imu,98.571088,-1.1945111416,-9.492684936000002,0.9283331456000001,30.99937633,-109.70173353,27.86925545,,,
imu,97.07473,,,,,,,-91.871398,182.7600644,118.7211384
imu,97.176293,,,,,,,-92.0911276,182.4060556,119.06294
imu,97.277886,,,,,,,-92.38410040000001,182.6501996,118.4281656
imu,97.379448,,,,,,,-92.6404516,182.4060556,118.9774896
imu,97.481041,,,,,,,-93.5681988,182.2229476,117.6469048
imu,97.582634,,,,,,,-96.3026116,183.2117308,116.5482568
imu,97.684105,,,,,,,-94.5203604,182.5281276,114.4608256
imu,97.785851,,,,,,,-96.4002692,183.0164156,115.6815456
imu,98.579906,-1.5354582376,-9.70502918,0.9091922560000001,32.4723276,-107.25678396,27.95150146,,,
imu,98.588725,-1.746606176,-9.812098531200002,0.8679197128000001,33.519095,-103.35383694,27.29353338,,,
imu,98.597543,-1.8201789704,-9.8049206976,0.7895616960000001,33.66115628999999,-98.64338364,25.3644906,,,
imu,98.606361,-1.9463892112,-9.800733628000001,0.7141944432000001,33.63872556,-93.7534845,22.70271064,,,
imu,98.614831,-2.1270313568,-9.907204826400001,0.6621551496,33.6686332,-88.31777093,19.78671574,,,
imu,98.623301,-2.180266956,-10.1081841672,0.6830904976000001,32.83869618999999,-82.09698180999999,16.95296685,,,
imu,98.631771,-2.141387024,-10.3336877728,0.7159889016000002,31.37322183,-75.37523972,14.26127925,,,
imu,98.640241,-2.0731976048,-10.51253546,0.7458965416000001,28.71144187,-68.54882088999999,11.42005345,,,
imu,98.648711,-2.1072923144,-10.6213992696,0.7560651392000002,25.34683237,-61.87194026,8.556396920000001,,,
imu,98.65718,-2.0827680496,-10.6136232832,0.7955432240000001,21.31677788,-55.15767508,5.715171119999999,,,
imu,98.66565,-2.0026155744,-10.6118288248,0.8667234072000001,17.40635395,-48.11442586,3.33751374,,,
imu,98.67412,-1.938015072,-10.5741451984,0.7333353328000001,13.51836075,-41.23566866,1.41594787,,,
imu,98.68259,-1.9272483216,-10.383932608,0.663949608,9.742521199999999,-34.70084932,-0.6775869299999999,,,
imu,98.69106,-1.8291512624,-10.3588101904,0.6525847048000001,6.59474209,-28.31556818,-2.49447606,,,
imu,98.69953,-1.7178948416,-10.2649002008,0.601143564,3.90305449,-22.11720979,-3.86275059,,,
imu,98.708,-1.653892492,-10.132708432,0.5508987288,1.34595127,-16.47961965,-5.17868675,,,
imu,98.71647,-1.5952735176,-10.0352095256,0.5772174520000001,-0.50832241,-11.07381372,-6.15068505,,,
imu,98.72494,-1.5157191952,-9.9030177568,0.5443190480000001,-1.53265908,-6.13905312,-6.71893021,,,
imu,98.73341,-1.3972849408,-9.741516500800001,0.5604691736,-2.54204193,-1.46598437,-7.42175975,,,
imu,98.741879,-1.2513356576,-9.755872168000002,0.5694414656000001,-2.75139541,2.66126995,-8.16197384,,,
imu,98.750349,-1.0910307072,-9.800135475200001,0.5927694248,-2.58690339,5.898771979999999,-8.64049608,,,
imu,98.758819,-0.9229497704,-9.789368724800001,0.5933675776,-2.60933412,8.351198459999999,-8.99938776,,,
imu,98.767289,-0.8081044328000001,-9.721179305600002,0.6190881480000001,-2.57194957,10.28771815,-9.20874124,,,
imu,98.775759,-0.7082129152000001,-9.681103068,0.6717255944000001,-2.5196112,11.69337723,-9.201264329999999,,,
imu,98.784229,-0.646005024,-9.731946056000002,0.6902683312000001,-2.36259609,12.53079115,-9.16387978,,,
imu,98.792699,-0.6089195504,-9.745105417600001,0.6956517064000001,-2.23548862,12.82986755,-8.99938776,,,
imu,98.801169,-0.6196863008000001,-9.7325442088,0.7542706808000001,-2.09342733,13.15137468,-8.90218793,,,
imu,98.809639,-0.6376308848000001,-9.704431027200002,0.7793930984000002,-2.19062716,13.34577434,-8.99191085,,,
imu,98.818109,-0.6806978864000002,-9.659569567200002,0.7925524600000001,-2.07847351,13.43549726,-8.700311359999999,,,
imu,98.826578,-0.7590559032000002,-9.722973764,0.8332268504000001,-2.13828879,13.77195821,-8.610588439999999,,,
imu,98.835048,-0.8093007384,-9.803126239200001,0.8398065312,-2.09342733,14.40001865,-8.76760355,,,
imu,98.843518,-0.8463862120000001,-9.802528086400002,0.8433954480000001,-2.4448421,15.21500184,-8.79003428,,,
imu,98.852376,-0.8571529624000002,-9.7911631832,0.8643307960000001,-2.885979789999999,16.0823234,-8.83489574,,,
imu,98.860846,-0.88227538,-9.803724392000001,0.8661252544000001,-3.2673022,16.98702951,-8.96948012,,,
imu,98.869315,-0.9026125752,-9.819276364800002,0.8445917536,-3.68600916,17.83939725,-8.9545263,,,
imu,98.877785,-0.9516611048000001,-9.850978463200002,0.8529658928000001,-4.08228539,18.75905718,-8.83489574,,,
imu,98.886255,-0.9426888128,-9.840809865600002,0.8499751288000001,-4.59819218,19.79834767,-8.67040372,,,
imu,98.894725,-0.9672130776000001,-9.836024643200002,0.8499751288000001,-5.18139116,20.76286906,-8.74517282,,,
imu,98.903195,-0.9941299536000001,-9.850978463200002,0.8457880592000001,-5.7346825,21.70495972,-8.81246501,,,
imu,98.911665,-1.0539452336,-9.8617452136,0.8469843648000001,-6.28049693,22.80406549,-8.92461866,,,
imu,98.920135,-1.1287143336,-9.849184004800001,0.8601437264,-6.84126518,24.1573862,-9.12649523,,,
imu,98.928605,-1.18135178,-9.824659740000001,0.8643307960000001,-7.31231051,25.69762966,-9.43304854,,,
imu,98.937075,-1.2662894776,-9.807313308800001,0.8715086296000001,-7.701109829999999,27.56685716,-9.64987893,,,
imu,98.945545,-1.363788384,-9.792957641600001,0.8876587552000001,-8.21701662,29.66039196,-9.99381679,,,
imu,98.954014,-1.429585192,-9.7403201952,0.88227538,-8.48618538,32.29226428,-10.21064718,,,
imu,98.962484,-1.4618854432,-9.7151977776,0.8416009896000001,-8.62076976,35.14096699,-10.80132307,,,
imu,98.970954,-1.5019616808,-9.728955292000002,0.8583492680000002,-8.66563122,37.97471588,-11.54153716,,,
imu,98.979424,-1.4941856944,-9.722973764,0.8553585040000001,-8.5011392,41.09258735,-12.12473614,,,
imu,98.987894,-1.4481279288,-9.6745233872,0.86732156,-8.560954480000001,44.07587444,-12.74531967,,,
imu,98.996364,-1.396686788,-9.669738164800002,0.9079959504000001,-8.605815940000001,46.83485423,-13.3659032,,,
imu,99.004834,-1.3954904824,-9.727160833600001,0.9008181168,-8.366554820000001,49.57888019999999,-13.85937926,,,
imu,99.013304,-1.4403519424,-9.7636481544,0.9486703408000001,-8.28430881,52.15841415,-13.99396364,,,
imu,99.021766,-1.4882041664,-9.7989391696,0.9696056888000001,-8.48618538,54.90991703,-13.98648673,,,
imu,99.030228,-1.5276822512,-9.839015407200002,0.9510629520000001,-8.66563122,57.84834266,-13.85190235,,,
imu,99.038691,-1.4989709168,-9.836024643200002,0.9325202152000002,-9.03947672,61.04098322999999,-13.44814921,,,
imu,99.047153,-1.4337722616,-9.7474980288,0.9450814240000001,-9.51799896,64.31586981,-12.80513495,,,
imu,99.055615,-1.295000812,-9.709814402400001,0.9355109792000001,-9.90679828,67.29167999,-12.36399726,,,
imu,99.064077,-1.1149568192,-9.752283251200002,0.9169682424000002,-9.809598450000001,69.32539951,-12.04249013,,,
imu,99.07254,-0.8433954480000001,-9.754675862400001,0.9026125752,-10.06381339,70.27496708000001,-11.75089064,,,
imu,99.081002,-0.6083213976,-9.678112304,0.9444832712000001,-10.24325923,69.99832141,-11.93033648,,,
imu,99.089464,-0.4145198904,-9.5842023144,0.9917373424000001,-10.18344395,68.93660019000001,-12.31165889,,,
imu,99.097926,-0.2434481896,-9.5423316184,1.0312154272,-9.413322220000001,66.86549612,-12.42381254,,,
imu,99.106389,-0.1393696024,-9.551303910400001,1.0515526224,-8.91984616,64.2336238,-12.51353546,,,
imu,99.114851,-0.06998387760000001,-9.547714993600001,1.0772731928,-8.388985550000001,61.19052143,-12.27427434,,,
imu,99.123313,-0.0005981528000000001,-9.533359326400001,1.115554972,-7.820740389999999,58.07264996,-11.4966757,,,
imu,99.131776,-0.0053833752,-9.507040603200002,1.1592201264,-7.162772309999999,54.90244011999999,-10.50972358,,,
imu,99.140238,-0.0406743904,-9.557285438400001,1.2058760448,-6.377696759999999,51.78456865,-9.59754056,,,
imu,99.1487,-0.0592171272,-9.624278552000002,1.2513356576,-5.861789969999999,48.70408173,-8.1320662,,,
imu,99.157162,-0.09989151760000002,-9.6326526912,1.274065464,-5.60757503,45.62359481,-6.89837605,,,
imu,99.165625,-0.1453511304,-9.605735815200001,1.3183287712,-5.47299065,42.81227664999999,-5.67216281,,,
imu,99.174087,-0.1232194768,-9.609324732000001,1.3434511888,-5.21877571,39.94862011999999,-4.56558013,,,
imu,99.182549,-0.1489400472,-9.620091482400001,1.3584050088,-5.27859099,37.05505595,-3.86275059,,,
imu,99.191011,-0.1668846312,-9.627269316000001,1.37575144,-5.21877571,34.20635324,-3.13001341,,,
imu,99.199474,-0.1567160336,-9.591978300800001,1.3990793992,-4.90474549,31.45485036,-2.41223005,,,
imu,99.207936,-0.1549215752,-9.5632669664,1.4259962752,-4.9122224,28.56128619,-2.06081528,,,
imu,99.216398,-0.170473548,-9.610521037600002,1.4547076096,-4.800068749999999,25.72006039,-1.91127708,,,
imu,99.224858,-0.200381188,-9.641624983200002,1.4576983736,-4.635576729999999,23.02089588,-1.67949287,,,
imu,99.233318,-0.2590001624000001,-9.6218859408,1.444539012,-4.53089999,20.43388502,-1.29817046,,,
imu,99.241777,-0.334965568,-9.574631869600001,1.4762411104,-4.52342308,18.14595056,-0.91684805,,,
imu,99.250237,-0.3780325696000001,-9.578220786400001,1.4917930832,-4.2393005,16.21690778,-0.55047946,,,
imu,99.258697,-0.4234921824,-9.630260080000001,1.4810263328,-4.00003938,14.54207994,-0.15420323,,,
imu,99.267157,-0.4420349192,-9.667943706400001,1.4792318744,-3.70096298,13.26352833,0.2794575500000001,,,
imu,99.275616,-0.4551942808000001,-9.683495679200002,1.5007653752,-3.97013174,11.83543852,0.4663803,,,
imu,99.284076,-0.4862982264000001,-9.661364025600001,1.5378508488,-4.02994702,10.65408674,0.7579797899999998,,,
imu,99.292536,-0.5126169496,-9.6703363176,1.5444305296,-3.78320899,9.56245788,0.9822870900000003,,,
imu,99.300995,-0.5126169496,-9.6817012208,1.5420379184,-3.760778259999999,8.76990542,1.17668675,,,
imu,99.309455,-0.5227855472,-9.690075360000002,1.54024346,-3.7906859,7.977352959999999,1.3636095,,,
imu,99.317915,-0.5311596864,-9.672130776000001,1.54024346,-3.78320899,7.364246339999999,1.46080933,,,
imu,99.326375,-0.5341504504000001,-9.663158484000002,1.5270840984,-3.84302427,6.78852427,1.42342478,,,
imu,99.334834,-0.5491042704000001,-9.659569567200002,1.5396453072,-3.85050118,6.205325289999999,1.24397894,,,
imu,99.343294,-0.5897786608000001,-9.659569567200002,1.5534028216,-3.67105534,5.65203395,1.27388658,,,
imu,99.351754,-0.6071250920000001,-9.658971414400002,1.5516083632,-3.50656332,5.3903421,0.9673332700000001,,,
imu,99.360214,-0.6274622872000001,-9.645213900000002,1.5378508488,-3.59628624,5.046404239999999,0.50376485,,,
imu,99.368673,-0.681894192,-9.620689635200002,1.5169155008,-3.63367079,4.89686604,0.2495499100000003,,,
imu,99.377133,-0.7076147624000001,-9.594370912,1.5169155008,-3.64862461,4.76975857,0.1149655300000001,,,
imu,99.385593,-0.7213722768,-9.6051376624,1.5240933344,-3.49908641,5.00901969,-0.04952648999999987,,,
imu,97.88763,,,,,,,-94.27621640000001,182.3450196,112.9837544
imu,97.989193,,,,,,,-95.82653080000001,182.9309652,115.8646536
imu,98.090755,,,,,,,-93.9710364,182.9431724,115.5106448
imu,98.192318,,,,,,,-93.22639720000001,182.2961908,118.2938864
imu,98.293911,,,,,,,-92.86018120000001,182.247362,118.4281656
imu,98.395412,,,,,,,-92.66486600000002,182.0154252,118.6601024
imu,98.497005,,,,,,,-89.918246,182.0520468,119.6366784
imu,98.598781,,,,,,,-82.49626839999999,180.3430388,122.5297848
imu,99.394052,-0.7357279440000001,-9.630858232800001,1.5240933344,-3.53647096,5.308096089999999,-0.1616801399999999,,,
imu,99.402512,-0.7494854584000001,-9.632054538400002,1.5079432088,-3.43179422,5.49501884,0.0626271599999999,,,
imu,99.410972,-0.7620466672,-9.610521037600002,1.5151210424,-3.44674804,5.921202709999999,0.2869344599999999,,,
imu,99.419432,-0.7512799168000001,-9.581809703200001,1.5157191952,-3.37945585,6.467017139999999,0.4589033900000001,,,
imu,99.428254,-0.7458965416000001,-9.576426328,1.5330656264,-3.29720984,6.885724099999999,0.44394957,,,
imu,99.437076,-0.7207741240000002,-9.593772759200002,1.5336637792,-3.117764,7.154892859999999,0.3691804699999999,,,
imu,99.445898,-0.7171852072000001,-9.597959828800002,1.5360563904,-3.14019473,7.47639999,0.2570268200000001,,,
imu,99.454721,-0.7076147624000001,-9.604539509600002,1.5354582376,-3.35702512,7.6334151,-0.004665029999999959,,,
imu,99.463543,-0.6830904976000001,-9.6260730104,1.5605806552,-2.93831816,7.910060769999999,-0.09438795,,,
imu,99.472365,-0.6585662328000002,-9.6458120528,1.55519728,-2.75887232,7.977352959999999,-0.34860289,,,
imu,99.481187,-0.6693329832000001,-9.645213900000002,1.5767307808,-2.95327198,8.20166026,-0.5878640099999999,,,
imu,99.49001,-0.6723237472000001,-9.6499991224,1.5892919896,-2.99813344,8.36615228,-0.5878640099999999,,,
imu,99.498832,-0.6657440664000001,-9.690075360000002,1.5976661288,-3.12524091,8.52316739,-0.52057182,,,
imu,99.507654,-0.6549773160000001,-9.724768222400002,1.6257793104,-3.117764,8.732520869999998,-0.25887997,,,
imu,99.516476,-0.6442105656,-9.723571916800001,1.6317608384,-3.38693276,9.00168963,0.02524261000000028,,,
imu,99.525298,-0.6095177032000001,-9.7301515976,1.6413312832,-3.73834753,9.24842766,0.2794575500000001,,,
imu,99.534121,-0.6041343280000001,-9.744507264800001,1.650901728,-4.0897623,9.554980969999999,0.5710570399999999,,,
imu,99.542943,-0.5945638832000001,-9.7193848472,1.6455183528,-4.35893106,9.7269499,0.9224718100000002,,,
imu,99.551765,-0.5808063688,-9.6912716656,1.6503035752,-4.45613089,9.801718999999999,1.11687147,,,
imu,99.560587,-0.5784137576,-9.6733270816,1.647910964,-4.321546509999999,9.90639574,1.07948692,,,
imu,99.56941,-0.5879842024,-9.673925234400002,1.6395368248,-4.59819218,9.93630338,0.9897640000000001,,,
imu,99.578232,-0.5628617848,-9.685290137600001,1.6425275888,-4.73277656,9.913872649999998,0.89256417,,,
imu,99.587054,-0.5688433128,-9.635045302400002,1.6347516024,-4.702868919999999,9.69704226,0.60844159,,,
imu,99.595876,-0.5622636320000001,-9.594370912,1.6341534496,-4.418746339999999,9.62975007,0.2944113700000002,,,
imu,99.604699,-0.5544876456000001,-9.5949690648,1.6562851032,-4.43370016,9.29328912,0.02524261000000028,,,
imu,99.613521,-0.5401319784,-9.602745051200001,1.6562851032,-4.299115779999999,9.009166539999999,-0.4233719899999999,,,
imu,99.622343,-0.5485061176,-9.617100718400001,1.6802112152,-4.209392859999999,8.73999778,-0.74487912,,,
imu,99.630817,-0.5305615336,-9.6428212888,1.680809368,-4.08228539,8.50073666,-0.8046943999999998,,,
imu,99.63929,-0.5096261856000001,-9.6458120528,1.6939687296,-4.24677741,8.14932189,-1.01404788,,,
imu,99.647764,-0.5144114080000001,-9.602745051200001,1.7119133136,-4.2393005,7.85024549,-1.02152479,,,
imu,99.656238,-0.5227855472,-9.632054538400002,1.7364375784,-4.396315609999999,7.461446169999999,-0.99161715,,,
imu,99.664712,-0.4851019208000001,-9.652989886400002,1.7448117176,-4.21686977,7.19227741,-0.8645096799999998,,,
imu,99.673185,-0.4809148512,-9.6009505928,1.710717008,-4.299115779999999,7.11750831,-0.82712513,,,
imu,99.681659,-0.505439116,-9.561472508000001,1.7220819112,-4.19443904,6.728708989999999,-0.82712513,,,
imu,99.690133,-0.4839056152000001,-9.575230022400001,1.713707772,-4.22434668,6.50440169,-0.7000176599999999,,,
imu,99.698606,-0.4743351704000001,-9.547116840800001,1.7053336328,-4.157054489999999,6.2128022,-0.6476792899999999,,,
imu,99.70708,-0.4599795032,-9.510031367200002,1.7095207024,-3.98508556,6.033356359999999,-0.6925407499999998,,,
imu,99.715554,-0.4498109056,-9.5219944232,1.7196893,-3.46170186,5.73427996,-0.6775869299999999,,,
imu,99.724028,-0.4312681688,-9.568650341600001,1.728661592,-2.99813344,5.56231103,-0.6551562,,,
imu,99.732501,-0.442633072,-9.6224840936,1.7627563016,-2.71401086,5.315573,-0.7897405799999999,,,
imu,99.740975,-0.4240903352000001,-9.623082246400001,1.7687378296,-2.78130305,5.12865025,-0.7598329399999999,,,
imu,99.749449,-0.4109309736,-9.5949690648,1.7812990384,-2.70653395,5.0164966,-0.6476792899999999,,,
imu,99.757922,-0.4151180432000001,-9.6224840936,1.7801027328,-2.54204193,5.068834969999999,-0.3859874399999998,,,
imu,99.766396,-0.4025568344,-9.644615747200001,1.7801027328,-2.370073,5.136127159999999,-0.18411087,,,
imu,99.77487,-0.3965753064,-9.651793580800001,1.791467636,-2.38502682,5.18846553,0.07758098000000002,,,
imu,99.783344,-0.3893974728000001,-9.638634219200002,1.7878787192,-2.46727283,5.19594244,0.2869344599999999,,,
imu,99.791817,-0.376836264,-9.665551095200001,1.797449164,-2.37754991,5.23332699,0.4215188400000001,,,
imu,99.800291,-0.3876030144000001,-9.685290137600001,1.7872805664,-2.33268845,5.14360407,0.2944113700000002,,,
imu,99.808765,-0.3606861384,-9.675719692800001,1.7962528584,-2.48970356,5.046404239999999,0.15982699,,,
imu,99.817238,-0.3684621248000001,-9.639830524800002,1.7878787192,-2.370073,5.136127159999999,-0.01961884999999985,,,
imu,99.825712,-0.370854736,-9.612315496,1.782495344,-2.12333497,5.12117334,-0.40094126,,,
imu,99.834289,-0.3421434016,-9.5907819952,1.7771119688,-2.04108896,5.05388115,-0.5953409199999999,,,
imu,99.842866,-0.3594898328000001,-9.573435564,1.7818971912,-2.02613514,4.92677368,-0.9318018699999999,,,
imu,99.851442,-0.3481249296000001,-9.561472508000001,1.7669433712,-2.06351969,4.814620029999999,-1.14115535,,,
imu,99.860019,-0.3469286240000001,-9.539939007200001,1.758569232,-2.13081188,4.93425059,-1.45518557,,,
imu,99.868596,-0.334965568,-9.507638756,1.7543821624,-1.95884295,4.95668132,-1.54490849,,,
imu,99.877172,-0.3343674152,-9.4555994624,1.7394283424,-1.77939711,4.96415823,-1.5523854,,,
imu,99.885749,-0.3403489432000001,-9.457992073600002,1.7430172592,-1.43545925,4.90434295,-1.65706214,,,
imu,99.894326,-0.3236006648,-9.502853533600002,1.7507932456,-1.19619813,4.96415823,-1.76921579,,,
imu,99.902903,-0.2984782472,-9.5291722568,1.7501950928,-0.85973718,4.89686604,-1.88136944,,,
imu,99.911479,-0.2930948720000001,-9.508835061600001,1.7454098704,-0.64290679,4.717420199999999,-2.03090764,,,
imu,99.920056,-0.2990764,-9.502853533600002,1.7681396768,-0.127,4.46320526,-2.29259949,,,
imu,99.928633,-0.3086468448,-9.583604161600002,1.77950458,-0.08961545,4.08935976,-2.70382954,,,
imu,99.937209,-0.2978800944000001,-9.659569567200002,1.7669433712,0.30666078,3.94729847,-2.81598319,,,
imu,99.945813,-0.3116376088,-9.641026830400001,1.7627563016,0.33656842,3.78280645,-2.92065993,,,
imu,99.954389,-0.334965568,-9.590183842400002,1.770532288,0.26927623,3.52859151,-3.07767504,,,
imu,99.962966,-0.3325729568,-9.655980650400002,1.7962528584,0.7104139199999999,3.31923803,-3.06272122,,,
imu,99.971543,-0.3541064576,-9.723571916800001,1.7663452184,0.7702292,3.03511545,-3.11505959,,,
imu,99.980119,-0.3774344168000001,-9.748096181600001,1.7818971912,0.60573718,2.87810034,-3.21225942,,,
imu,99.988696,-0.4037531400000001,-9.717590388800001,1.7890750248,0.33656842,2.70613141,-3.27955161,,,
imu,99.997273,-0.4312681688,-9.716992236000001,1.7992436224,-0.11952309,2.65379304,-3.45152054,,,
imu,100.005849,-0.4366515440000001,-9.727160833600001,1.7878787192,-0.17186146,2.83323888,-3.24216706,,,
imu,100.014426,-0.4629702672000001,-9.730749750400001,1.7687378296,-0.31392275,3.00520781,-3.07767504,,,
imu,100.023003,-0.4839056152000001,-9.723571916800001,1.770532288,-0.47841477,3.05754618,-2.91318302,,,
imu,100.03158,-0.4833074624000001,-9.690075360000002,1.7507932456,-0.85973718,3.39400713,-2.56176825,,,
imu,100.039934,-0.4940742128000001,-9.669738164800002,1.7412228008,-0.6503837,3.55849915,-2.55429134,,,
imu,100.048288,-0.5000557408,-9.644017594400001,1.7202874528,-0.83730645,3.76785263,-2.65896808,,,
imu,100.056642,-0.4886908376000001,-9.584800467200001,1.7095207024,-0.76253735,4.01459066,-2.57672207,,,
imu,100.064996,-0.5156077136000001,-9.531564868,1.7005484104,-0.71019898,4.126744309999999,-2.748691,,,
imu,100.073351,-0.5072335744,-9.535153784800002,1.6826038264,-0.52327623,4.32862088,-2.94309066,,,
imu,100.081705,-0.499457588,-9.538742701600002,1.683800132,-0.31392275,4.51554363,-2.84589083,,,
imu,100.090059,-0.4874945320000001,-9.516611048000001,1.6861927432,-0.24663056,4.672558739999999,-2.90570611,,,
imu,100.098413,-0.4862982264000001,-9.509433214400001,1.686790896,0.08235347999999998,4.85948149,-2.68887572,,,
imu,100.106767,-0.481513004,-9.519601812000001,1.683800132,0.28423005,5.0164966,-2.57672207,,,
imu,100.115121,-0.4480164472000001,-9.529770409600001,1.6969594936,0.60573718,5.1660348,-2.3000764,,,
imu,100.123476,-0.4234921824,-9.5237888816,1.701744716,0.74779847,5.36791137,-2.25521494,,,
imu,100.13183,-0.4270810992000001,-9.533957479200001,1.6909779656,1.18893616,5.43520356,-2.24773803,,,
imu,100.140184,-0.3911919312,-9.596763523200002,1.701744716,1.2936129,5.32304991,-2.16549202,,,
imu,100.148538,-0.3923882368,-9.614109954400002,1.6939687296,1.39828964,5.22585008,-2.1505382,,,
imu,100.156892,-0.3882011672000001,-9.641624983200002,1.692772424,1.5179202,5.15108098,-2.17296893,,,
imu,100.165247,-0.3636769024000001,-9.689477207200001,1.7328486616,1.5926893,5.14360407,-2.09072292,,,
imu,100.173601,-0.352910152,-9.735534972800002,1.716698536,1.46558183,5.12117334,-1.97856927,,,
imu,100.181955,-0.34393786,-9.7427128064,1.7161003832,0.9945364999999999,4.96415823,-2.02343073,,,
imu,100.190309,-0.3385544848000001,-9.724768222400002,1.7358394256,0.8524752099999999,4.8669584,-1.89632326,,,
imu,100.198663,-0.3355637208,-9.7301515976,1.731652356,0.7253677399999999,4.784712389999999,-1.80660034,,,
imu,100.207018,-0.3236006648,-9.736731278400002,1.7238763696,0.38142988,4.73237402,-1.82903107,,,
imu,98.700191,,,,,,,-77.11289320000002,178.9270036,120.4545608
imu,98.801693,,,,,,,-79.94496360000001,179.866958,122.6518568
imu,98.903286,,,,,,,-78.6754148,179.4030844,120.344696
imu,99.00494,,,,,,,-83.2409076,179.6716428,122.1391544
imu,99.106411,,,,,,,-87.41577000000001,180.5505612,121.2724432
imu,99.207973,,,,,,,-90.1501828,181.3684436,120.9062272
imu,99.309536,,,,,,,-90.79716440000001,181.2585788,120.9672632
imu,99.411068,,,,,,,-90.8459932,181.453894,120.3324888
imu,100.215372,-0.3074505392,-9.739123889600002,1.7232782168,0.14216876,4.42582071,-1.99352309,,,
imu,100.223726,-0.3224043592,-9.723571916800001,1.7178948416,-0.13447691,4.16412886,-2.29259949,,,
imu,100.23208,-0.3218062064,-9.682897526400001,1.7155022304,-0.44850713,3.9697292,-2.40475314,,,
imu,100.240544,-0.3092449976000001,-9.651793580800001,1.725670828,-0.68776825,3.7454219,-2.5243837,,,
imu,100.249007,-0.3146283728000001,-9.656578803200002,1.7071280912,-0.5980453299999999,3.52859151,-2.79355246,,,
imu,100.257471,-0.3289840400000001,-9.652989886400002,1.692772424,-0.61299915,3.39400713,-3.01038285,,,
imu,100.265934,-0.3355637208,-9.630858232800001,1.6861927432,-0.64290679,3.33419185,-3.00290594,,,
imu,100.274398,-0.3283858872000001,-9.611119190400002,1.7065299384,-0.5681376899999999,3.18465365,-2.98795212,,,
imu,100.282861,-0.3337692624,-9.612315496,1.6921742712,-0.36626112,3.19960747,-2.95804448,,,
imu,100.291325,-0.3457323184,-9.6009505928,1.6885853544,-0.37373803,3.18465365,-2.80850628,,,
imu,100.299788,-0.3427415544,-9.5740337168,1.6921742712,-0.2765382,3.31176112,-2.73373718,,,
imu,100.308252,-0.3367600264,-9.571042952800001,1.6963613408,-0.36626112,3.33419185,-2.748691,,,
imu,100.316716,-0.3295821928000001,-9.5812115504,1.6885853544,-0.08213854000000001,3.43886859,-2.5991528,,,
imu,100.325179,-0.3379563320000001,-9.594370912,1.6736315344,0.08983038999999998,3.25942275,-2.73373718,,,
imu,100.333643,-0.3391526376000001,-9.596763523200002,1.6879872016,0.2468455,3.34166876,-2.79355246,,,
imu,100.342106,-0.3523119992,-9.606932120800002,1.6921742712,0.03749201999999999,3.40148404,-2.79355246,,,
imu,100.35057,-0.3463304712,-9.618297024,1.68978166,0.05992275,3.51363769,-3.01785976,,,
imu,100.359033,-0.3582935272000001,-9.631456385600002,1.6915761184,0.26179932,3.4463455,-3.15992105,,,
imu,100.367497,-0.3786307224000001,-9.661364025600001,1.6891835072,0.2468455,3.46877623,-3.30198234,,,
imu,100.37596,-0.3726491944000001,-9.6912716656,1.6849964376,0.29170696,3.64074516,-3.37675144,,,
imu,100.384424,-0.3750418056000001,-9.696056888000001,1.6861927432,0.14216876,3.72299117,-3.39170526,,,
imu,100.392887,-0.391790084,-9.701440263200002,1.7083243968,-0.16438455,3.79028336,-3.35432071,,,
imu,100.401351,-0.3941826952,-9.681103068,1.7125114664,-0.41112258,3.90243701,-3.45152054,,,
imu,100.409814,-0.3989679176000001,-9.646410205600002,1.7011465632,-0.5980453299999999,4.104313579999999,-3.33936689,,,
imu,100.418278,-0.406743904,-9.6733270816,1.7023428688,-0.9943215599999999,4.09683667,-3.41413599,,,
imu,100.426742,-0.4109309736,-9.710412555200001,1.710717008,-1.31582869,4.14169813,-3.73564312,,,
imu,100.435205,-0.4205014184,-9.758862932000001,1.73464312,-1.45788998,4.25385178,-3.71321239,,,
imu,100.444022,-0.4264829464000001,-9.752881404000002,1.7023428688,-1.46536689,4.246374869999999,-3.68330475,,,
imu,100.452839,-0.4312681688,-9.702038416,1.7113151608,-1.80930475,4.3435747,-3.68330475,,,
imu,100.461656,-0.4342589328000001,-9.6709344704,1.7149040776,-2.00370441,4.62769728,-3.2720747,,,
imu,100.470473,-0.4288755576000001,-9.655980650400002,1.6849964376,-1.82425857,4.76975857,-2.90570611,,,
imu,100.47929,-0.4205014184,-9.646410205600002,1.6760241456,-1.60742818,4.88938913,-2.62906044,,,
imu,100.488107,-0.4103328208,-9.633250844,1.6616684784,-1.48032071,5.091265699999999,-2.51690679,,,
imu,100.496924,-0.4037531400000001,-9.6296619272,1.6491072696,-1.15133667,5.136127159999999,-2.4496146,,,
imu,100.505741,-0.3977716120000001,-9.606932120800002,1.6676500064,-1.07656757,5.023973509999999,-2.6739219,,,
imu,100.514557,-0.3905937784,-9.588987536800001,1.6754259928,-0.74758353,4.95668132,-2.87579847,,,
imu,100.523374,-0.3965753064,-9.589585689600002,1.6724352288,-0.59056842,4.85948149,-3.10010577,,,
imu,100.532191,-0.3923882368,-9.568650341600001,1.6562851032,-0.68029134,4.75480475,-3.3468438,,,
imu,100.541008,-0.3672658192000001,-9.595567217600001,1.683800132,-0.59056842,4.56040509,-3.45152054,,,
imu,100.549825,-0.3726491944000001,-9.620091482400001,1.6760241456,-0.7401066199999999,4.29123633,-3.72816621,,,
imu,100.558642,-0.3864067088000001,-9.608128426400002,1.6802112152,-0.85973718,4.26132869,-3.5711511,,,
imu,100.567459,-0.3654713608,-9.5985579816,1.67482784,-0.91955246,4.17908268,-3.1973056,,,
imu,100.576276,-0.3732473472,-9.5985579816,1.668846312,-0.83730645,3.98468302,-3.20478251,,,
imu,100.585093,-0.3810233336,-9.610521037600002,1.6730333816,-1.00179847,3.820191,-3.24216706,,,
imu,100.59391,-0.3690602776000001,-9.606932120800002,1.6700426176,-1.09152139,3.75289881,-3.1225365,,,
imu,100.602727,-0.3882011672000001,-9.619493329600001,1.7011465632,-1.01675229,3.78280645,-3.06272122,,,
imu,100.611544,-0.3870048616000001,-9.66016772,1.7113151608,-1.06161375,3.68560662,-2.95804448,,,
imu,100.620361,-0.3947808480000001,-9.6733270816,1.7029410216,-1.33825942,3.46877623,-2.8982292,,,
imu,100.629177,-0.4019586816,-9.686486443200002,1.7178948416,-1.45788998,3.40148404,-2.81598319,,,
imu,100.637994,-0.4097346680000001,-9.697253193600002,1.7208856056,-1.51022835,3.48373005,-2.9729983,,,
imu,100.646509,-0.4103328208,-9.682299373600001,1.7172966888,-1.48779762,3.35662258,-3.03281358,,,
imu,100.655023,-0.4163143488000001,-9.666149248000002,1.7274652864,-1.41302852,3.41643786,-2.8982292,,,
imu,100.663538,-0.4378478496000001,-9.659569567200002,1.7364375784,-1.4728438,3.40896095,-2.80102937,,,
imu,100.672052,-0.4324644744,-9.711608860800002,1.761559996,-1.52518217,3.4463455,-2.94309066,,,
imu,100.680566,-0.4312681688,-9.752881404000002,1.7340449672,-1.57004363,3.49120696,-2.91318302,,,
imu,100.689081,-0.4312681688,-9.725964528,1.7322505088,-1.7719202,3.43139168,-2.91318302,,,
imu,100.697595,-0.4312681688,-9.661364025600001,1.7442135648,-1.95884295,3.57345297,-2.81598319,,,
imu,100.70611,-0.4360533912000001,-9.630260080000001,1.7573729264,-2.04108896,3.82766791,-2.55429134,,,
imu,100.714624,-0.4300718632,-9.633250844,1.7537840096,-1.97379677,4.07440594,-2.12810747,,,
imu,100.723138,-0.430670016,-9.641624983200002,1.7172966888,-1.96631986,4.23142105,-1.90380017,,,
imu,100.731653,-0.4187069600000001,-9.627867468800002,1.713707772,-1.79435093,4.388436159999999,-1.66453905,,,
imu,100.740167,-0.3965753064,-9.597959828800002,1.710717008,-1.90650458,4.500589809999999,-1.46266248,,,
imu,100.748682,-0.3899956256000001,-9.575230022400001,1.6999502576,-1.92893531,4.56040509,-1.57481613,,,
imu,100.757196,-0.3870048616000001,-9.5668558832,1.710717008,-1.64481273,4.62022037,-1.85893871,,,
imu,100.76571,-0.400762376,-9.561472508000001,1.7059317856,-1.37564397,4.60526655,-2.12810747,,,
imu,100.774225,-0.3774344168000001,-9.553098368800002,1.7023428688,-1.36069015,4.50806672,-2.43466078,,,
imu,100.782739,-0.3582935272000001,-9.558481744000002,1.7113151608,-1.1737674,4.44825144,-2.60662971,,,
imu,100.791254,-0.3475267768,-9.588389384000001,1.6993521048,-0.90459864,4.39591307,-2.76364482,,,
imu,100.799768,-0.352910152,-9.614109954400002,1.7059317856,-0.874691,4.171605769999999,-2.90570611,,,
imu,100.808282,-0.3535083048,-9.6284656216,1.7161003832,-0.81487572,3.9697292,-2.90570611,,,
imu,100.816797,-0.3391526376000001,-9.646410205600002,1.7274652864,-1.16629049,3.65569898,-2.99542903,,,
imu,100.825311,-0.3421434016,-9.651793580800001,1.7119133136,-1.15881358,3.43886859,-3.14496723,,,
imu,100.833826,-0.3307784984000001,-9.6470083584,1.7095207024,-1.46536689,3.07997691,-3.21973633,,,
imu,100.84234,-0.3176191368,-9.666149248000002,1.7089225496,-1.42050543,2.71360832,-3.07019813,,,
imu,100.850818,-0.3020671640000001,-9.6912716656,1.7155022304,-1.52518217,2.28742445,-2.96552139,,,
imu,100.859295,-0.3116376088,-9.702038416,1.7029410216,-1.4728438,2.13040934,-2.92813684,,,
imu,100.867773,-0.3176191368,-9.711010708000002,1.7053336328,-1.66724346,1.90610204,-3.03281358,,,
imu,100.87625,-0.3188154424,-9.668541859200001,1.7035391744,-1.71210492,1.71917929,-2.78607555,,,
imu,100.884728,-0.3325729568,-9.672728928800002,1.7161003832,-1.74201256,1.58459491,-2.94309066,,,
imu,100.893205,-0.3570972216000001,-9.675719692800001,1.7208856056,-1.95136604,1.5023489,-3.07767504,,,
imu,100.901683,-0.3792288752000001,-9.688280901600002,1.722680064,-2.30278081,1.577118,-3.2720747,,,
imu,100.91016,-0.4193051128000001,-9.706225485600001,1.7232782168,-2.24296553,1.6518871,-3.21973633,,,
imu,100.918638,-0.4390441552000001,-9.688280901600002,1.7196893,-2.38502682,1.90610204,-3.24964397,,,
imu,100.927115,-0.4701481008,-9.671532623200001,1.7232782168,-2.72148777,2.19770153,-3.33936689,,,
imu,100.935593,-0.4713444064,-9.640428677600001,1.6963613408,-2.80373378,2.72108523,-3.39918217,,,
imu,100.94407,-0.4851019208000001,-9.627867468800002,1.7071280912,-2.64671867,3.3715764,-3.18982869,,,
imu,100.952548,-0.5078317272000001,-9.671532623200001,1.7298578976,-2.65419558,3.93234465,-3.11505959,,,
imu,100.961026,-0.4976631296000001,-9.656578803200002,1.7059317856,-2.78877996,4.62769728,-2.99542903,,,
imu,100.969503,-0.5018501992000001,-9.620689635200002,1.7071280912,-2.885979789999999,5.2408039,-3.00290594,,,
imu,100.977981,-0.5162058664000001,-9.627867468800002,1.7388301896,-2.97570271,5.831479789999999,-3.18982869,,,
imu,100.986458,-0.5826008272000001,-9.731347903200001,1.7998417752,-3.117764,6.48197096,-3.31693616,,,
imu,100.994936,-0.7249611936,-9.815687448000002,1.8076177616,-3.25982529,7.3343387,-3.39170526,,,
imu,101.003413,-0.9361091320000001,-9.802528086400002,1.7609618432,-4.11219303,8.83719761,-3.56367419,,,
imu,101.011891,-1.1227328056,-9.7570684736,1.773523052,-4.515946169999999,11.28962409,-3.81041222,,,
imu,101.020368,-1.2286058512,-9.775611210400001,1.7801027328,-5.196344979999999,14.6617105,-4.21416536,,,
imu,101.028846,-1.3924997184,-9.917971576800003,1.8500866104,-5.742159409999999,18.24315039,-4.93942563,,,
imu,99.512882,,,,,,,-91.2976596,182.1008756,119.9662728
imu,99.614261,,,,,,,-88.6731116,181.0998852,118.8676248
imu,99.715824,,,,,,,-91.0046868,181.9299748,119.3925344
imu,99.817356,,,,,,,-89.0759492,181.6492092,116.6215
imu,99.918949,,,,,,,-91.62725400000001,182.5891636,119.5634352
imu,100.020511,,,,,,,-91.261038,182.247362,117.0975808
imu,100.122013,,,,,,,-91.61504680000002,182.3450196,119.185012
imu,100.223789,,,,,,,-91.15117320000002,183.0286228,119.2704624
imu,101.037219,-1.5815160032,-10.0322187616,1.8375254016,-6.519758049999999,22.55732746,-5.93385466,,,
imu,101.045697,-1.656883256,-10.1045952504,1.785486108,-7.59643309,27.4472266,-7.00305279,,,
imu,101.054233,-1.6909779656,-10.1141656952,1.7460080232,-8.83760015,32.66610978,-8.23674294,,,
imu,101.062769,-1.6503035752,-10.0023111216,1.7364375784,-10.42270507,38.213977,-9.42557163,,,
imu,101.071305,-1.5234951816,-9.835426490400001,1.7472043288,-11.96294853,43.5225831,-10.80879998,,,
imu,101.079841,-1.4343704144,-9.7331423616,1.713707772,-13.09196194,48.02368292,-12.43876636,,,
imu,101.088377,-1.2794488392,-9.6775141512,1.731652356,-13.89199131,51.96401449,-13.65750269,,,
imu,101.096913,-1.0539452336,-9.6799067624,1.7681396768,-14.28826754,55.14170124,-14.75660846,,,
imu,100.325168,,,,,,,-90.87040760000001,182.6868212,119.1483904
imu,100.426883,,,,,,,-91.3098668,182.003218,118.7455528
imu,100.528324,,,,,,,-91.0657228,182.247362,118.7211384
imu,100.629917,,,,,,,-91.8836052,182.4670916,118.818796
imu,100.731449,,,,,,,-89.24685000000001,181.6492092,116.5360496
imu,100.834018,,,,,,,-91.79815479999999,181.8567316,119.307084
imu,100.934665,,,,,,,-89.3811292,181.8689388,116.2674912
imu,101.036411,,,,,,,-91.6638756,182.3328124,119.0873544
