Type,Timestamp,Data Accelerometer X,Data Accelerometer Y,Data Accelerometer Z,Data Gyroscope X,Data Gyroscope Y,Data Gyroscope Z,Data Magnetometer X,Data Magnetometer Y,Data Magnetometer Z
imu,494.297001,1.3332825912,-10.6842053136,2.321431016800001,5.72742053,-11.36541321,4.444096419999999,,,
imu,494.305464,1.3805366624,-10.6991591336,2.3172439472,5.58535924,-12.14301185,4.21231221,,,
imu,494.313928,1.3853218848,-10.6602792016,2.3196365584,5.58535924,-12.99537959,4.032866370000001,,,
imu,494.322391,1.4122387608,-10.5831174904,2.3232254752,5.57788233,-13.89260879,3.77865143,,,
imu,494.330855,1.4403519424,-10.4862167368,2.321431016800001,5.42086722,-14.92442237,3.24779082,,,
imu,494.339318,1.4379593312,-10.339071148,2.290925224,5.16665228,-16.18802016,2.37299235,,,
imu,494.347782,1.4200147472,-10.1488585576,2.2454656112,4.87505279,-17.64601761,1.50567079,,,
imu,494.356246,1.3823311208,-9.920364188,2.2107727488,4.658222400000001,-18.91709231,0.78788743,,,
imu,494.364709,1.3356752024,-9.716992236000001,2.192230012,4.25446926,-20.38256667,-0.14672632,,,
imu,494.373173,1.2848322144,-9.5291722568,2.147368552000001,3.91800831,-21.72841047,-1.11124771,,,
imu,494.381636,1.2752617696,-9.374250681600001,2.1252368984,3.70117792,-23.04434663,-2.01595382,,,
imu,494.3901,1.366779148,-9.260601649600002,2.0923384944,3.49930135,-24.77898975,-3.04029049,,,
imu,494.398563,1.5187099592,-9.1409710896,2.0151767832,3.59650118,-27.04449348,-4.30388828,,,
imu,494.407027,1.6174051712,-9.008181168000002,1.9445947528,3.63388573,-30.0502113,-5.93385466,,,
imu,494.41549,1.5988624344,-8.885559844000001,1.908107432,3.87314685,-33.03349839,-7.42175975,,,
imu,494.423954,1.4870078608,-8.802416604800001,1.9218649464,4.24699235,-36.14389295,-8.16197384,,,
imu,494.432417,1.3464419528,-8.810192591200002,1.9326316968,5.0320679,-39.0225033,-8.0572971,,,
imu,494.440881,1.223222476,-8.849072523200002,1.9392113776,5.83209727,-41.25062248,-7.870374350000001,,,
imu,494.449344,1.1167512776,-8.9011118168,1.911098196,6.41529625,-43.10489616,-8.15449693,,,
imu,494.457808,1.0204486768,-8.990834736800002,1.9314353912,7.17794107,-44.33858631,-8.37880423,,,
imu,494.466272,1.0066911624,-9.121232047200001,1.955959656,7.83590915,-45.41526135,-8.46852715,,,
imu,494.474735,1.082656568,-9.277948080800002,1.9535670448,8.66584616,-46.51436712,-8.76012664,,,
imu,494.483398,1.1747720992,-9.437654878400002,1.932033544,9.308860419999998,-47.86021092,-9.268556519999999,,,
imu,494.492061,1.2088668088,-9.627867468800002,1.932033544,9.90701322,-49.43036202,-9.80689404,,,
imu,494.500725,1.148453376,-9.803126239200001,1.9535670448,10.34815091,-51.06780531,-10.09849353,,,
imu,494.509388,1.0162616072,-9.918569729600001,1.9565578088,10.51264293,-52.39121838,-10.27046246,,,
imu,494.518051,0.8709104768000001,-9.976590551200001,1.9804839208,10.28833563,-53.40807814,-10.25550864,,,
imu,494.526714,0.7961413768000002,-10.0465744288,2.013980477600001,9.90701322,-53.93146184,-10.06110898,,,
imu,494.535377,0.7482891528000001,-10.0926321944,2.0498696456,9.652798279999999,-53.98380021,-9.7769864,,,
imu,494.544041,0.726755652,-10.1345028904,2.0672160768,9.196706769999999,-53.98380021,-9.37323326,,,
imu,494.552704,0.6980443176000002,-10.1853458784,2.072001299200001,8.61350779,-54.14081532,-8.96948012,,,
imu,494.561367,0.6651459136000001,-10.1943181704,2.0349158256,7.78357078,-54.13333841,-8.78255737,,,
imu,494.57003,0.6298548984000001,-10.1871403368,2.0654216184,6.84895703,-54.15576914,-8.59563462,,,
imu,494.578693,0.5664507016000001,-10.132708432,2.0474770344,6.02649693,-54.28287661,-8.45357333,,,
imu,494.587356,0.454596128,-10.0591356376,2.048673340000001,4.90496043,-54.21558442,-8.34141968,,,
imu,494.59602,0.3511156936,-9.975992398400003,2.0420936592,3.97034668,-53.61743162,-8.47600406,,,
imu,494.604683,0.2428500368,-9.902419604000002,2.0109897136,2.87871782,-53.04918646,-8.8049881,,,
imu,494.613346,0.1399677552,-9.807313308800001,2.0163730888,1.86185806,-52.08466507,-9.17135669,,,
imu,494.622009,0.0532355992,-9.724170069600001,2.006802644,1.02444414,-50.94069784,-9.7769864,,,
imu,494.630672,-0.0143556672,-9.6499991224,1.979885768,0.5459219,-49.64719241,-10.59196959,,,
imu,494.639335,-0.05802082160000001,-9.577024480800002,1.9762968512,0.10478421,-48.24901024,-11.60135244,,,
imu,494.647999,-0.1244157824,-9.539939007200001,1.9428002944,0.13469185,-46.59661313,-12.3191358,,,
imu,494.656662,-0.1926052016,-9.5148165896,1.9481836696,-0.0522309,-45.16104641,-13.11168826,,,
imu,494.665325,-0.2249054528,-9.5148165896,1.9966340464,-0.54570696,-43.51612621,-13.85190235,,,
imu,494.673988,-0.2757484408,-9.541135312800002,2.0235509224,-0.52327623,-41.84877528,-14.39771678,,,
imu,494.682651,-0.3146283728000001,-9.5489112992,2.0074007968,-0.48589168,-40.24871654,-14.90614666,,,
imu,494.691073,-0.3535083048,-9.526779645600001,2.0115878664,-0.52327623,-38.61875016,-15.36223817,,,
imu,494.699495,-0.4175106544000001,-9.507040603200002,2.0630290072,-0.68776825,-36.96635305,-15.93048333,,,
imu,494.707916,-0.5138132552000001,-9.520798117600002,2.1138719952,-0.66533752,-35.26161757,-16.38657484,,,
imu,494.716338,-0.5897786608000001,-9.572239258400002,2.141387024,-0.52327623,-33.49706681,-16.64826669,,,
imu,494.724759,-0.6334438152,-9.682299373600001,2.1790706504,-0.26158438,-31.44839347,-16.69312815,,,
imu,494.733181,-0.62806044,-9.7744149048,2.1898374008,-0.25410747,-29.63150434,-16.90248163,,,
imu,494.741602,-0.6340419680000001,-9.793555794400001,2.192230012,-0.05970781,-28.05387633,-17.17165039,,,
imu,494.750024,-0.6519865520000001,-9.822267128800002,2.225128416,0.06739966,-26.66317107,-17.46324988,,,
imu,494.758446,-0.6998387760000001,-9.8461932408,2.243073,0.29918387,-25.49677311,-17.94924903,,,
imu,494.766867,-0.7775986400000001,-9.893447312000001,2.2556342088,0.53844499,-24.27803678,-18.68946312,,,
imu,494.775289,-0.8254508640000001,-9.910793743200001,2.243073,0.80761375,-22.96957753,-19.10817008,,,
imu,494.78371,-0.8553585040000001,-9.890456548000001,2.2376896248,1.01696723,-21.65364137,-19.25023137,,,
imu,494.792132,-0.900219964,-9.850380310400002,2.2556342088,0.9571519499999999,-20.56201251,-19.77361507,,,
imu,494.800553,-0.9486703408000001,-9.803126239200001,2.2897289184,0.9571519499999999,-19.40309146,-20.19979894,,,
imu,494.808975,-1.010878232,-9.789966877600001,2.311860572000001,0.97958268,-17.76564817,-20.16241439,,,
imu,494.817397,-1.0623193728,-9.745703570400002,2.3016919744,0.9347212199999999,-16.05343578,-19.81099962,,,
imu,494.825818,-1.1221346528,-9.7283571392,2.2951122936,0.8973366700000001,-14.22906974,-19.40724648,,,
imu,494.83424,-1.1299106392,-9.699047652,2.2951122936,0.7104139199999999,-12.13553494,-18.8988166,,,
imu,494.842661,-1.1412755424,-9.606333968000001,2.2478582224,0.6281679099999999,-9.95227722,-18.29318689,,,
imu,494.851083,-1.1418736952,-9.5148165896,2.19821154,0.67302937,-7.90360388,-17.72494173,,,
imu,494.859505,-1.1227328056,-9.3832229736,2.1659112888,1.24127453,-5.929699640000001,-16.97725073,,,
imu,494.867926,-1.0700953592,-9.330585527200002,2.1665094416,2.16093446,-4.29973326,-16.3566672,,,
imu,494.876348,-1.1000029992,-9.2617979552,2.1043015504,3.20022495,-2.96136637,-16.14731372,,,
imu,494.884769,-1.0778713456,-9.2641905664,2.096525564,4.29185381,-2.16881391,-16.26694428,,,
imu,494.893485,-1.088638096,-9.2935000536,2.0749920632,5.56292851,-1.29401544,-16.16226754,,,
imu,494.902201,-1.1167512776,-9.253423816000002,2.0552530208,6.80409557,-0.3594016900000003,-16.13983681,,,
imu,494.910918,-1.1251254168,-9.307257568,2.1198535232,7.89572443,0.27613566,-16.12488299,,,
imu,494.919634,-1.1448644592,-9.4071490856,2.1198535232,8.710707619999999,0.9041961000000001,-15.93048333,,,
imu,494.92835,-1.154434904,-9.481918185600001,2.0989181752,9.421014069999998,1.44253362,-15.82580659,,,
imu,494.937066,-1.1711831824,-9.553098368800002,2.1395925656,9.944397769999998,1.8761944,-15.72112985,,,
imu,494.945782,-1.2728691584,-9.548313146400002,2.1001144808,10.28085872,2.51920866,-15.459438,,,
imu,494.954498,-1.3033749512,-9.611119190400002,2.0959274112,10.87153461,3.4463455,-14.84633138,,,
imu,494.963214,-1.3147398544,-9.640428677600001,2.0863569664,11.44725668,4.523020539999999,-13.83694853,,,
imu,494.97193,-1.2603079496,-9.667345553600002,2.0761883688,11.79867145,5.4651112,-12.80513495,,,
imu,494.980646,-1.28602852,-9.66016772,2.0361121312,12.12017858,6.28009439,-11.47424497,,,
imu,494.989362,-1.262102408,-9.7361331256,2.0420936592,12.6585161,7.02030848,-10.00877061,,,
imu,494.998078,-1.2896174368,-9.768433376800001,1.991848824,12.94263868,7.76052257,-8.22178912,,,
imu,495.006794,-1.3314881328,-9.6954587352,1.926052016,13.20433053,8.14932189,-6.666591840000001,,,
imu,495.015511,-1.3470401056,-9.706225485600001,1.9194723352,13.45106856,8.575505759999999,-5.07401001,,,
imu,495.024227,-1.3506290224,-9.7821908912,1.9069111264,13.51836075,8.78485924,-3.47395127,,,
imu,495.032943,-1.3721625232,-9.811500378400002,1.8399180128,13.41368401,8.82224379,-2.27016876,,,
imu,495.041659,-1.4140332192,-9.848585852000001,1.8070196088,13.20433053,8.87458216,-1.20844754,,,
imu,495.050375,-1.4822226384,-9.828846809600002,1.7807008856,12.6585161,9.054027999999999,-0.01214194000000002,,,
imu,495.059091,-1.4648762072,-9.868923047200001,1.7908694832,12.16504004,9.188612379999999,1.31127113,,,
imu,495.067807,-1.4403519424,-9.938906924800001,1.7818971912,11.64913325,9.510119509999999,2.64216111,,,
imu,495.076523,-1.4582965264,-9.9401032304,1.7208856056,10.94630371,9.801718999999999,4.06277401,,,
imu,495.085239,-1.4224073584,-9.982572079200002,1.7238763696,10.07898215,10.1755645,5.603017469999999,,,
imu,495.093838,-1.408649844,-10.0322187616,1.7196893,9.024737839999998,10.82605567,7.158214750000001,,,
imu,495.102436,-1.37575144,-10.0573411792,1.7083243968,7.933108979999999,11.33448555,8.578827650000001,,,
imu,495.111034,-1.3434511888,-10.0705005408,1.7095207024,6.70689574,11.88029998,9.92467145,,,
imu,495.119633,-1.2489430464,-10.120745376,1.7537840096,5.18908301,12.38872986,11.17331542,,,
imu,495.128231,-1.2866266728,-10.0531541096,1.7172966888,3.52920899,13.06165176,12.3546672,,,
imu,495.136829,-1.235185532,-10.0064981912,1.710717008,2.22822665,13.82429658,13.11731202,,,
imu,495.145428,-1.22621324,-10.001114816,1.725670828,0.9048135799999999,14.56451067,13.58835735,,,
imu,495.154026,-1.1562293624,-9.9753942456,1.752587704,-0.54570696,15.1103251,13.9248183,,,
imu,495.162624,-1.058730456,-9.967020106400001,1.7633544544,-1.63733582,15.73838554,14.36595599,,,
imu,495.171223,-0.9546518688000002,-9.986759148800001,1.7729248992,-2.71401086,16.29167688,14.26127925,,,
imu,495.179821,-0.8176748776000001,-10.0178630944,1.8040288448,-3.94770101,16.50850727,13.79771083,,,
imu,495.188419,-0.8164785720000002,-9.922158646400002,1.7448117176,-5.35336009,16.80758367,13.53601898,,,
imu,495.197017,-0.7955432240000001,-9.801929933600002,1.7561766208,-6.287973839999999,16.9047835,13.22946567,,,
imu,495.205616,-0.7381205552000002,-9.749890640000002,1.8082159144,-6.714157709999999,17.1290908,12.79580489,,,
imu,495.214214,-0.6753145112000001,-9.758862932000001,1.842310624,-6.968372649999999,17.36835192,12.3546672,,,
imu,495.222812,-0.6418179544000001,-9.802528086400002,1.8560681384,-7.043141749999999,17.53284394,12.1303599,,,
imu,495.231411,-0.6442105656,-9.8432024768,1.8590589024,-7.31978742,17.90668944,12.06306771,,,
imu,495.240009,-0.6352382736000001,-9.861147060800002,1.8865739312,-7.60391,18.44502696,12.44439012,,,
imu,495.248607,-0.6166955368000001,-9.867128588800002,1.946987364,-7.92541713,19.25253324,12.99768146,,,
imu,495.257206,-0.601143564,-9.88447502,1.9433984472,-8.26935499,20.20957772,13.69303409,,,
imu,495.265804,-0.6023398696000001,-9.824659740000001,1.9266501688,-8.538523750000001,21.23391439,14.36595599,,,
imu,495.274402,-0.5879842024,-9.785779808000001,1.9487818224,-8.85255397,22.54985055,15.03140098,,,
imu,495.283001,-0.5736285352000001,-9.760059237600002,1.9804839208,-8.99461526,24.06018637,15.77161507,,,
imu,495.291599,-0.5162058664000001,-9.745703570400002,1.9565578088,-8.889938520000001,25.74249112,16.64641354,,,
imu,495.299868,-0.4498109056,-9.7086180968,1.9457910584,-8.96470762,27.50704188,17.2894278,,,
imu,495.308137,-0.2942911776,-9.701440263200002,1.9445947528,-8.83760015,29.00242388,17.79785768,,,
imu,495.316406,-0.23926112,-9.541733465600002,1.9015277512,-8.79273869,30.37069841,18.36610284,,,
imu,495.324675,-0.1274065464,-9.388008196000001,1.9003314456,-8.13477061,31.66420384,18.74742525,,,
imu,495.332944,-0.03289840400000001,-9.3246039992,1.9314353912,-7.207633769999999,32.63620214,18.67265615,,,
imu,495.341213,0.07716171120000001,-9.3383615136,1.9762968512,-5.98889744,33.6530619,18.55302559,,,
imu,495.349482,0.1920070488,-9.3838211264,1.9475855168,-4.81502257,34.23626088,18.23151846,,,
imu,495.357751,0.3487230824000001,-9.404756474400001,1.9314353912,-3.92527028,34.5502911,17.67822712,,,
imu,495.36602,0.4880926848000001,-9.4077472384,1.9511744336,-2.90841052,34.67739857,16.88567466,,,
imu,495.374289,0.6047324808000001,-9.420906600000002,1.964931948,-2.25044244,34.40822981,15.73423052,,,
imu,495.382558,0.7004369288000002,-9.438851184,1.9643337952,-1.3980747,33.67549263,14.42577127,,,
imu,495.390802,0.7811875568000001,-9.478329268800001,1.9691190176,-0.61299915,32.92032472,13.07992747,,,
imu,495.399071,0.8427972952,-9.501657228000001,1.9840728376,0.13469185,31.86608041,11.57706856,,,
imu,495.40734,0.9026125752,-9.553696521600001,1.985867296,0.78518302,30.52023661,10.13402493,,,
imu,495.415609,0.9355109792000001,-9.5566872856,1.9613430312,1.35342818,29.40617702,8.96015006,,,
imu,495.423878,0.9797742864000001,-9.5459205352,1.9721097816,1.77213514,28.1949176,7.82365974,,,
imu,495.432147,1.0144671488,-9.559678049600002,1.9756986984,2.42262631,27.14067329,7.1955993,,,
imu,495.440416,1.0461692472,-9.561472508000001,1.9697171704,2.96096383,26.13129044,7.12830711,,,
imu,495.448685,1.0940214712,-9.562070660800002,1.9475855168,3.54416281,25.12190759,7.397475870000001,,,
imu,495.456954,1.1329014032,-9.5447242296,1.9362206136,4.2096078,24.20224766,7.599352440000001,,,
imu,495.465223,1.1406773896,-9.512423978400001,1.9158834184,4.80028369,23.08071116,7.45729115,,,
imu,495.473492,1.1687905712,-9.4938812416,1.9105000432,5.7049898,22.03394376,7.36756823,,,
imu,495.481761,1.1622108904,-9.493283088800002,1.9003314456,6.29566569,20.93483799,7.18812239,,,
imu,495.49003,1.1532385984,-9.507638756,1.8919573064,6.87138776,20.00022424,6.85913835,,,
imu,495.49852,1.130508792,-9.537546396000002,1.8865739312,7.48449438,18.87121083,6.672215599999999,,,
imu,495.50701,1.124527264,-9.573435564,1.8823868616,7.98544735,18.08613528,6.746984700000001,,,
imu,495.5155,1.1346958616,-9.594370912,1.872218264,8.30695448,17.31601355,7.008676550000001,,,
imu,495.523991,1.1436681536,-9.627867468800002,1.8608533608,8.449015769999999,16.6057071,7.25541458,,,
imu,495.532481,1.1466589176,-9.676317845600002,1.8554699856,8.35181594,15.91783138,7.307752950000001,,,
imu,495.540971,1.148453376,-9.7163940832,1.8411143184,8.187323919999999,15.12527892,7.08344565,,,
imu,495.549461,1.1580238208,-9.752881404000002,1.8249641928,8.277046839999999,14.48226466,6.92643054,,,
imu,495.557952,1.1927166832,-9.756470320800002,1.8207771232,8.07517027,13.71961984,6.694646330000001,,,
imu,495.566442,1.178361016,-9.743310959200002,1.8189826648,7.76861696,12.98688266,6.40304684,,,
imu,495.574932,1.154434904,-9.7474980288,1.7992436224,7.66394022,12.2690993,6.193693360000001,,,
imu,495.583422,1.1329014032,-9.7636481544,1.7747193576,7.43215601,11.67842341,5.7749864,,,
imu,495.591912,1.1592201264,-9.7821908912,1.7681396768,6.99101832,10.99054769,5.43852545,,,
imu,495.600403,1.1963056,-9.808509614400002,1.7693359824,6.6769881,10.4746409,5.10954141,,,
imu,495.608893,1.2196335592,-9.802528086400002,1.752587704,6.11621985,9.83162664,4.72074209,,,
imu,495.617383,1.238176296,-9.7845835024,1.7573729264,5.59283615,9.13627401,4.316988950000001,,,
imu,495.625873,1.2298021568,-9.777405668800002,1.743615412,5.248898290000001,8.58298267,4.055297100000001,,,
imu,495.634364,1.2178391008,-9.779200127200001,1.7430172592,4.9572988,8.06707588,3.86837435,,,
imu,495.642854,1.1945111416,-9.786976113600002,1.7304560504,4.658222400000001,7.61098437,3.74874379,,,
imu,495.651344,1.202287128,-9.769031529600001,1.7214837584,4.34419218,7.07264685,3.65902087,,,
imu,494.36519,,,,,,,54.85914600000002,-11.22455080000002,29.3766416
imu,494.466783,,,,,,,58.0452252,-12.1400908,27.96060639999999
imu,494.576127,,,,,,,60.1448636,-12.17671240000002,31.3175864
imu,494.67769,,,,,,,62.244502,-12.39644200000001,32.25754079999999
imu,494.779222,,,,,,,63.5628796,-12.29878440000001,32.81907199999999
imu,494.880754,,,,,,,64.86905,-12.0058116,32.5505136
imu,494.982804,,,,,,,64.1122036,-12.2377484,32.73362159999999
imu,495.799296,0.9235479232000001,-9.8330338792,1.6885853544,-0.0522309,13.04669794,0.18225772,,,
imu,495.808088,0.88227538,-9.800135475200001,1.6790149096,-0.68029134,14.62432595,-0.2140185099999998,,,
imu,495.816879,0.8571529624000002,-9.773218599200002,1.6664537008,-1.30835178,16.56084564,-0.23644924,,,
imu,495.825671,0.8260490168000001,-9.800135475200001,1.6562851032,-1.95136604,18.60204207,-0.40094126,,,
imu,495.834463,0.8242545584000001,-9.8132948368,1.6461165056,-2.34764227,20.7927767,-0.5953409199999999,,,
imu,495.843255,0.8493769760000001,-9.7989391696,1.6257793104,-2.92336434,23.00594206,-0.7822636699999999,,,
imu,495.852046,0.900219964,-9.743909112,1.6132181016,-3.46170186,25.14433832,-0.9766633299999998,,,
imu,495.860838,0.9594370912000001,-9.697253193600002,1.6072365736,-3.87293191,27.02104273,-1.55986231,,,
imu,495.86963,0.9929336480000002,-9.6523917336,1.6138162544,-4.06733157,28.65100911,-1.97856927,,,
imu,495.878421,1.0186542184,-9.6434194416,1.6186014768,-4.299115779999999,30.10900656,-2.5243837,,,
imu,495.887213,1.0132708432,-9.6296619272,1.6054421152,-4.32902342,31.43241963,-2.86832156,,,
imu,495.896005,1.0551415392,-9.593772759200002,1.6006568928,-4.11219303,32.63620214,-3.30198234,,,
imu,495.904486,1.1029937632,-9.611119190400002,1.6317608384,-4.11219303,33.92223066,-3.76555076,,,
imu,495.912968,1.154434904,-9.630260080000001,1.6102273376,-4.1645314,35.25312064,-3.98238115,,,
imu,495.921449,1.2429615184,-9.604539509600002,1.5892919896,-4.07480848,36.30736495,-4.18425772,,,
imu,495.92993,1.3177306184,-9.602146898400001,1.5886938368,-3.91031646,37.1672096,-4.43847266,,,
imu,495.938412,1.3859200376,-9.6039413568,1.594077212,-3.80563972,37.70554712,-4.692687599999999,,,
imu,495.946893,1.4331741088,-9.6296619272,1.6018531984,-3.74582444,38.11677717,-4.94690254,,,
imu,495.955374,1.4582965264,-9.620091482400001,1.5928809064,-3.73087062,38.2887461,-5.34317877,,,
imu,495.963856,1.4882041664,-9.612913648800001,1.5743381696,-3.54394787,38.22893082,-5.86656247,,,
imu,495.972337,1.5534028216,-9.6051376624,1.567160336,-3.42431731,37.92985442,-6.509576729999999,,,
imu,495.980818,1.6132181016,-9.591978300800001,1.5677584888,-3.17010237,37.60834729,-7.09277571,,,
imu,495.9893,1.6574814088,-9.572239258400002,1.5707492528,-2.83364142,37.21207106,-7.511482669999999,,,
imu,495.997781,1.6676500064,-9.549509452,1.5809178504,-2.4448421,36.49428769999999,-7.8329898,,,
imu,496.006262,1.6544906448,-9.556089132800002,1.5916846008,-2.12333497,35.62696614,-7.997481819999999,,,
imu,496.014744,1.6449202,-9.575828175200002,1.5988624344,-1.77939711,34.80450604,-8.15449693,,,
imu,496.023225,1.6263774632,-9.5776226336,1.5833104616,-1.37564397,34.23626088,-8.1320662,,,
imu,496.031706,1.6371442136,-9.573435564,1.6311626856,-1.04665993,33.60072353,-7.862897439999999,,,
imu,496.040188,1.6263774632,-9.5812115504,1.5707492528,-0.78496808,32.9053709,-7.541390310000001,,,
imu,496.048669,1.6263774632,-9.593174606400002,1.5659640304,-0.47841477,32.23992591,-7.26474464,,,
imu,496.05715,1.6467146584,-9.5865949256,1.5701511,-0.29149202,31.38008126,-6.85351459,,,
imu,496.065632,1.6562851032,-9.594370912,1.55519728,-0.02232326000000001,30.52023661,-6.53948437,,,
imu,496.074113,1.6814075208,-9.5740337168,1.5623751136,0.12721494,29.64543814,-6.47219218,,,
imu,496.082594,1.6826038264,-9.551902063200002,1.5366545432,0.3216146,28.5687631,-6.47966909,,,
imu,496.091076,1.671837076,-9.555490980000002,1.5157191952,0.67302937,27.54442643,-6.636684199999999,,,
imu,496.099557,1.6455183528,-9.548313146400002,1.5121302784,0.85995212,26.57990504,-6.703976389999999,,,
imu,496.108013,1.6550887976,-9.5237888816,1.5115321256,1.1440747,25.52566073,-6.681545659999999,,,
imu,496.116469,1.6365460608,-9.5357519376,1.4929893888,1.48053565,24.57609316,-6.995575880000001,,,
imu,496.124925,1.606040268,-9.572239258400002,1.4876060136,1.74970441,23.61904868,-7.44419048,,,
imu,496.133381,1.5839086144,-9.6117173432,1.4858115552,1.94410407,22.75172712,-7.825512890000001,,,
imu,496.141837,1.5934790592,-9.669140012000002,1.5390471544,2.15345755,21.98160539,-8.37880423,,,
imu,496.150293,1.5803196976,-9.7325442088,1.522298876,1.95158098,21.00213018,-9.00686467,,,
imu,496.158749,1.5557954328,-9.803126239200001,1.5240933344,1.49548947,20.21705463,-9.64240202,,,
imu,496.167204,1.5474212936,-9.835426490400001,1.4965783056,0.9870595899999999,19.46936363,-10.12840117,,,
imu,496.17566,1.5240933344,-9.8330338792,1.5240933344,0.15712258,18.95345684,-10.45738521,,,
imu,496.184116,1.4905967776,-9.852174768800001,1.5540009744,-0.63542988,18.43007314,-10.78636925,,,
imu,496.192572,1.4846152496,-9.887465784000002,1.5157191952,-1.53265908,17.98145854,-11.15273784,,,
imu,496.201028,1.4965783056,-9.926345716,1.5175136536,-2.41493446,17.32349046,-11.76584446,,,
imu,496.209484,1.5217007232,-9.9616367312,1.5181118064,-3.40936349,16.77019912,-12.00510558,,,
imu,496.21794,1.5318693208,-9.956851508800002,1.5211025704,-4.74025347,15.99260048,-12.45372018,,,
imu,496.226396,1.5348600848,-9.9131863544,1.495382,-5.97394362,14.91592544,-13.08925753,,,
imu,496.234852,1.5240933344,-9.862343366400001,1.48042818,-6.781449899999999,13.84672731,-13.61264123,,,
imu,496.243308,1.5085413616,-9.802528086400002,1.4882041664,-7.402033429999999,12.83734446,-13.89676381,,,
imu,496.251764,1.4899986248,-9.758862932000001,1.4989709168,-7.76840202,11.96254599,-13.88180999,,,
imu,496.260219,1.4648762072,-9.739722042400002,1.5067469032,-7.95532477,10.78867112,-13.76217943,,,
imu,496.268675,1.4427445536,-9.6912716656,1.5055505976,-8.06000151,9.96621102,-13.53039522,,,
imu,496.277131,1.4134350664,-9.6284656216,1.5330656264,-7.88055567,9.18113547,-13.12664208,,,
imu,496.285587,1.4212110528,-9.599754287200001,1.5809178504,-7.72354056,8.33624464,-12.3939049,,,
imu,496.294043,1.3536197864,-9.502853533600002,1.5408416128,-7.3796027,7.49135381,-11.77332137,,,
imu,496.302499,1.3183287712,-9.448421628800002,1.549215752,-6.58705024,6.72123208,-10.93590745,,,
imu,496.310964,1.2812432976,-9.4526086984,1.6042458096,-5.652436489999999,6.295048209999999,-9.78446331,,,
imu,496.319429,1.2812432976,-9.453805004000001,1.5958716704,-4.747730379999999,5.84643361,-8.46852715,,,
imu,496.327893,1.2507375048,-9.447823476,1.6012550456,-3.88040882,5.420249739999999,-7.212406269999999,,,
imu,496.336358,1.2309984624,-9.437654878400002,1.6114236432,-2.885979789999999,5.20341935,-5.896470109999999,,,
imu,496.344823,1.2315966152,-9.437654878400002,1.6168070184,-1.90650458,4.98658896,-4.51324176,,,
imu,496.353288,1.2298021568,-9.454403156800002,1.6263774632,-0.79244499,4.717420199999999,-3.30198234,,,
imu,496.361753,1.217240948,-9.446627170400001,1.6353497552,0.1720764,4.3435747,-2.38232241,,,
imu,496.370218,1.1981000584,-9.4454308648,1.6401349776,1.07678251,3.93234465,-1.89632326,,,
imu,496.378682,1.184342544,-9.489096019200002,1.6604721728,1.9665348,3.47625314,-1.68696978,,,
imu,496.387147,1.1705850296,-9.539939007200001,1.6610703256,2.4151494,3.0725,-1.73930815,,,
imu,496.395612,1.1717813352,-9.5812115504,1.6592758672,2.81142563,2.7734236,-1.88884635,,,
imu,496.404077,1.1502478344,-9.6117173432,1.6843982848,3.0880713,2.72108523,-1.98604618,,,
imu,496.412542,1.1251254168,-9.6709344704,1.7041373272,3.12545585,2.71360832,-2.10567674,,,
imu,496.421006,1.118545736,-9.748694334400001,1.7101188552,2.96844074,2.79585433,-2.24026112,,,
imu,496.429471,1.1173494304,-9.820472670400001,1.7268671336,2.70674889,3.15474601,-2.43466078,,,
imu,496.437936,1.1352940144,-9.862343366400001,1.7208856056,1.98148862,3.34166876,-2.72626027,,,
imu,496.446401,1.1735757936,-9.8563618384,1.7155022304,1.27118217,3.67812971,-3.02533667,,,
imu,496.454866,1.18135178,-9.855165532800001,1.7304560504,0.45619898,3.78280645,-3.5711511,,,
imu,496.46333,1.1921185304,-9.861147060800002,1.7190911472,-0.02232326000000001,4.03702139,-3.91508896,,,
imu,496.471795,1.1837443912,-9.840809865600002,1.7071280912,-0.62047606,4.07440594,-4.3936112,,,
imu,495.083909,,,,,,,64.1610324,-12.97018040000002,32.40402719999999
imu,495.185472,,,,,,,63.74598760000001,-12.7992796,32.880108
imu,495.287065,,,,,,,65.17423,-14.06882840000001,31.9279464
imu,495.388597,,,,,,,61.9881508,-13.23873880000002,32.63596399999999
imu,495.495072,,,,,,,63.2332852,-14.1420716,30.04803759999999
imu,495.591722,,,,,,,60.65756600000001,-12.92135160000001,32.02560399999999
imu,495.693284,,,,,,,60.62094440000001,-13.11666680000001,29.8649296
imu,495.794877,,,,,,,60.63315160000001,-12.98238760000001,31.83028879999999
imu,496.480342,1.1699868768,-9.800733628000001,1.6981557992,-1.03918302,4.13422122,-4.56558013,,,
imu,496.488807,1.1496496816,-9.7325442088,1.7083243968,-1.58499745,4.15665195,-4.77493361,,,
imu,496.497271,1.1580238208,-9.694860582400002,1.7238763696,-1.7719202,4.42582071,-5.00671782,,,
imu,496.505736,1.1478552232,-9.7301515976,1.7448117176,-2.01118132,4.56040509,-5.08148692,,,
imu,496.514204,1.1173494304,-9.740918348000001,1.7172966888,-2.34016536,4.68003565,-5.11139456,,,
imu,496.522671,1.0784694984,-9.743909112,1.7196893,-2.60185721,4.97163514,-5.2908404,,,
imu,496.531138,1.0760768872,-9.7056273328,1.7298578976,-2.87102597,5.55483412,-5.33570186,,,
imu,496.539606,1.0862454848,-9.661962178400001,1.7161003832,-3.14019473,6.138033099999999,-5.216071299999999,,,
imu,496.548073,1.0700953592,-9.613511801600001,1.7262689808,-3.28225602,6.556740059999999,-5.09644074,,,
imu,496.55654,1.0683009008,-9.627269316000001,1.7178948416,-3.28973293,7.080123759999999,-5.20111748,,,
imu,496.565008,1.0694972064,-9.6260730104,1.7274652864,-3.07290254,7.66332274,-5.08896383,,,
imu,496.573475,1.0569359976,-9.644017594400001,1.7531858568,-3.01308726,8.19418335,-5.20859439,,,
imu,496.581942,1.0443747888,-9.641026830400001,1.7723267464,-3.16262546,8.6054134,-5.38056332,,,
imu,496.59041,1.0754787344,-9.6775141512,1.800439928,-3.29720984,9.08393564,-5.545055339999999,,,
imu,496.598877,1.0724879704,-9.7403201952,1.7848879552,-3.43179422,9.4278735,-6.12825432,,,
imu,496.607345,1.0952177768,-9.7331423616,1.7454098704,-3.84302427,9.63722698,-6.74136094,,,
imu,496.615812,1.112564208,-9.6942624296,1.752587704,-4.17200831,10.18304141,-7.077821889999999,,,
imu,496.624279,1.1251254168,-9.6643547896,1.7543821624,-4.33650033,10.56436382,-7.13763717,,,
imu,496.632747,1.1430700008,-9.6458120528,1.7681396768,-4.1645314,10.83353258,-7.26474464,,,
imu,496.641214,1.1580238208,-9.6667474008,1.7657470656,-4.0149932,10.99054769,-7.406805929999999,,,
imu,496.649681,1.1370884728,-9.612913648800001,1.737633884,-3.95517792,11.20737808,-7.37689829,,,
imu,496.658149,1.1376866256,-9.5985579816,1.7717285936,-3.78320899,11.31953173,-7.74326688,,,
imu,496.666616,1.1323032504,-9.639232372,1.8147955952,-3.55890169,11.36439319,-7.862897439999999,,,
imu,496.675083,1.1358921672,-9.696655040800001,1.830347568,-3.39440967,11.46159302,-7.89280508,,,
imu,496.683551,1.112564208,-9.751685098400001,1.8010380808,-3.36450203,11.34943937,-8.109635469999999,,,
imu,496.692018,1.0629175256,-9.805518850400002,1.8171882064,-3.82807045,11.58870049,-8.371327319999999,,,
imu,496.700485,1.0688990536,-9.7923594888,1.8147955952,-4.34397724,11.86534616,-8.40871187,,,
imu,496.708953,1.0820584152,-9.7193848472,1.7992436224,-4.78511493,12.20928402,-8.31898895,,,
imu,496.71777,1.0940214712,-9.682897526400001,1.8106085256,-5.26363717,12.38872986,-8.326465859999999,,,
imu,496.726587,1.1000029992,-9.682299373600001,1.8225715816,-5.413175369999999,12.50088351,-8.2068353,,,
imu,496.735404,1.109573444,-9.692467971200001,1.800439928,-5.54775975,12.74014463,-8.07225092,,,
imu,496.74422,1.112564208,-9.6799067624,1.800439928,-5.644959579999999,12.90463665,-7.96009727,,,
imu,496.753037,1.1000029992,-9.651793580800001,1.812402984,-5.63000576,12.92706738,-7.907758899999999,,,
imu,496.761854,1.115554972,-9.638036066400002,1.8040288448,-5.39822155,12.90463665,-7.952620359999999,,,
imu,496.770671,1.1215365,-9.619493329600001,1.8100103728,-5.02437605,12.94949811,-7.735789969999999,,,
imu,496.779488,1.13649032,-9.5985579816,1.806421456,-4.867360939999999,12.82986755,-7.67597469,,,
imu,496.788305,1.1388829312,-9.583604161600002,1.8339364848,-4.73277656,12.79995991,-7.63859014,,,
imu,496.797122,1.142471848,-9.597959828800002,1.8488903048,-4.42622325,12.4186375,-7.601205589999999,,,
imu,496.805939,1.13649032,-9.593174606400002,1.8417124712,-4.07480848,12.24666857,-7.496528849999999,,,
imu,496.814756,1.148453376,-9.579417092000002,1.8375254016,-3.85050118,11.86534616,-7.32455992,,,
imu,496.823573,1.1508459872,-9.575230022400001,1.8375254016,-3.43179422,11.45411611,-7.077821889999999,,,
imu,496.83239,1.1472570704,-9.530966715200002,1.8369272488,-3.10281018,11.08774752,-7.09277571,,,
imu,496.841207,1.1478552232,-9.514218436800002,1.8345346376,-2.39998064,10.79614803,-6.85351459,,,
imu,496.850024,1.1687905712,-9.51062952,1.8321420264,-1.79435093,10.37744107,-6.42733072,,,
imu,496.858841,1.1717813352,-9.51062952,1.8171882064,-1.00179847,10.04098012,-6.19554651,,,
imu,496.867657,1.187333308,-9.499264616800001,1.806421456,-0.32139966,9.51759642,-6.090869769999999,,,
imu,496.876474,1.1957074472,-9.4843107968,1.7866824136,0.46367589,8.86710525,-5.94133157,,,
imu,496.885291,1.1891277664,-9.5172092008,1.791467636,1.34595127,8.21661408,-5.72450118,,,
imu,496.894108,1.1550330568,-9.555490980000002,1.8088140672,2.18336519,7.58855364,-5.49271697,,,
imu,496.902925,1.154434904,-9.591978300800001,1.821375276,2.6394567,7.09507758,-5.46280933,,,
imu,496.911742,1.1496496816,-9.6428212888,1.8189826648,3.03573293,6.57169388,-5.634778259999999,,,
imu,496.920213,1.1311069448,-9.718188541600002,1.8345346376,3.15536349,6.01840254,-5.67216281,,,
imu,496.928684,1.1257235696,-9.756470320800002,1.8375254016,2.92357928,5.442680469999999,-5.5151477,,,
imu,496.937156,1.1221346528,-9.754675862400001,1.8261604984,2.65441052,4.82957385,-5.53010152,,,
imu,496.945627,1.1047882216,-9.790565030400002,1.836329096,2.25065738,4.33609779,-5.65720899,,,
imu,496.954098,1.0898344016,-9.800135475200001,1.8405161656,1.80951969,3.90991392,-5.64225517,,,
imu,496.962569,1.0964140824,-9.798341016800002,1.8345346376,1.39081273,3.73046808,-5.46280933,,,
imu,496.97104,1.0814602624,-9.787574266400002,1.8285531096,0.9347212199999999,3.37905331,-5.2908404,,,
imu,496.979511,1.0641138312,-9.748694334400001,1.8399180128,0.44872207,3.06502309,-5.25345585,,,
imu,496.987983,1.0629175256,-9.7403201952,1.8297494152,0.12721494,2.78090051,-5.20111748,,,
imu,496.996454,1.0688990536,-9.730749750400001,1.8267586512,0.20946095,2.48182411,-5.05905619,,,
imu,497.004925,1.0563378448,-9.7265626808,1.8255623456,0.07487657,2.10797861,-4.954379449999999,,,
imu,497.013396,1.0599267616,-9.710412555200001,1.8201789704,-0.17933837,1.92853277,-4.991764,,,
imu,497.021867,1.0360006496,-9.693066124000001,1.827356804,-0.26906129,1.48739508,-4.89456417,,,
imu,497.030338,1.022841288,-9.676317845600002,1.8369272488,-0.23167674,1.22570323,-4.78241052,,,
imu,497.03881,1.0126726904,-9.654186192000001,1.8285531096,-0.007369440000000005,1.29299542,-4.56558013,,,
imu,497.047281,1.0072893152,-9.630858232800001,1.8375254016,-0.14195382,1.33037997,-4.4683803,,,
imu,497.055752,1.0013077872,-9.6009505928,1.8405161656,-0.08961545,1.36776452,-4.19921154,,,
imu,497.064223,1.0102800792,-9.614708107200002,1.8470958464,0.21693786,1.24813396,-4.0197657,,,
imu,497.072694,0.9977188704000002,-9.606932120800002,1.851282916,0.29918387,1.13598031,-4.00481188,,,
imu,497.081166,0.9881484256000002,-9.5985579816,1.8584607496,0.56835263,1.03878048,-4.0945348,,,
imu,497.089637,0.9983170232,-9.6087265792,1.8620496664,0.8674290299999999,1.04625739,-4.244073,,,
imu,497.098108,0.9995133288000001,-9.620091482400001,1.8650404304,1.12164397,1.04625739,-4.19921154,,,
imu,497.106579,0.9839613560000001,-9.6015487456,1.8787979448,1.31604363,0.8219500899999996,-4.34874974,,,
imu,497.11505,0.9857558144000002,-9.595567217600001,1.8955462232,1.41324346,0.7097964399999999,-4.318842099999999,,,
imu,497.123516,0.9731946056000002,-9.589585689600002,1.8913591536,1.71979677,0.8817653699999997,-4.169303899999999,,,
imu,497.131982,0.9612315496000001,-9.606932120800002,1.8967425288,2.10859609,0.8294269999999999,-3.95247351,,,
imu,497.140448,0.9606333968,-9.606932120800002,1.9075092792,2.19831901,0.84438082,-3.7206893,,,
imu,497.148915,0.9660167720000001,-9.613511801600001,1.9332298496,2.46001086,1.04625739,-3.48142818,,,
imu,497.157381,0.9875502728000001,-9.620689635200002,1.9296409328,2.81890254,1.11354958,-3.21973633,,,
imu,497.165847,0.9929336480000002,-9.636241608,1.9553615032,2.9385331,1.17336486,-3.13001341,,,
imu,497.174313,0.9803724392000001,-9.655980650400002,1.9691190176,3.0133022,1.13598031,-3.1973056,,,
imu,497.182779,0.9797742864000001,-9.669140012000002,1.9852691432,3.0133022,1.16588795,-3.1973056,,,
imu,497.191245,0.9827650504000001,-9.6703363176,1.9804839208,2.89367164,1.03130357,-3.10758268,,,
imu,497.199711,0.9743909112000002,-9.655980650400002,1.9745023928,2.84881018,1.04625739,-3.20478251,,,
imu,497.208177,0.9582407856000001,-9.656578803200002,1.9870636016,2.60207215,1.18831868,-3.14496723,,,
imu,497.216643,0.9719983000000001,-9.681103068,1.991848824,2.51982614,1.34533379,-3.17487487,,,
imu,497.225109,0.9803724392000001,-9.6912716656,1.9924469768,2.3403803,1.36776452,-3.07767504,,,
imu,497.233575,0.980970592,-9.708019944000002,1.9786894624,2.13850373,1.33785688,-3.07019813,,,
imu,497.242041,0.9845595088000001,-9.701440263200002,1.9786894624,2.03382699,1.36776452,-3.03281358,,,
imu,497.250508,0.9935318008000001,-9.692467971200001,1.9715116288,1.98896553,1.52477963,-3.07767504,,,
imu,497.258974,0.9905410368000002,-9.668541859200001,1.9577541144,1.86185806,1.4275798,-3.17487487,,,
imu,497.26744,1.0025040928,-9.631456385600002,1.961941184,1.83195042,1.38271834,-3.10010577,,,
imu,497.275906,1.0114763848,-9.599754287200001,1.9547633504,1.98896553,1.38271834,-3.24964397,,,
imu,497.284372,1.0096819264,-9.5985579816,1.9625393368,2.19831901,1.27056469,-3.31693616,,,
imu,497.292838,1.0007096344,-9.609922884800001,1.9595485728,2.30299575,1.2780416,-3.38422835,,,
imu,497.301304,1.0007096344,-9.633250844,1.9625393368,2.5646876,1.2780416,-3.51881273,,,
imu,497.30977,1.0013077872,-9.636241608,1.9673245592,2.54225687,1.15093413,-3.5711511,,,
imu,497.318236,0.9995133288000001,-9.637437913600001,1.967922712,2.54973378,1.15841104,-3.66835093,,,
imu,497.326699,0.9839613560000001,-9.6499991224,1.9607448784,2.52730305,1.23318014,-3.71321239,,,
imu,497.335161,0.9773816752000002,-9.644615747200001,1.9511744336,2.80394872,1.13598031,-3.69825857,,,
imu,497.343623,0.9755872168000002,-9.651195428000001,1.9505762808,2.63197979,1.11354958,-3.99733497,,,
imu,497.352085,0.9773816752000002,-9.656578803200002,1.923061252,2.63197979,1.15841104,-4.25154991,,,
imu,497.360548,0.9737927584000001,-9.6505972752,1.9105000432,2.66188743,1.21822632,-4.22911918,,,
imu,497.36901,0.9678112304000002,-9.6326526912,1.9272483216,2.7142258,1.25561087,-4.25154991,,,
imu,497.377472,0.9618297024000001,-9.6284656216,1.9188741824,2.65441052,1.33037997,-4.25902682,,,
imu,497.385934,0.9684093832000001,-9.6326526912,1.911098196,2.81890254,1.40514907,-4.30388828,,,
imu,497.394397,0.9690075360000001,-9.617698871200002,1.9069111264,2.95348692,1.43505671,-4.35622665,,,
imu,497.402859,0.9696056888000001,-9.644017594400001,1.8865739312,3.13293276,1.41262598,-4.28893446,,,
imu,497.411321,0.9708019944000001,-9.669140012000002,1.8758071808,3.33480933,1.49487199,-4.23659609,,,
imu,497.419783,0.9725964528000002,-9.686486443200002,1.8805924032,3.44696298,1.42010289,-4.20668845,,,
imu,497.428246,0.9725964528000002,-9.672728928800002,1.8823868616,3.50677826,1.34533379,-4.21416536,,,
imu,495.896477,,,,,,,60.09603480000001,-12.44527080000002,31.78146
imu,495.998039,,,,,,,58.3015764,-12.62837880000001,30.8170912
imu,496.099602,,,,,,,56.9221628,-11.82270360000002,30.56074
imu,496.201164,,,,,,,56.21414520000001,-11.35883000000002,29.21794799999999
imu,496.302727,,,,,,,55.3108124,-11.54193800000001,29.1813264
imu,496.404289,,,,,,,56.56815400000001,-12.0058116,28.20475039999999
imu,496.505852,,,,,,,54.40747960000001,-11.67621720000001,29.19353359999999
imu,496.607384,,,,,,,56.9099556,-11.98139720000002,26.3126344
imu,497.436708,0.9779798280000002,-9.656578803200002,1.8686293472,3.3871477,1.36028761,-4.146873169999999,,,
imu,497.44517,0.9779798280000002,-9.6499991224,1.8620496664,3.39462461,1.36776452,-3.93751969,,,
imu,497.453633,0.9851576616000001,-9.664952942400001,1.8596570552,3.42453225,1.2032725,-3.84031986,,,
imu,497.462095,0.9815687448000001,-9.669140012000002,1.8494884576,3.65631646,1.19579559,-3.61601256,,,
imu,497.470557,0.9833632032,-9.673925234400002,1.8429087768,3.80585466,1.10607267,-3.39170526,,,
imu,497.479019,0.9761853696000001,-9.6709344704,1.827356804,3.85071612,0.9565344699999998,-3.33188998,,,
imu,497.487482,0.963026008,-9.659569567200002,1.8195808176,4.04511578,0.9041961000000001,-3.27955161,,,
imu,497.495944,0.9534555632000001,-9.6434194416,1.8028325392,4.1348387,0.8593346399999997,-3.37675144,,,
imu,497.504406,0.9396980488000001,-9.631456385600002,1.7842898024,4.2843769,0.98644211,-3.44404363,,,
imu,497.512868,0.9361091320000001,-9.648802816800002,1.7896731776,4.41148437,0.9714882899999999,-3.52628964,,,
imu,497.521331,0.9414925072000001,-9.647606511200001,1.7836916496,4.41896128,0.9939190199999999,-3.60853565,,,
imu,497.529794,0.9289312984000001,-9.664952942400001,1.773523052,4.47877656,0.9565344699999998,-3.95995042,,,
imu,497.538258,0.9187627008000002,-9.685888290400001,1.7657470656,4.52363802,0.92662683,-4.25154991,,,
imu,497.546721,0.9193608536000001,-9.718786694400002,1.7693359824,4.56102257,1.04625739,-4.27398064,,,
imu,497.555185,0.9097904088000002,-9.7301515976,1.7579710792,4.30680763,1.12102649,-4.43847266,,,
imu,497.563648,0.9169682424000002,-9.737329431200001,1.7717285936,4.1348387,1.19579559,-4.31136519,,,
imu,497.572202,0.9151737840000002,-9.727758986400001,1.7567747736,3.89557758,1.41262598,-4.26650373,,,
imu,497.580666,0.9163700896000002,-9.7163940832,1.7484006344,3.88062376,1.63693328,-4.22911918,,,
imu,497.589129,0.9187627008000002,-9.725964528,1.740624648,3.70865483,1.82385603,-4.244073,,,
imu,497.597593,0.9181645480000001,-9.7337405144,1.7472043288,3.57407045,1.88367131,-4.244073,,,
imu,497.606056,0.9223516176000001,-9.7427128064,1.7400264952,3.46939371,2.08554788,-4.102011709999999,,,
imu,497.61452,0.9271368400000001,-9.740918348000001,1.7310542032,3.40957843,2.14536316,-4.13191935,,,
imu,497.622983,0.9199590064000001,-9.743909112,1.7220819112,3.17779422,2.33976282,-4.079580979999999,,,
imu,497.631447,0.9223516176000001,-9.7403201952,1.716698536,3.20770186,2.48930102,-4.0197657,,,
imu,497.63991,0.9456795768000001,-9.722973764,1.7059317856,2.94601001,2.50425484,-3.92256587,,,
imu,497.648374,0.9414925072000001,-9.693664276800002,1.692772424,2.67684125,2.53416248,-3.82536604,,,
imu,497.656837,0.9480721880000001,-9.680504915200002,1.7041373272,2.83385636,2.76594669,-3.54124346,,,
imu,497.665301,0.9444832712000001,-9.6912716656,1.6742296872,3.10302512,2.95286944,-2.95056757,,,
imu,497.673764,0.9588389384,-9.701440263200002,1.6754259928,3.17031731,3.09493073,-2.48699915,,,
imu,497.682228,0.9779798280000002,-9.724170069600001,1.6544906448,3.33480933,3.22951511,-2.24026112,,,
imu,497.690692,1.00190594,-9.722973764,1.6401349776,3.26004023,3.11736146,-2.35241477,,,
imu,497.699155,1.0126726904,-9.704431027200002,1.6347516024,3.24508641,2.9229618,-2.57672207,,,
imu,497.707619,1.0072893152,-9.706225485600001,1.626975616,3.24508641,2.70613141,-2.69635263,,,
imu,497.716082,1.007887468,-9.7122070136,1.6221903936,3.30490169,2.57902394,-3.02533667,,,
imu,497.724546,1.0025040928,-9.731347903200001,1.6197977824,3.31985551,2.44443956,-3.14496723,,,
imu,497.733365,0.9923354952000002,-9.752881404000002,1.6281719216,3.05816366,2.28742445,-3.23469015,,,
imu,497.742185,0.9971207176000002,-9.7576666264,1.6293682272,2.863764,2.11545552,-3.20478251,,,
imu,497.751004,1.00190594,-9.776209363200001,1.6275737688,2.57964142,1.9509635,-3.24216706,,,
imu,497.759824,0.9923354952000002,-9.7815927384,1.647910964,2.28056502,2.01825569,-3.06272122,,,
imu,497.768644,0.9815687448000001,-9.755274015200001,1.6526961864,1.76465823,1.92105586,-2.95056757,,,
imu,497.777463,0.9749890640000002,-9.751685098400001,1.6503035752,1.36090509,2.00330187,-2.92813684,,,
imu,497.786283,0.9719983000000001,-9.741516500800001,1.6503035752,1.12164397,1.98087114,-2.89075229,,,
imu,497.795102,0.9791761336000001,-9.7403201952,1.6544906448,1.10669015,1.98087114,-2.90570611,,,
imu,497.803922,0.9881484256000002,-9.7403201952,1.6580795616,0.9272443100000001,1.8761944,-3.01038285,,,
imu,497.812742,0.9845595088000001,-9.7325442088,1.6664537008,0.78518302,1.95844041,-3.1225365,,,
imu,497.821561,0.9875502728000001,-9.727758986400001,1.6760241456,0.7702292,1.92853277,-2.95056757,,,
imu,497.830381,1.0013077872,-9.714599624800002,1.6802112152,0.66555246,1.84628676,-2.96552139,,,
imu,497.8392,1.0007096344,-9.7128051664,1.6796130624,0.56087572,1.75656384,-3.20478251,,,
imu,497.84802,0.9863539672000001,-9.696655040800001,1.6754259928,0.45619898,1.63693328,-3.46647436,,,
imu,497.856839,0.9672130776000001,-9.682897526400001,1.6754259928,0.4711528,1.76404075,-3.40665908,,,
imu,497.865659,0.9725964528000002,-9.6703363176,1.6826038264,0.56087572,1.77151766,-3.38422835,,,
imu,497.874479,0.9600352440000001,-9.665551095200001,1.6754259928,0.67302937,1.89114822,-3.33188998,,,
imu,497.883298,0.9510629520000001,-9.655382497600002,1.6652573952,0.97210577,1.93600968,-3.24964397,,,
imu,497.892118,0.9546518688000002,-9.638634219200002,1.6604721728,1.24127453,1.99582496,-3.33188998,,,
imu,497.900937,0.9534555632000001,-9.614708107200002,1.6652573952,1.51044329,2.13788625,-3.3468438,,,
imu,497.909757,0.9355109792000001,-9.614708107200002,1.6855945904,1.73475059,2.1752708,-3.38422835,,,
imu,497.918577,0.9175663952000002,-9.6523917336,1.6933705768,1.8169966,2.27247063,-3.77302767,,,
imu,497.927396,0.9199590064000001,-9.70502918,1.7161003832,1.75718132,2.29490136,-3.96742733,,,
imu,497.936091,0.9349128264000002,-9.748096181600001,1.7125114664,1.46558183,2.39210119,-3.95247351,,,
imu,497.944786,0.9528574104000002,-9.7492924872,1.7089225496,1.2936129,2.59397776,-3.7206893,,,
imu,497.953481,0.9552500216000002,-9.727160833600001,1.722680064,1.15902852,2.75846978,-3.61601256,,,
imu,497.962176,0.9444832712000001,-9.727758986400001,1.7340449672,0.8749059399999999,2.87062343,-3.32441307,,,
imu,497.970871,0.9666149248000001,-9.7403201952,1.7280634392,0.78518302,3.03511545,-3.17487487,,,
imu,497.979566,0.9767835224000002,-9.743310959200002,1.7005484104,0.67302937,3.04259236,-3.33188998,,,
imu,497.988261,0.9965225648000002,-9.7151977776,1.6861927432,0.64312173,3.07997691,-3.41413599,,,
imu,497.996956,1.0210468296,-9.679308609600001,1.6909779656,0.70293701,3.07997691,-3.496382,,,
imu,498.005651,1.0264302048,-9.658971414400002,1.7083243968,0.7403215599999999,2.95286944,-3.51881273,,,
imu,498.014346,1.0174579128,-9.671532623200001,1.707726244,1.00201341,2.90053107,-3.45152054,,,
imu,498.023041,1.01685976,-9.706823638400001,1.6933705768,1.23379762,2.91548489,-3.48890509,,,
imu,498.031736,1.0246357464,-9.722375611200002,1.7035391744,1.26370526,2.90800798,-3.24964397,,,
imu,498.040431,1.0473655528,-9.715795930400002,1.7035391744,1.20388998,2.96034635,-3.05524431,,,
imu,498.049126,1.0611230672,-9.727160833600001,1.7149040776,1.16650543,2.86314652,-2.748691,,,
imu,498.057821,1.0653101368,-9.723571916800001,1.7101188552,0.8973366700000001,2.74351596,-2.77112173,,,
imu,498.066516,1.0742824288,-9.711608860800002,1.7041373272,0.7403215599999999,2.57154703,-2.77859864,,,
imu,498.075211,1.0742824288,-9.7163940832,1.7041373272,0.58330645,2.5491163,-2.71878336,,,
imu,498.083905,1.0724879704,-9.688879054400001,1.6969594936,0.6281679099999999,2.48182411,-2.68887572,,,
imu,498.0926,1.0784694984,-9.634447149600001,1.6999502576,0.46367589,2.36967046,-2.69635263,,,
imu,498.101295,1.0760768872,-9.599156134400001,1.7083243968,0.49358353,2.1752708,-2.5991528,,,
imu,498.10999,1.0730861232,-9.612315496,1.6903798128,0.68798319,2.0257326,-2.53186061,,,
imu,498.118685,1.0790676512,-9.6117173432,1.6933705768,0.8449983,1.89862513,-2.5991528,,,
imu,498.12738,1.0940214712,-9.6284656216,1.68978166,1.20388998,1.84628676,-2.63653735,,,
imu,498.136075,1.0994048464,-9.651793580800001,1.6999502576,1.45062801,1.71917929,-2.54681443,,,
imu,498.14432,1.0970122352,-9.656578803200002,1.6939687296,1.64502767,1.59207182,-2.41970696,,,
imu,498.152565,1.100601152,-9.668541859200001,1.6873890488,1.85438115,1.43505671,-2.56924516,,,
imu,498.16081,1.109573444,-9.661364025600001,1.6933705768,2.0413039,1.18831868,-2.60662971,,,
imu,498.169055,1.1089752912,-9.688879054400001,1.7095207024,2.116073,1.16588795,-2.76364482,,,
imu,498.177299,1.1143586664,-9.7086180968,1.7071280912,2.19831901,0.98644211,-2.83093701,,,
imu,498.185544,1.097610388,-9.716992236000001,1.7053336328,2.22074974,0.6574580699999997,-3.02533667,,,
imu,498.193789,1.0988066936,-9.721179305600002,1.7071280912,2.28056502,0.5677351499999999,-3.10758268,,,
imu,498.202034,1.079665804,-9.7074217912,1.7059317856,2.22822665,0.3957662200000001,-3.13749032,,,
imu,498.210279,1.0760768872,-9.708019944000002,1.68978166,2.08616536,0.2237972899999998,-3.43656672,,,
imu,498.218524,1.0730861232,-9.6918698184,1.6939687296,2.23570356,0.08173599999999981,-3.36927453,,,
imu,498.226768,1.0467674,-9.6876827488,1.6963613408,2.25813429,0.02192071999999978,-3.39170526,,,
imu,498.235013,1.0485618584,-9.688280901600002,1.6975576464,2.22074974,-0.1425713000000002,-3.51881273,,,
imu,498.243258,1.0509544696,-9.6775141512,1.6963613408,2.44505704,-0.1350943900000003,-3.45899745,,,
imu,498.251503,1.0312154272,-9.679308609600001,1.6814075208,2.45253395,-0.1276174800000001,-3.43656672,,,
imu,496.708977,,,,,,,53.34545320000002,-10.7240556,28.41227279999999
imu,496.810509,,,,,,,53.05248040000001,-11.52973080000002,25.87317519999999
imu,496.912102,,,,,,,52.7106788,-10.74847000000001,27.569976
imu,497.013634,,,,,,,52.33225560000001,-10.54094760000002,27.3624536
imu,497.124535,,,,,,,52.3810844,-10.87054200000002,27.86294879999999
imu,497.224602,,,,,,,52.95482280000001,-10.21135320000002,27.53335439999999
imu,497.326164,,,,,,,52.72288600000002,-10.88274920000001,27.6188048
imu,497.427727,,,,,,,55.55495640000001,-10.91937080000001,27.37466079999999
imu,498.259748,1.022841288,-9.657176956,1.6730333816,2.46748777,-0.2472480400000001,-3.62348947,,,
imu,498.267993,0.9965225648000002,-9.6494009696,1.680809368,2.79647181,-0.09770984000000027,-3.58610492,,,
imu,498.276237,0.9851576616000001,-9.665551095200001,1.6730333816,2.77404108,-0.1425713000000002,-3.75059694,,,
imu,498.284482,0.9761853696000001,-9.688879054400001,1.6724352288,3.04320984,-0.1575251200000003,-3.67582784,,,
imu,498.292727,0.9719983000000001,-9.690673512800002,1.6610703256,2.94601001,-0.0005100100000001717,-3.75807385,,,
imu,498.300972,0.9648204664000001,-9.684093832000002,1.6622666312,2.863764,0.1714589200000001,-3.70573548,,,
imu,498.309217,0.9528574104000002,-9.697851346400002,1.6712389232,2.93105619,0.3882893099999998,-3.77302767,,,
imu,498.317462,0.9426888128,-9.7265626808,1.668846312,2.84133327,0.6051196999999999,-3.66835093,,,
imu,498.325706,0.9379035904000002,-9.7325442088,1.6503035752,2.82637945,0.8518577299999999,-3.51133582,,,
imu,498.333951,0.9361091320000001,-9.730749750400001,1.6622666312,2.6394567,1.06868812,-3.39170526,,,
imu,498.342424,0.9355109792000001,-9.7193848472,1.6700426176,2.39271867,1.34533379,-3.32441307,,,
imu,498.350896,0.9367072848000002,-9.722375611200002,1.6784167568,2.23570356,1.74161002,-3.41413599,,,
imu,498.359369,0.9420906600000001,-9.7570684736,1.6724352288,2.13850373,2.06311715,-3.35432071,,,
imu,498.367841,0.9600352440000001,-9.777405668800002,1.6556869504,2.00391935,2.30985518,-3.33936689,,,
imu,498.376313,0.9546518688000002,-9.755274015200001,1.638938672,1.84690424,2.72108523,-3.41413599,,,
imu,498.384786,0.9564463272000002,-9.7217774584,1.6526961864,1.72727368,2.86314652,-3.37675144,,,
imu,498.393258,0.9719983000000001,-9.709216249600003,1.6562851032,1.82447351,3.10240764,-3.4216129,,,
imu,498.401731,0.9881484256000002,-9.718188541600002,1.6700426176,1.8169966,3.33419185,-3.57862801,,,
imu,498.410203,1.0013077872,-9.734338667200001,1.6736315344,1.68241222,3.31923803,-3.78798149,,,
imu,498.418676,1.0037003984,-9.766638918400002,1.665855548,1.51044329,3.41643786,-4.079580979999999,,,
imu,498.427148,1.0120745376,-9.797144711200001,1.6503035752,1.40576655,3.58092988,-4.13939626,,,
imu,498.435621,1.0264302048,-9.767835224,1.626975616,1.23379762,3.5958837,-4.06462716,,,
imu,498.444093,1.0581323032,-9.710412555200001,1.6335552968,1.12912088,3.5958837,-3.96742733,,,
imu,498.452565,1.0754787344,-9.689477207200001,1.6275737688,1.2188438,3.61083752,-3.84779677,,,
imu,498.461038,1.0868436376,-9.693066124000001,1.6096291848,1.57773548,3.47625314,-3.7206893,,,
imu,498.46951,1.103591916,-9.7008421104,1.6006568928,1.87681188,3.35662258,-3.54872037,,,
imu,498.477983,1.118545736,-9.709814402400001,1.5779270864,2.28804193,3.18465365,-3.53376655,,,
imu,498.486455,1.1203401944,-9.683495679200002,1.5695529472,2.30299575,2.7734236,-3.56367419,,,
imu,498.494928,1.1293124864,-9.6667474008,1.5659640304,2.54225687,2.51173175,-3.54124346,,,
imu,498.5034,1.1113679024,-9.696655040800001,1.5498139048,2.79647181,2.2500399,-3.48142818,,,
imu,498.511873,1.1101715968,-9.7086180968,1.5378508488,2.67684125,1.9509635,-3.54124346,,,
imu,498.520345,1.1299106392,-9.7151977776,1.54024346,2.55721069,1.6518871,-3.60105874,,,
imu,498.528817,1.1370884728,-9.746301723200002,1.5623751136,2.32542648,1.41262598,-3.74312003,,,
imu,498.53729,1.1388829312,-9.755274015200001,1.55519728,1.95905789,1.16588795,-3.68330475,,,
imu,498.545746,1.1329014032,-9.766638918400002,1.558188044,1.60764312,0.8742884599999998,-3.73564312,,,
imu,498.554202,1.1053863744,-9.754675862400001,1.567160336,1.11416706,0.6499811599999998,-3.87770441,,,
imu,498.562658,1.0862454848,-9.751685098400001,1.5665621832,0.65807555,0.5901658799999998,-4.04219643,,,
imu,498.571114,1.0814602624,-9.745703570400002,1.5689547944,0.31413769,0.47801223,-3.98238115,,,
imu,498.579569,1.0868436376,-9.746899876,1.58510492,0.11226112,0.44062768,-4.0197657,,,
imu,498.588025,1.0694972064,-9.748694334400001,1.5635714192,-0.03727708,0.44062768,-4.102011709999999,,,
imu,498.596481,1.0485618584,-9.745105417600001,1.591086448,-0.02232326000000001,0.4630584099999999,-4.04967334,,,
imu,498.604937,1.0395895664,-9.737329431200001,1.5952735176,-0.24663056,0.4481045899999998,-4.169303899999999,,,
imu,498.613393,1.0336080384,-9.7492924872,1.5833104616,-0.30644584,0.6873657099999999,-4.22911918,,,
imu,498.621849,1.0605249144,-9.735534972800002,1.5898901424,-0.47841477,0.7920424499999998,-4.408565019999999,,,
imu,498.630305,1.0593286088,-9.697253193600002,1.6036476568,-0.54570696,0.9116730099999999,-4.64034923,,,
imu,498.638761,1.0569359976,-9.688879054400001,1.6191996296,-0.5307531400000001,1.09859576,-4.81231816,,,
imu,498.647217,1.0473655528,-9.709814402400001,1.609031032,-0.30644584,1.29299542,-4.83474889,,,
imu,498.655673,1.0593286088,-9.716992236000001,1.6132181016,-0.32887657,1.37524143,-4.87213344,,,
imu,498.664063,1.073684276,-9.722375611200002,1.6174051712,-0.41859949,1.46496435,-5.05905619,,,
imu,498.672518,1.0730861232,-9.714599624800002,1.6335552968,-0.4260764,1.45001053,-5.305794219999999,,,
imu,498.680974,1.0551415392,-9.709814402400001,1.6377423664,-0.18681528,1.4275798,-5.38056332,,,
imu,498.68943,1.0425803304,-9.70502918,1.6532943392,-0.22419983,1.31542615,-5.53757843,,,
imu,498.697886,1.0419821776,-9.711010708000002,1.6640610896,-0.39616876,1.12102649,-5.829177919999999,,,
imu,498.706342,1.0431784832,-9.709216249600003,1.671837076,-0.5980453299999999,0.9041961000000001,-5.85908556,,,
imu,498.714798,1.0455710944,-9.6912716656,1.6796130624,-0.68776825,0.8219500899999996,-5.79179337,,,
imu,498.723254,1.022841288,-9.6846919848,1.6855945904,-0.70272207,0.6798887999999996,-5.64225517,,,
imu,498.73171,0.9917373424000001,-9.699645804800001,1.6915761184,-0.64290679,0.6051196999999999,-5.08896383,,,
imu,498.740166,0.9827650504000001,-9.709814402400001,1.6885853544,-0.70272207,0.35838167,-4.647826139999999,,,
imu,498.748985,0.9881484256000002,-9.706225485600001,1.677818604,-0.89712173,0.27613566,-4.51324176,,,
imu,498.757805,0.980970592,-9.693664276800002,1.6790149096,-0.8522602699999999,0.2836125699999998,-4.44594957,,,
imu,498.766624,0.9755872168000002,-9.6709344704,1.6760241456,-0.95693701,0.09668981999999993,-4.58053395,,,
imu,498.775444,0.9498666464000002,-9.641026830400001,1.6843982848,-0.88964482,-0.1051867500000001,-4.81231816,,,
imu,498.784264,0.9217534648000001,-9.614109954400002,1.6885853544,-0.70272207,-0.1949096699999999,-4.999240909999999,,,
imu,498.793083,0.8948365888000002,-9.613511801600001,1.6861927432,-0.36626112,-0.1874327600000001,-4.89456417,,,
imu,498.801903,0.8691160184000001,-9.619493329600001,1.6832019792,-0.17933837,0.04435144999999974,-4.715118329999999,,,
imu,498.810722,0.8846679912000001,-9.6296619272,1.6724352288,-0.01484635000000001,0.27613566,-4.4683803,,,
imu,498.819542,0.8936402832000001,-9.636241608,1.6820056736,0.27675314,0.64250425,-4.25902682,,,
imu,498.828362,0.900219964,-9.647606511200001,1.6849964376,0.44124516,0.86681155,-4.04967334,,,
imu,498.837181,0.9014162696000001,-9.651195428000001,1.6999502576,0.77770611,1.01634975,-3.92256587,,,
imu,498.846001,0.9008181168,-9.684093832000002,1.701744716,1.08425942,1.09859576,-3.90761205,,,
imu,498.85482,0.9211553120000001,-9.706225485600001,1.7011465632,1.11416706,1.0537343,-4.07210407,,,
imu,498.86364,0.9127811728000002,-9.730749750400001,1.6999502576,1.21136689,0.9565344699999998,-4.19921154,,,
imu,498.872459,0.9169682424000002,-9.7815927384,1.6975576464,1.12912088,1.03130357,-4.15435008,,,
imu,498.881279,0.9235479232000001,-9.7911631832,1.7149040776,0.97210577,1.0537343,-4.21416536,,,
imu,498.890099,0.9175663952000002,-9.7612555432,1.7298578976,0.8524752099999999,1.03130357,-4.20668845,,,
imu,498.898918,0.9654186192,-9.7301515976,1.7274652864,0.6954601,1.06121121,-4.0945348,,,
imu,498.907738,0.9492684936000001,-9.690075360000002,1.746606176,0.63564482,1.15093413,-4.0197657,,,
imu,498.916557,0.9337165208000001,-9.669738164800002,1.7274652864,0.5459219,1.15841104,-3.75807385,,,
imu,498.925377,0.9145756312000002,-9.6296619272,1.7131096192,0.36647606,1.14345722,-3.81788913,,,
imu,498.934197,0.9169682424000002,-9.609324732000001,1.7059317856,0.68798319,1.25561087,-3.42908981,,,
imu,498.943016,0.9211553120000001,-9.595567217600001,1.7143059248,0.7702292,1.25561087,-3.36927453,,,
imu,498.95149,0.9103885616000001,-9.625474857600002,1.7029410216,0.8823828499999999,1.18084177,-3.31693616,,,
imu,498.959964,0.9139774784000001,-9.651195428000001,1.7178948416,1.22632071,1.33785688,-3.39170526,,,
imu,498.968437,0.9199590064000001,-9.673925234400002,1.7155022304,1.34595127,1.31542615,-3.48142818,,,
imu,498.976911,0.9044070336000001,-9.676317845600002,1.7250726752,1.50296638,1.44253362,-3.46647436,,,
imu,498.985385,0.8685178656000001,-9.679308609600001,1.7400264952,1.57773548,1.50982581,-3.54124346,,,
imu,498.993858,0.8607418792,-9.688879054400001,1.7549803152,1.48053565,1.84628676,-3.51881273,,,
imu,499.002332,0.8499751288000001,-9.688280901600002,1.7609618432,1.54782784,2.19770153,-3.56367419,,,
imu,499.010806,0.8703123240000001,-9.7128051664,1.7579710792,1.47305874,2.44443956,-3.61601256,,,
imu,499.01928,0.8918458248000001,-9.7128051664,1.74959694,1.45062801,2.82576197,-3.81788913,,,
imu,499.027753,0.9259405344000001,-9.664952942400001,1.7472043288,1.24875144,3.05006927,-3.96742733,,,
imu,499.036227,0.9402962016,-9.627269316000001,1.7519895512,1.368382,3.2220382,-3.93751969,,,
imu,499.044701,0.9343146736000002,-9.6326526912,1.746606176,1.69736604,3.28185348,-4.02724261,,,
imu,499.053174,0.9361091320000001,-9.623082246400001,1.7232782168,1.89924261,3.46877623,-4.0945348,,,
imu,499.061648,0.9588389384,-9.646410205600002,1.725670828,2.32542648,3.36409949,-4.10948862,,,
imu,499.070122,1.0037003984,-9.669140012000002,1.7143059248,2.67684125,3.32671494,-4.124442439999999,,,
imu,497.529216,,,,,,,53.760498,-10.35783960000001,27.89957039999999
imu,497.630779,,,,,,,56.1286948,-11.66401000000001,25.3970944
imu,497.732311,,,,,,,52.96703,-10.61419080000001,27.63101199999999
imu,497.833904,,,,,,,55.2375692,-11.31000120000001,25.2628152
imu,497.935466,,,,,,,53.0768948,-11.02923560000002,27.88736319999999
imu,498.037029,,,,,,,53.2355884,-10.51653320000001,27.25258879999999
imu,498.138591,,,,,,,53.24779560000002,-10.91937080000001,28.27799359999999
imu,498.240123,,,,,,,53.6628404,-10.57756920000001,27.75308399999999
imu,499.078596,1.037795108,-9.680504915200002,1.710717008,2.97591765,3.26689966,-4.16182699,,,
imu,499.087069,1.0461692472,-9.6799067624,1.7340449672,2.90114855,3.06502309,-4.13191935,,,
imu,499.095543,1.0192523712,-9.6954587352,1.7322505088,3.05816366,2.78090051,-3.9449966,,,
imu,499.104017,1.0252338992,-9.724170069600001,1.722680064,2.863764,2.52668557,-3.81041222,,,
imu,499.11249,1.0276265104,-9.7570684736,1.7298578976,2.7142258,2.18274771,-3.54872037,,,
imu,499.120964,1.0395895664,-9.763050001600002,1.7125114664,2.46001086,2.07807097,-3.30198234,,,
imu,499.129438,1.0569359976,-9.744507264800001,1.6993521048,2.13102682,1.86124058,-3.10010577,,,
imu,499.137912,1.0401877192,-9.711010708000002,1.7053336328,1.98148862,1.62945637,-2.86084465,,,
imu,499.146385,1.0120745376,-9.693664276800002,1.6951650352,1.94410407,1.38271834,-2.95056757,,,
imu,499.15486,0.9983170232,-9.699047652,1.6802112152,1.84690424,1.17336486,-3.0477674,,,
imu,499.163335,0.9911391896000001,-9.703234721600001,1.6592758672,1.91419643,1.24065705,-3.02533667,,,
imu,499.17181,0.9827650504000001,-9.693664276800002,1.6526961864,1.9665348,1.17336486,-3.14496723,,,
imu,499.180285,0.9869521200000001,-9.7008421104,1.662864784,2.07121154,1.32290306,-3.21225942,,,
imu,499.18876,0.9785779808,-9.708019944000002,1.6742296872,2.01887317,1.48739508,-3.38422835,,,
imu,499.197235,0.9702038416000002,-9.744507264800001,1.6772204512,1.86933497,1.577118,-3.61601256,,,
imu,499.20571,0.9881484256000002,-9.768433376800001,1.6730333816,1.71231986,1.69674856,-4.00481188,,,
imu,499.214185,1.0060930096,-9.777405668800002,1.668846312,1.56278166,1.75656384,-4.33379592,,,
imu,499.22266,0.9899428840000002,-9.7474980288,1.6646592424,1.39828964,1.92105586,-4.602964679999999,,,
imu,499.231135,0.9917373424000001,-9.725366375200002,1.6724352288,1.36090509,2.01825569,-4.59548777,,,
imu,499.23961,0.9881484256000002,-9.710412555200001,1.6532943392,1.27118217,2.12293243,-4.47585721,,,
imu,499.248085,0.9977188704000002,-9.711010708000002,1.650901728,1.27865908,2.28742445,-4.28145755,,,
imu,499.25656,1.0042985512,-9.7008421104,1.6335552968,1.43567419,2.22013226,-4.04967334,,,
imu,499.265035,1.0174579128,-9.682299373600001,1.6221903936,1.56278166,2.1752708,-3.93004278,,,
imu,499.27351,1.0276265104,-9.665551095200001,1.612021796,1.76465823,1.99582496,-3.97490424,,,
imu,499.281985,1.007887468,-9.647606511200001,1.6108254904,2.02635008,1.75656384,-4.04967334,,,
imu,499.29046,0.9887465784000001,-9.669738164800002,1.6084328792,2.05625772,1.33037997,-4.22911918,,,
imu,498.341747,,,,,,,53.4064892,-10.26018200000001,28.1681288
imu,498.443279,,,,,,,53.0768948,-10.1014884,27.6432192
imu,498.544872,,,,,,,53.98022760000001,-10.44329000000002,27.15493119999999
imu,498.654216,,,,,,,53.50414679999999,-10.4310828,27.4967328
imu,498.755779,,,,,,,55.90896520000002,-11.70063160000001,24.77452719999999
imu,498.857372,,,,,,,53.84594840000001,-10.68743400000001,27.6432192
imu,498.958934,,,,,,,55.84792920000001,-11.88373960000002,25.49475199999999
imu,499.068279,,,,,,,53.1623452,-11.1513076,27.7042552
imu,499.169737,,,,,,,53.1013092,-11.16351480000002,27.3502464
imu,499.271574,,,,,,,53.3698676,-10.9559924,27.2770032
