Type,Timestamp,Data Accelerometer X,Data Accelerometer Y,Data Accelerometer Z,Data Gyroscope X,Data Gyroscope Y,Data Gyroscope Z,Data Magnetometer X,Data Magnetometer Y,Data Magnetometer Z
imu,286.552687,0.5915731192000001,-9.591978300800001,2.3668906296,1.65250458,2.4743472,-3.7954584,,,
imu,286.561147,0.5957601888000001,-9.592576453600001,2.353731268,1.76465823,2.31733209,-3.92256587,,,
imu,286.569607,0.5945638832000001,-9.5985579816,2.353731268,2.05625772,2.28742445,-3.82536604,,,
imu,286.578067,0.5915731192000001,-9.616502565600001,2.3579183376,2.22074974,2.14536316,-3.91508896,,,
imu,286.586893,0.5670488544000001,-9.625474857600002,2.356722032,2.36281103,1.90610204,-4.012288789999999,,,
imu,286.595719,0.5760211464000001,-9.6284656216,2.3489460456,2.38524176,1.54721036,-4.124442439999999,,,
imu,286.604545,0.5820026744000001,-9.6260730104,2.3381792952,2.46748777,1.50982581,-3.95247351,,,
imu,286.613371,0.5742266880000001,-9.627867468800002,2.3351885312,2.60207215,1.46496435,-3.85527368,,,
imu,286.622198,0.5610673264,-9.623082246400001,2.3369829896,2.80394872,1.53973345,-3.78050458,,,
imu,286.631024,0.5526931872,-9.6326526912,2.3333940728,2.66936434,1.39019525,-3.80293531,,,
imu,286.63985,0.5574784096000001,-9.646410205600002,2.325019933600001,2.52730305,1.36776452,-3.90013514,,,
imu,286.648676,0.5317578392000001,-9.669140012000002,2.3333940728,2.51982614,1.31542615,-3.81041222,,,
imu,286.657503,0.5323559920000001,-9.6709344704,2.3232254752,2.44505704,1.25561087,-3.93751969,,,
imu,286.666329,0.5395338256000001,-9.673925234400002,2.3405719064,2.40019558,1.33037997,-3.7954584,,,
imu,286.675155,0.535346756,-9.673925234400002,2.3184402528,2.2656112,1.29299542,-3.78050458,,,
imu,286.683981,0.5431227424,-9.685888290400001,2.329805156,2.07121154,1.28551851,-3.88518132,,,
imu,286.692728,0.5329541448,-9.6799067624,2.329805156,1.85438115,1.32290306,-3.96742733,,,
imu,286.701554,0.5401319784,-9.679308609600001,2.33279592,1.94410407,1.47244126,-3.81788913,,,
imu,286.710381,0.5395338256000001,-9.6733270816,2.33279592,1.8169966,1.56216418,-3.78798149,,,
imu,286.719207,0.5389356728,-9.672130776000001,2.3429645176,1.70484295,1.53973345,-3.78050458,,,
imu,286.728033,0.5479079648000001,-9.673925234400002,2.3411700592,1.57025857,1.577118,-3.93004278,,,
imu,286.736859,0.5562821040000001,-9.672130776000001,2.344758976,1.65998149,1.65936401,-3.7954584,,,
imu,286.745685,0.5640580904000001,-9.657176956,2.335786684,1.63755076,1.60702564,-3.89265823,,,
imu,286.754512,0.5544876456000001,-9.6434194416,2.3441608232,1.46558183,1.45001053,-3.8702275,,,
imu,286.763338,0.5616654792000001,-9.633250844,2.3543294208,1.45062801,1.3528107,-4.11696553,,,
imu,286.772164,0.5598710208000001,-9.6284656216,2.34774974,1.71979677,1.2032725,-4.15435008,,,
imu,286.78099,0.5467116592000001,-9.6248767048,2.3381792952,1.84690424,1.17336486,-4.17678081,,,
imu,286.789463,0.5491042704000001,-9.606333968000001,2.3435626704,1.78708896,1.09859576,-4.30388828,,,
imu,286.797935,0.5377393672000002,-9.594370912,2.34774974,1.88428879,1.01634975,-4.35622665,,,
imu,286.806408,0.5275707696,-9.5842023144,2.344758976,2.07121154,1.0537343,-4.124442439999999,,,
imu,286.81488,0.5275707696,-9.575828175200002,2.344758976,2.1908421,1.06121121,-3.98238115,,,
imu,286.823353,0.5347486032000001,-9.580613397600002,2.338777448000001,2.48244159,0.94905756,-3.99733497,,,
imu,286.831825,0.5293652280000001,-9.583604161600002,2.3525349624,2.68431816,1.01634975,-3.84031986,,,
imu,286.840297,0.5197947832,-9.575828175200002,2.3453571288,2.89367164,1.00887284,-3.84779677,,,
imu,286.84877,0.5245800056000001,-9.592576453600001,2.3423663648,3.14788658,1.00887284,-3.69825857,,,
imu,286.857242,0.5215892416000001,-9.597361676,2.3489460456,3.21517877,0.9415806499999997,-3.72816621,,,
imu,286.865715,0.5209910888,-9.6087265792,2.348347892800001,3.2376095,0.8294269999999999,-3.8702275,,,
imu,286.874187,0.5036446576000001,-9.6159044128,2.3339922256,3.3871477,0.8593346399999997,-3.9449966,,,
imu,286.88266,0.4982612824000001,-9.625474857600002,2.3256180864,3.43948607,0.8742884599999998,-3.87770441,,,
imu,286.891132,0.5000557408,-9.627867468800002,2.3304033088,3.47687062,0.9191499199999997,-3.93751969,,,
imu,286.899605,0.4916816016,-9.633250844,2.3292070032,3.48434753,0.9640113799999996,-3.95247351,,,
imu,286.908077,0.4809148512,-9.636839760800001,2.314851336,3.52920899,1.00887284,-3.86275059,,,
imu,286.916549,0.4785222400000001,-9.651195428000001,2.311860572000001,3.59650118,1.00139593,-3.84031986,,,
imu,286.925022,0.4689517952000001,-9.6458120528,2.2927196824,3.46939371,1.11354958,-3.80293531,,,
imu,286.933494,0.4761296288000001,-9.657176956,2.281952932,3.47687062,1.21074941,-3.83284295,,,
imu,286.941967,0.4677554896000001,-9.673925234400002,2.284943696,3.61893191,1.38271834,-3.69825857,,,
imu,286.950439,0.4839056152000001,-9.682299373600001,2.2735787928,3.64136264,1.62197946,-3.53376655,,,
imu,286.958912,0.4857000736000001,-9.693664276800002,2.2675972648,3.50677826,1.73413311,-3.30945925,,,
imu,286.967384,0.4845037680000001,-9.699047652,2.25802682,3.43200916,1.85376367,-3.29450543,,,
imu,286.975856,0.499457588,-9.690673512800002,2.2352970136,3.50677826,2.00330187,-3.27955161,,,
imu,286.984329,0.5060372688000001,-9.672130776000001,2.2173524296,3.40957843,2.01825569,-3.3468438,,,
imu,286.992899,0.5168040192000001,-9.661962178400001,2.2107727488,3.36471697,2.10797861,-3.55619728,,,
imu,287.00147,0.5168040192000001,-9.6703363176,2.1940244704,3.34976315,2.19770153,-3.55619728,,,
imu,287.01004,0.5293652280000001,-9.6745233872,2.1886410952,3.51425517,2.27247063,-3.45152054,,,
imu,287.01861,0.5281689224000001,-9.685290137600001,2.1808651088,3.4619168,2.23508608,-3.52628964,,,
imu,287.027181,0.5323559920000001,-9.706225485600001,2.1790706504,3.43200916,2.36219355,-3.63096638,,,
imu,287.035751,0.5395338256000001,-9.718188541600002,2.174285428,3.40957843,2.4743472,-3.58610492,,,
imu,287.044321,0.5479079648000001,-9.738525736800002,2.177276192,3.3123786,2.57154703,-3.48142818,,,
imu,287.052892,0.5562821040000001,-9.746301723200002,2.1796688032,3.10302512,2.57902394,-3.46647436,,,
imu,287.061462,0.5604691736,-9.749890640000002,2.1736872752,2.85628709,2.57902394,-3.63096638,,,
imu,287.070032,0.565254396,-9.7492924872,2.1748835808,2.6394567,2.4743472,-3.62348947,,,
imu,287.078603,0.55329134,-9.746301723200002,2.1718928168,2.37776485,2.4743472,-3.70573548,,,
imu,287.087173,0.565254396,-9.7361331256,2.1671075944,2.116073,2.3995781,-3.83284295,,,
imu,287.095744,0.5646562432000001,-9.734338667200001,2.1736872752,1.76465823,2.42948574,-3.90761205,,,
imu,287.104314,0.5520950344000001,-9.724170069600001,2.171294664,1.34595127,2.27247063,-4.057150249999999,,,
imu,287.112884,0.5556839512000001,-9.7122070136,2.1683039,1.18893616,2.25751681,-3.93004278,,,
imu,287.121455,0.5437208952000001,-9.702636568800001,2.1659112888,1.06182869,2.04068642,-3.93751969,,,
imu,287.130025,0.5407301312,-9.7008421104,2.1557426912,0.81509066,1.89862513,-3.92256587,,,
imu,287.138595,0.5395338256000001,-9.696056888000001,2.164714983200001,0.8524752099999999,1.95844041,-3.71321239,,,
imu,287.147166,0.5287670752,-9.700243957600001,2.1695002056,0.81509066,2.05564024,-3.69078166,,,
imu,287.155736,0.5233837000000001,-9.699645804800001,2.1718928168,0.67302937,2.01825569,-3.78050458,,,
imu,287.164306,0.5180003248000001,-9.711608860800002,2.1814632616,0.71789083,1.99582496,-3.81788913,,,
imu,287.172877,0.5221873944000001,-9.722973764,2.1874447896,0.60573718,2.07059406,-3.75807385,,,
imu,287.181447,0.5180003248000001,-9.741516500800001,2.1856503312,0.55339881,2.0257326,-3.67582784,,,
imu,287.190017,0.5048409632,-9.7265626808,2.1730891224,0.44872207,1.99582496,-3.77302767,,,
imu,287.198373,0.5251781584,-9.699047652,2.1695002056,0.5010604399999999,2.1752708,-3.58610492,,,
imu,287.206728,0.5209910888,-9.6918698184,2.1820614144,0.56835263,2.30985518,-3.47395127,,,
imu,287.215084,0.5114206440000001,-9.7056273328,2.1718928168,0.57582954,2.27247063,-3.47395127,,,
imu,287.223439,0.5359449088000001,-9.706225485600001,2.1671075944,0.8449983,2.43696265,-3.44404363,,,
imu,287.231795,0.5371412144000001,-9.697253193600002,2.170696511200001,0.83004448,2.37714737,-3.60105874,,,
imu,287.24015,0.5425245896,-9.685290137600001,2.174285428,0.82256757,2.25751681,-3.90761205,,,
imu,287.248506,0.5520950344000001,-9.682299373600001,2.186248484,0.83004448,2.22013226,-4.079580979999999,,,
imu,287.256861,0.5407301312,-9.6984494992,2.189239248,0.7253677399999999,2.11545552,-4.146873169999999,,,
imu,287.265217,0.5407301312,-9.696655040800001,2.2000059984,0.50853735,2.09302479,-4.146873169999999,,,
imu,287.273572,0.535346756,-9.685888290400001,2.1946226232,0.20198404,1.95844041,-3.93004278,,,
imu,287.281927,0.5419264368000001,-9.680504915200002,2.2125672072,0.03749201999999999,1.88367131,-3.89265823,,,
imu,287.290283,0.5514968816000001,-9.702038416,2.22811918,-0.17186146,1.79394839,-3.90761205,,,
imu,287.298638,0.5497024232000001,-9.703832874400002,2.222137652,-0.33635348,1.66684092,-3.86275059,,,
imu,287.306994,0.5443190480000001,-9.694860582400002,2.2305117912,-0.5307531400000001,1.51730272,-3.80293531,,,
imu,287.315349,0.5449172008000001,-9.6912716656,2.2568305144,-0.62047606,1.55468727,-3.7206893,,,
imu,287.323705,0.5407301312,-9.682897526400001,2.2687935704,-0.71767589,1.5023489,-3.68330475,,,
imu,287.33206,0.5371412144000001,-9.6733270816,2.25802682,-0.82235263,1.39019525,-3.75807385,,,
imu,287.340416,0.5335522976000001,-9.656578803200002,2.2556342088,-1.06161375,1.09859576,-3.98985806,,,
imu,287.348771,0.5168040192000001,-9.632054538400002,2.2652046536,-0.9644139199999999,1.23318014,-4.034719519999999,,,
imu,287.357127,0.5132151024,-9.625474857600002,2.2771677096,-0.80739881,1.33785688,-3.9449966,,,
imu,287.365482,0.502448352,-9.632054538400002,2.27298064,-0.68776825,1.22570323,-3.92256587,,,
imu,287.373837,0.4874945320000001,-9.6290637744,2.2735787928,-0.5756146,1.11354958,-3.82536604,,,
imu,287.382193,0.4880926848000001,-9.6296619272,2.28793446,-0.19429219,1.1285034,-3.75059694,,,
imu,287.390548,0.4833074624000001,-9.631456385600002,2.2915233768,0.03001510999999998,1.34533379,-3.51881273,,,
imu,287.399196,0.4827093096,-9.635643455200002,2.296906752,0.16459949,1.47991817,-3.33188998,,,
imu,287.407844,0.4880926848000001,-9.641624983200002,2.30288828,0.26179932,1.58459491,-3.24216706,,,
imu,287.416492,0.4922797544,-9.6494009696,2.3022901272,0.42629134,1.64441019,-3.18982869,,,
imu,287.42514,0.4845037680000001,-9.6326526912,2.30288828,0.46367589,1.81637912,-3.24216706,,,
imu,287.433788,0.4916816016,-9.613511801600001,2.311860572000001,0.34404533,1.84628676,-3.41413599,,,
imu,287.442436,0.4976631296000001,-9.610521037600002,2.3274125448,0.36647606,2.01825569,-3.55619728,,,
imu,287.451084,0.4952705184000001,-9.624278552000002,2.3004956688,0.35152224,1.9509635,-3.7954584,,,
imu,287.459732,0.490485296,-9.591978300800001,2.2843455432,0.40386061,1.92853277,-3.87770441,,,
imu,287.46838,0.4988594352000001,-9.573435564,2.296906752,0.41881443,1.95844041,-3.93004278,,,
imu,287.477028,0.4892889904,-9.5842023144,2.3010938216,0.80013684,2.16779389,-3.76555076,,,
imu,287.485676,0.481513004,-9.604539509600002,2.2975049048,1.06182869,2.45191647,-3.40665908,,,
imu,287.494323,0.4952705184000001,-9.630260080000001,2.293915988,1.37585891,2.53416248,-3.25712088,,,
imu,287.502971,0.5156077136000001,-9.6248767048,2.296906752,1.5926893,2.61640849,-3.29450543,,,
imu,286.624632,,,,,,,53.394282,-12.1400908,28.48551599999999
imu,286.726195,,,,,,,53.4675252,-12.34761320000002,28.2169576
imu,286.827757,,,,,,,54.0534708,-12.0424332,27.44790399999999
imu,287.511619,0.5323559920000001,-9.6218859408,2.2771677096,1.86185806,2.66126995,-3.31693616,,,
imu,287.520267,0.5311596864,-9.626671163200001,2.2831492376,1.98148862,2.66126995,-3.45899745,,,
imu,287.528915,0.5197947832,-9.6296619272,2.2891307656,2.29551884,2.55659321,-3.69825857,,,
imu,287.537563,0.5269726168000001,-9.641624983200002,2.2843455432,2.42262631,2.58650085,-3.92256587,,,
imu,287.546211,0.5150095608,-9.6458120528,2.2855418488,2.37776485,2.59397776,-3.97490424,,,
imu,287.554859,0.5227855472,-9.655980650400002,2.2771677096,2.5646876,2.53416248,-3.84779677,,,
imu,287.563507,0.5437208952000001,-9.6643547896,2.2735787928,2.46748777,2.68370068,-3.75059694,,,
imu,287.572155,0.5383375200000001,-9.676915998400002,2.2693917232,2.19831901,2.4743472,-3.59358183,,,
imu,287.580803,0.5299633808,-9.6876827488,2.2646065008,2.10111918,2.53416248,-3.45899745,,,
imu,287.589451,0.535346756,-9.6918698184,2.243073,2.07868845,2.45939338,-3.39918217,,,
imu,287.598098,0.5407301312,-9.688280901600002,2.2382877776,1.86185806,2.34723973,-3.29450543,,,
imu,287.606742,0.5377393672000002,-9.685290137600001,2.2293154856,1.82447351,2.28742445,-3.33188998,,,
imu,287.615385,0.5299633808,-9.669738164800002,2.2376896248,1.71979677,2.19022462,-3.35432071,,,
imu,287.624028,0.5299633808,-9.669140012000002,2.222735804800001,1.72727368,2.20517844,-3.24964397,,,
imu,287.632671,0.5359449088000001,-9.672130776000001,2.2239321104,1.61512003,2.10797861,-3.15244414,,,
imu,287.641314,0.535346756,-9.675121540000001,2.2143616656,1.42072037,2.04068642,-3.21973633,,,
imu,287.649957,0.5287670752,-9.6799067624,2.2245302632,1.33099745,2.23508608,-3.15992105,,,
imu,287.6586,0.5251781584,-9.680504915200002,2.2113709016,1.16650543,2.01077878,-3.26459779,,,
imu,287.667243,0.5329541448,-9.676915998400002,2.2065856792,1.07678251,2.07807097,-3.17487487,,,
imu,287.675886,0.5347486032000001,-9.6876827488,2.2095764432,1.24127453,2.16031698,-3.23469015,,,
imu,287.68453,0.5359449088000001,-9.696056888000001,2.2119690544,1.26370526,2.18274771,-3.16739796,,,
imu,287.693173,0.5269726168000001,-9.685290137600001,2.219146888,1.0693056,2.19022462,-3.20478251,,,
imu,287.701816,0.5329541448,-9.682897526400001,2.2143616656,0.97958268,2.21265535,-3.17487487,,,
imu,287.710459,0.5401319784,-9.688879054400001,2.2239321104,0.9347212199999999,2.22013226,-3.15992105,,,
imu,287.719102,0.5341504504000001,-9.6912716656,2.2209413464,0.9048135799999999,2.13788625,-3.07767504,,,
imu,287.727745,0.5455153536,-9.682897526400001,2.2059875264,0.8524752099999999,2.13040934,-3.03281358,,,
imu,287.736388,0.5359449088000001,-9.6775141512,2.2215394992,0.83004448,2.11545552,-3.13001341,,,
imu,287.745031,0.5383375200000001,-9.671532623200001,2.231109944,0.6281679099999999,2.09302479,-3.26459779,,,
imu,287.753674,0.5455153536,-9.672130776000001,2.222137652,0.66555246,2.07059406,-3.3468438,,,
imu,287.762318,0.5556839512000001,-9.682897526400001,2.2275210272,0.57582954,2.20517844,-3.30945925,,,
imu,287.770961,0.5508987288,-9.678112304,2.2293154856,0.64312173,2.25751681,-3.35432071,,,
imu,287.779604,0.5485061176,-9.678710456800001,2.2454656112,0.53844499,2.19022462,-3.29450543,,,
imu,287.788185,0.5485061176,-9.668541859200001,2.2329044024,0.49358353,2.03320951,-3.39170526,,,
imu,287.796828,0.5556839512000001,-9.658373261600001,2.243073,0.17955331,1.96591732,-3.54124346,,,
imu,287.805301,0.5508987288,-9.645213900000002,2.2448674584,0.18703022,1.88367131,-3.68330475,,,
imu,287.813773,0.5437208952000001,-9.656578803200002,2.25802682,0.30666078,1.99582496,-3.56367419,,,
imu,287.822245,0.5431227424,-9.6535880392,2.2562323616,0.15712258,1.92853277,-3.54872037,,,
imu,287.830718,0.5395338256000001,-9.657775108800001,2.2604194312,0.30666078,1.91357895,-3.46647436,,,
imu,287.83919,0.5479079648000001,-9.651195428000001,2.2646065008,0.12721494,2.01077878,-3.48142818,,,
imu,287.847663,0.5443190480000001,-9.633250844,2.275971404,0.08235347999999998,1.92105586,-3.40665908,,,
imu,287.856135,0.5395338256000001,-9.630858232800001,2.2747750984,0.08983038999999998,1.90610204,-3.31693616,,,
imu,287.864608,0.5389356728,-9.6290637744,2.2681954176,0.23936859,1.78647148,-3.27955161,,,
imu,287.87308,0.5311596864,-9.617100718400001,2.2675972648,0.28423005,1.8761944,-3.2720747,,,
imu,287.881553,0.5305615336,-9.609324732000001,2.27298064,0.27675314,1.9509635,-3.36927453,,,
imu,287.890025,0.5311596864,-9.6087265792,2.2873363072,0.40386061,2.01825569,-3.35432071,,,
imu,287.898497,0.5144114080000001,-9.620091482400001,2.28793446,0.41881443,2.1005017,-3.31693616,,,
imu,287.90697,0.5185984776000001,-9.641624983200002,2.3034864328,0.55339881,2.22013226,-3.37675144,,,
imu,287.915442,0.5185984776000001,-9.662560331200002,2.296906752,0.71789083,2.30237827,-3.41413599,,,
imu,287.923915,0.5156077136000001,-9.669140012000002,2.3004956688,0.64312173,2.48182411,-3.51881273,,,
imu,287.932387,0.5287670752,-9.669140012000002,2.3136550304,0.4711528,2.56407012,-3.6459202,,,
imu,287.94086,0.517402172,-9.671532623200001,2.3154494888,0.5459219,2.60893158,-3.72816621,,,
imu,287.949332,0.5233837000000001,-9.672130776000001,2.3070753496,0.59078336,2.63136231,-3.92256587,,,
imu,287.957805,0.5365430616000001,-9.672130776000001,2.2987012104,0.53096808,2.74351596,-3.98985806,,,
imu,287.966277,0.5365430616000001,-9.651793580800001,2.299897516,0.58330645,2.71360832,-4.012288789999999,,,
imu,287.974749,0.5550857984,-9.6296619272,2.2915233768,0.63564482,2.66126995,-3.97490424,,,
imu,287.983222,0.5520950344000001,-9.6159044128,2.2992993632,0.8749059399999999,2.69117759,-3.61601256,,,
imu,287.991694,0.5592728680000001,-9.631456385600002,2.2945141408,0.9571519499999999,2.66126995,-3.42908981,,,
imu,288.000167,0.5628617848,-9.6248767048,2.2855418488,0.97958268,2.68370068,-3.10758268,,,
imu,288.008619,0.5586747152,-9.620689635200002,2.2975049048,1.0693056,2.69117759,-2.8982292,,,
imu,288.017071,0.5676470072,-9.619493329600001,2.2885326128,1.20388998,2.5491163,-2.87579847,,,
imu,288.025523,0.5700396184000001,-9.636241608,2.2963085992,1.38333582,2.5491163,-2.89075229,,,
imu,288.033975,0.5706377712,-9.6434194416,2.2987012104,1.45810492,2.43696265,-2.84589083,,,
imu,288.042427,0.5604691736,-9.6523917336,2.3052808912,1.368382,2.44443956,-2.9729983,,,
imu,288.050879,0.5514968816000001,-9.661962178400001,2.3094679608,1.35342818,2.40705501,-3.10758268,,,
imu,288.059331,0.5568802568000001,-9.678112304,2.3136550304,1.17398234,2.30237827,-3.25712088,,,
imu,288.067784,0.5556839512000001,-9.688280901600002,2.3106642664,0.9646288599999999,2.29490136,-3.45899745,,,
imu,288.076236,0.5526931872,-9.6817012208,2.3070753496,0.78518302,2.30237827,-3.48142818,,,
imu,288.084688,0.5437208952000001,-9.639232372,2.2921215296,0.68798319,2.33976282,-3.50385891,,,
imu,288.09314,0.5437208952000001,-9.626671163200001,2.2933178352,0.64312173,2.39210119,-3.39918217,,,
imu,288.101592,0.5395338256000001,-9.638036066400002,2.299897516,0.81509066,2.45939338,-3.11505959,,,
imu,288.110044,0.5443190480000001,-9.655382497600002,2.2885326128,1.02444414,2.46687029,-2.8982292,,,
imu,288.118496,0.5497024232000001,-9.651793580800001,2.2855418488,1.23379762,2.66874686,-2.68887572,,,
imu,288.126948,0.5562821040000001,-9.639830524800002,2.2711861816,1.38333582,2.80333124,-2.60662971,,,
imu,288.1354,0.5586747152,-9.623082246400001,2.2646065008,1.46558183,2.93043871,-2.70382954,,,
imu,288.143852,0.5676470072,-9.623082246400001,2.2687935704,1.56278166,2.85566961,-2.78607555,,,
imu,288.152304,0.5790119104,-9.627867468800002,2.263410195200001,1.78708896,2.82576197,-3.01785976,,,
imu,288.160757,0.5796100632000001,-9.630260080000001,2.2628120424,1.92915025,3.03511545,-3.03281358,,,
imu,288.169209,0.6005454112,-9.6224840936,2.2616157368,1.86933497,3.02763854,-3.24964397,,,
imu,288.177661,0.5999472584000001,-9.6290637744,2.255036056,1.89924261,2.97530017,-3.24216706,,,
imu,288.186113,0.6083213976,-9.637437913600001,2.2598212784,1.78708896,2.97530017,-3.45899745,,,
imu,288.194565,0.6107140088,-9.634447149600001,2.2556342088,1.75718132,2.99025399,-3.50385891,,,
imu,288.203017,0.6077232448000001,-9.636839760800001,2.2454656112,1.79456587,2.98277708,-3.51881273,,,
imu,288.211482,0.6196863008000001,-9.636241608,2.2454656112,1.70484295,2.70613141,-3.74312003,,,
imu,288.219947,0.6250696760000001,-9.645213900000002,2.249054528,1.72727368,2.69117759,-3.80293531,,,
imu,288.228412,0.6202844536000002,-9.672728928800002,2.2484563752,1.79456587,2.64631613,-3.78050458,,,
imu,288.236876,0.631051204,-9.684093832000002,2.2514471392,1.8917657,2.57902394,-3.76555076,,,
imu,288.245341,0.6196863008000001,-9.692467971200001,2.2664009592,1.68988913,2.48182411,-3.78050458,,,
imu,288.253806,0.6232752176,-9.682299373600001,2.2723824872,1.45062801,2.36219355,-3.76555076,,,
imu,288.262271,0.6202844536000002,-9.6703363176,2.2753732512,1.34595127,2.21265535,-3.75807385,,,
imu,288.270736,0.6172936896000001,-9.6799067624,2.27298064,1.24875144,2.21265535,-3.81788913,,,
imu,288.2792,0.6077232448000001,-9.700243957600001,2.2735787928,1.1440747,1.97339423,-3.86275059,,,
imu,288.287665,0.6119103144000001,-9.687084596000002,2.27298064,0.97958268,1.83880985,-3.87770441,,,
imu,288.29613,0.5999472584000001,-9.685290137600001,2.2771677096,0.9646288599999999,1.86124058,-3.73564312,,,
imu,288.304595,0.5891805080000001,-9.676317845600002,2.2885326128,0.9646288599999999,1.86871749,-3.63096638,,,
imu,288.31306,0.6029380224,-9.6637566368,2.263410195200001,0.8674290299999999,1.75656384,-3.54872037,,,
imu,288.321524,0.5981528,-9.657775108800001,2.2837473904,1.06182869,1.68179474,-3.51133582,,,
imu,286.92927,,,,,,,53.8337412,-12.16450520000001,28.5953808
imu,287.030833,,,,,,,56.0920732,-13.62936920000002,26.5811928
imu,287.132395,,,,,,,53.80932680000002,-12.335406,28.3512368
imu,287.233958,,,,,,,56.01883000000001,-13.33639640000002,25.76331039999999
imu,287.33552,,,,,,,53.77270520000002,-12.2377484,29.2057408
imu,287.437083,,,,,,,53.4064892,-12.38423480000002,27.58218319999999
imu,287.53892,,,,,,,53.74829080000001,-12.42085640000001,29.1813264
imu,287.640208,,,,,,,53.55297560000001,-12.35982040000001,28.5343448
imu,288.329989,0.5748248408000001,-9.6523917336,2.2891307656,1.12912088,1.64441019,-3.57862801,,,
imu,288.338454,0.5628617848,-9.672728928800002,2.30288828,0.9272443100000001,1.71170238,-3.75807385,,,
imu,288.346919,0.5604691736,-9.6703363176,2.2765695568,1.1440747,1.8014253,-3.86275059,,,
imu,288.355384,0.5766192992000001,-9.6470083584,2.27298064,1.09921324,1.77899457,-4.04967334,,,
imu,288.363849,0.5784137576,-9.626671163200001,2.2795603208,1.10669015,1.85376367,-4.146873169999999,,,
imu,288.372313,0.5622636320000001,-9.618297024,2.2885326128,1.05435178,1.83133294,-4.29641137,,,
imu,288.380778,0.5461135064000001,-9.651793580800001,2.2951122936,1.18893616,1.86871749,-4.06462716,,,
imu,288.389243,0.5425245896,-9.669140012000002,2.286738154400001,1.28613599,2.14536316,-3.82536604,,,
imu,288.397708,0.5431227424,-9.651195428000001,2.2813547792,1.368382,2.31733209,-3.66087402,,,
imu,288.406173,0.5688433128,-9.6458120528,2.2735787928,1.47305874,2.3995781,-3.59358183,,,
imu,288.414632,0.5658525488000001,-9.630858232800001,2.2664009592,1.40576655,2.48930102,-3.74312003,,,
imu,288.423092,0.5616654792000001,-9.6224840936,2.2681954176,1.38333582,2.3995781,-3.92256587,,,
imu,288.431552,0.55329134,-9.638036066400002,2.2687935704,1.53287402,2.36967046,-4.012288789999999,,,
imu,288.440012,0.5461135064000001,-9.626671163200001,2.249054528,1.55530475,2.30237827,-4.20668845,,,
imu,288.448471,0.5646562432000001,-9.6296619272,2.2544379032,1.57025857,2.42948574,-4.169303899999999,,,
imu,288.456931,0.5646562432000001,-9.644017594400001,2.2514471392,1.48801256,2.38462428,-4.0945348,,,
imu,288.465391,0.5688433128,-9.644615747200001,2.2478582224,1.52539711,2.33228591,-3.93004278,,,
imu,288.47385,0.5622636320000001,-9.6667474008,2.2358951664,1.60016621,2.36967046,-3.80293531,,,
imu,288.48231,0.5730303824,-9.667345553600002,2.2245302632,1.69736604,2.25751681,-3.75807385,,,
imu,288.49077,0.5706377712,-9.7008421104,2.228717332800001,1.68241222,2.20517844,-3.69078166,,,
imu,288.49923,0.5634599376000001,-9.7331423616,2.228717332800001,1.63755076,2.27247063,-3.66087402,,,
imu,288.507689,0.5568802568000001,-9.7534795568,2.225128416,1.37585891,2.27247063,-3.72816621,,,
imu,288.516149,0.5538894928000001,-9.7534795568,2.2239321104,1.06182869,2.20517844,-3.78050458,,,
imu,288.524609,0.565254396,-9.746301723200002,2.228717332800001,0.74779847,2.20517844,-3.93004278,,,
imu,288.533068,0.5879842024,-9.7534795568,2.2173524296,0.41881443,2.2500399,-4.02724261,,,
imu,288.541528,0.5616654792000001,-9.767237071200002,2.2173524296,0.07487657,2.37714737,-4.04967334,,,
imu,288.549988,0.5467116592000001,-9.752283251200002,2.2215394992,-0.38121494,2.30985518,-4.22164227,,,
imu,288.558448,0.5580765624000001,-9.728955292000002,2.21316536,-0.5681376899999999,2.48930102,-4.25154991,,,
imu,288.566907,0.5556839512000001,-9.709216249600003,2.2269228744,-0.74758353,2.57154703,-4.11696553,,,
imu,288.575367,0.5395338256000001,-9.697253193600002,2.2275210272,-1.00927538,2.69117759,-4.06462716,,,
imu,288.583827,0.5407301312,-9.694860582400002,2.228717332800001,-1.03170611,2.8481927,-3.90761205,,,
imu,288.592287,0.5395338256000001,-9.6745233872,2.2269228744,-1.12890594,2.90053107,-3.83284295,,,
imu,288.600746,0.5425245896,-9.6535880392,2.2508489864,-1.18124431,3.01268472,-3.83284295,,,
imu,288.609206,0.5461135064000001,-9.646410205600002,2.2484563752,-1.1737674,2.96782326,-3.80293531,,,
imu,288.618024,0.5371412144000001,-9.636241608,2.2598212784,-1.23358268,3.02763854,-3.84779677,,,
imu,288.626843,0.5449172008000001,-9.630260080000001,2.2664009592,-1.09152139,3.10988455,-3.63096638,,,
imu,288.635661,0.5497024232000001,-9.613511801600001,2.2813547792,-1.00927538,3.16222292,-3.63844329,,,
imu,288.644479,0.5508987288,-9.6075302736,2.290327071200001,-0.92702937,3.13979219,-3.66087402,,,
imu,288.653297,0.5520950344000001,-9.5985579816,2.311262419200001,-0.79244499,3.25194584,-3.60105874,,,
imu,288.662116,0.5514968816000001,-9.617698871200002,2.3244217808,-0.63542988,3.21456129,-3.63096638,,,
imu,288.670934,0.5419264368000001,-9.612315496,2.3256180864,-0.45598404,3.07997691,-3.59358183,,,
imu,288.679752,0.5383375200000001,-9.6087265792,2.3339922256,-0.45598404,3.19213056,-3.496382,,,
imu,288.68857,0.5455153536,-9.6009505928,2.3513386568,-0.16438455,3.28185348,-3.42908981,,,
imu,288.697389,0.5389356728,-9.596165370400001,2.3633017128,0.04496892999999999,3.23699202,-3.30198234,,,
imu,288.706207,0.5479079648000001,-9.599156134400001,2.362105407200001,0.0001074699999999984,3.3715764,-3.31693616,,,
imu,288.715025,0.5485061176,-9.591380148,2.362105407200001,0.1720764,3.42391477,-3.24216706,,,
imu,288.723843,0.5449172008000001,-9.593174606400002,2.371675852,0.46367589,3.58092988,-3.30198234,,,
imu,288.732662,0.5508987288,-9.597959828800002,2.374666616,0.50853735,3.71551426,-3.41413599,,,
imu,288.74148,0.5538894928000001,-9.6051376624,2.3800499912,0.53844499,3.64074516,-3.46647436,,,
imu,288.750298,0.5568802568000001,-9.597959828800002,2.3740684632,0.7552753799999999,3.76037572,-3.37675144,,,
imu,288.759116,0.5664507016000001,-9.602745051200001,2.3788536856,0.7253677399999999,3.7454219,-3.40665908,,,
imu,288.767935,0.5736285352000001,-9.602146898400001,2.3920130472,0.8973366700000001,3.80523718,-3.46647436,,,
imu,288.776753,0.5784137576,-9.6159044128,2.3878259776,0.94967504,3.76785263,-3.47395127,,,
imu,288.785571,0.5814045216000001,-9.6224840936,2.3926112,1.00201341,3.84262173,-3.43656672,,,
imu,288.794389,0.5897786608000001,-9.623082246400001,2.3914148944,1.09173633,3.93982156,-3.48890509,,,
imu,288.803208,0.5999472584000001,-9.609922884800001,2.383638908,1.13659779,3.80523718,-3.51881273,,,
imu,288.812026,0.6029380224,-9.604539509600002,2.3800499912,1.35342818,3.78280645,-3.38422835,,,
imu,288.820505,0.6083213976,-9.593772759200002,2.380648144,1.38333582,3.81271409,-3.37675144,,,
imu,288.828983,0.6125084672000001,-9.576426328,2.3704795464,1.42072037,3.81271409,-3.45152054,,,
imu,288.837462,0.6292567456000001,-9.578818939200001,2.3585164904,1.6674584,3.58840679,-3.30945925,,,
imu,288.845941,0.6340419680000001,-9.583006008800002,2.3471515872,1.95158098,3.47625314,-3.36179762,,,
imu,288.85442,0.6334438152,-9.575230022400001,2.341768212,2.21327283,3.28185348,-3.496382,,,
imu,288.862899,0.6394253432000001,-9.575828175200002,2.348347892800001,2.407672489999999,3.07997691,-3.48890509,,,
imu,288.871377,0.646005024,-9.588987536800001,2.344758976,2.52730305,2.99025399,-3.48890509,,,
imu,288.87991,0.6394253432000001,-9.593174606400002,2.329805156,2.76656417,2.88557725,-3.47395127,,,
imu,288.888389,0.6472013296000001,-9.597361676,2.3220291696,3.04320984,2.72108523,-3.45899745,,,
imu,288.896868,0.6406216488000002,-9.602745051200001,2.3052808912,3.27499405,2.64631613,-3.44404363,,,
imu,288.905347,0.6531828576,-9.605735815200001,2.2963085992,3.37967079,2.46687029,-3.51881273,,,
imu,288.913826,0.6537810104000001,-9.600352440000002,2.2777658624,3.55163972,2.36219355,-3.52628964,,,
imu,288.922304,0.6483976352,-9.6218859408,2.280756626400001,3.76847011,2.26499372,-3.55619728,,,
imu,288.930783,0.6448087184,-9.632054538400002,2.2652046536,3.86566994,2.14536316,-3.57862801,,,
imu,288.939262,0.6406216488000002,-9.658971414400002,2.2562323616,3.84323921,2.01825569,-3.71321239,,,
imu,288.947741,0.6137047728000001,-9.6637566368,2.2526434448,3.88062376,1.98087114,-3.76555076,,,
imu,288.95622,0.5999472584000001,-9.687084596000002,2.2472600696,3.99277741,2.12293243,-3.71321239,,,
imu,288.964698,0.6113121616,-9.7086180968,2.2466619168,3.95539286,2.19770153,-3.81041222,,,
imu,288.973177,0.6023398696000001,-9.714599624800002,2.2293154856,3.61893191,2.20517844,-3.91508896,,,
imu,288.981656,0.5957601888000001,-9.724768222400002,2.2329044024,3.25256332,2.30985518,-4.04219643,,,
imu,288.990135,0.5939657304000001,-9.727160833600001,2.2263247216,3.17031731,2.42948574,-4.02724261,,,
imu,288.998614,0.5999472584000001,-9.7283571392,2.2269228744,2.89367164,2.48182411,-4.124442439999999,,,
imu,289.007092,0.6077232448000001,-9.7331423616,2.2239321104,2.58711833,2.58650085,-4.25154991,,,
imu,289.015571,0.6089195504,-9.743310959200002,2.2239321104,2.3403803,2.54163939,-4.341272829999999,,,
imu,289.024036,0.6005454112,-9.7427128064,2.2203431936,2.03382699,2.42200883,-4.46090339,,,
imu,289.032501,0.5772174520000001,-9.7074217912,2.207183832,1.83942733,2.2500399,-4.47585721,,,
imu,289.040966,0.5849934384000001,-9.6918698184,2.208978290400001,1.7422275,2.29490136,-4.3936112,,,
imu,289.049431,0.6005454112,-9.7008421104,2.208978290400001,1.65250458,2.39210119,-4.244073,,,
imu,289.057895,0.6017417168000001,-9.708019944000002,2.2113709016,1.54782784,2.36219355,-3.90013514,,,
imu,289.06636,0.5861897440000001,-9.693664276800002,2.1958189288,1.53287402,2.27247063,-3.54872037,,,
imu,289.074825,0.5808063688,-9.6733270816,2.19821154,1.4431511,2.21265535,-3.48142818,,,
imu,289.08329,0.5885823552,-9.6637566368,2.1964170816,1.41324346,2.13788625,-3.48890509,,,
imu,289.091755,0.5855915912,-9.654186192000001,2.1958189288,1.60016621,2.04068642,-3.51133582,,,
imu,289.100219,0.5837971328000001,-9.657775108800001,2.2035949152,1.48801256,1.9509635,-3.65339711,,,
imu,289.108684,0.5664507016000001,-9.667943706400001,2.2065856792,1.35342818,1.83133294,-3.71321239,,,
imu,289.117149,0.56824516,-9.687084596000002,2.195220776,1.23379762,1.71917929,-3.56367419,,,
imu,289.125614,0.5634599376000001,-9.689477207200001,2.2083801376,1.08425942,1.76404075,-3.61601256,,,
imu,289.134079,0.5706377712,-9.694860582400002,2.2143616656,0.8524752099999999,1.85376367,-3.54872037,,,
imu,289.142543,0.5640580904000001,-9.6942624296,2.2125672072,0.79265993,1.89862513,-3.53376655,,,
imu,287.74177,,,,,,,53.84594840000001,-12.75045080000001,28.72966
imu,287.843363,,,,,,,53.96802039999999,-11.8104964,27.4723184
imu,287.944895,,,,,,,54.0168492,-12.32319880000001,27.81412
imu,288.046458,,,,,,,54.10229960000002,-12.09126200000001,28.2291648
imu,288.14802,,,,,,,56.5315324,-13.10445960000002,27.32583199999999
imu,288.249613,,,,,,,53.27221,-12.1400908,28.302408
imu,288.351145,,,,,,,55.89675800000001,-12.9579732,25.66565279999999
imu,288.452708,,,,,,,53.394282,-12.38423480000002,28.1193
imu,289.151008,0.5598710208000001,-9.685888290400001,2.2185487352,0.82256757,1.82385603,-3.45899745,,,
imu,289.159473,0.5622636320000001,-9.682897526400001,2.216156124,0.7403215599999999,1.90610204,-3.51133582,,,
imu,289.167938,0.5676470072,-9.6984494992,2.228717332800001,0.77770611,2.00330187,-3.53376655,,,
imu,289.176403,0.5580765624000001,-9.693066124000001,2.231109944,0.53844499,1.99582496,-3.67582784,,,
imu,289.184868,0.5604691736,-9.70502918,2.2556342088,0.41133752,2.19022462,-3.68330475,,,
imu,289.193332,0.5580765624000001,-9.6912716656,2.2598212784,0.12721494,2.16031698,-3.76555076,,,
imu,289.201797,0.5700396184000001,-9.683495679200002,2.266999112000001,-0.007369440000000005,2.20517844,-3.87770441,,,
imu,289.210262,0.5730303824,-9.6745233872,2.2771677096,-0.08213854000000001,2.28742445,-3.90013514,,,
imu,289.218727,0.571235924,-9.675719692800001,2.28793446,-0.05970781,2.33228591,-3.72816621,,,
imu,289.227267,0.5688433128,-9.6643547896,2.275971404,-0.17186146,2.30237827,-3.7206893,,,
imu,289.235806,0.5754229936,-9.6470083584,2.2693917232,-0.33635348,2.22760917,-3.77302767,,,
imu,289.244346,0.5897786608000001,-9.639232372,2.2765695568,-0.29896893,2.34723973,-3.65339711,,,
imu,289.252886,0.5909749664,-9.618297024,2.2717843344,-0.26158438,2.23508608,-3.51881273,,,
imu,289.261426,0.5927694248,-9.6117173432,2.2705880288,0.12721494,2.30237827,-3.31693616,,,
imu,289.269966,0.5963583416000001,-9.609324732000001,2.280756626400001,0.26179932,2.27247063,-3.23469015,,,
imu,289.278506,0.6029380224,-9.6075302736,2.2825510848,0.34404533,2.36967046,-3.2720747,,,
imu,289.287046,0.5945638832000001,-9.612315496,2.3022901272,0.42629134,2.31733209,-3.3468438,,,
imu,289.295585,0.5808063688,-9.6290637744,2.325019933600001,0.56835263,2.28742445,-3.30945925,,,
imu,289.304125,0.5814045216000001,-9.6290637744,2.3100661136,0.64312173,2.33228591,-3.39918217,,,
imu,289.312665,0.6023398696000001,-9.620091482400001,2.3004956688,0.7104139199999999,2.43696265,-3.41413599,,,
imu,289.321205,0.5945638832000001,-9.624278552000002,2.3046827384,0.620691,2.51920866,-3.59358183,,,
imu,289.329745,0.5867878968000001,-9.6075302736,2.3142531832,0.66555246,2.48930102,-3.77302767,,,
imu,289.338285,0.5927694248,-9.618297024,2.281952932,0.79265993,2.54163939,-3.75807385,,,
imu,289.346824,0.6053306336000001,-9.618297024,2.2897289184,0.97210577,2.60145467,-3.46647436,,,
imu,289.355364,0.6113121616,-9.599156134400001,2.290925224,1.12164397,2.55659321,-3.51881273,,,
imu,289.363904,0.6238733704,-9.618895176800002,2.3016919744,1.39081273,2.57154703,-3.58610492,,,
imu,289.372444,0.62806044,-9.630858232800001,2.2891307656,1.54035093,2.57902394,-3.55619728,,,
imu,289.380984,0.6208826064000001,-9.651195428000001,2.2801584736,1.60764312,2.45939338,-3.6459202,,,
imu,289.389524,0.6268641344,-9.6523917336,2.2861400016,1.60764312,2.31733209,-3.89265823,,,
imu,289.398063,0.6304530512000001,-9.6523917336,2.281952932,1.5926893,2.24256299,-4.034719519999999,,,
imu,289.406603,0.6328456624000001,-9.641026830400001,2.2741769456,1.58521239,2.18274771,-4.07210407,,,
imu,289.415143,0.6370327320000001,-9.6296619272,2.2723824872,1.56278166,1.96591732,-3.99733497,,,
imu,289.423683,0.6202844536000002,-9.624278552000002,2.269989876,1.54782784,1.97339423,-3.98238115,,,
imu,289.432068,0.6166955368000001,-9.633250844,2.261017584,1.48053565,1.81637912,-3.95247351,,,
imu,289.440452,0.61310662,-9.634447149600001,2.2568305144,1.46558183,1.56964109,-3.81788913,,,
imu,289.448837,0.6149010784000001,-9.6326526912,2.2574286672,1.72727368,1.54721036,-3.71321239,,,
imu,289.457222,0.5909749664,-9.6296619272,2.2628120424,1.73475059,1.39019525,-3.72816621,,,
imu,289.465606,0.5843952856000001,-9.639830524800002,2.2616157368,1.85438115,1.31542615,-3.65339711,,,
imu,289.473991,0.5748248408000001,-9.640428677600001,2.2652046536,2.01887317,1.46496435,-3.54872037,,,
imu,289.482376,0.5688433128,-9.655382497600002,2.2604194312,1.98148862,1.47244126,-3.63096638,,,
imu,289.490761,0.571235924,-9.660765872800003,2.2556342088,2.07868845,1.49487199,-3.60105874,,,
imu,289.499145,0.5700396184000001,-9.661962178400001,2.246063764000001,1.8169966,1.47244126,-3.71321239,,,
imu,289.50753,0.5586747152,-9.658971414400002,2.249652680800001,1.95158098,1.59207182,-3.7206893,,,
imu,289.515915,0.5664507016000001,-9.669140012000002,2.2646065008,1.97401171,1.74908693,-3.86275059,,,
imu,289.524299,0.5556839512000001,-9.675719692800001,2.2592231256,1.9665348,1.85376367,-3.81041222,,,
imu,289.532684,0.5742266880000001,-9.6709344704,2.2568305144,1.9665348,2.08554788,-3.75059694,,,
imu,289.541069,0.5706377712,-9.6799067624,2.261017584,1.91419643,2.16031698,-3.93004278,,,
imu,289.549453,0.580208216,-9.673925234400002,2.2562323616,1.87681188,2.18274771,-3.84779677,,,
imu,289.557838,0.5861897440000001,-9.6703363176,2.2466619168,1.75718132,2.11545552,-3.95247351,,,
imu,289.566223,0.58319898,-9.671532623200001,2.2472600696,1.55530475,2.10797861,-3.98985806,,,
imu,289.574608,0.5814045216000001,-9.669140012000002,2.237091472,1.5926893,2.14536316,-3.90013514,,,
imu,289.582992,0.5808063688,-9.671532623200001,2.2376896248,1.43567419,2.06311715,-3.93751969,,,
imu,289.591377,0.5867878968000001,-9.655382497600002,2.2335025552,1.55530475,2.04816333,-3.7954584,,,
imu,289.599762,0.5843952856000001,-9.6499991224,2.243073,1.50296638,2.06311715,-3.78050458,,,
imu,289.608146,0.5909749664,-9.646410205600002,2.2335025552,1.57773548,1.98834805,-3.85527368,,,
imu,289.616531,0.5855915912,-9.651195428000001,2.2376896248,1.65250458,1.96591732,-3.89265823,,,
imu,289.624916,0.5760211464000001,-9.6494009696,2.2388859304,1.7422275,2.07807097,-3.82536604,,,
imu,289.633928,0.5790119104,-9.651195428000001,2.2329044024,1.83942733,2.03320951,-3.76555076,,,
imu,289.64294,0.5736285352000001,-9.651195428000001,2.2394840832,1.69736604,1.8761944,-3.72816621,,,
imu,289.651952,0.5700396184000001,-9.6505972752,2.240082236,1.8169966,1.98087114,-3.78798149,,,
imu,289.660964,0.5658525488000001,-9.651793580800001,2.2454656112,1.79456587,1.88367131,-3.81788913,,,
imu,289.669976,0.5598710208000001,-9.655980650400002,2.2418766944,1.72727368,1.94348659,-3.7954584,,,
imu,289.678988,0.5688433128,-9.6428212888,2.2358951664,1.77961205,1.96591732,-3.81788913,,,
imu,289.688,0.5772174520000001,-9.630260080000001,2.2269228744,1.77961205,1.93600968,-3.85527368,,,
imu,289.697012,0.5730303824,-9.633250844,2.2239321104,1.93662716,1.97339423,-3.77302767,,,
imu,289.706024,0.5724322296000001,-9.6505972752,2.216156124,2.12354991,1.95844041,-3.75059694,,,
imu,289.715036,0.5796100632000001,-9.663158484000002,2.2197450408,2.13850373,1.86124058,-3.78798149,,,
imu,289.724047,0.5814045216000001,-9.6643547896,2.231109944,2.16841137,1.99582496,-3.75807385,,,
imu,289.733059,0.5772174520000001,-9.667345553600002,2.22811918,2.15345755,1.9509635,-3.77302767,,,
imu,289.742071,0.5736285352000001,-9.668541859200001,2.237091472,2.18336519,1.89862513,-3.66087402,,,
imu,289.751083,0.5814045216000001,-9.669738164800002,2.2119690544,2.18336519,1.97339423,-3.62348947,,,
imu,289.760095,0.5903768136,-9.682897526400001,2.2155579712,2.09364227,1.9509635,-3.65339711,,,
imu,289.769107,0.5760211464000001,-9.675121540000001,2.2203431936,2.05625772,2.01077878,-3.77302767,,,
imu,289.778119,0.5849934384000001,-9.678112304,2.2137635128,2.10859609,1.9509635,-3.81041222,,,
imu,289.787131,0.5879842024,-9.675719692800001,2.2167542768,1.98896553,1.96591732,-3.92256587,,,
imu,289.796143,0.5891805080000001,-9.676915998400002,2.210174596,1.95158098,1.95844041,-3.8702275,,,
imu,289.805155,0.5981528,-9.675719692800001,2.216156124,1.94410407,1.93600968,-3.83284295,,,
imu,289.814167,0.6083213976,-9.690075360000002,2.2095764432,1.92167334,1.99582496,-3.74312003,,,
imu,289.823179,0.6107140088,-9.690075360000002,2.2059875264,1.83195042,1.8761944,-3.6459202,,,
imu,289.832191,0.6083213976,-9.690075360000002,2.207183832,1.74970441,1.69674856,-3.81788913,,,
imu,289.840481,0.6083213976,-9.6876827488,2.222735804800001,1.68241222,1.74908693,-3.78798149,,,
imu,289.84877,0.6089195504,-9.696056888000001,2.225128416,1.63755076,1.75656384,-3.77302767,,,
imu,289.857059,0.6101158560000001,-9.706823638400001,2.2257265688,1.49548947,1.63693328,-3.97490424,,,
imu,289.865349,0.6071250920000001,-9.706225485600001,2.2185487352,1.38333582,1.51730272,-3.90013514,,,
imu,289.873638,0.5963583416000001,-9.689477207200001,2.2203431936,1.2936129,1.54721036,-3.93751969,,,
imu,289.881927,0.5957601888000001,-9.678112304,2.228717332800001,1.15902852,1.40514907,-4.02724261,,,
imu,289.890217,0.5891805080000001,-9.671532623200001,2.2257265688,1.07678251,1.30047233,-3.99733497,,,
imu,289.898506,0.5814045216000001,-9.667345553600002,2.2239321104,0.9571519499999999,1.42010289,-3.81788913,,,
imu,289.906795,0.5814045216000001,-9.660765872800003,2.2329044024,0.82256757,1.58459491,-3.7954584,,,
imu,289.915085,0.5814045216000001,-9.667345553600002,2.22811918,0.88985976,1.70422547,-3.72816621,,,
imu,289.923374,0.5742266880000001,-9.660765872800003,2.2245302632,0.83004448,1.71170238,-3.63844329,,,
imu,289.931663,0.5820026744000001,-9.6428212888,2.2388859304,0.85995212,1.66684092,-3.72816621,,,
imu,289.939953,0.5885823552,-9.6260730104,2.2466619168,0.80013684,1.61450255,-3.90013514,,,
imu,289.948242,0.5873860496000001,-9.635643455200002,2.2412785416,0.8375213899999999,1.6518871,-4.11696553,,,
imu,289.956531,0.5754229936,-9.6494009696,2.2556342088,0.9197674,1.48739508,-4.13191935,,,
imu,289.964821,0.5538894928000001,-9.633848996800001,2.2424748472,1.00949032,1.4275798,-4.17678081,,,
imu,288.55436,,,,,,,53.47973240000001,-11.98139720000002,26.2393912
imu,288.65577,,,,,,,53.0036516,-11.78608200000002,27.8019128
imu,288.757333,,,,,,,53.51635400000001,-11.70063160000001,28.25357919999999
imu,288.858895,,,,,,,53.12572360000001,-12.32319880000001,28.302408
imu,288.960793,,,,,,,53.67504760000001,-11.67621720000001,28.1681288
imu,289.063302,,,,,,,53.47973240000001,-11.92036120000002,27.7652912
imu,289.163583,,,,,,,53.35766040000001,-12.16450520000001,27.7652912
imu,289.265176,,,,,,,56.66581160000001,-12.88473000000001,27.7897056
imu,289.973032,0.571235924,-9.612913648800001,2.2329044024,1.04687487,1.38271834,-4.19173463,,,
imu,289.981322,0.5580765624000001,-9.596165370400001,2.2203431936,1.35342818,1.33037997,-4.012288789999999,,,
imu,289.989611,0.5449172008000001,-9.597361676,2.225128416,1.57025857,1.30047233,-3.88518132,,,
imu,289.9979,0.5341504504000001,-9.608128426400002,2.225128416,1.89924261,1.38271834,-3.51133582,,,
imu,290.00619,0.5257763112000001,-9.636241608,2.210174596,2.54225687,1.54721036,-3.27955161,,,
imu,290.014479,0.5239818528000001,-9.659569567200002,2.2029967624,2.75908726,1.4275798,-3.21225942,,,
imu,290.022768,0.5269726168000001,-9.657176956,2.1934263176,2.85628709,1.36028761,-3.35432071,,,
imu,290.031058,0.5293652280000001,-9.659569567200002,2.1940244704,2.98339456,1.4275798,-3.37675144,,,
imu,290.039524,0.5245800056000001,-9.66016772,2.1964170816,2.98339456,1.59207182,-3.40665908,,,
imu,290.04799,0.5305615336,-9.6745233872,2.1838558728,2.90114855,1.7266562,-3.48890509,,,
imu,290.056456,0.5323559920000001,-9.701440263200002,2.1826595672,2.99087147,1.88367131,-3.33936689,,,
imu,290.064922,0.5359449088000001,-9.721179305600002,2.1820614144,2.61702597,2.01825569,-3.32441307,,,
imu,290.073388,0.5467116592000001,-9.739123889600002,2.1856503312,2.24318047,2.03320951,-3.40665908,,,
imu,290.081854,0.5467116592000001,-9.724170069600001,2.1850521784,1.8917657,2.1752708,-3.3468438,,,
imu,290.09032,0.565254396,-9.716992236000001,2.1736872752,1.63007385,2.19022462,-3.40665908,,,
imu,290.098786,0.5670488544000001,-9.708019944000002,2.1677057472,1.57025857,2.324809,-3.47395127,,,
imu,290.107252,0.5724322296000001,-9.708019944000002,2.159331608,1.48053565,2.19770153,-3.66087402,,,
imu,290.115718,0.5640580904000001,-9.694860582400002,2.1389944128,1.24127453,2.18274771,-3.81041222,,,
imu,290.124185,0.571235924,-9.694860582400002,2.1491630104,1.23379762,2.22013226,-4.034719519999999,,,
imu,290.132651,0.5766192992000001,-9.6912716656,2.1377981072,1.28613599,2.30237827,-3.97490424,,,
imu,290.141117,0.5879842024,-9.693664276800002,2.1419851768,1.30108981,2.50425484,-3.86275059,,,
imu,290.149583,0.5873860496000001,-9.700243957600001,2.1425833296,1.2936129,2.51920866,-3.85527368,,,
imu,290.158049,0.5939657304000001,-9.6984494992,2.1479667048,1.32352054,2.57154703,-3.74312003,,,
imu,290.166515,0.5957601888000001,-9.7122070136,2.1617242192,1.31604363,2.61640849,-3.62348947,,,
imu,290.174981,0.6065269392000001,-9.716992236000001,2.1718928168,1.2188438,2.57154703,-3.80293531,,,
imu,290.183447,0.6202844536000002,-9.730749750400001,2.1605279136,1.10669015,2.5491163,-3.73564312,,,
imu,290.191913,0.6274622872000001,-9.740918348000001,2.15335008,1.11416706,2.52668557,-3.62348947,,,
imu,290.200379,0.6454068712000001,-9.7283571392,2.1497611632,0.83004448,2.43696265,-3.76555076,,,
imu,290.208845,0.6561736216000001,-9.699645804800001,2.1587334552,0.68050628,2.22760917,-3.70573548,,,
imu,290.217311,0.631051204,-9.678112304,2.1581353024,0.71789083,2.03320951,-3.76555076,,,
imu,290.225778,0.6256678288,-9.682299373600001,2.1677057472,0.53096808,1.77151766,-3.98985806,,,
imu,290.234244,0.6196863008000001,-9.683495679200002,2.174285428,0.34404533,1.67431783,-4.31136519,,,
imu,290.242707,0.6047324808000001,-9.686486443200002,2.1677057472,0.30666078,1.45001053,-4.35622665,,,
imu,290.251171,0.5903768136,-9.6703363176,2.1599297608,0.40386061,1.31542615,-4.25154991,,,
imu,290.259634,0.5784137576,-9.6505972752,2.178472497600001,0.21693786,1.22570323,-4.28893446,,,
imu,290.268098,0.5622636320000001,-9.645213900000002,2.1958189288,0.08235347999999998,1.24065705,-4.04219643,,,
imu,290.276561,0.5491042704000001,-9.6709344704,2.2018004568,0.05244583999999999,1.30047233,-3.77302767,,,
imu,290.285025,0.5311596864,-9.692467971200001,2.1988096928,0.02253820000000001,1.31542615,-3.35432071,,,
imu,290.293488,0.5425245896,-9.693066124000001,2.2047912208,0.14216876,1.38271834,-3.14496723,,,
imu,290.301952,0.5580765624000001,-9.679308609600001,2.2107727488,0.17955331,1.47991817,-3.2720747,,,
imu,290.310416,0.5664507016000001,-9.6703363176,2.2006041512,0.14964567,1.56216418,-3.47395127,,,
imu,290.318879,0.5419264368000001,-9.678112304,2.2209413464,0.04496892999999999,1.58459491,-3.85527368,,,
imu,290.327343,0.5335522976000001,-9.667943706400001,2.2155579712,0.22441477,1.65936401,-4.07210407,,,
imu,290.335806,0.5335522976000001,-9.659569567200002,2.2185487352,0.17955331,1.61450255,-4.28893446,,,
imu,290.34427,0.5305615336,-9.652989886400002,2.21316536,0.26927623,1.88367131,-4.102011709999999,,,
imu,290.352733,0.5335522976000001,-9.651793580800001,2.2107727488,0.36647606,1.96591732,-3.98238115,,,
imu,290.361197,0.5395338256000001,-9.6470083584,2.2215394992,0.29170696,2.13040934,-3.83284295,,,
imu,290.36966,0.5437208952000001,-9.6494009696,2.21316536,0.26927623,2.15284007,-3.68330475,,,
imu,290.378124,0.5556839512000001,-9.637437913600001,2.222735804800001,0.45619898,2.27994754,-3.63096638,,,
imu,290.386587,0.5508987288,-9.647606511200001,2.2215394992,0.53844499,2.13788625,-3.67582784,,,
imu,290.395051,0.5514968816000001,-9.648802816800002,2.2209413464,0.67302937,2.11545552,-3.58610492,,,
imu,290.403514,0.5538894928000001,-9.654186192000001,2.2203431936,0.60573718,2.12293243,-3.6459202,,,
imu,290.411978,0.5526931872,-9.645213900000002,2.216156124,0.59078336,2.08554788,-3.78050458,,,
imu,290.420442,0.5520950344000001,-9.651195428000001,2.2203431936,0.59078336,2.18274771,-3.73564312,,,
imu,290.428905,0.5568802568000001,-9.654784344800001,2.2155579712,0.65807555,2.12293243,-3.66835093,,,
imu,290.437369,0.5616654792000001,-9.639232372,2.2113709016,0.8375213899999999,2.07059406,-3.67582784,,,
imu,290.445831,0.5628617848,-9.638036066400002,2.2119690544,0.9197674,2.11545552,-3.67582784,,,
imu,290.454293,0.5694414656000001,-9.637437913600001,2.2113709016,0.8674290299999999,2.06311715,-3.73564312,,,
imu,290.462755,0.571235924,-9.648204664000001,2.2149598184,0.9048135799999999,2.13040934,-3.68330475,,,
imu,290.471218,0.5664507016000001,-9.665551095200001,2.2257265688,1.00949032,2.10797861,-3.66087402,,,
imu,290.47968,0.5670488544000001,-9.676317845600002,2.2275210272,0.9272443100000001,2.15284007,-3.70573548,,,
imu,290.488142,0.5730303824,-9.680504915200002,2.232306249600001,1.0693056,2.09302479,-3.63844329,,,
imu,290.496605,0.5754229936,-9.685888290400001,2.2299136384,1.02444414,2.01077878,-3.63844329,,,
imu,290.505067,0.5766192992000001,-9.682897526400001,2.234100708,0.9197674,2.09302479,-3.5711511,,,
imu,290.513529,0.5700396184000001,-9.687084596000002,2.2335025552,0.9870595899999999,2.04816333,-3.60105874,,,
imu,290.521991,0.5796100632000001,-9.672728928800002,2.2299136384,0.8973366700000001,2.00330187,-3.71321239,,,
imu,290.530454,0.5706377712,-9.671532623200001,2.2394840832,0.8524752099999999,2.04816333,-3.69825857,,,
imu,290.538916,0.5658525488000001,-9.669140012000002,2.231109944,0.8524752099999999,2.01077878,-3.62348947,,,
imu,290.547378,0.5688433128,-9.669140012000002,2.228717332800001,0.77770611,1.93600968,-3.50385891,,,
imu,290.55584,0.5700396184000001,-9.654186192000001,2.2257265688,0.77770611,1.91357895,-3.65339711,,,
imu,290.564303,0.56824516,-9.658373261600001,2.2275210272,0.94219813,1.9509635,-3.496382,,,
imu,290.572765,0.5592728680000001,-9.640428677600001,2.2209413464,1.00949032,1.94348659,-3.51881273,,,
imu,290.581227,0.5646562432000001,-9.6505972752,2.22811918,1.0693056,1.97339423,-3.57862801,,,
imu,290.58969,0.5658525488000001,-9.657775108800001,2.222137652,1.09173633,2.00330187,-3.53376655,,,
imu,290.598152,0.5538894928000001,-9.6523917336,2.2275210272,1.03192105,2.05564024,-3.45152054,,,
imu,290.606614,0.5562821040000001,-9.654186192000001,2.2364933192,1.00201341,2.11545552,-3.43656672,,,
imu,290.615076,0.5544876456000001,-9.6505972752,2.231109944,0.91229049,2.2500399,-3.38422835,,,
imu,290.623539,0.5598710208000001,-9.652989886400002,2.232306249600001,1.00201341,2.23508608,-3.30198234,,,
imu,290.632001,0.5664507016000001,-9.656578803200002,2.2179505824,1.12164397,2.42948574,-3.21973633,,,
imu,290.640463,0.5622636320000001,-9.661962178400001,2.2245302632,1.05435178,2.48930102,-3.30945925,,,
imu,290.649295,0.5604691736,-9.642223136000002,2.228717332800001,0.94967504,2.51173175,-3.47395127,,,
imu,290.658126,0.56824516,-9.633848996800001,2.2275210272,1.03192105,2.48930102,-3.5711511,,,
imu,290.666958,0.5778156048000002,-9.6428212888,2.219146888,1.06182869,2.57902394,-3.66835093,,,
imu,290.675789,0.5885823552,-9.6434194416,2.2263247216,1.2188438,2.6986545,-3.53376655,,,
imu,290.684621,0.5778156048000002,-9.6709344704,2.2508489864,1.24127453,2.67622377,-3.58610492,,,
imu,290.693452,0.5820026744000001,-9.675121540000001,2.2358951664,1.27118217,2.65379304,-3.55619728,,,
imu,290.702284,0.5969564944000001,-9.614708107200002,2.2209413464,1.27118217,2.65379304,-3.67582784,,,
imu,290.711115,0.5885823552,-9.6284656216,2.2167542768,1.2936129,2.5491163,-3.69078166,,,
imu,290.719947,0.580208216,-9.676317845600002,2.216156124,1.4431511,2.55659321,-3.91508896,,,
imu,290.728778,0.5736285352000001,-9.6745233872,2.2173524296,1.68241222,2.51920866,-3.95995042,,,
imu,290.73761,0.5538894928000001,-9.6703363176,2.2233339576,1.43567419,2.3995781,-4.08705789,,,
imu,290.746441,0.5443190480000001,-9.655980650400002,2.2275210272,1.40576655,2.46687029,-4.16182699,,,
imu,290.755273,0.5574784096000001,-9.6499991224,2.2275210272,1.47305874,2.6238854,-4.0197657,,,
imu,290.764104,0.571235924,-9.635045302400002,2.2257265688,1.54782784,2.81080815,-3.9449966,,,
imu,290.772936,0.5778156048000002,-9.661364025600001,2.2185487352,1.5179202,2.86314652,-3.92256587,,,
imu,290.781767,0.5760211464000001,-9.671532623200001,2.2137635128,1.46558183,2.74351596,-3.98985806,,,
imu,289.366738,,,,,,,56.0066228,-12.7992796,25.73889599999999
imu,289.46827,,,,,,,53.699462,-11.95698280000002,28.4488944
imu,289.569833,,,,,,,53.98022760000001,-12.73824360000002,25.59240959999999
imu,289.672341,,,,,,,52.97923719999999,-12.16450520000001,28.1559216
imu,289.772988,,,,,,,53.77270520000002,-12.45747800000001,27.82632719999999
imu,289.87452,,,,,,,53.4309036,-12.38423480000002,28.1681288
imu,289.976083,,,,,,,53.2355884,-12.53072120000001,28.1681288
imu,290.077645,,,,,,,53.9191916,-12.55513560000001,28.20475039999999
imu,290.790599,0.58319898,-9.6643547896,2.2095764432,1.368382,2.60145467,-4.034719519999999,,,
imu,290.799431,0.5963583416000001,-9.661364025600001,2.19821154,1.37585891,2.61640849,-4.079580979999999,,,
imu,290.808262,0.6077232448000001,-9.655980650400002,2.1934263176,1.40576655,2.45191647,-4.146873169999999,,,
imu,290.817094,0.6178918424000002,-9.661962178400001,2.2077819848,1.368382,2.28742445,-3.99733497,,,
imu,290.825925,0.5987509528,-9.663158484000002,2.2077819848,1.33847436,2.07807097,-3.91508896,,,
imu,290.834757,0.5957601888000001,-9.686486443200002,2.2113709016,1.2936129,1.91357895,-4.19173463,,,
imu,290.843588,0.6005454112,-9.688280901600002,2.2059875264,1.24127453,1.93600968,-4.30388828,,,
imu,290.852056,0.5969564944000001,-9.696056888000001,2.1970152344,1.0693056,1.67431783,-4.37118047,,,
imu,290.860523,0.5867878968000001,-9.6918698184,2.1964170816,1.15155161,1.60702564,-4.22164227,,,
imu,290.86899,0.5748248408000001,-9.6709344704,2.2000059984,1.10669015,1.6518871,-4.00481188,,,
imu,290.877458,0.5742266880000001,-9.675121540000001,2.21316536,0.9870595899999999,1.577118,-3.95247351,,,
imu,290.885925,0.5574784096000001,-9.6918698184,2.19821154,1.12164397,1.50982581,-3.77302767,,,
imu,290.894392,0.5640580904000001,-9.701440263200002,2.208978290400001,1.18893616,1.59207182,-3.56367419,,,
imu,290.90286,0.5814045216000001,-9.676317845600002,2.201202304,1.34595127,1.577118,-3.48142818,,,
imu,290.911327,0.5921712720000001,-9.6637566368,2.2000059984,1.35342818,1.45001053,-3.63096638,,,
imu,290.919794,0.580208216,-9.641026830400001,2.177276192,1.36090509,1.38271834,-3.84779677,,,
imu,290.928262,0.5700396184000001,-9.632054538400002,2.1730891224,1.42072037,1.38271834,-3.96742733,,,
imu,290.936729,0.5586747152,-9.654784344800001,2.1820614144,1.51044329,1.33785688,-4.02724261,,,
imu,290.945196,0.5443190480000001,-9.657176956,2.1808651088,1.51044329,1.39767216,-4.0945348,,,
imu,290.953664,0.5443190480000001,-9.651195428000001,2.2035949152,1.36090509,1.46496435,-3.95995042,,,
imu,290.962131,0.5413282840000001,-9.659569567200002,2.2209413464,1.39828964,1.47244126,-4.04219643,,,
imu,290.970598,0.5479079648000001,-9.6505972752,2.2077819848,1.46558183,1.52477963,-3.93751969,,,
imu,290.979066,0.5592728680000001,-9.664952942400001,2.2143616656,1.4431511,1.77899457,-3.75059694,,,
imu,290.987533,0.5407301312,-9.685888290400001,2.219146888,1.38333582,1.70422547,-3.8702275,,,
imu,290.996001,0.5491042704000001,-9.673925234400002,2.2305117912,1.30108981,1.7266562,-3.93004278,,,
imu,291.004468,0.5401319784,-9.667943706400001,2.201202304,1.2188438,1.80890221,-3.95247351,,,
imu,291.012935,0.5347486032000001,-9.6703363176,2.2149598184,1.28613599,1.9509635,-3.97490424,,,
imu,291.021403,0.5419264368000001,-9.6535880392,2.2358951664,1.26370526,2.01825569,-3.85527368,,,
imu,291.02987,0.5395338256000001,-9.631456385600002,2.2167542768,1.25622835,2.07807097,-3.84031986,,,
imu,291.038337,0.5473098120000001,-9.636241608,2.2335025552,1.35342818,2.07059406,-3.88518132,,,
imu,291.046805,0.5425245896,-9.636839760800001,2.2508489864,1.50296638,2.10797861,-3.72816621,,,
imu,291.055267,0.5473098120000001,-9.661364025600001,2.234100708,1.57773548,2.19770153,-3.63844329,,,
imu,291.06382,0.5514968816000001,-9.671532623200001,2.2335025552,1.54035093,2.37714737,-3.69078166,,,
imu,291.072282,0.5604691736,-9.667943706400001,2.243073,1.57773548,2.29490136,-3.6459202,,,
imu,291.080745,0.5592728680000001,-9.655980650400002,2.2448674584,1.53287402,2.33976282,-3.6459202,,,
imu,291.089207,0.5694414656000001,-9.655382497600002,2.2418766944,1.48801256,2.13788625,-3.62348947,,,
imu,291.097669,0.5724322296000001,-9.6428212888,2.2406803888,1.60764312,2.16779389,-3.67582784,,,
imu,291.106132,0.5664507016000001,-9.647606511200001,2.2478582224,1.73475059,2.2500399,-3.61601256,,,
imu,291.114594,0.5706377712,-9.651195428000001,2.249652680800001,1.85438115,2.07807097,-3.65339711,,,
imu,291.123056,0.571235924,-9.6523917336,2.2305117912,1.85438115,2.13040934,-3.75807385,,,
imu,291.131518,0.5646562432000001,-9.645213900000002,2.2149598184,2.01887317,2.08554788,-3.80293531,,,
imu,291.139981,0.5700396184000001,-9.630260080000001,2.2245302632,1.97401171,1.93600968,-3.98985806,,,
imu,291.148443,0.5766192992000001,-9.6075302736,2.249652680800001,2.14598064,1.85376367,-4.00481188,,,
imu,291.156905,0.5700396184000001,-9.639232372,2.2346988608,2.19831901,1.85376367,-4.06462716,,,
imu,291.165367,0.5568802568000001,-9.664952942400001,2.2352970136,2.43758013,1.81637912,-3.68330475,,,
imu,291.17383,0.5245800056000001,-9.647606511200001,2.2245302632,2.42262631,1.90610204,-3.39170526,,,
imu,291.182292,0.5550857984,-9.6494009696,2.2209413464,2.45253395,1.77151766,-3.30945925,,,
imu,291.190754,0.5688433128,-9.6703363176,2.2125672072,2.58711833,1.81637912,-3.28702852,,,
imu,291.199216,0.5491042704000001,-9.685888290400001,2.210174596,2.70674889,1.92853277,-3.18982869,,,
imu,291.207679,0.5628617848,-9.6817012208,2.1904355536,2.57964142,1.82385603,-3.31693616,,,
imu,291.216141,0.5610673264,-9.667345553600002,2.1934263176,2.59459524,1.83880985,-3.496382,,,
imu,291.224603,0.5437208952000001,-9.6745233872,2.171294664,2.60954906,1.8761944,-3.51881273,,,
imu,291.233066,0.5497024232000001,-9.667345553600002,2.171294664,2.5646876,1.95844041,-3.45152054,,,
imu,291.241528,0.5329541448,-9.672728928800002,2.1539482328,2.61702597,1.91357895,-3.41413599,,,
imu,291.24999,0.5371412144000001,-9.706823638400001,2.1569389968,2.5646876,1.94348659,-3.36927453,,,
imu,291.258455,0.5335522976000001,-9.694860582400002,2.1569389968,2.53477996,2.07059406,-3.30945925,,,
imu,291.26692,0.5162058664000001,-9.706225485600001,2.1491630104,2.44505704,2.04816333,-3.60853565,,,
imu,291.275385,0.5197947832,-9.706823638400001,2.1527519272,2.34785721,2.2500399,-3.67582784,,,
imu,291.283849,0.5138132552000001,-9.715795930400002,2.1736872752,2.40019558,2.34723973,-3.6459202,,,
imu,291.292314,0.4982612824000001,-9.7074217912,2.1671075944,2.25813429,2.56407012,-3.60105874,,,
imu,291.300779,0.5108224912,-9.706225485600001,2.132414732,2.06373463,2.71360832,-3.81788913,,,
imu,291.309244,0.5443190480000001,-9.734338667200001,2.1258350512,1.98148862,2.93791562,-3.72816621,,,
imu,291.317709,0.5718340768000001,-9.748694334400001,2.12344244,1.7422275,2.94539253,-3.50385891,,,
imu,291.326173,0.5837971328000001,-9.748096181600001,2.1090867728,1.72727368,3.0725,-3.33936689,,,
imu,291.334638,0.6077232448000001,-9.748694334400001,2.102507092,1.48801256,2.85566961,-3.36927453,,,
imu,291.343103,0.6226770648,-9.777405668800002,2.1060960088,1.30856672,2.70613141,-3.33188998,,,
imu,291.351568,0.6394253432000001,-9.765442612800001,2.0929366472,0.81509066,2.49677793,-3.40665908,,,
imu,291.360033,0.6382290376000002,-9.736731278400002,2.0923384944,0.43376825,2.24256299,-3.54124346,,,
imu,291.368497,0.6202844536000002,-9.7295534448,2.1072923144,0.17955331,2.00330187,-3.58610492,,,
imu,291.376962,0.6154992312,-9.7427128064,2.1252368984,0.09730729999999999,1.78647148,-3.54124346,,,
imu,291.385427,0.6190881480000001,-9.739123889600002,2.1102830784,-0.09709236,1.7266562,-3.51133582,,,
imu,291.393892,0.6154992312,-9.734936820000001,2.114470148,-0.34383039,1.55468727,-3.43656672,,,
imu,291.402357,0.6113121616,-9.7474980288,2.159331608,-0.65786061,1.45748744,-3.40665908,,,
imu,291.410822,0.6113121616,-9.766638918400002,2.1730891224,-0.81487572,1.5023489,-3.35432071,,,
imu,291.419286,0.6071250920000001,-9.802528086400002,2.1695002056,-1.06909066,1.27056469,-3.66835093,,,
imu,291.427751,0.5963583416000001,-9.7504887928,2.090544036,-1.37564397,1.16588795,-3.72816621,,,
imu,291.436216,0.5927694248,-9.664952942400001,2.1096849256,-1.66724346,1.19579559,-3.81788913,,,
imu,291.444681,0.6077232448000001,-9.657775108800001,2.1659112888,-1.71958183,1.13598031,-3.95247351,,,
imu,291.453146,0.6005454112,-9.711010708000002,2.177276192,-1.38312088,1.09111885,-4.034719519999999,,,
imu,291.46199,0.6017417168000001,-9.7995373224,2.1826595672,-1.4728438,1.19579559,-4.07210407,,,
imu,291.470835,0.5981528,-9.802528086400002,2.1850521784,-1.89902767,1.1285034,-4.102011709999999,,,
imu,291.47968,0.5694414656000001,-9.758264779200001,2.2119690544,-2.36259609,1.15093413,-4.318842099999999,,,
imu,291.488525,0.5419264368000001,-9.679308609600001,2.204193068,-2.97570271,1.15841104,-4.47585721,,,
imu,291.49737,0.5281689224000001,-9.591380148,2.1964170816,-3.1925331,1.16588795,-4.55810322,,,
imu,291.506214,0.5449172008000001,-9.592576453600001,2.210174596,-2.90841052,1.32290306,-4.5431494,,,
imu,291.515059,0.5562821040000001,-9.627269316000001,2.2233339576,-2.68410322,1.30794924,-4.49081103,,,
imu,291.523904,0.5419264368000001,-9.669140012000002,2.2466619168,-2.63176485,1.25561087,-4.41604193,,,
imu,291.532749,0.5126169496,-9.7008421104,2.2622138896,-2.49718047,1.37524143,-4.29641137,,,
imu,291.541594,0.5018501992000001,-9.690075360000002,2.2741769456,-2.71401086,1.28551851,-4.22911918,,,
imu,291.550438,0.5090280328000001,-9.706823638400001,2.2981030576,-2.91588743,1.52477963,-4.13939626,,,
imu,290.179313,,,,,,,53.77270520000002,-12.76265800000001,27.82632719999999
imu,290.280875,,,,,,,55.3718484,-12.92135160000001,27.83853439999999
imu,290.382468,,,,,,,53.6262188,-12.60396440000002,28.0704712
imu,290.484,,,,,,,56.34842440000001,-13.62936920000002,25.73889599999999
imu,290.586478,,,,,,,53.6018044,-12.51851400000001,28.5221376
imu,290.687125,,,,,,,55.774686,-13.21432440000001,25.16515759999999
imu,290.788688,,,,,,,53.1989668,-12.49409960000001,27.9483992
imu,290.89025,,,,,,,53.47973240000001,-12.60396440000002,27.875156
imu,290.991843,,,,,,,53.21117399999999,-12.42085640000001,28.29020079999999
imu,291.093375,,,,,,,53.1745524,-12.12788360000001,28.1193
imu,291.19564,,,,,,,53.11351639999999,-12.26216280000001,28.03384959999999
imu,291.2965,,,,,,,53.11351639999999,-12.73824360000002,27.8019128
imu,291.398063,,,,,,,54.27320040000001,-12.11567640000002,27.569976
imu,291.507407,,,,,,,53.35766040000001,-12.39644200000001,28.0216424
