Type,Timestamp,Data Accelerometer X,Data Accelerometer Y,Data Accelerometer Z,Data Gyroscope X,Data Gyroscope Y,Data Gyroscope Z,Data Magnetometer X,Data Magnetometer Y,Data Magnetometer Z
imu,371.00258,-0.8966310472000002,-9.456795768000001,2.188042942400001,-7.820740389999999,90.91871559,-21.65031948,,,
imu,371.010958,-0.9624278552000001,-9.4280844336,2.208978290400001,-7.57400236,94.3655711,-23.19803985,,,
imu,371.019337,-1.0210468296,-9.423897364000002,2.188042942400001,-7.304833599999999,97.91710335,-24.57379129,,,
imu,371.027715,-0.9953262592000002,-9.4908904776,2.1910337064,-6.89360355,101.9920193,-25.61308178,,,
imu,371.036093,-0.8762938520000002,-9.574631869600001,2.1886410952,-6.67677316,106.13422744,-26.33834205,,,
imu,371.044472,-0.7064184568,-9.6470083584,2.2293154856,-6.72163462,109.73809806,-27.02621777,,,
imu,371.05285,-0.5461135064000001,-9.608128426400002,2.216156124,-6.901080459999999,112.60175459,-27.90101624,,,
imu,371.061228,-0.4193051128000001,-9.516611048000001,2.2137635128,-6.923511189999999,114.75510467,-28.85058381,,,
imu,371.069607,-0.2829262744000001,-9.469356976800002,2.2352970136,-7.05809557,116.18319448,-29.56089026,,,
imu,371.077985,-0.1483418944,-9.439449336800001,2.2143616656,-6.975849559999999,116.99817767,-30.01698177,,,
imu,371.086363,0.007177833600000002,-9.422701058400001,2.2293154856,-6.430035129999999,117.52156137,-30.1889507,,,
imu,371.094742,0.1955959656,-9.387410043200001,2.2335025552,-5.6599134,117.48417682,-30.09175087,,,
imu,371.10312,0.4073420568000001,-9.405952780000002,2.2873363072,-4.73277656,116.75891655,-29.50107498,,,
imu,371.111498,0.6806978864000002,-9.456795768000001,2.3363848368,-3.70096298,115.18128854,-29.15713712,,,
imu,371.119877,0.9014162696000001,-9.488497866400001,2.3615072544,-2.70653395,112.62418532,-28.70852252,,,
imu,371.128255,1.0539452336,-9.4980683112,2.3973964224,-1.77939711,108.81843813,-28.16270809,,,
imu,371.136633,1.1681924184,-9.501657228000001,2.447043104800001,-1.22610577,104.48930724,-27.48230928,,,
imu,371.145012,1.2459522824,-9.5154147424,2.450632021600001,-0.8821679099999999,99.69660793,-26.36077278,,,
imu,371.153463,1.2166427952,-9.462777296000002,2.4033779504,-0.56066078,94.61978604000001,-25.13455954,,,
imu,371.161913,1.1801554744,-9.393989724,2.409957631200001,-0.44850713,89.81960982,-23.95320776,,,
imu,371.170364,1.1287143336,-9.4244955168,2.4458467992,-0.21672292,85.10915652,-22.36810284,,,
imu,371.178815,1.0635156784,-9.513620284000002,2.4530246328,0.10478421,80.63048743,-20.55121371,,,
imu,371.187266,1.0533470808,-9.632054538400002,2.504465773600001,0.2468455,76.09947997,-19.50444631,,,
imu,371.195717,1.109573444,-9.651793580800001,2.5367660248,0.3739529699999999,71.92736419,-18.80161677,,,
imu,371.204168,1.1233309584,-9.611119190400002,2.5684681232,0.45619898,67.38887982,-18.450202,,,
imu,371.212618,1.1059845272,-9.558481744000002,2.5732533456,0.40386061,62.55131905,-18.11374105,,,
imu,371.221069,1.0832547208,-9.5040498392,2.5355697192,0.5982602699999999,57.66889681999999,-17.1791273,,,
imu,371.22952,1.0270283576,-9.459786532,2.509250996,1.03939796,53.30238138,-15.72860676,,,
imu,371.237971,0.9642223136000001,-9.4460290176,2.497287940000001,1.48053565,49.19008088,-14.05377892,,,
imu,371.246422,0.8996218112000001,-9.457393920800001,2.4787452032,2.22074974,45.23479549,-12.35652035,,,
imu,371.254873,0.8230582528,-9.4843107968,2.4500338688,2.7142258,41.46643285,-10.80132307,,,
imu,371.263323,0.7441020832,-9.502853533600002,2.4338837432,3.3871477,37.96723897,-9.33584871,,,
imu,371.271774,0.6657440664000001,-9.517807353600002,2.4368745072,3.97782359,34.68487548,-8.304035129999999,,,
imu,371.280225,0.5790119104,-9.52558334,2.4093594784,4.77037605,31.80626513,-7.17502172,,,
imu,371.288676,0.5006538936,-9.559678049600002,2.3997890336,5.36105194,29.20430045,-6.315177069999999,,,
imu,371.297127,0.4390441552000001,-9.627867468800002,2.3944056584,5.71994362,27.02104273,-5.44785551,,,
imu,371.305578,0.4234921824,-9.7151977776,2.3908167416,5.82462036,25.01723085,-4.89456417,,,
imu,371.314028,0.4079402096,-9.759461084800002,2.3818444496,5.81714345,23.22277245,-4.51324176,,,
imu,371.322479,0.385808556,-9.748096181600001,2.3495441984,5.51806705,21.45822169,-4.17678081,,,
imu,371.33093,0.367863972,-9.744507264800001,2.34774974,5.07692936,19.8207784,-4.00481188,,,
imu,371.339381,0.3654713608,-9.763050001600002,2.3190384056,4.67317622,18.48241151,-3.53376655,,,
imu,371.347832,0.3523119992,-9.7911631832,2.286738154400001,4.39653055,17.04684479,-3.32441307,,,
imu,371.356295,0.3666676664,-9.791761336000002,2.27298064,4.11240797,15.61127807,-3.29450543,,,
imu,371.364759,0.3564990688,-9.786976113600002,2.2675972648,3.63388573,14.15328062,-3.01785976,,,
imu,371.373222,0.3259932760000001,-9.787574266400002,2.2711861816,3.34228624,12.68032935,-2.83093701,,,
imu,371.381686,0.3056560808,-9.763050001600002,2.2622138896,3.15536349,11.38682392,-2.76364482,,,
imu,371.390149,0.257205704,-9.7086180968,2.2508489864,2.57216451,10.07088776,-2.66644499,,,
imu,371.398613,0.212344244,-9.657775108800001,2.2628120424,2.00391935,8.92692053,-2.51690679,,,
imu,371.407076,0.173464312,-9.6296619272,2.240082236,1.67493531,8.11193734,-2.21783039,,,
imu,371.41554,0.1309954632,-9.6117173432,2.2233339576,1.15902852,7.46892308,-2.04586146,,,
imu,371.424004,0.1010878232,-9.627269316000001,2.2233339576,0.77770611,6.91563174,-2.20287657,,,
imu,371.432467,0.0783580168,-9.688879054400001,2.2346988608,0.65059864,6.35486349,-2.27016876,,,
imu,371.440931,0.07656355840000001,-9.758264779200001,2.21316536,0.8674290299999999,5.99597181,-2.35241477,,,
imu,371.449394,0.09151737840000002,-9.797144711200001,2.219146888,1.06182869,5.67446468,-2.83841392,,,
imu,371.457858,0.1064711984,-9.802528086400002,2.2275210272,1.17398234,5.30061918,-3.10010577,,,
imu,371.466321,0.1112564208,-9.803126239200001,2.2233339576,1.33847436,4.6426511,-3.22721324,,,
imu,371.474785,0.1040785872,-9.7815927384,2.2275210272,1.61512003,4.149175039999999,-3.10010577,,,
imu,371.483248,0.107667504,-9.766040765600001,2.2604194312,1.47305874,3.5211146,-2.61410662,,,
imu,371.491712,0.1034804344,-9.815089295200002,2.296906752,1.27865908,2.95286944,-2.01595382,,,
imu,371.500175,0.08254508640000002,-9.833632032,2.3196365584,0.80761375,2.61640849,-1.44023175,,,
imu,371.508639,0.09091922560000001,-9.8043225448,2.3435626704,0.1720764,2.14536316,-0.8495558599999999,,,
imu,371.517102,0.1070693512,-9.746899876,2.3633017128,-0.73262971,1.56964109,-0.32617216,,,
imu,371.525566,0.1142471848,-9.671532623200001,2.3818444496,-1.42798234,0.94905756,-0.09438795,,,
imu,371.53403,0.09749890640000002,-9.6296619272,2.4009853392,-2.09342733,0.33595094,-0.05700339999999993,,,
imu,371.542493,0.09570444800000001,-9.606333968000001,2.4057705616,-2.26539626,-0.2622018600000002,0.08505788999999986,,,
imu,371.550957,0.08015247520000002,-9.589585689600002,2.4093594784,-2.39998064,-0.7033395499999999,0.44394957,,,
imu,371.559406,0.04725407120000001,-9.553098368800002,2.4249114512,-2.48970356,-1.12952342,0.242073,,,
imu,371.567856,0.0215335008,-9.5459205352,2.4416597296,-2.2205348,-1.34635381,0.1074886200000003,,,
imu,371.576306,0.0131593616,-9.538742701600002,2.429696673600001,-2.05604278,-1.4884151,0.04019642999999995,,,
imu,371.584755,0.0053833752,-9.52558334,2.4392671184,-1.94388913,-1.49589201,-0.11681868,,,
imu,371.593205,0.0161501256,-9.511227672800002,2.4530246328,-1.80182784,-1.37626145,-0.4831872699999999,,,
imu,371.601655,0.0263187232,-9.513620284000002,2.469772911200001,-1.61490509,-1.36878454,-0.4831872699999999,,,
imu,371.610105,0.04127254320000001,-9.557285438400001,2.509250996,-1.71210492,-1.45850746,-0.52057182,,,
imu,371.618554,0.07895616960000001,-9.590183842400002,2.5349715664,-1.82425857,-1.29401544,-0.5654332799999999,,,
imu,371.627004,0.1130508792,-9.5949690648,2.5307844968,-1.87659694,-1.07718505,-0.29626452,,,
imu,371.635454,0.1453511304,-9.603343204000002,2.5475327752,-1.95884295,-1.09213887,-0.32617216,,,
imu,371.643903,0.1908107432,-9.676317845600002,2.5888053184,-2.04856587,-1.36130763,-0.6102947399999998,,,
imu,371.652353,0.19439966,-9.722375611200002,2.575047804,-2.08595042,-1.75758386,-1.05890934,,,
imu,371.660803,0.167482784,-9.6942624296,2.560093984,-2.21305789,-1.78001459,-1.34303192,,,
imu,371.669253,0.1561178808,-9.619493329600001,2.5768422624,-2.34016536,-1.98189116,-1.59724686,,,
imu,371.677702,0.152528964,-9.5812115504,2.560093984,-2.63176485,-2.26601374,-1.87389253,,,
imu,371.686152,0.152528964,-9.565061424800001,2.560093984,-2.72148777,-2.34825975,-2.12063056,,,
imu,371.694602,0.1393696024,-9.5489112992,2.592992388,-2.91588743,-2.48284413,-2.28512258,,,
imu,371.703051,0.1327899216,-9.553098368800002,2.6217037224,-3.28973293,-2.43798267,-2.27016876,,,
imu,371.711501,0.1620994088,-9.541135312800002,2.6432372232,-3.61124006,-2.28096756,-2.00847691,,,
imu,371.719951,0.191408896,-9.490292324800002,2.6450316816,-3.83554736,-2.07161408,-1.72435433,,,
imu,371.728401,0.1991848824,-9.4250936696,2.6486205984,-4.08228539,-2.24358301,-1.49257012,,,
imu,371.73685,0.2308869808,-9.406550932800002,2.6605836544,-3.92527028,-2.43050576,-1.21592445,,,
imu,371.7453,0.2853188856,-9.4137287664,2.6563965848,-3.57385551,-2.86416654,-0.9243249599999999,,,
imu,371.75375,0.3212080536,-9.423897364000002,2.6605836544,-3.03551799,-3.3576426,-0.8944173199999998,,,
imu,371.762199,0.3307784984000001,-9.419112141600001,2.661779960000001,-2.34764227,-3.87354939,-0.9318018699999999,,,
imu,371.77098,0.3367600264,-9.408345391200001,2.673144863200001,-1.78687402,-4.62124039,-1.14115535,,,
imu,371.779695,0.3182172896000001,-9.448421628800002,2.685706072000001,-1.1737674,-5.428746670000001,-0.99909406,,,
imu,371.788476,0.2607946208,-9.488497866400001,2.664770724000001,-0.76253735,-5.93717655,-0.8719865899999999,,,
imu,371.797256,0.1920070488,-9.52558334,2.658789196,-0.54570696,-6.281114410000001,-0.7074945699999999,,,
imu,371.806036,0.1620994088,-9.5357519376,2.6324704728,-0.51579932,-6.17643767,-0.004665029999999959,,,
imu,371.814816,0.1603049504,-9.528574104,2.6300778616,-0.64290679,-5.839976719999999,0.6757337799999998,,,
imu,371.823596,0.1567160336,-9.5566872856,2.6312741672,-0.60552224,-5.54090032,1.1393022,,,
imu,371.832376,0.1698753952,-9.6009505928,2.6396483064,-0.77749117,-5.3764083,1.31127113,,,
imu,371.841157,0.1860255208,-9.6117173432,2.6390501536,-1.05413684,-5.04742426,1.39351714,,,
imu,371.849937,0.2045682576000001,-9.595567217600001,2.649816904,-1.29339796,-4.71096331,1.14677911,,,
imu,371.858717,0.2195220776,-9.5632669664,2.648022445600001,-1.46536689,-4.53899438,0.6159185000000003,,,
imu,371.867497,0.2266999112,-9.538742701600002,2.659387348800001,-1.68219728,-4.45674837,0.2345960900000001,,,
imu,371.876277,0.2619909264,-9.512423978400001,2.6569947376,-1.60742818,-4.11281051,-0.26635688,,,
imu,371.885057,0.2829262744000001,-9.488497866400001,2.6695559464,-1.75696638,-4.06047214,-0.8719865899999999,,,
imu,371.893837,0.287113344,-9.474142199200001,2.6880986832,-1.61490509,-3.8810263,-1.49257012,,,
imu,371.902618,0.2913004136,-9.423897364000002,2.7012580448,-1.59247436,-4.00813377,-2.26269185,,,
imu,371.911398,0.2679724544000001,-9.401167557600001,2.7114266424,-1.45041307,-4.0305645,-2.77859864,,,
imu,371.920178,0.2542149400000001,-9.401167557600001,2.7329601432,-1.3233056,-3.83616484,-3.02533667,,,
imu,371.928958,0.2518223288000001,-9.3993730992,2.7317638376,-1.00179847,-3.71653428,-3.24216706,,,
imu,371.937738,0.2380648144,-9.4244955168,2.736549060000001,-0.8821679099999999,-3.56699608,-3.27955161,,,
imu,371.946518,0.2278962168,-9.417915836,2.748512116,-0.64290679,-3.21558131,-3.24216706,,,
imu,371.955299,0.2308869808,-9.440645642400002,2.7706437696,-0.28401511,-2.70715143,-3.18235178,,,
imu,371.964079,0.2566075512,-9.519003659200001,2.796962492800001,-0.30644584,-2.54265941,-3.45152054,,,
imu,371.972859,0.3313766512,-9.519003659200001,2.7748308392,-0.08213854000000001,-2.47536722,-3.53376655,,,
imu,371.981319,0.3570972216000001,-9.4454308648,2.7820086728,-0.007369440000000005,-2.72210525,-3.78798149,,,
imu,371.989778,0.3702565832000001,-9.426888128000002,2.8149070768,0.2468455,-3.09595075,-4.08705789,,,
imu,371.998238,0.3882011672000001,-9.4621791432,2.801747715200001,0.68798319,-3.62681136,-4.40108811,,,
imu,372.006698,0.3804251808,-9.4412437952,2.7760271448,1.1440747,-4.20253343,-4.55062631,,,
imu,372.015158,0.3385544848000001,-9.3838211264,2.7706437696,1.47305874,-4.80068623,-4.75250288,,,
imu,372.023617,0.3032634696000001,-9.343744888800002,2.7550917968,2.05625772,-5.41379285,-4.70016451,,,
imu,372.032077,0.2637853848,-9.367671000800001,2.743726893600001,2.57216451,-5.69791543,-4.34874974,,,
imu,372.040537,0.2225128416,-9.419710294400002,2.729371226400001,3.05068675,-5.70539234,-3.66087402,,,
imu,372.048996,0.1878199792,-9.459786532,2.730567532,3.282470959999999,-5.76520762,-3.27955161,,,
imu,371.066629,,,,,,,76.6734124,-14.48387320000002,7.354852799999989
imu,371.168283,,,,,,,68.3969308,-12.03022600000001,4.827962399999997
imu,371.269784,,,,,,,65.3939596,-10.4310828,-3.216582400000012
imu,372.057456,0.1692772424,-9.505844297600001,2.736549060000001,3.37967079,-5.690438520000001,-2.86832156,,,
imu,372.065916,0.1650901728,-9.5865949256,2.743726893600001,3.40957843,-5.60819251,-2.61410662,,,
imu,372.074376,0.1770532288,-9.638036066400002,2.7383435184,3.34228624,-5.54837723,-2.50942988,,,
imu,372.082835,0.2308869808,-9.647606511200001,2.72159524,3.14788658,-5.5259465,-2.81598319,,,
imu,372.091295,0.3038616224,-9.6009505928,2.7138192536,2.91610237,-5.98951492,-3.1973056,,,
imu,372.099755,0.3511156936,-9.5907819952,2.7144174064,2.7889949,-6.894221030000001,-3.76555076,,,
imu,372.108215,0.4533998224,-9.575828175200002,2.6743411688,2.96844074,-7.851265509999999,-4.07210407,,,
imu,372.116674,0.5168040192000001,-9.485507102400002,2.6163203472,3.26004023,-9.33169369,-4.22911918,,,
imu,372.125134,0.5275707696,-9.420906600000002,2.6211055696,3.67127028,-11.11119827,-4.0945348,,,
imu,372.133594,0.5239818528000001,-9.3904008072,2.5923942352,3.96286977,-13.18977925,-3.7954584,,,
imu,372.142053,0.4414367664,-9.402363863200002,2.5409530944,4.41896128,-14.97676074,-3.07019813,,,
imu,372.150513,0.3696584304000001,-9.4346641144,2.520615899200001,4.89000661,-16.47214274,-1.91127708,,,
imu,372.158973,0.3056560808,-9.519003659200001,2.5170269824,5.23394447,-17.54134087,-0.34860289,,,
imu,372.167433,0.2404574256,-9.597361676,2.4931008704,5.3311443,-18.36380097,0.9673332700000001,,,
imu,372.175892,0.1979885768,-9.678112304,2.4781470504,5.22646756,-19.08906124,1.63277826,,,
imu,372.184357,0.2428500368,-9.721179305600002,2.4936990232,4.63579167,-19.97881353,2.02157758,,,
imu,372.192822,0.3361618736,-9.758862932000001,2.4966897872,4.14979252,-20.7788429,2.22345415,,,
imu,372.201287,0.4964668240000001,-9.798341016800002,2.518223288000001,3.7609932,-21.87794867,2.35803853,,,
imu,372.209752,0.7435039304000001,-9.800733628000001,2.4901101064,3.32733242,-23.62754561,2.68702257,,,
imu,372.218216,0.9103885616000001,-9.748096181600001,2.4745581336,2.57964142,-26.52110978,2.81413004,,,
imu,372.226681,1.0545433864,-9.709814402400001,2.4608006192,2.20579592,-30.06516512,3.49452885,,,
imu,372.235146,1.2034834336,-9.639830524800002,2.450632021600001,2.0413039,-33.99054287,4.69831136,,,
imu,372.243611,1.3105527848,-9.608128426400002,2.4422578824,2.13102682,-38.43930432,6.238554820000001,,,
imu,372.252076,1.4349685672,-9.6248767048,2.4458467992,2.55721069,-43.29181891,7.875998110000001,,,
imu,372.260541,1.519308112,-9.620091482400001,2.4500338688,2.863764,-48.53313282,9.737748700000001,,,
imu,372.269005,1.5127284312,-9.620091482400001,2.4608006192,2.99087147,-54.26044588,11.63688384,,,
imu,372.27747,1.438557484,-9.617698871200002,2.458408008,3.19274804,-59.89055911,13.66312645,,,
imu,372.285935,1.309954632,-9.657176956,2.4769507448,3.26751714,-65.16178065999999,15.5697385,,,
imu,372.2944,1.1490515288,-9.708019944000002,2.4805396616,3.18527113,-69.76755721999999,17.67822712,,,
imu,372.302865,0.9660167720000001,-9.7504887928,2.479343356,2.81890254,-73.939673,19.43530097,,,
imu,372.311329,0.7811875568000001,-9.699047652,2.4518283272,2.15345755,-77.31923631999999,20.42973,,,
imu,372.319794,0.58319898,-9.593772759200002,2.431491132,1.51044329,-79.86886263,20.68394494,,,
imu,372.328259,0.352910152,-9.491488630400001,2.3824426024,1.28613599,-81.55864428999999,20.75123713,,,
imu,372.336724,0.1297991576,-9.440047489600001,2.3411700592,1.51044329,-82.18670472999999,20.71385258,,,
imu,372.345189,-0.03947808480000001,-9.402363863200002,2.34774974,1.87681188,-81.90258214999999,20.48954528,,,
imu,372.353653,-0.1800439928,-9.4215047528,2.3962001168,2.44505704,-80.668892,20.02597686,,,
imu,372.362118,-0.2829262744000001,-9.503451686400002,2.4488375632,2.84133327,-78.6501263,19.5325008,,,
imu,372.370583,-0.3810233336,-9.484908949600001,2.450632021600001,3.34228624,-76.39209948,18.72499452,,,
imu,372.379048,-0.4874945320000001,-9.4621791432,2.487717495200001,3.82080848,-73.67050424,17.65579639,,,
imu,372.387519,-0.5604691736,-9.481918185600001,2.5606921368,4.00025432,-70.5750635,16.45201388,,,
imu,372.39599,-0.6328456624000001,-9.564463272000001,2.613927736,4.10493106,-67.00110052,15.3454312,,,
imu,372.404461,-0.6705292888000001,-9.636839760800001,2.673144863200001,4.03016196,-62.93366148,14.45567891,,,
imu,372.412933,-0.6675385248000001,-9.637437913600001,2.7072395728,3.31985551,-58.76902261,13.31918859,,,
imu,372.421404,-0.6747163584000001,-9.6117173432,2.7401379768,2.40019558,-54.86607559,11.89857569,,,
imu,372.429875,-0.6406216488000002,-9.557285438400001,2.7526991856,1.67493531,-50.96312857,9.80504089,,,
imu,372.438346,-0.6394253432000001,-9.48072188,2.726978615200001,0.85995212,-47.17981211,7.793752100000001,,,
imu,372.446817,-0.6149010784000001,-9.3975786408,2.7150155592,0.620691,-43.52360312,6.238554820000001,,,
imu,372.455288,-0.5574784096000001,-9.3455393472,2.729371226400001,0.66555246,-39.83748649,5.30394107,,,
imu,372.46376,-0.4671573368000001,-9.3210150824,2.7120247952,0.9870595899999999,-36.45044626,4.19735839,,,
imu,372.472231,-0.4025568344,-9.346735652800001,2.7550917968,1.65998149,-33.34752861,2.97862206,,,
imu,372.480702,-0.3164228312,-9.443636406400001,2.7879902008,2.53477996,-30.45396444,2.27579252,,,
imu,372.489173,-0.2009793408,-9.541733465600002,2.833449813600001,3.31985551,-27.89686122,1.81970101,,,
imu,372.497644,-0.1363788384,-9.605735815200001,2.870535287200001,3.67874719,-25.8631417,1.54305534,,,
imu,372.506115,-0.13458438,-9.634447149600001,2.880105732000001,3.69370101,-24.27803678,0.60844159,,,
imu,372.514587,-0.1357806856,-9.576426328,2.8675445232,3.34976315,-22.54339366,-0.14672632,,,
imu,372.523058,-0.1597067976,-9.519601812000001,2.838235036,2.57964142,-20.7788429,-0.8346020399999998,,,
imu,372.531529,-0.1591086448,-9.463973601600001,2.81131816,1.97401171,-19.11149197,-1.59724686,,,
imu,372.54,-0.173464312,-9.419710294400002,2.784401284,1.17398234,-17.4890025,-2.78607555,,,
imu,372.548471,-0.2255036056,-9.3838211264,2.7646622416,0.76275229,-15.76183629,-3.75807385,,,
imu,372.556942,-0.2883096496000001,-9.364680236800002,2.7299693792,0.4861066199999999,-13.98980862,-4.5431494,,,
imu,372.565414,-0.3624805968,-9.2964908176,2.694678364,0.65059864,-11.91122764,-4.93942563,,,
imu,372.573885,-0.442633072,-9.245647829600001,2.678528238400001,0.9197674,-9.64572391,-5.22354821,,,
imu,372.582356,-0.5263744640000001,-9.237273690400002,2.661779960000001,1.56278166,-6.90169794,-5.38804023,,,
imu,372.591166,-0.5670488544000001,-9.272564705600002,2.634863084,2.62450288,-3.8062572,-5.20111748,,,
imu,372.599977,-0.5724322296000001,-9.342548583200001,2.641442764800001,3.55163972,-0.7706317400000002,-4.954379449999999,,,
imu,372.608787,-0.5592728680000001,-9.46576806,2.6396483064,4.5834533,2.07807097,-4.976810179999999,,,
imu,372.617597,-0.5156077136000001,-9.523190728800001,2.6240963336,5.69751289,4.95668132,-5.18616366,,,
imu,372.626407,-0.4970649768000001,-9.577024480800002,2.634264931200001,6.40781934,7.745568749999999,-5.305794219999999,,,
imu,372.635218,-0.4587831976000001,-9.620091482400001,2.624694486400001,6.90877231,10.30267197,-5.500193879999999,,,
imu,372.644028,-0.4462219888000001,-9.639232372,2.6223018752,6.96858759,12.77752918,-5.75440882,,,
imu,372.652838,-0.4821111568000001,-9.6494009696,2.6163203472,6.96858759,15.05050982,-6.031054489999999,,,
imu,372.661649,-0.5718340768000001,-9.661364025600001,2.620507416800001,6.43772698,17.53284394,-6.36751544,,,
imu,372.670459,-0.6866794144,-9.6799067624,2.6073480552,5.5554516,20.44136193,-6.397423079999999,,,
imu,372.679269,-0.7949450712000001,-9.675719692800001,2.580431179200001,4.5086842,24.01532491,-6.315177069999999,,,
imu,372.68808,-0.9486703408000001,-9.7074217912,2.564879206400001,3.34976315,28.02294867,-6.711453300000001,,,
imu,372.69689,-1.0820584152,-9.722973764,2.524204816,2.22074974,32.59134068,-7.66102087,,,
imu,372.7057,-1.1699868768,-9.714599624800002,2.4960916344,1.0693056,37.8401315,-8.939572479999999,,,
imu,372.71451,-1.2076705032,-9.708019944000002,2.4685766056,-0.05970781,43.22350669999999,-10.59196959,,,
imu,372.723321,-1.2160446424,-9.715795930400002,2.4117520896,-0.69524516,48.89848138999999,-12.468674,,,
imu,372.732131,-1.2100631144,-9.702038416,2.374666616,-1.04665993,54.58093298999999,-14.7865161,,,
imu,372.740941,-1.1167512776,-9.6876827488,2.3603109488,-1.37564397,60.00169274,-17.18660421,,,
imu,372.749752,-1.0431784832,-9.6505972752,2.304084585600001,-1.39059779,64.95140716,-19.75866125,,,
imu,372.758562,-0.9666149248000001,-9.587193078400002,2.2448674584,-1.29339796,69.56466063,-22.3381952,,,
imu,372.767372,-0.8637326432000001,-9.599156134400001,2.2502508336,-0.97189083,74.06576045,-24.54388365,,,
imu,372.776182,-0.7195778184000001,-9.668541859200001,2.2753732512,-0.64290679,78.20796859000001,-25.94206582,,,
imu,372.784993,-0.5263744640000001,-9.800733628000001,2.2861400016,-0.5307531400000001,81.90156213,-26.88415648,,,
imu,372.793497,-0.3212080536,-9.797742864000002,2.2544379032,-0.7999219,84.63811119,-27.66175512,,,
imu,372.802001,-0.1154434904,-9.720581152800001,2.2454656112,-1.28592105,86.64939998,-27.9458777,,,
imu,372.810505,0.1064711984,-9.699047652,2.25802682,-1.54013599,87.89056704000001,-27.48230928,,,
imu,372.81901,0.3325729568,-9.743909112,2.296906752,-1.79435093,88.04010524,-27.02621777,,,
imu,372.827514,0.5060372688000001,-9.755872168000002,2.255036056,-2.02613514,87.1129684,-26.36824969,,,
imu,372.836018,0.6603606912000002,-9.7283571392,2.2532415976,-2.60185721,85.83441679,-25.23175937,,,
imu,372.844522,0.8386102256000002,-9.6535880392,2.2681954176,-3.08785636,83.92032783,-23.87096175,,,
imu,372.853027,0.9367072848000002,-9.620689635200002,2.2562323616,-3.28973293,81.28845551,-22.53259486,,,
imu,372.861531,1.0449729416,-9.623680399200001,2.266999112000001,-3.51404023,77.98366129,-21.62788875,,,
imu,372.870035,1.1406773896,-9.666149248000002,2.293915988,-3.38693276,74.49942123000001,-20.67832118,,,
imu,371.371304,,,,,,,64.42959080000001,-9.74747960000002,-3.277618400000004
imu,371.472836,,,,,,,64.47841960000001,-9.100498000000012,-4.669239200000009
imu,371.574399,,,,,,,63.7948164,-9.491128400000015,-4.473924000000007
imu,371.675992,,,,,,,64.0511676,-9.430092400000012,-5.047662400000008
imu,371.777524,,,,,,,64.75918520000002,-9.23477720000001,-4.730275200000012
imu,371.879086,,,,,,,67.1517964,-9.674236400000002,-6.317211200000006
imu,371.980649,,,,,,,64.4051764,-8.075093200000016,-3.704870400000004
imu,372.082242,,,,,,,67.0297244,-9.686443600000016,-5.71905840000001
imu,372.878479,1.2345873792,-9.7283571392,2.3274125448,-3.24487147,70.43198219,-19.78109198,,,
imu,372.886983,1.2710747,-9.720581152800001,2.33279592,-3.16262546,65.878544,-19.15303154,,,
imu,372.895487,1.2764580752,-9.681103068,2.3668906296,-2.87102597,61.392398,-18.48758655,,,
imu,372.903992,1.2507375048,-9.6775141512,2.410555784,-2.78130305,57.01092874,-17.16417348,,,
imu,372.912496,1.2034834336,-9.7128051664,2.4392671184,-2.90841052,52.84628987,-15.49682255,,,
imu,372.921,1.1376866256,-9.720581152800001,2.4637913832,-3.34954821,49.17512705999999,-13.53039522,,,
imu,372.929504,1.0850491792,-9.725964528,2.5014750096,-3.7906859,45.87780975,-11.2723684,,,
imu,372.938008,1.0330098856,-9.740918348000001,2.5445420112,-4.81502257,42.75246137,-9.178833599999999,,,
imu,372.946513,0.998915176,-9.725366375200002,2.5565050672,-5.72720559,39.89628175,-7.361944469999999,,,
imu,372.955017,0.9618297024000001,-9.727758986400001,2.5846182488,-6.65434243,36.9429023,-6.225454149999999,,,
imu,372.963521,0.9558481744000001,-9.690673512800002,2.5894034712,-7.41698725,34.08672268,-5.350655679999999,,,
imu,372.972025,0.9181645480000001,-9.6499991224,2.58701086,-7.85812494,31.21558924,-5.11887147,,,
imu,372.98053,0.8900513664000002,-9.584800467200001,2.5965813048,-8.06000151,28.38931726,-5.193640569999999,,,
imu,372.989034,0.8607418792,-9.519601812000001,2.6127314304,-7.78335584,25.61538365,-5.5151477,,,
imu,372.997477,0.8015247520000001,-9.459786532,2.6163203472,-7.349695059999999,22.90126532,-5.92637775,,,
imu,373.00592,0.7458965416000001,-9.422701058400001,2.645629834400001,-6.74406535,20.27686991,-6.135731229999999,,,
imu,373.014363,0.7022313872,-9.384419279200001,2.6540039736,-5.98889744,17.92164326,-5.94880848,,,
imu,373.022807,0.6567717744000001,-9.353315333600001,2.67673378,-5.30849863,15.89540065,-5.44785551,,,
imu,373.03125,0.6448087184,-9.308453873600001,2.7024543504,-4.747730379999999,14.25795736,-4.78988743,,,
imu,373.039693,0.6466031768,-9.349726416800001,2.7467176576,-4.17948522,12.68032935,-3.95247351,,,
imu,373.048136,0.6543791632000001,-9.419112141600001,2.7951680344,-3.85797809,10.99054769,-3.24216706,,,
imu,373.056579,0.6657440664000001,-9.447823476,2.8244775216,-3.40936349,9.40544277,-2.44213769,,,
imu,373.065023,0.6543791632000001,-9.404756474400001,2.8310572024,-3.13271782,7.89510695,-1.67201596,,,
imu,373.073466,0.6358364264000002,-9.3688673064,2.8490017864,-3.02056417,6.2128022,-1.26826282,,,
imu,373.081909,0.6250696760000001,-9.328192916,2.837636883200001,-2.78130305,4.672558739999999,-0.9018942299999999,,,
imu,373.090352,0.6149010784000001,-9.261199802400002,2.798756951200001,-2.45231901,3.25942275,-0.52057182,,,
imu,373.098795,0.5933675776,-9.173869493600002,2.763465936,-1.98127368,1.8761944,-0.37851053,,,
imu,373.107239,0.5598710208000001,-9.129606186400002,2.7431287408,-1.33825942,0.70231953,-0.2140185099999998,,,
imu,373.115682,0.5162058664000001,-9.1062782272,2.724586004,-0.55318387,-0.3444478700000002,-0.07943412999999988,,,
imu,373.124125,0.4743351704000001,-9.1224283528,2.713221100800001,0.31413769,-1.09961578,-0.15420323,,,
imu,373.132568,0.4486146000000001,-9.1708787296,2.6958746696,1.2936129,-1.64543021,-0.1093417699999999,,,
imu,373.141011,0.4288755576000001,-9.2342829264,2.6695559464,2.31047266,-1.89964515,-0.29626452,,,
imu,373.149455,0.4163143488000001,-9.318622471200001,2.6569947376,3.21517877,-2.12395245,-0.6177716499999999,,,
imu,373.157898,0.4384460024000001,-9.384419279200001,2.6641725712,3.80585466,-2.31835211,-1.11124771,,,
imu,373.166341,0.4605776560000001,-9.448421628800002,2.6450316816,4.60588403,-2.4604134,-1.23835518,,,
imu,373.174784,0.481513004,-9.510031367200002,2.6336667784,5.18908301,-2.4604134,-1.53743158,,,
imu,373.183227,0.5108224912,-9.585996772800002,2.655798432,5.59283615,-2.6847207,-1.86641562,,,
imu,373.191671,0.5407301312,-9.6470083584,2.6611818072,5.7049898,-2.96884328,-1.9262309,,,
imu,373.200133,0.5598710208000001,-9.722973764,2.6845097664,5.66760525,-3.40998097,-1.91875399,,,
imu,373.208595,0.5891805080000001,-9.769031529600001,2.7084358784,5.30123666,-3.71653428,-1.79912343,,,
imu,373.217057,0.6154992312,-9.802528086400002,2.7144174064,4.68813004,-4.2548718,-1.63463141,,,
imu,373.22552,0.6609588440000002,-9.825856045600002,2.729371226400001,3.97034668,-4.987608979999999,-1.57481613,,,
imu,373.233982,0.7177833600000001,-9.803126239200001,2.7030525032,3.17031731,-5.93717655,-1.61220068,,,
imu,373.242444,0.7441020832,-9.7361331256,2.7000617392,2.46001086,-7.170866699999999,-1.86641562,,,
imu,373.250906,0.7458965416000001,-9.664952942400001,2.6982672808,2.01139626,-8.60643342,-2.06829219,,,
imu,373.259369,0.7590559032000002,-9.655980650400002,2.704248808800001,1.7422275,-9.997138679999999,-2.06829219,,,
imu,373.267831,0.8224601,-9.6523917336,2.6845097664,1.88428879,-11.11867518,-1.78416961,,,
imu,373.276293,0.8990236584000001,-9.579417092000002,2.6599855016,1.83942733,-12.86079521,-1.60472377,,,
imu,373.284756,0.9498666464000002,-9.481918185600001,2.634264931200001,2.13850373,-14.89451473,-1.36546265,,,
imu,373.293218,0.9749890640000002,-9.392195265600002,2.584020096,2.61702597,-17.27217211,-1.16358608,,,
imu,373.30168,0.9971207176000002,-9.349128264,2.554112456,3.30490169,-19.82927533,-0.5803870999999998,,,
imu,373.310142,1.0533470808,-9.3586987088,2.529588191200001,4.07502342,-22.37890164,0.3168421000000001,,,
imu,373.318605,1.0880399432,-9.403560168800002,2.512839912800001,4.72551459,-25.16031216,1.26640967,,,
imu,373.327067,1.127518028,-9.430477044800002,2.4936990232,5.27132902,-28.07630706,2.13373123,,,
imu,373.335529,1.094619624,-9.447823476,2.5050639264,5.49563632,-31.13436325,3.11320644,,,
imu,373.343991,0.9223516176000001,-9.5393408544,2.5236066632,5.58535924,-34.14008107,4.01791255,,,
imu,373.352454,0.7046239984,-9.6075302736,2.4954934816,4.99468335,-36.57755373,4.705788269999999,,,
imu,373.360916,0.5413282840000001,-9.6703363176,2.4984842456,3.94043904,-37.76638242,5.72264803,,,
imu,373.369378,0.4276792520000001,-9.718786694400002,2.494297176,2.72917962,-38.40191977,6.634831050000001,,,
imu,373.37784,0.3241988176,-9.7576666264,2.4596043136,1.77213514,-38.66361162,6.99372273,,,
imu,373.386303,0.3361618736,-9.797742864000002,2.455417244,0.65807555,-38.53650415,6.373139200000001,,,
imu,373.394765,0.424688488,-9.800733628000001,2.4631932304,-0.06718472,-38.44678123,5.67778657,,,
imu,373.40323,0.535346756,-9.786976113600002,2.4530246328,-0.67281443,-38.90287274,4.78803428,,,
imu,373.411695,0.6531828576,-9.710412555200001,2.4380708128,-1.12142903,-40.12160907,3.92071272,,,
imu,373.420159,0.7650374312,-9.655382497600002,2.3973964224,-1.09152139,-41.65437562,3.47209812,,,
imu,373.428624,0.8457880592000001,-9.593772759200002,2.3638998656,-0.76253735,-43.52360312,3.74874379,,,
imu,373.437089,0.9103885616000001,-9.533359326400001,2.3555257264,-0.23915365,-45.85639904,4.556250070000001,,,
imu,373.445554,0.9067996448000001,-9.556089132800002,2.4123502424,0.43376825,-48.15928732,5.52824837,,,
imu,373.454019,0.8398065312,-9.657176956,2.454819091200001,0.82256757,-50.9107902,6.694646330000001,,,
imu,373.462484,0.7500836112000001,-9.702636568800001,2.4721655224,1.08425942,-53.40060123,7.75636755,,,
imu,373.470948,0.6394253432000001,-9.7403201952,2.51224176,1.12912088,-55.38198238,8.30218198,,,
imu,373.479413,0.5185984776000001,-9.740918348000001,2.5469346224,0.65059864,-57.10914859,8.43676636,,,
imu,373.487878,0.4193051128000001,-9.718188541600002,2.5714588872,0.17955331,-58.48490003,8.578827650000001,,,
imu,373.496343,0.3253951232,-9.644017594400001,2.5672718176,-0.3513073,-59.24006794,8.83304259,,,
imu,373.504808,0.1932033544,-9.571641105600001,2.564879206400001,-0.8522602699999999,-59.6587749,8.96015006,,,
imu,373.513272,0.09390998960000001,-9.530368562400001,2.5612902896,-1.05413684,-59.44942142,9.124642080000001,,,
imu,373.521737,0.0203371952,-9.4729458936,2.5463364696,-1.09152139,-58.81388407,9.49101067,,,
imu,373.530202,-0.0562263632,-9.389204501600002,2.543345705600001,-0.82982954,-57.66991684,9.78261016,,,
imu,373.538667,-0.1333880744,-9.344941194400002,2.5798330264,-0.44850713,-56.46613433,9.86485617,,,
imu,373.547132,-0.227298064,-9.432869656000001,2.6743411688,0.10478421,-55.08290598,9.670456510000001,,,
imu,373.555596,-0.3355637208,-9.560874355200001,2.70664142,0.5010604399999999,-53.20620157,9.431195390000001,,,
imu,373.564061,-0.4324644744,-9.609324732000001,2.722791545600001,0.52349117,-50.92574402,8.96015006,,,
imu,373.572526,-0.472540712,-9.582407856000001,2.7610733248,-0.007369440000000005,-48.36116389,8.00310558,,,
imu,373.580991,-0.4821111568000001,-9.537546396000002,2.78141052,-0.5008455,-45.49750736,7.06101492,,,
imu,373.589456,-0.4366515440000001,-9.519003659200001,2.793373576,-1.03918302,-42.64880465,5.89461696,,,
imu,373.597921,-0.3702565832000001,-9.471749588000002,2.7568862552,-1.57004363,-40.00197851,4.72074209,,,
imu,373.606731,-0.331974804,-9.381428515200001,2.7263804624,-1.86912003,-37.45982911,3.68892851,,,
imu,373.615541,-0.2936930248,-9.318622471200001,2.7162118648,-1.83921239,-35.21675611,2.67206875,,,
imu,373.624351,-0.2099516328,-9.294098206400001,2.7144174064,-1.30835178,-32.95125238,1.8869932,,,
imu,373.633162,-0.1333880744,-9.285724067200002,2.7072395728,-0.67281443,-31.07454797,1.32622495,,,
imu,373.641972,-0.080750628,-9.342548583200001,2.775428992000001,-0.18681528,-29.58664288,1.07948692,,,
imu,373.650782,-0.005981528000000001,-9.468758824,2.8358424248,0.3739529699999999,-28.330522,0.83274889,,,
imu,373.659593,0.0185427368,-9.531564868,2.8436184112,0.74779847,-27.32113915,0.5561032200000002,,,
imu,373.668403,0.0023926112,-9.555490980000002,2.877713120800001,0.77770611,-26.43886377,0.4215188400000001,,,
imu,373.677213,-0.0005981528000000001,-9.552500216,2.910013372,0.53844499,-25.53415766,0.2495499100000003,,,
imu,373.686023,-0.0017944584,-9.583604161600002,2.9351357896,0.21693786,-24.55468245,0.1074886200000003,,,
imu,372.183774,,,,,,,64.62490600000001,-9.246984400000002,-1.73951120000001
imu,372.285336,,,,,,,65.94328360000002,-9.588786000000017,-2.008069600000006
imu,372.38696,,,,,,,69.2514348,-10.73626280000002,4.058908799999994
imu,372.488461,,,,,,,71.3876948,-10.94378520000001,7.12291599999999
imu,372.590024,,,,,,,72.26661320000001,-11.66401000000001,6.781114399999999
imu,372.691586,,,,,,,71.9370188,-11.32220840000002,7.306023999999988
imu,372.793149,,,,,,,69.6054436,-10.80950600000001,3.399719999999995
imu,372.894711,,,,,,,66.4926076,-8.978426000000006,0.5188207999999972
imu,373.694834,0.008374139200000002,-9.599156134400001,2.941117317600001,-0.17186146,-23.45557668,0.2046884499999999,,,
imu,373.703644,0.03947808480000001,-9.583006008800002,2.948893304,-0.82982954,-22.51348602,0.2046884499999999,,,
imu,373.712454,0.07596540560000001,-9.5184055064,2.9793990968,-1.28592105,-21.64616446,0.1149655300000001,,,
imu,373.721265,0.0747691,-9.528574104,3.007512278400001,-1.71210492,-21.09287312,-0.1317724999999998,,,
imu,373.730075,0.0903210728,-9.565061424800001,2.990764,-1.97379677,-20.50967414,-0.1616801399999999,,,
imu,373.738885,0.08493769760000001,-9.530966715200002,2.9949510696,-2.34764227,-19.89656752,-0.05700339999999993,,,
imu,373.747696,0.06460050240000001,-9.474740352000001,3.0254568624,-2.57194957,-19.30589163,0.10001171,,,
imu,373.756506,0.06041343280000001,-9.4633754488,3.0410088352,-2.56447266,-18.8348463,0.01028879000000016,,,
imu,373.765316,0.0634041968,-9.460982837600001,3.0182790288,-2.40745755,-18.32641642,-0.3859874399999998,,,
imu,373.774126,0.05802082160000001,-9.4286825864,3.0164845704,-2.39250373,-17.99743238,-0.6925407499999998,,,
imu,373.782937,0.0592171272,-9.388606348800002,3.0511774328,-2.31025772,-17.54134087,-1.02152479,,,
imu,373.791747,0.09211553120000002,-9.405354627200001,3.073309086400001,-2.04108896,-17.05534172,-1.41780102,,,
imu,373.800557,0.13458438,-9.401765710400001,3.0691220168,-1.80930475,-16.65906549,-1.39537029,,,
imu,373.809034,0.1860255208,-9.385017432000001,3.084673989600001,-1.80182784,-16.45718892,-1.38789338,,,
imu,373.81751,0.2673743016,-9.3652783896,3.0840758368,-1.86912003,-16.57681948,-1.33555501,,,
imu,373.825986,0.3570972216000001,-9.352717180800001,3.0828795312,-1.86912003,-16.84598824,-1.02152479,,,
imu,373.834462,0.46356842,-9.324005846400002,3.077496156,-1.86912003,-17.4890025,-0.5355256399999999,,,
imu,373.842939,0.4982612824000001,-9.2994815816,3.0721127808,-1.49527453,-18.58810827,0.1074886200000003,,,
imu,373.851415,0.4659610312,-9.313239096000002,3.0840758368,-1.16629049,-19.75450623,0.5710570399999999,,,
imu,373.859891,0.4210995712,-9.330585527200002,3.0643367944,-0.79244499,-21.04053475,0.9224718100000002,,,
imu,373.868367,0.3612842912,-9.312042790400001,3.05057928,-0.44850713,-22.18450198,1.25893276,,,
imu,373.876844,0.3080486920000001,-9.283331456,3.0332328488,0.19450713,-22.70788568,1.65520899,,,
imu,373.88532,0.2584020096,-9.274957316800002,3.029045779200001,0.94219813,-23.096685,1.74493191,,,
imu,373.893796,0.2243073,-9.272564705600002,3.0272513208,1.53287402,-23.23126938,1.90942393,,,
imu,373.902272,0.1782495344,-9.277948080800002,3.011699348,2.116073,-23.37333067,1.82717792,,,
imu,373.910749,0.1453511304,-9.2689757888,3.0093067368,2.57964142,-23.41071522,1.47576315,,,
imu,373.919225,0.1902125904,-9.274957316800002,3.012895653600001,3.10302512,-23.15650028,1.2888404,,,
imu,373.927701,0.2165313136,-9.289312984,3.0111011952,3.36471697,-23.35837685,0.8551796199999999,,,
imu,373.936177,0.2386629672,-9.3174261656,3.0045215144,3.75351629,-23.55277651,0.4065650199999999,,,
imu,373.944654,0.2733558296,-9.3622876256,3.012895653600001,3.79837775,-23.82194527,0.2271191799999999,,,
imu,373.95313,0.305057928,-9.403560168800002,3.015288264800001,4.05259269,-24.33037515,0.2794575500000001,,,
imu,373.961606,0.3511156936,-9.464571754400001,3.049981127200001,4.16474634,-24.98086632,0.2869344599999999,,,
imu,373.970009,0.4127254320000001,-9.5172092008,3.0434014464,4.03016196,-25.80332642,0.38413429,,,
imu,373.978485,0.4605776560000001,-9.516611048000001,3.029045779200001,3.93296213,-26.73794017,0.9374256299999999,,,
imu,373.986961,0.4659610312,-9.492086783200001,3.0158864176,4.00773123,-27.96415341,1.46080933,,,
imu,373.995437,0.4641665728000001,-9.512423978400001,2.997941833600001,4.05259269,-29.34738176,1.87951629,,,
imu,374.003914,0.5221873944000001,-9.553696521600001,3.0063159728,4.26942308,-30.53621045,2.31317707,,,
imu,374.012379,0.6125084672000001,-9.5590798968,2.9985399864,4.47877656,-32.04654627,2.79169931,,,
imu,374.020843,0.663949608,-9.520798117600002,2.971024957600001,4.22456162,-33.97558905,3.33003683,,,
imu,374.029308,0.6806978864000002,-9.470553282400001,2.9500896096,4.01520814,-36.24109278,3.86837435,,,
imu,374.037773,0.6699311360000001,-9.423897364000002,2.9183875112,3.73856247,-38.7234269,4.384281140000001,,,
imu,374.046238,0.6711274416,-9.452010545600002,2.938126553600001,3.48434753,-41.14594574,4.952526300000001,,,
imu,374.054703,0.741709472,-9.479525574400002,2.891470635200001,3.29742478,-43.47874166,5.50581764,,,
imu,374.063167,0.7584577504000002,-9.434065961600002,2.87113344,3.00582529,-46.24519836,5.96938606,,,
imu,374.071632,0.7201759712000001,-9.447225323200001,2.8866854128,2.72917962,-49.12380871,6.27593937,,,
imu,374.080097,0.7925524600000001,-9.502853533600002,2.88608726,2.54973378,-51.71829648,6.90399981,,,
imu,374.088562,0.8589474208000002,-9.526779645600001,2.8603666896,2.407672489999999,-54.40998408,8.02553631,,,
imu,374.097027,0.9103885616000001,-9.5590798968,2.8585722312,2.14598064,-57.39327117,9.102211350000001,,,
imu,374.105491,0.9648204664000001,-9.583006008800002,2.85617962,1.83942733,-60.72049612,10.01439437,,,
imu,374.113956,1.0862454848,-9.576426328,2.8149070768,1.65250458,-64.23464381999999,11.10602323,,,
imu,374.122421,1.1598182792,-9.51062952,2.746119504800001,1.31604363,-68.37685196,12.0555908,,,
imu,374.130886,1.172379488,-9.463973601600001,2.733558296,1.09173633,-72.84804414,12.96029691,,,
imu,374.139351,1.1526404456,-9.489096019200002,2.7078377256,0.97958268,-77.38652850999999,13.73041864,,,
imu,374.147816,1.0252338992,-9.481918185600001,2.6432372232,0.82256757,-81.88015141999999,14.5977402,,,
imu,374.15628,0.8583492680000002,-9.457992073600002,2.6324704728,0.7702292,-85.96254427999999,15.6445076,,,
imu,374.164745,0.666940372,-9.452010545600002,2.661779960000001,1.02444414,-89.22247703999999,16.68379809,,,
imu,374.17321,0.4868963792000001,-9.512423978400001,2.6629762656,1.40576655,-91.32348875,17.65579639,,,
imu,374.181675,0.35889168,-9.489694172,2.6366575424,1.62259694,-92.99831658999999,18.60536396,,,
imu,374.19014,0.2045682576000001,-9.5447242296,2.689893141600001,1.89924261,-94.03760707999999,19.50259316,,,
imu,374.198604,0.05802082160000001,-9.572837411200002,2.6863042248,2.09364227,-94.80025189999999,19.79419265,,,
imu,374.207069,-0.1244157824,-9.552500216,2.6725467104,2.14598064,-95.12923593999999,19.3081935,,,
imu,374.215535,-0.320011748,-9.5447242296,2.704248808800001,2.36281103,-94.67314443,18.54554868,,,
imu,374.224001,-0.4665591840000001,-9.517807353600002,2.7102303368,2.24318047,-93.34225445,17.73056549,,,
imu,374.232467,-0.6160973840000001,-9.470553282400001,2.7221933928,2.25813429,-91.33096565999999,16.75856719,,,
imu,374.240934,-0.7764023344000002,-9.450814240000001,2.754493644000001,2.16093446,-89.04303119999999,15.33795429,,,
imu,374.2494,-0.9462777296000001,-9.4412437952,2.7676530056,2.09364227,-85.88029827,14.09678723,,,
imu,374.257866,-1.0443747888,-9.4203084472,2.7897846592,2.00391935,-82.20913546,13.07992747,,,
imu,374.266332,-1.1089752912,-9.402363863200002,2.7826068256,2.14598064,-77.96972749,12.09297535,,,
imu,374.274798,-1.1610145848,-9.4041583216,2.7879902008,2.42262631,-73.52096603999999,10.86676211,,,
imu,374.283264,-1.2118575728,-9.450216087200001,2.8340479664,2.99087147,-69.04977385999999,9.52091831,,,
imu,374.29173,-1.2298021568,-9.468160671200001,2.841225800000001,3.14788658,-64.24959763999999,8.160120690000001,,,
imu,374.300196,-1.1879314608,-9.506442450400002,2.8902743296,3.47687062,-59.55409816,7.07596874,,,
imu,374.308662,-1.1622108904,-9.571641105600001,2.9303505672,3.54416281,-55.0978598,6.05910898,,,
imu,374.317128,-1.1765665576,-9.599156134400001,2.914798594400001,3.35724006,-50.79115964,4.974957030000001,,,
imu,374.325594,-1.190324072,-9.572239258400002,2.8986484688,2.96096383,-46.49193639,4.02538946,,,
imu,374.33406,-1.2028852808,-9.502853533600002,2.898050316,2.46001086,-42.13289786,2.97114515,,,
imu,374.342527,-1.2537282688,-9.463973601600001,2.8986484688,2.02635008,-37.90844371,1.77483955,,,
imu,374.350993,-1.3476382584,-9.485507102400002,2.901041080000001,1.82447351,-33.73632793,0.5187186700000002,,,
imu,374.359459,-1.45052054,-9.520199964800002,2.8962558576,1.64502767,-29.39972013,-0.8046943999999998,,,
imu,374.367925,-1.567160336,-9.5602762024,2.9034336912,1.46558183,-24.40514425,-1.94118472,,,
imu,374.376391,-1.6736315344,-9.636839760800001,2.9237708864,1.57773548,-19.01429214,-2.87579847,,,
imu,374.384857,-1.8016362336,-9.6535880392,2.9171912056,1.31604363,-13.36174818,-3.81788913,,,
imu,374.393323,-1.911098196,-9.5985579816,2.9261634976,1.15902852,-7.0960976,-4.49081103,,,
imu,374.401789,-1.9667264064,-9.5602762024,2.9327431784,1.05435178,-0.5911859000000002,-5.35813259,,,
imu,374.410255,-1.9822783792,-9.517807353600002,2.9321450256,1.17398234,5.9137258,-6.838560769999999,,,
imu,374.41872,-2.039701048,-9.483712644000002,2.914798594400001,1.39081273,12.53079115,-8.3563735,,,
imu,374.427185,-2.087553272,-9.484908949600001,2.941117317600001,1.54035093,19.35720998,-9.82932477,,,
imu,374.43565,-2.120451676000001,-9.5489112992,2.9506877624,1.56278166,26.48270521,-11.19012239,,,
imu,374.444115,-2.1724909696,-9.5949690648,2.927957956,1.58521239,33.82503083,-12.7677504,,,
imu,374.452579,-2.2329044024,-9.609324732000001,2.910611524800001,1.28613599,41.2795101,-14.49491661,,,
imu,374.461044,-2.3244217808,-9.5698466472,2.8669463704,0.94967504,48.99568121999999,-16.12488299,,,
imu,374.469509,-2.383638908,-9.4938812416,2.81131816,0.65807555,57.17542075999999,-17.59035735,,,
imu,374.477974,-2.3902185888,-9.457393920800001,2.7509047272,0.51601426,65.61685215,-18.99601643,,,
imu,374.486439,-2.3423663648,-9.422701058400001,2.678528238400001,0.50853735,74.11809882,-20.63345972,,,
imu,374.494903,-2.2478582224,-9.422102905600001,2.640844612,0.88985976,82.41746892,-22.66717924,,,
imu,374.503368,-2.1180590648,-9.426888128000002,2.5894034712,1.26370526,90.30560897000001,-25.07474426,,,
imu,372.996188,,,,,,,67.737742,-8.697660400000018,-3.973428800000012
imu,373.097751,,,,,,,64.86905,-7.171760400000005,-3.619420000000007
imu,373.199344,,,,,,,67.798778,-8.026264400000006,-5.975409600000003
imu,373.300876,,,,,,,65.34513079999999,-7.110724400000024,-2.49635760000001
imu,373.402438,,,,,,,66.04094120000002,-7.537976400000024,-3.411897600000002
imu,373.504001,,,,,,,66.9076524,-8.05067880000001,0.897243999999997
imu,373.605563,,,,,,,68.7265252,-8.990633200000019,4.339674399999993
imu,373.707126,,,,,,,70.8017492,-9.161534000000016,6.646835199999989
imu,374.511833,-1.9972321992,-9.405354627200001,2.5116436072,1.70484295,97.70774987,-27.51969383,,,
imu,374.520298,-1.8716201112,-9.403560168800002,2.4787452032,2.25065738,104.87062965,-29.65809009,,,
imu,374.528763,-1.6963613408,-9.398176793600001,2.447043104800001,2.72170271,111.49517191,-31.8338709,,,
imu,374.537227,-1.4846152496,-9.472347740800002,2.389022283200001,3.17779422,117.43183845,-33.74795986,,,
imu,374.545692,-1.2519338104,-9.555490980000002,2.359712796,3.589024269999999,122.56099871,-35.23586495,,,
imu,374.554157,-1.0132708432,-9.609324732000001,2.350740504,3.82080848,126.83031432,-36.75367768,,,
imu,374.562622,-0.8290397808000001,-9.662560331200002,2.3172439472,3.77594702,129.91080124,-38.05466002,,,
imu,374.571087,-0.663949608,-9.708019944000002,2.296906752,3.56659354,132.33332008,-38.68272046,,,
imu,374.579552,-0.4593813504000001,-9.785181655200002,2.3136550304,3.07311748,134.38947033,-38.73505883,,,
imu,374.588016,-0.2655798432,-9.824061587200001,2.3100661136,2.51234923,135.69792958,-38.08456766,,,
imu,374.596481,-0.1327899216,-9.8061170032,2.2508489864,1.80951969,135.99700598,-37.37426121,,,
imu,374.604946,0.01495382,-9.768433376800001,2.234100708,1.30108981,135.74279104,-36.76115459,,,
imu,374.613411,0.206362716,-9.708019944000002,2.2394840832,0.8823828499999999,134.95771549,-36.14804796999999,,,
imu,374.622325,0.3864067088000001,-9.6224840936,2.2119690544,0.55339881,133.3202722,-35.58727972,,,
imu,374.631238,0.5742266880000001,-9.6428212888,2.2981030576,0.9646288599999999,131.09962993,-35.04146529,,,
imu,374.640152,0.7943469184000002,-9.718786694400002,2.3423663648,0.7702292,128.15372739,-35.02651147,,,
imu,374.649066,0.9205571592,-9.7337405144,2.335786684,0.6954601,124.24330346,-34.79472725999999,,,
imu,374.65798,0.9827650504000001,-9.658971414400002,2.404574256,0.23189168,119.88426493,-34.20405136999999,,,
imu,374.666893,1.0844510264,-9.684093832000002,2.487717495200001,-0.26906129,115.44298039,-32.91802285,,,
imu,374.675807,1.133499556,-9.6296619272,2.4649876888,-0.7251528,110.71009636,-31.0114108,,,
imu,374.684721,1.0868436376,-9.564463272000001,2.4530246328,-1.12142903,105.59588992,-29.29919841,,,
imu,374.693635,1.0491600112,-9.482516338400002,2.4889138008,-1.4728438,100.71346769,-27.54212456,,,
imu,374.702549,1.0395895664,-9.530368562400001,2.5535143032,-1.39059779,96.05535276,-25.53831268,,,
imu,374.711462,1.0778713456,-9.602745051200001,2.576244109600001,-1.26349032,91.64397586,-23.6092699,,,
imu,374.720376,1.1113679024,-9.605735815200001,2.60196468,-1.24105959,86.89613801,-22.43539503,,,
imu,374.72929,1.0934233184,-9.576426328,2.6486205984,-1.21115195,81.75202393000001,-21.92696515,,,
imu,374.738204,1.1191438888,-9.61530626,2.7263804624,-1.24105959,76.76492496,-20.80542865,,,
imu,374.747118,1.1819499328,-9.66016772,2.7526991856,-1.42050543,71.97970256,-19.33247738,,,
imu,374.756031,1.1592201264,-9.6009505928,2.739539824,-1.65976655,66.67109646,-18.32309453,,,
imu,374.764945,1.0712916648,-9.507040603200002,2.7467176576,-1.81678166,61.31015198999999,-17.43334224,,,
imu,374.773859,0.9367072848000002,-9.437654878400002,2.7682511584,-2.00370441,56.18846864,-16.22955973,,,
imu,374.782773,0.7859727792000001,-9.429878892000001,2.7556899496,-1.98875059,51.86681466,-14.43510133,,,
imu,374.791686,0.6777071224000001,-9.443038253600001,2.7562881024,-2.1457657,48.25546713,-12.57335074,,,
imu,374.8006,0.6143029256000001,-9.46576806,2.764064088800001,-2.10838115,44.98805746,-11.00319964,,,
imu,374.809514,0.5736285352000001,-9.489694172,2.783204978400001,-1.68967419,41.93000127,-9.78446331,,,
imu,374.818428,0.5455153536,-9.485507102400002,2.804140326400001,-1.31582869,38.93176036,-9.18631051,,,
imu,374.826835,0.5072335744,-9.481918185600001,2.8167015352,-0.9644139199999999,36.00081163999999,-8.93209557,,,
imu,374.835243,0.4695499480000001,-9.509433214400001,2.8406276472,-0.58309151,33.23435494,-8.84984956,,,
imu,374.843651,0.4605776560000001,-9.527377798400002,2.868142676,-0.44850713,30.56509807,-8.655449899999999,,,
imu,374.852058,0.4605776560000001,-9.554294674400001,2.88608726,-0.37373803,28.09024086,-8.11711238,,,
imu,374.860466,0.4498109056,-9.538742701600002,2.8932650936,-0.36626112,25.76492185,-7.474098119999999,,,
imu,374.868873,0.4354552384000001,-9.519003659200001,2.898050316,-0.33635348,23.61157177,-6.532007459999999,,,
imu,374.877281,0.4258847936,-9.489096019200002,2.8944613992,-0.6279529699999999,21.67505208,-5.260932759999999,,,
imu,374.885689,0.4037531400000001,-9.460384684800001,2.877713120800001,-0.77001426,19.55908655,-4.10948862,,,
imu,374.894096,0.3876030144000001,-9.420906600000002,2.874124204,-0.83730645,17.69733596,-3.26459779,,,
imu,374.902504,0.3798270280000001,-9.403560168800002,2.880105732000001,-0.7550604399999999,15.98512357,-2.45709151,,,
imu,374.910911,0.3570972216000001,-9.4215047528,2.889078024,-0.5980453299999999,14.20561899,-1.80660034,,,
imu,374.919319,0.3355637208,-9.447823476,2.8854891072,-0.28401511,12.61303716,-1.27573973,,,
imu,374.927727,0.3295821928000001,-9.455001309600002,2.8986484688,0.05244583999999999,11.11017825,-1.04395552,,,
imu,374.936134,0.323002512,-9.4526086984,2.9159949,0.28423005,9.7269499,-0.7000176599999999,,,
imu,374.944542,0.3122357616,-9.434065961600002,2.9231727336,0.3889067899999999,8.418490649999999,-0.6102947399999998,,,
imu,374.952949,0.3134320672,-9.433467808800001,2.921976428000001,0.65807555,7.27452342,-0.6102947399999998,,,
imu,374.961357,0.2996745528,-9.439449336800001,2.9333413312,0.94967504,6.272617479999999,-0.40841817,,,
imu,374.969765,0.3074505392,-9.457992073600002,2.9482951512,1.20388998,5.30061918,-0.2140185099999998,,,
imu,374.978172,0.3176191368,-9.502853533600002,2.9656415824,1.45062801,4.32114397,-0.11681868,,,
imu,374.98658,0.3259932760000001,-9.508835061600001,2.9506877624,1.40576655,3.53606842,-0.28878761,,,
imu,374.994987,0.3271895816000001,-9.4801237272,2.966837888,1.21136689,2.66874686,-0.4458027199999999,,,
imu,375.003395,0.3367600264,-9.4412437952,2.9692304992,1.07678251,2.01077878,-0.5355256399999999,,,
imu,375.011802,0.3553027632,-9.435262267200002,2.971024957600001,1.1440747,1.29299542,-0.5056179999999999,,,
imu,375.02021,0.3421434016,-9.422102905600001,2.963248971200001,1.04687487,0.4331507699999997,-0.63272547,,,
imu,375.028646,0.323002512,-9.3963823352,2.963847124,0.9197674,-0.1051867500000001,-0.7299252999999999,,,
imu,375.037081,0.3080486920000001,-9.3796340568,2.9752120272,0.68050628,-0.71829337,-1.18601681,,,
imu,375.045517,0.281131816,-9.388606348800002,2.971024957600001,0.58330645,-1.07718505,-1.31312428,,,
imu,375.053952,0.260196468,-9.376045140000002,2.9644452768,0.7253677399999999,-1.37626145,-1.53743158,,,
imu,375.062541,0.2314851336,-9.3628857784,2.971024957600001,0.9272443100000001,-1.61552257,-1.86641562,,,
imu,375.070976,0.1818384512,-9.3622876256,2.9764083328,1.00201341,-1.712722400000001,-2.04586146,,,
imu,375.079412,0.1411640608,-9.3652783896,2.969828652,1.28613599,-1.52579965,-2.18792275,,,
imu,375.087847,0.1339862272,-9.358100556000002,2.980595402400001,1.51044329,-1.12204651,-2.32250713,,,
imu,375.096283,0.1423603664,-9.3718580704,2.996147375200001,1.72727368,-0.7108164600000002,-2.56176825,,,
imu,375.104719,0.2051664104,-9.415523224800001,3.0039233616,2.01887317,-0.3668786000000002,-2.77859864,,,
imu,375.113154,0.2793373576,-9.402363863200002,3.0069141256,2.27308811,-0.25472495,-3.10758268,,,
imu,375.12159,0.331974804,-9.347333805600002,3.0182790288,2.33290339,-0.45660152,-3.55619728,,,
imu,375.130025,0.3834159448,-9.332978138400001,3.0344291544,2.28804193,-1.12204651,-3.72816621,,,
imu,375.138461,0.4205014184,-9.346137500000001,3.0451959048,2.31047266,-1.60804566,-3.75807385,,,
imu,375.146896,0.4270810992000001,-9.3622876256,3.0703183224,2.34785721,-2.51275177,-3.74312003,,,
imu,375.155332,0.4085383624000001,-9.3993730992,3.0697201696,2.48244159,-3.40998097,-3.48890509,,,
imu,375.163768,0.385808556,-9.398774946400001,3.053570044,2.54973378,-4.33711781,-3.30945925,,,
imu,375.172203,0.3576953744,-9.398774946400001,3.0511774328,2.7142258,-4.95022443,-3.20478251,,,
imu,375.180639,0.3188154424,-9.367671000800001,3.051775585600001,2.89367164,-5.70539234,-3.26459779,,,
imu,375.189074,0.305057928,-9.3658765424,3.065533100000001,3.25256332,-6.325975870000001,-3.25712088,,,
imu,375.19751,0.2697669128,-9.420906600000002,3.0703183224,3.7609932,-6.954036309999999,-3.30945925,,,
imu,375.205945,0.2799355104,-9.4412437952,3.056560808,4.03016196,-7.529758380000001,-3.5711511,,,
imu,375.214381,0.2542149400000001,-9.3963823352,3.044597752,4.52363802,-8.34474157,-3.88518132,,,
imu,375.222816,0.2225128416,-9.347333805600002,3.065533100000001,4.91243734,-9.24197077,-4.19173463,,,
imu,375.231285,0.2344758976,-9.3718580704,3.0320365432,5.46572868,-9.690585369999999,-3.92256587,,,
imu,375.239754,0.2231109944,-9.3622876256,2.9973436808,5.98163547,-10.26630744,-3.25712088,,,
imu,375.248222,0.2105497856,-9.3138372488,2.9722212632,6.3779117,-10.82707569,-2.45709151,,,
imu,375.256691,0.2165313136,-9.328791068800001,2.9722212632,7.14803343,-11.47756686,-2.09072292,,,
imu,375.26516,0.2404574256,-9.3802322096,2.9375284008,7.85833988,-12.21030404,-1.89632326,,,
imu,375.273628,0.2745521352,-9.4041583216,2.9153967472,8.561169419999999,-13.09257942,-1.55986231,,,
imu,375.282097,0.3451341656,-9.4203084472,2.924369039200001,8.97239947,-14.02719317,-1.47013939,,,
imu,375.290566,0.4037531400000001,-9.376045140000002,2.8675445232,9.413537159999999,-15.50762135,-1.50752394,,,
imu,375.299034,0.4809148512,-9.348530111200002,2.8268701328,9.80233648,-17.18244919,-1.3280781,,,
imu,375.307503,0.5407301312,-9.3126409432,2.792177270400001,10.24347417,-19.21616871,-0.96918642,,,
imu,375.315971,0.6095177032000001,-9.343744888800002,2.778419756,10.81171933,-21.55644154,-0.5803870999999998,,,
imu,375.32444,0.7399150136000001,-9.373054376,2.75150288,11.35005685,-24.01634493,-0.01961884999999985,,,
imu,373.809848,,,,,,,72.2788204,-9.149326800000024,7.440303199999998
imu,373.91022,,,,,,,73.25539640000001,-9.173741200000007,7.660032799999994
imu,374.011813,,,,,,,74.878954,-9.600993200000008,9.29579759999999
imu,374.120974,,,,,,,79.09043799999999,-10.8217132,8.538951199999989
imu,374.214938,,,,,,,81.6417428,-11.39545160000002,12.5184984
imu,374.316501,,,,,,,91.49295319999999,-11.74946040000002,11.090256
imu,374.418063,,,,,,,93.3972764,-11.21234360000001,12.3353904
imu,374.519656,,,,,,,93.6902492,-11.07806440000001,11.5663368
imu,375.332909,0.8703123240000001,-9.374250681600001,2.7102303368,11.85848673,-27.10430876,0.6607799600000002,,,
imu,375.341377,0.9456795768000001,-9.379035904000002,2.6581910432,12.30710133,-30.86519449,1.4383786,,,
imu,375.349846,0.9905410368000002,-9.385017432000001,2.583421943200001,12.84543885,-35.12703319,2.17111578,,,
imu,375.358315,0.9714001472000001,-9.396980488,2.5050639264,13.69780659,-39.31410279,3.61415941,,,
imu,375.366783,0.9020144224000001,-9.440047489600001,2.461398772,14.39315922,-43.18714217,5.61049438,,,
imu,375.375252,0.8302360864000001,-9.478329268800001,2.4057705616,15.1258964,-46.69381296,7.36756823,,,
imu,375.38372,0.7381205552000002,-9.528574104,2.371675852,15.76143375,-49.87897662,9.0648268,,,
imu,375.392189,0.6418179544000001,-9.638634219200002,2.36270356,16.13527925,-52.81740225,10.62750099,,,
imu,375.400658,0.5646562432000001,-9.758862932000001,2.3633017128,16.45678638,-55.06795216,11.71165294,,,
imu,375.409126,0.4575868920000001,-9.842006171200001,2.3585164904,16.09041779,-57.0418564,12.39205175,,,
imu,375.417595,0.3206099008000001,-9.8946436176,2.3381792952,15.29038842,-58.37274638,12.86309708,,,
imu,375.426064,0.215335008,-9.866530436000001,2.3022901272,14.25109793,-59.19520648,13.24441949,,,
imu,375.434525,0.116639796,-9.8294449624,2.2891307656,13.18937671,-59.56905198,13.35657314,,,
imu,375.442986,0.05084298800000001,-9.8061170032,2.2741769456,12.20242459,-59.55409816,13.06497365,,,
imu,375.451447,-0.0107667504,-9.812098531200002,2.2568305144,11.15565719,-59.25502176,12.5789745,,,
imu,375.459908,-0.08254508640000002,-9.8061170032,2.210174596,10.2659049,-58.96342227,11.73408367,,,
imu,375.468369,-0.1477437416,-9.728955292000002,2.1665094416,9.705136649999998,-58.15591599,10.74713155,,,
imu,375.47683,-0.215335008,-9.692467971200001,2.180266956,9.27147587,-57.08671786,9.85737926,,,
imu,375.485291,-0.2225128416,-9.7301515976,2.1689020528,8.92753801,-56.01751973,8.90033478,,,
imu,375.493752,-0.2476352592,-9.7474980288,2.1132738424,8.673323069999999,-54.8735525,7.69655227,,,
imu,375.502213,-0.2613927736,-9.7163940832,2.1072923144,8.538738689999999,-53.60995471,6.57501577,,,
imu,375.510674,-0.2338777448,-9.711608860800002,2.133611037600001,8.0228319,-52.30149546,5.737601850000001,,,
imu,375.519135,-0.2548130928,-9.787574266400002,2.1659112888,7.61160185,-50.92574402,5.26655652,,,
imu,375.527596,-0.2398592728,-9.897036228800001,2.1910337064,6.99101832,-49.46026966,5.33384871,,,
imu,375.536057,-0.1926052016,-9.947879216800002,2.210174596,5.99658929,-47.68824199,5.715171119999999,,,
imu,375.544518,-0.1214250184,-9.9747960928,2.2352970136,4.59093021,-46.11809089,6.133878080000001,,,
imu,375.552979,-0.0382817792,-9.9747960928,2.219146888,3.45443989,-44.91430838,6.260985550000001,,,
imu,375.56144,-0.0125612088,-9.9167752712,2.180266956,2.28804193,-44.01707918,6.133878080000001,,,
imu,375.569901,-0.04725407120000001,-9.8270523512,2.1371999544,1.62259694,-43.21704981,6.0740628,,,
imu,375.578362,-0.04785222400000001,-9.759461084800002,2.1371999544,1.15155161,-42.11794404,5.954432239999999,,,
imu,375.586823,-0.05562821040000001,-9.725964528,2.133611037600001,1.06182869,-41.06369973,5.7749864,,,
imu,375.595284,-0.03349655680000001,-9.743909112,2.1461722464,1.20388998,-39.97954778,5.61049438,,,
imu,375.603745,-0.002990764,-9.715795930400002,2.150359316,0.9197674,-38.96268802,5.102064499999999,,,
imu,375.612206,-0.003588916800000001,-9.708019944000002,2.1665094416,0.6132140899999999,-38.09536646,4.54877316,,,
imu,375.620667,0.04486146000000001,-9.706225485600001,2.2095764432,0.32909151,-37.17570653,4.331942769999999,,,
imu,375.629128,0.08912476720000001,-9.696655040800001,2.2077819848,0.01506129,-36.36820025,4.159973839999999,,,
imu,375.63796,0.131593616,-9.708019944000002,2.2263247216,-0.55318387,-36.0317393,3.72631306,,,
imu,375.646793,0.1268083936,-9.699645804800001,2.255036056,-1.09152139,-35.67284762,3.38985211,,,
imu,375.655626,0.1489400472,-9.693664276800002,2.2765695568,-1.6971511,-35.31395594,3.36742138,,,
imu,375.664459,0.2171294664,-9.679308609600001,2.3226273224,-2.17567334,-34.95506426,3.52443649,,,
imu,375.673292,0.2249054528,-9.682299373600001,2.338777448000001,-2.62428794,-34.71580314,3.63659014,,,
imu,375.682125,0.1955959656,-9.6470083584,2.323823628,-2.91588743,-34.93263353,3.24779082,,,
imu,375.690957,0.191408896,-9.6039413568,2.3465534344,-3.08037945,-34.73075696,2.9337606,,,
imu,375.69979,0.176455076,-9.574631869600001,2.3579183376,-3.22991765,-34.3868191,2.82908386,,,
imu,375.708623,0.2195220776,-9.5907819952,2.3818444496,-3.24487147,-34.05783506,2.67954566,,,
imu,375.717456,0.3523119992,-9.593174606400002,2.3914148944,-3.17010237,-33.84100467,2.38046926,,,
imu,375.726289,0.451605364,-9.621287788000002,2.420126228800001,-3.27477911,-34.43168056,1.90942393,,,
imu,375.735122,0.5640580904000001,-9.669738164800002,2.4560153968,-3.28225602,-35.26161757,1.47576315,,,
imu,375.743955,0.6274622872000001,-9.66016772,2.4590061608,-3.58880933,-36.74204575,1.19911748,,,
imu,375.752787,0.7441020832,-9.678710456800001,2.461398772,-4.17200831,-38.59631943,1.05705619,,,
imu,375.76162,0.9546518688000002,-9.667943706400001,2.4631932304,-4.47856162,-40.86182316,1.43090169,,,
imu,375.770453,1.1113679024,-9.6733270816,2.4608006192,-4.942130039999999,-44.12923283,1.93185466,,,
imu,375.779286,1.1855388496,-9.743310959200002,2.4805396616,-5.72720559,-48.15181041,2.52253055,,,
imu,375.788119,1.2178391008,-9.714001472000001,2.4488375632,-6.572096419999999,-52.52580276,3.43471357,,,
imu,375.796952,1.2016889752,-9.672130776000001,2.45242648,-7.21511068,-57.13905623,5.19926433,,,
imu,375.805784,1.1652016544,-9.6159044128,2.4261077568,-7.78335584,-61.47566403,7.464768060000001,,,
imu,375.814617,1.0994048464,-9.5148165896,2.395601964,-8.0525246,-65.74497964,9.60316432,,,
imu,375.82345,1.0365988024,-9.444234559200002,2.4027797976,-8.15720134,-69.86475705,11.25556143,,,
imu,375.832283,0.998915176,-9.4077472384,2.3979945752,-7.633817639999999,-73.81256552999999,12.99768146,,,
imu,375.840749,0.8990236584000001,-9.399971252000002,2.4057705616,-6.93846501,-77.57345126,14.13417178,,,
imu,375.849215,0.7470928472,-9.4244955168,2.4129483952,-6.071143449999999,-80.99787604,14.83700132,,,
imu,375.857681,0.5796100632000001,-9.438851184,2.4261077568,-5.14400661,-84.08583986999999,15.60712305,,,
imu,375.866147,0.3744436528,-9.457992073600002,2.4518283272,-4.321546509999999,-86.17189776,16.57912135,,,
imu,375.874613,0.1650901728,-9.457992073600002,2.4619969248,-3.70096298,-87.76447959,17.05016668,,,
imu,375.88308,-0.0323002512,-9.477132963200003,2.5026713152,-2.93831816,-88.34767857,17.46887364,,,
imu,375.891546,-0.2177276192,-9.444832712,2.4936990232,-2.35511918,-88.13084817999999,17.49130437,,,
imu,375.900012,-0.3989679176000001,-9.398774946400001,2.509250996,-1.97379677,-87.35324954,17.10998196,,,
imu,375.908478,-0.5281689224000001,-9.363483931200001,2.527793732800001,-1.42050543,-85.88777517999999,16.45949079,,,
imu,375.916944,-0.6687348304,-9.358100556000002,2.560093984,-0.78496808,-83.95125549,15.53983086,,,
imu,375.92541,-0.8511714344000001,-9.4280844336,2.6264889448,-0.25410747,-81.44649064,14.46315582,,,
imu,375.933876,-1.0025040928,-9.430477044800002,2.627685250400001,0.22441477,-78.35852680999999,13.30423477,,,
imu,375.942342,-1.13649032,-9.4107380024,2.6665651824,0.63564482,-74.50791815999999,12.04063698,,,
imu,375.950808,-1.2638968664,-9.396980488,2.6916876,1.13659779,-70.09654126,10.91910048,,,
imu,375.959274,-1.3799385096,-9.422701058400001,2.7144174064,1.49548947,-65.29636504,9.55830286,,,
imu,375.96774,-1.5001672224,-9.455001309600002,2.739539824,1.89924261,-60.1073895,8.21993597,,,
imu,375.976206,-1.6353497552,-9.4765348104,2.7592788664,2.16093446,-54.49223009,6.79184616,,,
imu,375.984673,-1.767541524,-9.495077547200001,2.772438228,2.39271867,-48.4434099,5.26655652,,,
imu,375.993139,-1.8793960976,-9.491488630400001,2.7664567,2.59459524,-41.99831348,3.64406705,,,
imu,374.621115,,,,,,,87.7941716,-10.71184840000001,13.22651599999999
imu,374.722708,,,,,,,77.28377239999999,-10.93157800000002,11.72503039999999
imu,374.824271,,,,,,,68.958462,-9.063876400000016,4.705890399999991
imu,374.925864,,,,,,,68.4335524,-8.685453200000005,3.692692799999997
imu,375.027396,,,,,,,68.0673364,-7.757706000000009,3.668278399999991
imu,375.128958,,,,,,,70.66747,-8.404687600000017,1.348910399999992
imu,375.238303,,,,,,,68.714318,-8.56338120000002,4.22980959999999
imu,375.339896,,,,,,,71.80273960000001,-10.21135320000002,2.24003599999999
imu,375.441458,,,,,,,72.1567484,-10.8217132,7.464717599999993
imu,375.543021,,,,,,,75.1719268,-12.03022600000001,8.905167199999998
imu,375.644583,,,,,,,78.16269080000001,-13.14108120000002,11.2367424
imu,375.746146,,,,,,,80.8848964,-13.34860360000001,11.44426479999999
imu,375.847678,,,,,,,85.04755159999999,-13.4218468,12.65277759999999
imu,375.949301,,,,,,,91.83475480000001,-13.14108120000002,12.188904
