Type,Timestamp,Data Accelerometer X,Data Accelerometer Y,Data Accelerometer Z,Data Gyroscope X,Data Gyroscope Y,Data Gyroscope Z,Data Magnetometer X,Data Magnetometer Y,Data Magnetometer Z
imu,123.740982,-0.05802082160000001,-9.483712644000002,2.7114266424,0.620691,1.62197946,-2.46456842,,,
imu,123.74946,-0.05981528000000001,-9.465169907200002,2.6892949888,0.76275229,1.47991817,-2.2253073,,,
imu,123.757937,-0.0741709472,-9.456197615200002,2.6719485576,1.10669015,1.45748744,-2.14306129,,,
imu,123.766415,-0.1082656568,-9.440047489600001,2.6516113624,1.52539711,1.39767216,-2.24773803,,,
imu,123.774892,-0.1058730456,-9.444832712,2.6504150568,1.99644244,1.38271834,-2.14306129,,,
imu,123.783555,-0.116639796,-9.454403156800002,2.638452000800001,2.28804193,1.3528107,-2.24773803,,,
imu,123.792032,-0.1160416432,-9.4908904776,2.6312741672,2.6394567,1.39767216,-2.43466078,,,
imu,123.80051,-0.1202287128,-9.527377798400002,2.6420409176,2.72170271,1.24813396,-2.57672207,,,
imu,123.808987,-0.1238176296,-9.5776226336,2.634863084,2.54973378,1.21822632,-2.70382954,,,
imu,123.817465,-0.1160416432,-9.608128426400002,2.634863084,2.40019558,1.18831868,-2.62906044,,,
imu,123.825943,-0.1088638096,-9.631456385600002,2.613329583200001,2.12354991,1.15841104,-2.65896808,,,
imu,123.83442,-0.0980970592,-9.633250844,2.6211055696,1.83942733,1.00139593,-2.6739219,,,
imu,123.842898,-0.09749890640000002,-9.6051376624,2.6306760144,1.52539711,0.8518577299999999,-2.47952224,,,
imu,123.851375,-0.1034804344,-9.584800467200001,2.6294797088,1.31604363,0.8219500899999996,-2.20287657,,,
imu,123.859853,-0.08972292000000001,-9.585996772800002,2.6264889448,1.17398234,0.8144731799999998,-2.06081528,,,
imu,123.86833,-0.03648732080000001,-9.568650341600001,2.641442764800001,1.16650543,0.80699627,-2.03838455,,,
imu,123.876808,-0.04486146000000001,-9.566257730400002,2.648022445600001,1.20388998,0.58268897,-2.0757691,,,
imu,123.885285,-0.107667504,-9.559678049600002,2.6773319328,1.39828964,0.3284740299999998,-2.49447606,,,
imu,123.893763,-0.1028822816,-9.551303910400001,2.67673378,1.56278166,0.3957662200000001,-2.80850628,,,
imu,123.90224,-0.080750628,-9.5698466472,2.658789196,1.84690424,0.4555814999999996,-2.75616791,,,
imu,123.910718,-0.08374139200000001,-9.5812115504,2.6534058208,1.68241222,0.3434278499999999,-2.8234601,,,
imu,123.919195,-0.1010878232,-9.568650341600001,2.6599855016,1.63007385,0.3135202100000001,-3.00290594,,,
imu,123.927673,-0.09929336480000002,-9.562070660800002,2.6653688768,1.76465823,0.3808123999999999,-2.88327538,,,
imu,123.93615,-0.0855358504,-9.568052188800001,2.671350404800001,1.62259694,0.3808123999999999,-2.71878336,,,
imu,123.944613,-0.05802082160000001,-9.5656595776,2.668957793600001,1.49548947,0.4705353199999998,-2.58419898,,,
imu,123.953075,-0.0382817792,-9.554892827200002,2.671350404800001,1.26370526,0.5079198699999998,-2.38979932,,,
imu,123.961537,-0.007177833600000002,-9.496872005600002,2.6803226968,1.16650543,0.5453044199999999,-2.39727623,,,
imu,123.969999,0.0131593616,-9.496872005600002,2.6683596408,1.15155161,0.4256738599999998,-2.48699915,,,
imu,123.978462,0.0203371952,-9.503451686400002,2.6629762656,1.12912088,0.2013665599999999,-2.63653735,,,
imu,123.986924,0.0281131816,-9.481320032800001,2.6599855016,1.10669015,-0.0603252900000002,-3.17487487,,,
imu,123.995386,0.0317020984,-9.489096019200002,2.655798432,1.0693056,-0.3070633200000001,-3.50385891,,,
imu,124.003849,0.0185427368,-9.499862769600002,2.659387348800001,1.37585891,-0.5164168,-3.72816621,,,
imu,124.012311,0.0065796808,-9.5429297712,2.643835376000001,1.77213514,-0.5612782599999999,-3.84779677,,,
imu,124.020773,-0.008972292000000002,-9.584800467200001,2.6450316816,1.71231986,-0.71829337,-3.95995042,,,
imu,124.029235,-0.0173464312,-9.596763523200002,2.6312741672,1.76465823,-0.8753084800000002,-3.98985806,,,
imu,124.037698,-0.0352910152,-9.614708107200002,2.6264889448,2.00391935,-0.90521612,-3.85527368,,,
imu,124.04616,-0.05084298800000001,-9.635045302400002,2.6234981808,1.82447351,-1.03232359,-3.7206893,,,
imu,124.054622,-0.0663949608,-9.6290637744,2.625890792,1.51044329,-1.12204651,-3.83284295,,,
imu,124.063084,-0.101685976,-9.616502565600001,2.6264889448,1.24127453,-1.36878454,-4.02724261,,,
imu,124.071547,-0.1603049504,-9.535153784800002,2.634863084,0.9197674,-1.63047639,-4.244073,,,
imu,124.080009,-0.0137575144,-9.638036066400002,2.6055535968,0.8674290299999999,-1.72019931,-4.25154991,,,
imu,124.088471,-0.1483418944,-9.582407856000001,2.6282834032,0.8674290299999999,-1.53327656,-4.00481188,,,
imu,124.096934,-0.1477437416,-9.627269316000001,2.6396483064,0.68798319,-1.52579965,-3.80293531,,,
imu,124.105396,-0.1507345056,-9.633848996800001,2.6324704728,0.67302937,-1.4884151,-3.9449966,,,
imu,124.113858,-0.1716698536,-9.625474857600002,2.6234981808,0.7104139199999999,-1.36878454,-4.057150249999999,,,
imu,124.12232,-0.203371952,-9.602745051200001,2.6270870976,0.71789083,-1.30896926,-4.02724261,,,
imu,124.130783,-0.2129423968,-9.594370912,2.622900028000001,0.620691,-1.19681561,-4.169303899999999,,,
imu,124.139245,-0.2296906752000001,-9.602146898400001,2.6306760144,0.43376825,-1.22672325,-4.30388828,,,
imu,124.147711,-0.2350740504,-9.623082246400001,2.628881556000001,0.32909151,-1.06223123,-4.25154991,,,
imu,124.156177,-0.2237091472,-9.61530626,2.6402464592,0.11226112,-0.82297011,-4.0945348,,,
imu,124.164643,-0.230288828,-9.599156134400001,2.6336667784,0.007584380000000002,-0.6510011800000002,-3.83284295,,,
imu,124.173109,-0.2207183832,-9.561472508000001,2.6252926392,-0.127,-0.4491246100000001,-3.24964397,,,
imu,124.181575,-0.2129423968,-9.527377798400002,2.6127314304,-0.47841477,-0.3220171400000003,-3.07767504,,,
imu,124.190041,-0.218325772,-9.513022131200001,2.603759138400001,-0.54570696,-0.2248173100000002,-3.03281358,,,
imu,124.198507,-0.2075590216,-9.492086783200001,2.6336667784,-0.32887657,0.06678217999999969,-2.85336774,,,
imu,124.206974,-0.206362716,-9.520798117600002,2.6599855016,-0.08213854000000001,0.2910894799999997,-2.83093701,,,
imu,124.21544,-0.2069608688,-9.5842023144,2.6623781128,-0.07466163,0.4331507699999997,-2.9729983,,,
imu,124.223906,-0.2099516328,-9.6075302736,2.6581910432,-0.15690764,0.5453044199999999,-3.14496723,,,
imu,124.232372,-0.2009793408,-9.571042952800001,2.670752252,-0.35878421,0.7995193599999997,-3.10758268,,,
imu,124.240838,-0.176455076,-9.553696521600001,2.6875005304,-0.32887657,1.13598031,-2.56176825,,,
imu,124.249304,-0.1567160336,-9.545322382400002,2.6880986832,-0.29896893,1.67431783,-2.02343073,,,
imu,124.25777,-0.128602852,-9.562668813600002,2.6833134608,-0.24663056,1.89862513,-1.8514618,,,
imu,124.266236,-0.08374139200000001,-9.555490980000002,2.67673378,-0.52327623,1.90610204,-2.06829219,,,
imu,124.274702,-0.05861897440000001,-9.520199964800002,2.6833134608,-0.49336859,1.94348659,-2.41970696,,,
imu,124.283168,-0.0376836264,-9.501657228000001,2.6851079192,-0.3513073,1.77899457,-2.77859864,,,
imu,124.291634,-0.023926112,-9.495077547200001,2.6833134608,-0.04475399000000001,1.65936401,-3.13001341,,,
imu,124.3001,-0.03648732080000001,-9.509433214400001,2.6761356272,0.0001074699999999984,1.47244126,-3.57862801,,,
imu,124.308567,-0.04187069600000001,-9.519601812000001,2.6701540992,0.14964567,1.39767216,-3.90013514,,,
imu,124.317033,-0.04007623760000001,-9.505844297600001,2.6510132096,0.29170696,1.28551851,-3.92256587,,,
imu,124.325499,-0.05562821040000001,-9.474740352000001,2.661779960000001,0.41881443,1.33037997,-3.77302767,,,
imu,124.333965,-0.06041343280000001,-9.475936657600002,2.6581910432,0.56087572,1.2780416,-3.57862801,,,
imu,124.342431,-0.07118018320000001,-9.495077547200001,2.6563965848,0.68050628,1.24065705,-3.48142818,,,
imu,124.350891,-0.0753672528,-9.503451686400002,2.6546021264,0.67302937,1.17336486,-3.59358183,,,
imu,124.35935,-0.07058203040000001,-9.5148165896,2.6516113624,0.7552753799999999,1.00887284,-3.51881273,,,
imu,124.36781,-0.08733030880000002,-9.526779645600001,2.6629762656,0.56835263,0.9789651999999998,-3.40665908,,,
imu,124.37627,-0.09690075360000001,-9.550705757600001,2.661779960000001,0.41133752,1.06121121,-3.43656672,,,
imu,124.38473,-0.09989151760000002,-9.574631869600001,2.6605836544,0.43376825,1.15841104,-3.36927453,,,
imu,124.393189,-0.1082656568,-9.547116840800001,2.6755374744,0.45619898,1.25561087,-3.36927453,,,
imu,124.401649,-0.1034804344,-9.537546396000002,2.682715308000001,0.3963837,1.3528107,-3.56367419,,,
imu,124.410109,-0.09929336480000002,-9.548313146400002,2.694678364,0.3889067899999999,1.39767216,-3.45899745,,,
imu,124.418568,-0.1004896704,-9.564463272000001,2.700659892,0.5982602699999999,1.61450255,-3.33936689,,,
imu,124.427028,-0.1028822816,-9.574631869600001,2.712622948,0.6281679099999999,1.80890221,-3.46647436,,,
imu,124.435488,-0.1082656568,-9.596763523200002,2.7263804624,0.66555246,1.75656384,-3.86275059,,,
imu,124.443948,-0.1010878232,-9.591978300800001,2.7221933928,0.64312173,1.70422547,-4.04219643,,,
imu,124.452407,-0.0980970592,-9.583006008800002,2.715613712000001,0.43376825,1.73413311,-4.146873169999999,,,
imu,124.460867,-0.09450814240000002,-9.5656595776,2.7138192536,-0.007369440000000005,1.83133294,-4.0945348,,,
imu,124.469327,-0.07895616960000001,-9.5566872856,2.713221100800001,-0.16438455,1.86871749,-3.97490424,,,
imu,124.477787,-0.06400234960000001,-9.514218436800002,2.7257823096,-0.25410747,1.78647148,-3.75059694,,,
imu,124.486246,-0.03588916800000001,-9.453805004000001,2.7054451144,-0.23167674,1.78647148,-3.57862801,,,
imu,124.494706,-0.0233279592,-9.440645642400002,2.7263804624,-0.17933837,1.71170238,-3.51133582,,,
imu,124.503166,-0.0065796808,-9.460384684800001,2.7419324352,-0.11952309,1.41262598,-3.69825857,,,
imu,124.511625,-0.0340947096,-9.485507102400002,2.7556899496,0.21693786,1.15841104,-4.16182699,,,
imu,124.520085,-0.05383375200000001,-9.496872005600002,2.7748308392,0.2468455,0.80699627,-4.47585721,,,
imu,124.528545,-0.0813487808,-9.5004609224,2.798756951200001,0.38142988,0.7696117199999999,-4.41604193,,,
imu,124.537005,-0.1070693512,-9.5237888816,2.8107200072,0.43376825,0.72475026,-4.0945348,,,
imu,124.545464,-0.1190324072,-9.5489112992,2.8184959936,0.44124516,0.9191499199999997,-3.73564312,,,
imu,124.554283,-0.1088638096,-9.539939007200001,2.8131126184,0.32909151,1.17336486,-3.4216129,,,
imu,124.563101,-0.1184342544,-9.5213962704,2.7939717288,0.16459949,1.33785688,-3.41413599,,,
imu,124.571919,-0.1154434904,-9.488497866400001,2.789186506400001,0.30666078,1.33785688,-3.69825857,,,
imu,124.580737,-0.113649032,-9.447225323200001,2.7646622416,0.56835263,1.36028761,-3.91508896,,,
imu,124.589556,-0.1160416432,-9.435262267200002,2.739539824,0.9571519499999999,1.38271834,-4.13191935,,,
imu,124.598374,-0.1447529776,-9.422102905600001,2.729371226400001,1.41324346,1.39019525,-4.31136519,,,
imu,124.607192,-0.1429585192,-9.434065961600002,2.7054451144,1.82447351,1.33037997,-4.44594957,,,
imu,124.61601,-0.1501363528,-9.438851184,2.7024543504,2.42262631,1.52477963,-4.27398064,,,
imu,124.624829,-0.131593616,-9.448421628800002,2.6904912944,2.67684125,1.59954873,-4.16182699,,,
imu,124.633647,-0.1297991576,-9.477731116000001,2.6863042248,2.90862546,1.68179474,-3.98985806,,,
imu,124.642465,-0.1190324072,-9.5219944232,2.671350404800001,2.95348692,1.59954873,-3.98238115,,,
imu,124.651283,-0.1100601152,-9.554892827200002,2.6516113624,2.79647181,1.64441019,-3.84779677,,,
imu,124.660102,-0.1082656568,-9.578220786400001,2.643835376000001,2.72170271,1.78647148,-3.65339711,,,
imu,124.66892,-0.1022841288,-9.593174606400002,2.648022445600001,2.67684125,1.73413311,-3.57862801,,,
imu,124.677738,-0.0753672528,-9.596763523200002,2.6510132096,2.29551884,1.76404075,-3.62348947,,,
imu,124.686556,-0.05682451600000001,-9.6087265792,2.6474242928,2.0413039,1.71917929,-3.47395127,,,
imu,124.695375,-0.05861897440000001,-9.6075302736,2.655200279200001,1.69736604,1.63693328,-3.37675144,,,
imu,124.704193,-0.0550300576,-9.593772759200002,2.6629762656,1.47305874,1.45748744,-3.42908981,,,
imu,124.713011,-0.05443190480000001,-9.604539509600002,2.6725467104,1.28613599,1.39767216,-3.48142818,,,
imu,124.721829,-0.05562821040000001,-9.5985579816,2.6623781128,1.18145925,1.38271834,-3.3468438,,,
imu,124.730648,-0.0502448352,-9.599156134400001,2.655200279200001,1.17398234,1.17336486,-3.18235178,,,
imu,124.739466,-0.0442633072,-9.596763523200002,2.640844612,1.21136689,1.10607267,-3.18235178,,,
imu,124.748284,-0.05682451600000001,-9.589585689600002,2.624694486400001,1.2936129,0.8892422799999999,-3.26459779,,,
imu,124.756762,-0.05802082160000001,-9.587193078400002,2.6115351248,1.43567419,0.94905756,-3.35432071,,,
imu,124.765239,-0.07297464160000001,-9.6039413568,2.5983757632,1.37585891,0.9191499199999997,-3.42908981,,,
imu,124.773717,-0.07716171120000001,-9.6087265792,2.58701086,1.39828964,0.94905756,-3.53376655,,,
imu,124.782194,-0.08254508640000002,-9.609922884800001,2.5738514984,1.28613599,0.9640113799999996,-3.69078166,,,
imu,124.790672,-0.08792846160000001,-9.612315496,2.5636829008,1.2188438,0.98644211,-3.78050458,,,
imu,124.799149,-0.0681894192,-9.6290637744,2.5505235392,1.18893616,0.9789651999999998,-3.7206893,,,
imu,124.807627,-0.0735727944,-9.631456385600002,2.5559069144,1.13659779,1.13598031,-3.66087402,,,
imu,124.816104,-0.07895616960000001,-9.6224840936,2.581029332,0.94967504,1.06121121,-3.93004278,,,
imu,124.824582,-0.06699311360000001,-9.613511801600001,2.583421943200001,0.71789083,1.09111885,-3.92256587,,,
imu,124.833059,-0.0675912664,-9.616502565600001,2.566075512,0.44872207,1.01634975,-4.0197657,,,
imu,124.841537,-0.05682451600000001,-9.6284656216,2.580431179200001,0.20946095,0.8518577299999999,-4.102011709999999,,,
imu,124.850015,-0.0735727944,-9.627867468800002,2.5894034712,0.08235347999999998,0.8219500899999996,-4.29641137,,,
imu,124.858492,-0.0933118368,-9.6051376624,2.5965813048,-0.2017691,0.7471809899999999,-4.44594957,,,
imu,124.86697,-0.08792846160000001,-9.600352440000002,2.5953849992,-0.14943073,0.7397040799999997,-4.43847266,,,
imu,124.875327,-0.09989151760000002,-9.5812115504,2.6043572912,-0.23915365,0.6499811599999998,-4.55810322,,,
imu,124.883805,-0.1309954632,-9.561472508000001,2.624694486400001,-0.32139966,0.5453044199999999,-4.50576485,,,
imu,124.892282,-0.1274065464,-9.593174606400002,2.6157221944,-0.41112258,0.5901658799999998,-4.31136519,,,
imu,124.90076,-0.1369769912,-9.591978300800001,2.6187129584,-0.41112258,0.5527813299999997,-4.25154991,,,
imu,124.909237,-0.1447529776,-9.579417092000002,2.6294797088,-0.41112258,0.4705353199999998,-4.10948862,,,
imu,124.917715,-0.16449202,-9.588987536800001,2.6420409176,-0.5008455,0.6350273399999997,-4.079580979999999,,,
imu,124.926192,-0.1692772424,-9.5812115504,2.6270870976,-0.48589168,0.6724118899999998,-3.84779677,,,
imu,124.93467,-0.1770532288,-9.574631869600001,2.6330686256,-0.56066078,0.76213481,-3.68330475,,,
imu,124.943147,-0.167482784,-9.559678049600002,2.6360593896,-0.60552224,0.9714882899999999,-3.50385891,,,
imu,124.951625,-0.1776513816,-9.5632669664,2.6492187512,-0.77749117,1.06868812,-3.33936689,,,
imu,124.960148,-0.1758569232,-9.5704448,2.6581910432,-0.91955246,1.18831868,-3.17487487,,,
imu,124.968671,-0.1537252696,-9.557285438400001,2.6611818072,-0.9793677399999999,1.52477963,-3.05524431,,,
imu,124.977195,-0.1483418944,-9.541135312800002,2.689893141600001,-1.33825942,1.65936401,-3.07767504,,,
imu,124.985718,-0.1333880744,-9.5459205352,2.6803226968,-1.51022835,1.80890221,-2.93561375,,,
imu,124.994241,-0.1280046992,-9.556089132800002,2.696472822400001,-1.59247436,2.10797861,-2.83093701,,,
imu,125.002765,-0.1238176296,-9.549509452,2.701856197600001,-1.82425857,2.16031698,-2.95056757,,,
imu,125.011288,-0.101685976,-9.519601812000001,2.713221100800001,-1.80182784,2.24256299,-3.07019813,,,
imu,125.019811,-0.09211553120000002,-9.513022131200001,2.736549060000001,-1.9962275,2.31733209,-3.3468438,,,
imu,125.028335,-0.0693857248,-9.516611048000001,2.745521352,-2.0709966,2.41453192,-3.45899745,,,
imu,125.036858,-0.0550300576,-9.541733465600002,2.772438228,-2.12333497,2.45939338,-3.78050458,,,
imu,125.045381,-0.03947808480000001,-9.5698466472,2.796962492800001,-2.10090424,2.49677793,-3.96742733,,,
imu,125.053904,-0.03588916800000001,-9.573435564,2.8119163128,-2.23548862,2.37714737,-4.13191935,,,
imu,125.062428,-0.04007623760000001,-9.554892827200002,2.829262744000001,-2.2953039,2.16031698,-4.27398064,,,
imu,125.070951,-0.04545961280000001,-9.549509452,2.838833188800001,-2.45231901,2.0257326,-4.51324176,,,
imu,125.079474,-0.04845037680000001,-9.5148165896,2.843020258400001,-2.25791935,1.89862513,-4.78988743,,,
imu,125.087998,-0.05682451600000001,-9.481918185600001,2.87113344,-2.02613514,1.62945637,-4.81979507,,,
imu,125.096521,-0.08912476720000001,-9.487899713600001,2.8717315928,-1.88407385,1.25561087,-4.79736434,,,
imu,125.105044,-0.1238176296,-9.504647992000002,2.8783112736,-1.56256672,0.7397040799999997,-4.78988743,,,
imu,125.113568,-0.1477437416,-9.4753385048,2.8753205096,-1.45788998,0.4929660499999997,-4.79736434,,,
imu,125.122091,-0.1680809368,-9.4382530312,2.8884798712,-1.20367504,0.7097964399999999,-4.30388828,,,
imu,125.130614,-0.1579123392,-9.416719530400002,2.8729278984,-0.9793677399999999,0.8219500899999996,-3.44404363,,,
imu,125.139138,-0.1567160336,-9.408345391200001,2.8579740784,-0.83730645,0.7995193599999997,-2.5991528,,,
imu,125.147661,-0.1423603664,-9.395186029600001,2.8466091752,-0.55318387,0.9939190199999999,-2.1505382,,,
imu,125.156184,-0.125612088,-9.3975786408,2.838833188800001,-0.0522309,1.06121121,-1.96361545,,,
imu,125.164587,-0.1142471848,-9.405952780000002,2.8310572024,0.18703022,0.94905756,-2.09072292,,,
imu,125.172989,-0.1214250184,-9.413130613600002,2.8184959936,0.52349117,1.00887284,-2.27016876,,,
imu,125.181392,-0.1411640608,-9.409541696800002,2.81131816,0.78518302,1.02382666,-2.64401426,,,
imu,125.189794,-0.1537252696,-9.408345391200001,2.8101218544,0.91229049,1.21074941,-2.88327538,,,
imu,125.198197,-0.155519728,-9.4286825864,2.7939717288,1.0693056,1.44253362,-2.95056757,,,
imu,125.206599,-0.1303973104,-9.4424401008,2.7897846592,1.47305874,1.84628676,-3.05524431,,,
imu,125.215002,-0.1052748928,-9.468160671200001,2.7772234504,1.43567419,2.20517844,-3.15992105,,,
imu,125.223404,-0.08314323920000001,-9.4699551296,2.784401284,1.4431511,2.39210119,-3.35432071,,,
imu,125.231807,-0.06460050240000001,-9.48072188,2.7861957424,1.25622835,2.45939338,-3.7954584,,,
imu,125.240209,-0.0442633072,-9.502853533600002,2.78141052,1.20388998,2.42200883,-3.93751969,,,
imu,125.248612,-0.0406743904,-9.535153784800002,2.779616061600001,1.20388998,2.64631613,-3.85527368,,,
imu,125.257014,-0.0466559184,-9.536948243200001,2.7778216032,0.9945364999999999,2.69117759,-3.93751969,,,
imu,125.265417,-0.0323002512,-9.520199964800002,2.779616061600001,0.7702292,2.42948574,-4.19921154,,,
imu,125.273819,-0.03289840400000001,-9.504647992000002,2.7778216032,0.85995212,2.27247063,-4.21416536,,,
imu,123.794758,,,,,,,74.878954,-8.123922000000006,9.625392
imu,123.896321,,,,,,,74.7812964,-8.184958000000009,8.892959999999995
imu,123.997883,,,,,,,74.6470172,-7.684462800000014,9.747463999999994
imu,124.107228,,,,,,,75.0376476,-7.733291600000003,9.576563199999999
imu,124.208821,,,,,,,75.2085484,-7.928606800000004,9.674220799999988
imu,124.310353,,,,,,,75.22075560000002,-7.794327600000006,9.222554399999993
imu,124.411915,,,,,,,76.3926468,-8.099507600000022,9.222554399999993
imu,124.513508,,,,,,,75.3306204,-7.782120400000014,9.576563199999999
imu,125.282222,-0.0185427368,-9.499264616800001,2.7766252976,0.9272443100000001,2.19022462,-4.11696553,,,
imu,125.290624,-0.02990764000000001,-9.5004609224,2.7772234504,0.94219813,1.95844041,-4.04219643,,,
imu,125.299027,-0.03110394560000001,-9.514218436800002,2.779616061600001,1.04687487,1.83880985,-3.84779677,,,
imu,125.307429,-0.0514411408,-9.529770409600001,2.7975606456,1.11416706,1.75656384,-3.90761205,,,
imu,125.315832,-0.04007623760000001,-9.5602762024,2.796962492800001,1.11416706,1.54721036,-4.08705789,,,
imu,125.324234,-0.04545961280000001,-9.593772759200002,2.8005514096,1.18145925,1.42010289,-4.146873169999999,,,
imu,125.332637,-0.05203929360000001,-9.6009505928,2.7957661872,1.12164397,1.2780416,-4.22164227,,,
imu,125.341039,-0.0741709472,-9.6051376624,2.7951680344,0.82256757,1.19579559,-4.26650373,,,
imu,125.349442,-0.09510629520000001,-9.620091482400001,2.789186506400001,0.63564482,1.15841104,-4.31136519,,,
imu,125.357844,-0.08852661440000001,-9.6015487456,2.78141052,0.4861066199999999,1.09111885,-4.169303899999999,,,
imu,125.366308,-0.0933118368,-9.5501076048,2.7730363808,0.23936859,1.00887284,-4.19173463,,,
imu,125.374771,-0.09390998960000001,-9.519601812000001,2.79636434,-0.01484635000000001,1.0537343,-4.10948862,,,
imu,125.383235,-0.08374139200000001,-9.5381445488,2.8244775216,-0.06718472,1.1285034,-4.146873169999999,,,
imu,125.391698,-0.0861340032,-9.556089132800002,2.8047384792,-0.14943073,1.00139593,-4.52819558,,,
imu,125.400162,-0.1178361016,-9.514218436800002,2.817897840800001,-0.23167674,0.78456554,-4.73007215,,,
imu,125.408626,-0.1010878232,-9.459786532,2.8340479664,-0.31392275,0.72475026,-4.386134289999999,,,
imu,125.417089,-0.1052748928,-9.439449336800001,2.859768536800001,-0.47841477,0.64250425,-4.012288789999999,,,
imu,125.425553,-0.09151737840000002,-9.453805004000001,2.8765168152,-0.39616876,0.7770886299999997,-3.4216129,,,
imu,125.434016,-0.06460050240000001,-9.461580990400002,2.883096496000001,-0.26906129,0.8892422799999999,-2.85336774,,,
imu,125.44248,-0.02990764000000001,-9.447225323200001,2.889078024,-0.15690764,0.8817653699999997,-2.71878336,,,
imu,125.450943,-0.0167482784,-9.439449336800001,2.8854891072,-0.08213854000000001,0.7920424499999998,-2.80102937,,,
imu,125.459407,-0.004785222400000001,-9.412532460800001,2.8687408288,0.2468455,0.6724118899999998,-2.91318302,,,
imu,125.46787,-0.0053833752,-9.405952780000002,2.852590703200001,0.79265993,0.7397040799999997,-3.06272122,,,
imu,125.476334,-0.0107667504,-9.3927934184,2.8406276472,1.25622835,0.6275504299999999,-3.54872037,,,
imu,125.484797,-0.04127254320000001,-9.385017432000001,2.8400294944,1.71979677,0.6051196999999999,-3.96742733,,,
imu,125.493261,-0.062806044,-9.391597112800001,2.817299688,2.12354991,0.5378275100000001,-4.52819558,,,
imu,125.501724,-0.08374139200000001,-9.3993730992,2.805336632,2.4151494,0.4854891399999999,-4.82727198,,,
imu,125.510188,-0.09211553120000002,-9.418513988800001,2.7867938952,2.72917962,0.5378275100000001,-5.08148692,,,
imu,125.518652,-0.1172379488,-9.438851184,2.7802142144,3.140409669999999,0.5901658799999998,-5.22354821,,,
imu,125.527115,-0.10467674,-9.472347740800002,2.778419756,3.282470959999999,0.6275504299999999,-5.216071299999999,,,
imu,125.535579,-0.1124527264,-9.496872005600002,2.784401284,3.10302512,0.7397040799999997,-5.22354821,,,
imu,125.544042,-0.09091922560000001,-9.528574104,2.78141052,2.90114855,0.8144731799999998,-4.909517989999999,,,
imu,125.552506,-0.0675912664,-9.553696521600001,2.7778216032,2.78151799,0.78456554,-4.63287232,,,
imu,125.560969,-0.06579680800000001,-9.554892827200002,2.772438228,2.52730305,0.72475026,-4.35622665,,,
imu,125.56979,-0.04545961280000001,-9.554892827200002,2.761671477600001,2.27308811,0.6275504299999999,-4.25902682,,,
imu,125.578611,-0.03947808480000001,-9.554892827200002,2.764064088800001,2.22822665,0.3509047599999997,-4.079580979999999,,,
imu,125.587432,-0.03648732080000001,-9.544126076800001,2.7748308392,2.37776485,0.2387511099999999,-3.7954584,,,
imu,125.596253,-0.03349655680000001,-9.549509452,2.7664567,2.47496468,0.1265974599999997,-3.70573548,,,
imu,125.605074,-0.04246884880000001,-9.533957479200001,2.7658585472,2.55721069,0.02192071999999978,-3.75059694,,,
imu,125.613895,-0.0675912664,-9.531564868,2.7772234504,2.47496468,-0.3444478700000002,-4.057150249999999,,,
imu,125.622716,-0.1004896704,-9.523190728800001,2.783204978400001,2.43010322,-0.57623208,-4.20668845,,,
imu,125.631537,-0.1495382,-9.513620284000002,2.759877019200001,2.28804193,-0.65847809,-4.53567249,,,
imu,125.640357,-0.2135405496,-9.479525574400002,2.747913963200001,2.07868845,-0.86035466,-4.670256869999999,,,
imu,125.649178,-0.2679724544000001,-9.450216087200001,2.747913963200001,2.14598064,-0.90521612,-4.737549059999999,,,
imu,125.657999,-0.3038616224,-9.454403156800002,2.7287730736,2.33290339,-0.94260067,-4.78988743,,,
imu,125.66682,-0.3630787496,-9.455001309600002,2.7144174064,2.66188743,-0.7108164600000002,-4.87213344,,,
imu,125.675641,-0.3786307224000001,-9.478927421600002,2.6970709752,2.87124091,-0.3818324200000003,-4.72259524,,,
imu,125.684462,-0.3870048616000001,-9.488497866400001,2.680920849600001,3.2376095,0.13407437,-4.44594957,,,
imu,125.693283,-0.3846122504,-9.522592576000001,2.6803226968,3.48434753,0.58268897,-4.25154991,,,
imu,125.702104,-0.3576953744,-9.585398620000001,2.657592890400001,3.67127028,0.8967191899999998,-3.95247351,,,
imu,125.710925,-0.3313766512,-9.618895176800002,2.6492187512,3.731085559999999,1.2780416,-3.76555076,,,
imu,125.719746,-0.3164228312,-9.641026830400001,2.6516113624,3.589024269999999,1.50982581,-3.83284295,,,
imu,125.728567,-0.2990764,-9.6637566368,2.638452000800001,3.37967079,1.83133294,-3.91508896,,,
imu,125.737387,-0.2739539824000001,-9.6846919848,2.6450316816,3.21517877,1.95844041,-3.91508896,,,
imu,125.746208,-0.2410555784,-9.697253193600002,2.6306760144,2.81142563,2.00330187,-4.00481188,,,
imu,125.755029,-0.2051664104,-9.711608860800002,2.637853848,2.57216451,2.324809,-3.69078166,,,
imu,125.76385,-0.1728661592,-9.7086180968,2.6294797088,2.23570356,2.40705501,-3.68330475,,,
imu,125.772326,-0.1489400472,-9.724170069600001,2.640844612,1.77213514,2.2500399,-3.59358183,,,
imu,125.780803,-0.1160416432,-9.708019944000002,2.659387348800001,1.37585891,2.36219355,-3.15244414,,,
imu,125.789279,-0.0634041968,-9.690673512800002,2.668957793600001,1.03939796,2.54163939,-2.80102937,,,
imu,125.797755,-0.02871133440000001,-9.669140012000002,2.67673378,0.51601426,2.42200883,-2.66644499,,,
imu,125.806231,0.0053833752,-9.6494009696,2.6851079192,0.05244583999999999,2.39210119,-2.59167589,,,
imu,125.814708,0.0197390424,-9.6505972752,2.6892949888,-0.26158438,2.12293243,-2.68887572,,,
imu,125.823184,0.0251224176,-9.620689635200002,2.6958746696,-0.45598404,1.93600968,-2.93561375,,,
imu,125.83166,0.05203929360000001,-9.589585689600002,2.709632184,-0.6279529699999999,1.74908693,-3.01785976,,,
imu,125.840136,0.06460050240000001,-9.556089132800002,2.7150155592,-0.83730645,1.42010289,-3.21973633,,,
imu,125.848613,0.0562263632,-9.540537160000001,2.7209970872,-0.82235263,1.46496435,-3.14496723,,,
imu,125.857089,0.05861897440000001,-9.5082369088,2.7198007816,-0.91207555,1.36776452,-3.25712088,,,
imu,125.865565,0.07297464160000001,-9.4801237272,2.7048469616,-1.00927538,1.25561087,-3.22721324,,,
imu,125.874041,0.0592171272,-9.451412392800002,2.7108284896,-0.70272207,1.24813396,-3.28702852,,,
imu,125.882518,0.0675912664,-9.4412437952,2.7162118648,-0.54570696,0.8518577299999999,-3.63096638,,,
imu,125.890994,0.062806044,-9.429280739200001,2.7168100176,-0.32887657,0.9041961000000001,-3.76555076,,,
imu,125.89947,0.0550300576,-9.437056725600002,2.7072395728,-0.17186146,0.78456554,-3.93751969,,,
imu,125.907947,0.05802082160000001,-9.4286825864,2.7168100176,0.007584380000000002,0.7546578999999998,-4.034719519999999,,,
imu,125.916423,0.04486146000000001,-9.4424401008,2.7192026288,0.14964567,0.52287369,-4.20668845,,,
imu,125.924899,0.0305057928,-9.474142199200001,2.72159524,0.3963837,0.3284740299999998,-4.57305704,,,
imu,125.933375,0.0215335008,-9.503451686400002,2.7359509072,0.49358353,0.1864127399999997,-4.87213344,,,
imu,125.941852,-0.0017944584,-9.5184055064,2.722791545600001,0.47862971,0.1415512799999998,-4.9169949,,,
imu,125.950328,-0.0143556672,-9.5118258256,2.7347546016,0.43376825,-0.01546383000000029,-4.9169949,,,
imu,125.958804,-0.0442633072,-9.5118258256,2.7526991856,0.30666078,-0.1350943900000003,-4.715118329999999,,,
imu,125.967192,-0.06160973840000001,-9.5148165896,2.754493644000001,0.28423005,-0.3893093300000001,-4.94690254,,,
imu,125.975657,-0.09211553120000002,-9.511227672800002,2.760475172,0.13469185,-0.59866281,-5.18616366,,,
imu,125.984122,-0.1142471848,-9.51062952,2.7861957424,0.04496892999999999,-0.6360473600000001,-5.13382529,,,
imu,125.992587,-0.1626975616,-9.5237888816,2.8065329376,0.0001074699999999984,-0.7556779200000001,-4.87961035,,,
imu,126.001051,-0.1955959656,-9.536350090400001,2.802345868,0.08983038999999998,-0.8753084800000002,-4.63287232,,,
imu,126.009516,-0.2266999112,-9.522592576000001,2.8047384792,0.08983038999999998,-0.9500775800000003,-4.59548777,,,
imu,126.017981,-0.2428500368,-9.489096019200002,2.79636434,-0.01484635000000001,-0.8154932000000001,-4.34874974,,,
imu,126.026446,-0.2566075512,-9.456795768000001,2.8101218544,-0.007369440000000005,-0.65847809,-3.53376655,,,
imu,126.034911,-0.2518223288000001,-9.455001309600002,2.789186506400001,0.33656842,-0.5164168,-2.80850628,,,
imu,126.043375,-0.2410555784,-9.458590226400002,2.7592788664,0.74779847,-0.25472495,-2.38232241,,,
imu,126.05184,-0.2243073,-9.430477044800002,2.7347546016,1.15155161,-0.1799558500000003,-2.18044584,,,
imu,126.060305,-0.2111479384,-9.402962016000002,2.7198007816,1.6674584,-0.1350943900000003,-2.12810747,,,
imu,126.06877,-0.2290925224000001,-9.422102905600001,2.7209970872,2.02635008,-0.2771556799999999,-2.36736859,,,
imu,126.077235,-0.275150288,-9.4526086984,2.713221100800001,2.37028794,-0.5313706200000001,-2.65896808,,,
imu,126.085699,-0.311039456,-9.5040498392,2.7239878512,2.50487232,-0.5837089900000003,-2.83093701,,,
imu,126.094164,-0.3511156936,-9.527377798400002,2.7209970872,2.49739541,-0.5687551700000002,-2.83093701,,,
imu,124.61504,,,,,,,77.8575108,-8.184958000000009,6.085303999999992
imu,124.716603,,,,,,,75.34282759999999,-7.769913200000023,9.21034719999999
imu,124.82079,,,,,,,77.320394,-8.783110800000005,6.121925599999988
imu,124.920582,,,,,,,75.1353052,-8.014057200000014,8.709851999999996
imu,125.021931,,,,,,,75.2329628,-7.635634000000002,9.027239199999993
imu,125.122822,,,,,,,75.2085484,-7.415904400000017,9.503319999999993
imu,125.224415,,,,,,,74.5493596,-6.512571600000006,9.454491199999993
imu,125.325978,,,,,,,75.2085484,-6.805544400000008,9.9549864
imu,126.102629,-0.3714528888,-9.557285438400001,2.7078377256,2.3403803,-0.4192169699999999,-2.75616791,,,
imu,126.111094,-0.3971734592000001,-9.5501076048,2.7012580448,2.20579592,-0.1650020300000001,-2.70382954,,,
imu,126.119559,-0.4193051128000001,-9.5393408544,2.6940802112,2.15345755,0.1639820099999998,-2.62158353,,,
imu,126.128024,-0.4079402096,-9.530966715200002,2.689893141600001,2.09364227,0.6724118899999998,-2.38232241,,,
imu,126.136488,-0.3977716120000001,-9.52558334,2.6863042248,2.05625772,1.00887284,-2.09819983,,,
imu,126.144953,-0.3899956256000001,-9.524387034400002,2.673743016,2.07121154,1.50982581,-1.91127708,,,
imu,126.153418,-0.3804251808,-9.5219944232,2.6683596408,1.98896553,1.99582496,-2.01595382,,,
imu,126.161883,-0.367863972,-9.523190728800001,2.6641725712,2.05625772,2.51920866,-2.09072292,,,
imu,126.170348,-0.3457323184,-9.533957479200001,2.659387348800001,2.07121154,2.87062343,-2.5243837,,,
imu,126.178814,-0.3570972216000001,-9.547714993600001,2.6492187512,2.10859609,3.13979219,-3.03281358,,,
imu,126.18728,-0.3505175408000001,-9.568650341600001,2.6300778616,2.27308811,3.5211146,-3.33188998,,,
imu,126.195746,-0.3535083048,-9.5776226336,2.610936972000001,2.43758013,4.03702139,-3.44404363,,,
imu,126.204212,-0.3511156936,-9.609324732000001,2.6055535968,2.33290339,4.60526655,-3.46647436,,,
imu,126.212678,-0.3247969704000001,-9.662560331200002,2.587609012800001,2.48244159,5.29314227,-3.4216129,,,
imu,126.221144,-0.2936930248,-9.669738164800002,2.592992388,2.59459524,5.82400288,-3.40665908,,,
imu,126.22961,-0.2446444952,-9.697851346400002,2.5983757632,2.46001086,6.48197096,-3.29450543,,,
imu,126.238076,-0.191408896,-9.717590388800001,2.6031609856,2.06373463,6.80347809,-3.29450543,,,
imu,126.246542,-0.1788476872,-9.7283571392,2.5965813048,1.71231986,7.12498522,-3.24216706,,,
imu,126.255008,-0.1088638096,-9.745703570400002,2.5816274848,1.30108981,7.37920016,-3.21225942,,,
imu,126.263475,-0.07118018320000001,-9.734936820000001,2.5738514984,0.77770611,7.44649235,-3.28702852,,,
imu,126.271941,-0.0233279592,-9.678710456800001,2.597179457600001,0.3216146,7.42406162,-3.3468438,,,
imu,126.280407,-0.0053833752,-9.669738164800002,2.6426390704,-0.15690764,7.25209269,-3.69825857,,,
imu,126.288873,0.0161501256,-9.697253193600002,2.6312741672,-0.39616876,6.91563174,-3.85527368,,,
imu,126.297339,0.0197390424,-9.696655040800001,2.6121332776,-0.74758353,6.5866477,-3.95995042,,,
imu,126.305805,0.04007623760000001,-9.6224840936,2.634863084,-1.18872122,6.063264,-4.0197657,,,
imu,126.314271,0.03887993200000001,-9.577024480800002,2.6605836544,-1.57004363,5.89129507,-3.76555076,,,
imu,126.322737,0.05443190480000001,-9.5602762024,2.685706072000001,-1.70462801,5.6894185,-3.37675144,,,
imu,126.331203,0.0663949608,-9.562668813600002,2.6880986832,-1.82425857,5.38286519,-2.76364482,,,
imu,126.339669,0.1004896704,-9.553098368800002,2.692285752800001,-2.01865823,5.12117334,-2.03838455,,,
imu,126.348135,0.1363788384,-9.540537160000001,2.704248808800001,-1.95884295,4.814620029999999,-1.60472377,,,
imu,126.356601,0.1890162848,-9.52558334,2.7084358784,-1.98127368,4.46320526,-1.45518557,,,
imu,126.365068,0.203371952,-9.528574104,2.713221100800001,-2.0709966,3.97720611,-1.3280781,,,
imu,126.373534,0.2284943696,-9.517807353600002,2.7550917968,-2.10090424,3.34166876,-1.33555501,,,
imu,126.382057,0.221316536,-9.5118258256,2.7766252976,-2.19062716,2.63883922,-1.34303192,,,
imu,126.39058,0.2219146888,-9.513022131200001,2.790382812,-2.25044244,1.98087114,-1.44770866,,,
imu,126.399104,0.2081571744,-9.492086783200001,2.8137107712,-2.32521154,1.54721036,-1.54490849,,,
imu,126.407627,0.1842310624,-9.486703408,2.8406276472,-2.42988828,1.14345722,-1.56733922,,,
imu,126.41615,0.1728661592,-9.479525574400002,2.8507962448,-2.33268845,0.72475026,-1.51500085,,,
imu,126.424673,0.1381732968,-9.465169907200002,2.859768536800001,-2.2953039,0.5079198699999998,-1.57481613,,,
imu,126.433197,0.1339862272,-9.433467808800001,2.877713120800001,-2.35511918,0.4481045899999998,-1.60472377,,,
imu,126.44172,0.1429585192,-9.418513988800001,2.8878817184,-2.34764227,0.33595094,-1.63463141,,,
imu,126.450243,0.1184342544,-9.3862137376,2.9112096776,-2.37754991,0.1714589200000001,-1.84398489,,,
imu,126.458767,0.1202287128,-9.382026668000002,2.922574580800001,-2.16819643,0.1041667299999998,-2.05333837,,,
imu,126.46729,0.09211553120000002,-9.3838211264,2.9441080816,-2.18315025,-0.25472495,-2.57672207,,,
imu,126.475813,0.0735727944,-9.352717180800001,2.954874832000001,-2.0709966,-0.3294940500000001,-2.83093701,,,
imu,126.484337,0.0275150288,-9.3557079448,2.945304387200001,-1.8466893,-0.6210935399999999,-3.10010577,,,
imu,126.49286,0.0005981528000000001,-9.325202152000001,2.939921012000001,-1.21862886,-0.6659550000000003,-3.27955161,,,
imu,126.501383,-0.0251224176,-9.3204169296,2.928556108800001,-0.60552224,-0.7108164600000002,-3.29450543,,,
imu,126.509907,-0.0681894192,-9.302472345600002,2.9237708864,-0.007369440000000005,-0.6136166300000001,-3.37675144,,,
imu,126.51843,-0.09151737840000002,-9.2958926648,2.9022373856,0.58330645,-0.59866281,-3.24216706,,,
imu,126.526953,-0.1148453376,-9.310248332,2.892068788,1.39081273,-0.6360473600000001,-3.23469015,,,
imu,126.535476,-0.137575144,-9.336567055200002,2.8687408288,2.03382699,-0.5164168,-3.47395127,,,
imu,126.544,-0.1513326584,-9.370063612000001,2.864553759200001,2.65441052,-0.3220171400000003,-3.36179762,,,
imu,126.552523,-0.1441548248,-9.405354627200001,2.8495999392,3.30490169,0.02192071999999978,-3.1225365,,,
imu,126.561046,-0.1333880744,-9.437056725600002,2.825075674400001,3.70117792,0.4032431299999999,-2.74121409,,,
imu,126.56957,-0.125612088,-9.463973601600001,2.8190941464,3.99277741,0.76213481,-2.56176825,,,
imu,126.578093,-0.1100601152,-9.5010590752,2.8089255488,4.1348387,1.06121121,-2.46456842,,,
imu,126.58691,-0.0855358504,-9.5172092008,2.7927754232,4.232038530000001,1.4275798,-2.30755331,,,
imu,126.595727,-0.06519865520000001,-9.5357519376,2.779616061600001,4.31428454,1.577118,-2.36736859,,,
imu,126.604544,-0.04725407120000001,-9.546518688,2.762269630400001,4.42643819,1.56964109,-2.53186061,,,
imu,126.613361,-0.0185427368,-9.536350090400001,2.7443250464,4.49373038,1.74908693,-2.5243837,,,
imu,126.622178,-0.0221316536,-9.546518688,2.7263804624,4.32176145,1.8014253,-2.55429134,,,
imu,126.630995,-0.0221316536,-9.557285438400001,2.7054451144,4.232038530000001,1.65936401,-2.79355246,,,
imu,126.639811,-0.005981528000000001,-9.568650341600001,2.6863042248,4.14979252,1.51730272,-3.1225365,,,
imu,126.648628,-0.03289840400000001,-9.562668813600002,2.668957793600001,3.9853005,1.64441019,-3.1973056,,,
imu,126.657445,-0.0203371952,-9.561472508000001,2.655798432,3.82080848,1.47991817,-3.20478251,,,
imu,126.666262,-0.0346928624,-9.5698466472,2.6450316816,3.64136264,1.58459491,-3.11505959,,,
imu,126.675079,-0.0101685976,-9.581809703200001,2.6474242928,3.3123786,1.65936401,-2.94309066,,,
imu,126.683896,-0.004785222400000001,-9.599754287200001,2.646227987200001,3.1628404,2.03320951,-2.54681443,,,
imu,126.692713,-0.008374139200000002,-9.609324732000001,2.6402464592,2.863764,2.13788625,-2.54681443,,,
imu,126.70153,-0.0053833752,-9.594370912,2.638452000800001,2.72170271,2.24256299,-2.61410662,,,
imu,126.710347,-0.003588916800000001,-9.578220786400001,2.6270870976,2.46001086,2.33228591,-2.58419898,,,
imu,126.719164,-0.0005981528000000001,-9.554294674400001,2.6145258888,2.23570356,2.33228591,-2.56176825,,,
imu,126.727981,-0.007775986400000001,-9.537546396000002,2.6234981808,2.08616536,2.36967046,-2.64401426,,,
imu,126.736798,-0.008972292000000002,-9.5237888816,2.622900028000001,1.95905789,2.23508608,-2.77112173,,,
imu,126.745615,-0.0233279592,-9.534555632000002,2.622900028000001,2.01139626,2.23508608,-2.76364482,,,
imu,126.754431,-0.02990764000000001,-9.537546396000002,2.638452000800001,1.93662716,2.33228591,-2.91318302,,,
imu,126.763248,-0.04545961280000001,-9.535153784800002,2.6366575424,2.04878081,2.39210119,-2.76364482,,,
imu,126.772065,-0.07297464160000001,-9.559678049600002,2.6581910432,1.95158098,2.42948574,-2.66644499,,,
imu,126.780882,-0.08015247520000002,-9.5632669664,2.6420409176,1.9665348,2.67622377,-2.68139881,,,
imu,126.789292,-0.09450814240000002,-9.5381445488,2.643835376000001,1.95158098,2.81828506,-2.80850628,,,
imu,126.797703,-0.116639796,-9.522592576000001,2.6270870976,1.87681188,3.13979219,-2.90570611,,,
imu,126.806113,-0.08852661440000001,-9.516012895200001,2.6426390704,1.86933497,3.56597606,-3.04029049,,,
imu,126.814523,-0.1112564208,-9.553696521600001,2.648022445600001,1.91419643,3.81271409,-2.98047521,,,
imu,126.822933,-0.09390998960000001,-9.618297024,2.6683596408,1.78708896,4.17908268,-2.93561375,,,
imu,126.831343,-0.0741709472,-9.648802816800002,2.692285752800001,1.63755076,4.44825144,-3.00290594,,,
imu,126.839753,-0.092713684,-9.676317845600002,2.7048469616,1.24875144,4.60526655,-3.30198234,,,
imu,126.848163,-0.09570444800000001,-9.690673512800002,2.727576768,0.9571519499999999,4.85200458,-3.5711511,,,
imu,126.856573,-0.1010878232,-9.6876827488,2.7233896984,0.6132140899999999,4.90434295,-3.92256587,,,
imu,126.864984,-0.092713684,-9.648802816800002,2.7377453656,0.14216876,4.814620029999999,-4.32631901,,,
imu,126.873394,-0.0980970592,-9.6087265792,2.750306574400001,-0.01484635000000001,4.7921893,-4.56558013,,,
imu,126.881804,-0.11963056,-9.619493329600001,2.7538954912,0.01506129,4.92677368,-4.35622665,,,
imu,126.890214,-0.1124527264,-9.609324732000001,2.7323619904,-0.30644584,4.84452767,-4.37118047,,,
imu,126.898624,-0.1004896704,-9.568650341600001,2.731165684800001,-0.33635348,4.72489711,-4.21416536,,,
imu,126.907034,-0.0933118368,-9.516012895200001,2.72159524,-0.36626112,4.66508183,-3.92256587,,,
imu,126.915444,-0.05981528000000001,-9.4974701584,2.7239878512,-0.11204618,4.85948149,-3.05524431,,,
imu,125.427823,,,,,,,74.89116119999998,-6.561400400000017,9.698635199999995
imu,125.529049,,,,,,,74.95219719999999,-7.220589200000016,9.893950399999996
imu,125.630612,,,,,,,77.35701559999998,-7.611219600000019,7.281609599999994
imu,125.732174,,,,,,,75.04985479999999,-6.939823600000006,10.10147279999999
imu,125.833737,,,,,,,77.503502,-8.038471600000019,7.513546399999993
imu,125.93533,,,,,,,75.0132332,-7.599012400000005,9.662013599999996
imu,126.036953,,,,,,,75.04985479999999,-7.428111600000009,9.356833599999991
imu,126.138424,,,,,,,74.98881879999999,-7.37928280000002,9.369040799999995
imu,126.923855,-0.005981528000000001,-9.492086783200001,2.7180063232,0.20198404,5.19594244,-1.86641562,,,
imu,126.932265,0.0681894192,-9.5040498392,2.7078377256,0.40386061,5.20341935,-0.90937114,,,
imu,126.940675,0.1250139352,-9.517807353600002,2.7024543504,0.67302937,5.34548064,-0.3635567099999999,,,
imu,126.949085,0.1902125904,-9.499264616800001,2.6916876,0.82256757,5.30061918,-0.4831872699999999,,,
imu,126.957495,0.2284943696,-9.4843107968,2.6910894472,0.9197674,5.068834969999999,-1.11872462,,,
imu,126.965905,0.2368685088,-9.482516338400002,2.680920849600001,0.97958268,4.70246638,-1.75426197,,,
imu,126.974315,0.2560093984,-9.482516338400002,2.667163335200001,1.12164397,4.50806672,-1.97109236,,,
imu,126.982726,0.2691687600000001,-9.4526086984,2.6653688768,0.9945364999999999,4.433297619999999,-2.30755331,,,
imu,126.991254,0.2703650656,-9.4203084472,2.6599855016,0.9870595899999999,4.388436159999999,-2.86084465,,,
imu,126.999782,0.2530186344000001,-9.396980488,2.6635744184,1.09173633,4.23142105,-3.27955161,,,
imu,127.008311,0.275150288,-9.385615584800002,2.6534058208,1.21136689,4.194036499999999,-3.6459202,,,
imu,127.016839,0.2745521352,-9.3904008072,2.6641725712,1.36090509,4.30619015,-3.7954584,,,
imu,127.025367,0.2853188856,-9.414326919200002,2.6683596408,1.54035093,4.32114397,-3.65339711,,,
imu,127.033896,0.3092449976000001,-9.4244955168,2.673144863200001,1.6674584,4.16412886,-3.77302767,,,
imu,127.042424,0.3074505392,-9.4412437952,2.6928839056,1.91419643,4.02954448,-4.04967334,,,
imu,127.050953,0.2984782472,-9.458590226400002,2.700659892,1.92915025,3.90243701,-4.31136519,,,
imu,127.059414,0.2954874832,-9.481320032800001,2.694678364,2.19831901,3.58840679,-4.430995749999999,,,
imu,127.067942,0.2817299688000001,-9.4908904776,2.6875005304,2.35533412,3.41643786,-4.33379592,,,
imu,127.076471,0.2829262744000001,-9.508835061600001,2.667761488,2.43010322,3.24446893,-4.49828794,,,
imu,127.084999,0.2703650656,-9.517807353600002,2.6599855016,2.57216451,2.94539253,-4.63287232,,,
imu,127.093528,0.2350740504,-9.499862769600002,2.655200279200001,2.43010322,2.74351596,-4.625395409999999,,,
imu,127.102056,0.2051664104,-9.531564868,2.6605836544,2.38524176,2.45191647,-4.4683803,,,
imu,127.110584,0.1949978128,-9.533359326400001,2.6833134608,2.19831901,2.2500399,-4.33379592,,,
imu,127.119113,0.1680809368,-9.579417092000002,2.7030525032,1.87681188,2.14536316,-3.90013514,,,
imu,127.127641,0.11963056,-9.599156134400001,2.7221933928,1.72727368,2.03320951,-3.69825857,,,
imu,127.136169,0.10467674,-9.569248494400002,2.7138192536,1.23379762,1.97339423,-3.87770441,,,
imu,127.144698,0.08852661440000001,-9.536350090400001,2.7012580448,0.91229049,2.19770153,-3.75059694,,,
imu,127.153226,0.07775986400000001,-9.492684936000002,2.7317638376,0.8823828499999999,2.38462428,-3.38422835,,,
imu,127.161755,0.1010878232,-9.4980683112,2.7449231992,0.94967504,2.60893158,-3.07019813,,,
imu,127.170283,0.09390998960000001,-9.524387034400002,2.7239878512,1.45062801,2.83323888,-3.10010577,,,
imu,127.178811,0.1052748928,-9.5154147424,2.709632184,1.77213514,3.00520781,-3.58610492,,,
imu,127.18734,0.110658268,-9.4633754488,2.724586004,1.86933497,3.19960747,-3.80293531,,,
imu,127.195742,0.1232194768,-9.457992073600002,2.7419324352,2.18336519,3.54354533,-3.75807385,,,
imu,127.204145,0.17944584,-9.506442450400002,2.754493644000001,2.48244159,3.76785263,-3.60853565,,,
imu,127.212547,0.2129423968,-9.575230022400001,2.7676530056,2.72170271,4.09683667,-3.45899745,,,
imu,127.22095,0.2464389536,-9.602146898400001,2.775428992000001,2.78151799,4.44825144,-3.496382,,,
imu,127.229352,0.2972819416,-9.618297024,2.7760271448,2.70674889,4.44825144,-3.63096638,,,
imu,127.237755,0.3553027632,-9.606932120800002,2.780812367200001,2.43758013,4.38095925,-3.92256587,,,
imu,127.246157,0.3570972216000001,-9.571042952800001,2.762269630400001,2.06373463,4.149175039999999,-4.52071867,,,
imu,127.25456,0.3834159448,-9.5010590752,2.754493644000001,2.06373463,3.76785263,-5.07401001,,,
imu,127.262962,0.4037531400000001,-9.4454308648,2.7353527544,1.95158098,3.40896095,-5.75440882,,,
imu,127.271365,0.370854736,-9.403560168800002,2.718604476,1.92167334,2.87062343,-6.38994617,,,
imu,127.279767,0.3576953744,-9.3975786408,2.699463586400001,2.09364227,2.324809,-6.84603768,,,
imu,127.28817,0.3301803456000001,-9.395784182400002,2.6988654336,2.27308811,1.71917929,-7.257267730000001,,,
imu,127.296572,0.2853188856,-9.432869656000001,2.704248808800001,2.68431816,1.15841104,-7.35446756,,,
imu,127.304975,0.2488315648,-9.439449336800001,2.6910894472,2.7142258,0.62007352,-7.63111323,,,
imu,127.313377,0.2129423968,-9.440047489600001,2.682715308000001,2.66188743,0.05930526999999985,-7.8329898,,,
imu,127.32178,0.1549215752,-9.434065961600002,2.686902377600001,2.92357928,-0.3444478700000002,-7.8329898,,,
imu,127.330182,0.1052748928,-9.434065961600002,2.6821171552,3.02825602,-0.7556779200000001,-7.6834516,,,
imu,127.338585,0.05981528000000001,-9.447225323200001,2.685706072000001,3.14788658,-1.10709269,-7.48157503,,,
imu,127.346987,0.0305057928,-9.461580990400002,2.6791263912,3.46939371,-1.33139999,-7.15259099,,,
imu,127.35539,-0.0023926112,-9.471749588000002,2.703650656000001,3.67874719,-1.48093819,-6.793699309999999,,,
imu,127.363792,-0.06400234960000001,-9.505246144800001,2.696472822400001,4.00773123,-1.47346128,-6.352561619999999,,,
imu,127.372195,-0.09091922560000001,-9.504647992000002,2.664770724000001,4.45634583,-1.66786094,-5.8889932,,,
imu,127.380597,-0.1130508792,-9.479525574400002,2.6420409176,4.87505279,-1.6379533,-5.44785551,,,
imu,127.389,-0.155519728,-9.465169907200002,2.6330686256,5.26385211,-1.65290712,-4.8422258,,,
imu,127.397465,-0.1961941184,-9.4699551296,2.6175166528,5.75732817,-1.44355364,-4.26650373,,,
imu,127.40593,-0.2201202304,-9.489694172,2.598973916,6.40034243,-1.1145696,-3.85527368,,,
imu,127.414394,-0.2494297176,-9.5249851872,2.562486595200001,6.79661866,-0.8379239300000001,-3.54124346,,,
imu,127.422859,-0.2578038568000001,-9.541135312800002,2.529588191200001,7.25271017,-0.5014629800000003,-3.11505959,,,
imu,127.431324,-0.2548130928,-9.558481744000002,2.494895328800001,7.82095533,0.2387511099999999,-2.69635263,,,
imu,127.439789,-0.236270356,-9.5740337168,2.4452486464,8.411631219999999,0.7097964399999999,-2.32998404,,,
imu,127.448254,-0.2165313136,-9.547714993600001,2.3991908808,8.98735329,1.45001053,-1.85893871,,,
imu,127.456718,-0.1716698536,-9.5459205352,2.3603109488,9.69018283,2.33228591,-1.26826282,,,
imu,127.465183,-0.113649032,-9.595567217600001,2.3232254752,10.25842799,2.98277708,-0.91684805,,,
imu,127.473648,-0.0634041968,-9.673925234400002,2.299897516,10.44535074,3.46129932,-1.14115535,,,
imu,127.482113,-0.0137575144,-9.760059237600002,2.2783640152,10.63227349,4.20151341,-1.41032411,,,
imu,127.490578,0.009570444800000001,-9.808509614400002,2.2472600696,10.37805855,4.79966621,-1.82903107,,,
imu,127.499043,0.03110394560000001,-9.8270523512,2.2317080968,9.936920859999999,5.1660348,-2.46456842,,,
imu,127.507507,0.07656355840000001,-9.824659740000001,2.2000059984,9.368675699999999,5.64455704,-3.22721324,,,
imu,127.515972,0.0933118368,-9.794153947200002,2.188042942400001,8.63593852,5.988494899999999,-3.99733497,,,
imu,127.524437,0.07656355840000001,-9.765442612800001,2.1539482328,7.888247519999999,6.250186749999999,-4.92447181,,,
imu,127.532902,0.09749890640000002,-9.725964528,2.1306202736,7.0508336,6.49692478,-5.634778259999999,,,
imu,127.541367,0.1058730456,-9.6876827488,2.150359316,6.17603513,6.74366281,-5.97871612,,,
imu,127.549831,0.07656355840000001,-9.6499991224,2.1497611632,5.36852885,6.78104736,-6.53948437,,,
imu,127.558296,0.0783580168,-9.651793580800001,2.1389944128,4.87505279,6.82590882,-6.86846841,,,
imu,127.566761,0.0340947096,-9.644017594400001,2.120451676000001,4.62083785,6.95301629,-7.20492936,,,
imu,127.575226,-0.009570444800000001,-9.606932120800002,2.1198535232,4.25446926,7.22966196,-7.556344129999999,,,
imu,127.583691,-0.05981528000000001,-9.5907819952,2.1102830784,4.089977240000001,7.54369218,-7.72083615,,,
imu,127.592155,-0.09869521200000002,-9.6051376624,2.0983200224,4.24699235,7.88015313,-7.713359239999999,,,
imu,127.600976,-0.1429585192,-9.634447149600001,2.090544036,4.44886892,8.29886009,-7.66102087,,,
imu,127.609797,-0.161501256,-9.6799067624,2.0917403416,4.78532987,8.9044898,-7.50400576,,,
imu,127.618618,-0.1441548248,-9.7492924872,2.102507092,4.94982189,9.76433445,-7.20492936,,,
imu,127.627439,-0.09749890640000002,-9.8132948368,2.0971237168,4.87505279,10.22790287,-6.973145150000001,,,
imu,127.63626,-0.0251224176,-9.862343366400001,2.1037033976,4.5834533,10.36996416,-6.80117622,,,
imu,127.645081,-0.0161501256,-9.880886103200002,2.0935348,3.95539286,10.34005652,-6.80117622,,,
imu,127.653902,0.0011963056,-9.8880639368,2.0743939104,3.5366859,10.12322613,-6.73388403,,,
imu,127.662723,0.026916876,-9.861147060800002,2.0702068408,3.00582529,9.913872649999998,-6.397423079999999,,,
imu,127.671544,0.04545961280000001,-9.8617452136,2.0552530208,2.38524176,9.54750406,-6.135731229999999,,,
imu,127.680365,0.06579680800000001,-9.831837573600001,2.0642253128,1.63007385,9.17365856,-5.60487062,,,
imu,127.689185,0.09151737840000002,-9.803724392000001,2.0899458832,1.03192105,8.74747469,-5.10391765,,,
imu,127.698006,0.113649032,-9.809107767200002,2.0929366472,0.65059864,8.29886009,-4.670256869999999,,,
imu,127.706827,0.1447529776,-9.8228652816,2.1043015504,-0.0522309,7.57359982,-4.58801086,,,
imu,127.715648,0.1250139352,-9.7995373224,2.1192553704,-0.3513073,6.85581646,-4.244073,,,
imu,127.724469,0.1154434904,-9.746301723200002,2.1479667048,-0.70272207,6.40720186,-3.88518132,,,
imu,127.73329,0.0855358504,-9.7122070136,2.162322372,-1.15133667,5.921202709999999,-3.73564312,,,
imu,126.239987,,,,,,,75.29399880000001,-7.62342680000001,9.430076799999998
imu,126.341549,,,,,,,74.79350360000001,-6.866580400000011,8.575572799999998
imu,126.443112,,,,,,,74.7812964,-6.62243640000002,9.49111279999999
imu,126.544796,,,,,,,75.6602148,-6.573607600000009,8.892959999999995
imu,126.646267,,,,,,,74.95219719999999,-6.915409200000022,9.1493112
imu,126.74783,,,,,,,77.62557400000001,-8.294822800000023,7.159537599999998
imu,126.849362,,,,,,,74.89116119999998,-7.110724400000024,9.06386079999999
imu,126.950924,,,,,,,77.2105292,-7.818742000000012,5.88998879999999
imu,127.742111,0.0741709472,-9.672728928800002,2.1934263176,-1.46536689,5.43520356,-3.69825857,,,
imu,127.750932,0.0143556672,-9.6709344704,2.2263247216,-1.80182784,4.88938913,-3.69825857,,,
imu,127.759753,-0.0125612088,-9.676915998400002,2.2448674584,-2.03361205,4.75480475,-3.60105874,,,
imu,127.768574,-0.0167482784,-9.6643547896,2.2604194312,-2.43736519,4.33609779,-3.51133582,,,
imu,127.777395,-0.04007623760000001,-9.644615747200001,2.2765695568,-2.46727283,4.3435747,-3.3468438,,,
imu,127.786215,-0.0227298064,-9.5985579816,2.2783640152,-2.33268845,4.530497449999999,-2.95804448,,,
imu,127.795036,-0.0275150288,-9.574631869600001,2.2717843344,-2.24296553,4.410866889999999,-2.42718387,,,
imu,127.803506,-0.03947808480000001,-9.5656595776,2.280756626400001,-1.71958183,4.70994329,-2.05333837,,,
imu,127.811976,-0.03947808480000001,-9.562668813600002,2.2681954176,-1.28592105,4.8669584,-1.9262309,,,
imu,127.820446,-0.0053833752,-9.557285438400001,2.2586249728,-0.71019898,4.84452767,-1.91127708,,,
imu,127.828916,-0.004785222400000001,-9.538742701600002,2.255036056,-0.38869185,5.001542779999999,-2.26269185,,,
imu,127.837386,0.0005981528000000001,-9.553696521600001,2.253839750400001,0.06739966,4.98658896,-3.01038285,,,
imu,127.845856,-0.03110394560000001,-9.562668813600002,2.2335025552,0.53096808,5.113696429999999,-3.54124346,,,
imu,127.854326,-0.03349655680000001,-9.6039413568,2.2352970136,0.620691,5.19594244,-3.60853565,,,
imu,127.862796,-0.0281131816,-9.631456385600002,2.2454656112,0.66555246,5.29314227,-3.496382,,,
imu,127.871265,-0.009570444800000001,-9.627867468800002,2.253839750400001,0.43376825,5.48754193,-3.47395127,,,
imu,127.879735,0.03648732080000001,-9.630858232800001,2.264008348,0.25432241,5.71184923,-3.52628964,,,
imu,127.888205,0.0197390424,-9.623082246400001,2.2681954176,0.09730729999999999,5.89129507,-3.45152054,,,
imu,127.896675,0.017944584,-9.616502565600001,2.264008348,-0.2017691,5.98101799,-3.3468438,,,
imu,127.905145,0.04605776560000001,-9.592576453600001,2.264008348,-0.34383039,6.295048209999999,-3.23469015,,,
imu,127.913615,0.0185427368,-9.554294674400001,2.2843455432,-0.5681376899999999,6.34738658,-3.31693616,,,
imu,127.922085,0.0065796808,-9.553098368800002,2.3022901272,-0.60552224,6.57169388,-3.51881273,,,
imu,127.930555,0.04187069600000001,-9.5800152448,2.3280106976,-0.46346095,6.810955,-3.7206893,,,
imu,127.939025,0.0257205704,-9.623680399200001,2.338777448000001,-0.39616876,6.89320101,-4.034719519999999,,,
imu,127.947495,0.0340947096,-9.6505972752,2.341768212,-0.4260764,7.06516994,-4.22164227,,,
imu,127.955964,0.023926112,-9.642223136000002,2.3603109488,-0.5008455,7.43153853,-4.22911918,,,
imu,127.964434,0.0065796808,-9.6745233872,2.365694324000001,-0.68029134,7.625938189999999,-4.18425772,,,
imu,127.972904,-0.003588916800000001,-9.724768222400002,2.3615072544,-0.71019898,7.93996841,-4.19173463,,,
imu,127.981374,-0.0017944584,-9.762451848800001,2.3549275736,-0.97189083,8.18670644,-4.318842099999999,,,
imu,127.989844,0.0065796808,-9.7636481544,2.3519368096,-1.28592105,8.41101374,-4.13191935,,,
imu,127.998314,-0.008374139200000002,-9.7492924872,2.335786684,-1.74948947,8.65027486,-4.04219643,,,
imu,128.006779,0.0281131816,-9.727758986400001,2.3441608232,-1.92893531,9.09141255,-3.9449966,,,
imu,128.015244,0.0813487808,-9.703234721600001,2.353731268,-2.26539626,9.36805822,-4.102011709999999,,,
imu,128.023708,0.1297991576,-9.646410205600002,2.3513386568,-2.5943803,9.56993479,-4.29641137,,,
imu,128.032173,0.143556672,-9.600352440000002,2.3848352136,-2.99065653,9.58488861,-4.89456417,,,
imu,128.040638,0.1603049504,-9.593772759200002,2.4308929792,-3.20748692,9.4278735,-5.64973208,,,
imu,128.049103,0.1268083936,-9.630858232800001,2.4243132984,-3.35702512,9.22599693,-6.748837849999999,,,
imu,128.057568,0.09690075360000001,-9.581809703200001,2.4153410064,-3.46170186,9.21852002,-7.69840542,,,
imu,128.066032,0.06460050240000001,-9.520798117600002,2.4362763544,-3.82807045,9.255904569999998,-8.22926603,,,
imu,128.074497,0.026916876,-9.5004609224,2.441061576800001,-3.73087062,9.45778114,-8.55077316,,,
imu,128.082962,0.0191408896,-9.498666464000001,2.441061576800001,-3.58880933,9.88396501,-8.3563735,,,
imu,128.091427,-0.011963056,-9.531564868,2.454819091200001,-3.42431731,10.55688691,-7.907758899999999,,,
imu,128.099892,0.0017944584,-9.593772759200002,2.458408008,-3.31964057,11.28214718,-7.39185211,,,
imu,128.108357,0.0263187232,-9.621287788000002,2.4590061608,-3.22991765,11.73823869,-7.35446756,,,
imu,128.116821,0.03947808480000001,-9.6117173432,2.4578098552,-3.53647096,11.98497672,-7.511482669999999,,,
imu,128.125286,0.0723764888,-9.606333968000001,2.4745581336,-3.81311663,12.07469964,-7.81055907,,,
imu,128.133751,0.08314323920000001,-9.6296619272,2.455417244,-3.89536264,12.02236127,-8.19935839,,,
imu,128.142216,0.09749890640000002,-9.600352440000002,2.449435716,-3.902839549999999,11.9700229,-8.66292681,,,
imu,128.150577,0.1172379488,-9.5704448,2.4500338688,-4.05985466,11.73823869,-9.31341798,,,
imu,128.159042,0.1357806856,-9.5423316184,2.449435716,-4.11966994,11.49150066,-9.61249438,,,
imu,128.167506,0.1070693512,-9.535153784800002,2.4488375632,-3.79816281,11.20737808,-9.747078759999999,,,
imu,128.175971,0.113649032,-9.561472508000001,2.4440523408,-3.63367079,10.90830168,-9.814370949999999,,,
imu,128.184436,0.1220231712,-9.533957479200001,2.4500338688,-3.476655679999999,10.67651747,-9.82932477,,,
imu,128.192901,0.08972292000000001,-9.524387034400002,2.45242648,-2.92336434,10.57931764,-9.68726348,,,
imu,128.201366,0.1381732968,-9.5357519376,2.4542209384,-2.48970356,10.37744107,-9.29098725,,,
imu,128.20983,0.1393696024,-9.522592576000001,2.4925027176,-2.41493446,10.00359557,-9.19378742,,,
imu,128.218295,0.146547436,-9.5040498392,2.506858384800001,-2.04856587,9.59236552,-9.31341798,,,
imu,128.22676,0.1603049504,-9.528574104,2.524204816,-1.57752054,9.02412036,-9.50034073,,,
imu,128.235225,0.1333880744,-9.567454036,2.5164288296,-1.2485365,8.53812121,-9.462956179999999,,,
imu,128.24369,0.09510629520000001,-9.575828175200002,2.5080546904,-0.93450628,8.074552789999998,-9.440525449999999,,,
imu,128.252154,0.1142471848,-9.545322382400002,2.4966897872,-0.9644139199999999,7.483876899999999,-9.12649523,,,
imu,128.260619,0.1022841288,-9.519601812000001,2.483530425600001,-0.7251528,6.92310865,-8.86480338,,,
imu,128.269084,0.09989151760000002,-9.520199964800002,2.4667821472,-0.2017691,6.4371095,-8.55825007,,,
imu,128.277549,0.1327899216,-9.4843107968,2.4637913832,0.007584380000000002,5.726803049999999,-8.16197384,,,
imu,128.286014,0.1369769912,-9.479525574400002,2.4566135496,0.41881443,5.18846553,-7.74326688,,,
imu,128.294479,0.1357806856,-9.474740352000001,2.4488375632,0.9945364999999999,4.35852852,-7.63859014,,,
imu,128.302943,0.1154434904,-9.465169907200002,2.4398652712,1.6674584,3.76037572,-7.429236659999999,,,
imu,128.311408,0.137575144,-9.458590226400002,2.4416597296,2.05625772,3.24446893,-7.257267730000001,,,
imu,128.319873,0.09450814240000002,-9.477132963200003,2.4422578824,2.60954906,2.75099287,-7.272221549999999,,,
imu,128.328338,0.05084298800000001,-9.5219944232,2.427304062400001,2.93105619,2.10797861,-7.6086825,,,
imu,128.336803,0.0747691,-9.5327611736,2.4213225344,2.99087147,1.45748744,-7.90028199,,,
imu,128.345267,0.008374139200000002,-9.560874355200001,2.4057705616,2.97591765,1.01634975,-8.18440457,,,
imu,128.353732,-0.007177833600000002,-9.582407856000001,2.4213225344,2.78151799,0.4331507699999997,-8.25169676,,,
imu,128.362197,-0.01495382,-9.6117173432,2.4111539368,2.73665653,-0.1425713000000002,-8.46852715,,,
imu,128.370662,-0.08374139200000001,-9.654186192000001,2.4117520896,2.77404108,-0.4640784300000003,-8.64797299,,,
imu,128.379127,-0.1250139352,-9.6733270816,2.4183317704,2.51234923,-0.7855855599999999,-8.55077316,,,
imu,128.387591,-0.1453511304,-9.7086180968,2.4219206872,2.35533412,-0.9725083100000003,-8.348896589999999,,,
imu,128.396056,-0.1531271168,-9.7193848472,2.4261077568,2.27308811,-1.00989286,-8.16197384,,,
imu,128.404521,-0.1782495344,-9.714001472000001,2.431491132,2.13850373,-1.05475432,-8.064774009999999,,,
imu,128.412985,-0.1686790896,-9.7128051664,2.4356782016,1.97401171,-1.25663089,-7.997481819999999,,,
imu,128.421448,-0.203371952,-9.696655040800001,2.4392671184,1.68988913,-1.32392308,-7.825512890000001,,,
imu,128.429912,-0.2201202304,-9.685888290400001,2.4302948264,1.39081273,-1.61552257,-7.6086825,,,
imu,128.438375,-0.2488315648,-9.660765872800003,2.4356782016,1.28613599,-1.58561493,-7.13763717,,,
imu,128.446839,-0.2978800944000001,-9.6535880392,2.4338837432,0.97958268,-1.85478369,-6.83108386,,,
imu,128.455302,-0.3158246784000001,-9.652989886400002,2.4249114512,0.8823828499999999,-1.80992223,-6.14320814,,,
imu,128.463766,-0.31403022,-9.631456385600002,2.428500368,0.6132140899999999,-1.74263004,-5.328224949999999,,,
imu,128.472229,-0.3104413032000001,-9.614708107200002,2.4290985208,0.59078336,-1.57813802,-4.759979789999999,,,
imu,128.480693,-0.311039456,-9.591380148,2.425509604,0.53096808,-1.51832274,-4.53567249,,,
imu,128.489157,-0.2948893304,-9.566257730400002,2.429696673600001,0.70293701,-1.36130763,-4.169303899999999,,,
imu,128.49762,-0.2703650656,-9.551303910400001,2.4320892848,1.01696723,-1.22672325,-3.75059694,,,
imu,128.506084,-0.2673743016,-9.550705757600001,2.4416597296,1.15155161,-1.428599820000001,-3.78050458,,,
imu,128.514547,-0.2560093984,-9.5776226336,2.4392671184,1.25622835,-1.49589201,-3.8702275,,,
imu,128.523011,-0.2918985664000001,-9.571042952800001,2.4476412576,1.61512003,-1.39869218,-3.85527368,,,
imu,128.531474,-0.2984782472,-9.571641105600001,2.458408008,1.80204278,-1.30149235,-3.84779677,,,
imu,128.539938,-0.3570972216000001,-9.591380148,2.4619969248,1.65250458,-1.48093819,-4.057150249999999,,,
imu,128.548401,-0.3840140976,-9.6248767048,2.4631932304,1.77213514,-1.29401544,-4.25154991,,,
imu,127.052411,,,,,,,74.3784588,-6.903202000000008,8.050663199999997
imu,127.153974,,,,,,,74.29300839999999,-7.000859600000009,8.612194399999995
imu,127.255536,,,,,,,74.02445,-6.988652400000017,9.027239199999993
imu,127.357099,,,,,,,73.5849908,-7.782120400000014,8.221563999999992
imu,127.458661,,,,,,,74.13431479999998,-8.856354000000021,9.015031999999989
imu,127.560224,,,,,,,74.17093640000002,-9.344642000000004,8.136113599999995
imu,127.661786,,,,,,,74.63481,-9.576578800000002,7.598996799999991
imu,127.763349,,,,,,,73.0600812,-9.686443600000016,7.989627199999994
imu,128.556865,-0.4420349192,-9.636839760800001,2.4608006192,1.65998149,-0.8080162900000003,-4.16182699,,,
imu,128.565328,-0.4839056152000001,-9.611119190400002,2.4572117024,1.63755076,-0.1425713000000002,-3.84031986,,,
imu,128.573792,-0.4862982264000001,-9.614708107200002,2.4631932304,1.36090509,0.3808123999999999,-3.7206893,,,
imu,128.582255,-0.5191966304000001,-9.594370912,2.4691747584,1.24875144,0.8369039099999998,-3.8702275,,,
imu,128.590719,-0.5407301312,-9.573435564,2.4745581336,1.11416706,1.50982581,-4.10948862,,,
imu,128.599183,-0.5191966304000001,-9.572239258400002,2.506260232,1.00949032,1.98087114,-4.04967334,,,
imu,128.607646,-0.4916816016,-9.604539509600002,2.529588191200001,1.00949032,2.57902394,-3.96742733,,,
imu,128.616466,-0.4480164472000001,-9.621287788000002,2.545140164,0.9571519499999999,3.16969983,-3.90013514,,,
imu,128.625285,-0.4205014184,-9.593772759200002,2.5427475528,0.9646288599999999,3.34914567,-3.98238115,,,
imu,128.634105,-0.35889168,-9.538742701600002,2.5397567888,0.76275229,3.62579134,-3.6459202,,,
imu,128.642924,-0.2978800944000001,-9.4938812416,2.548130928,0.91229049,4.09683667,-3.07019813,,,
imu,128.651744,-0.2566075512,-9.498666464000001,2.5505235392,1.32352054,4.20151341,-2.51690679,,,
imu,128.660564,-0.251224176,-9.5010590752,2.531980802400001,1.56278166,4.23889796,-2.56924516,,,
imu,128.669383,-0.2506260232,-9.492086783200001,2.524204816,1.73475059,4.28375942,-2.81598319,,,
imu,128.678203,-0.2745521352,-9.502853533600002,2.5110454544,2.22822665,4.388436159999999,-2.80102937,,,
imu,128.687022,-0.2835244272,-9.513620284000002,2.4931008704,2.59459524,4.53797436,-2.85336774,,,
imu,128.695842,-0.2907022608000001,-9.513022131200001,2.4859230368,2.96096383,4.82209694,-2.79355246,,,
imu,128.704661,-0.2913004136,-9.4873015608,2.4685766056,3.21517877,5.15108098,-2.76364482,,,
imu,128.713481,-0.3008708584000001,-9.474740352000001,2.460202466400001,3.55163972,5.569787939999999,-2.93561375,,,
imu,128.722301,-0.2907022608000001,-9.486105255200002,2.4572117024,4.01520814,5.86138743,-2.95804448,,,
imu,128.73112,-0.2895059552,-9.548313146400002,2.4512301744,4.44886892,6.30252512,-3.10010577,,,
imu,127.864911,,,,,,,75.58697160000001,-10.67522680000002,5.499358399999998
imu,127.967054,,,,,,,73.10891,-9.625407600000013,7.611203999999994
imu,128.068036,,,,,,,74.9155756,-9.942794800000021,4.705890399999991
imu,128.169599,,,,,,,71.76611799999999,-8.551174000000007,7.232780799999993
imu,128.271192,,,,,,,71.26562279999999,-8.831939600000016,6.927600799999989
imu,128.372754,,,,,,,70.85057800000001,-8.844146800000008,6.634627999999998
imu,128.474286,,,,,,,70.49656920000001,-8.697660400000018,5.877781599999999
imu,128.575849,,,,,,,70.98485720000001,-9.124912400000017,5.902195999999993
imu,128.677629,,,,,,,72.07129800000001,-9.112705200000004,6.536970399999998
