Type,Timestamp,Data Accelerometer X,Data Accelerometer Y,Data Accelerometer Z,Data Gyroscope X,Data Gyroscope Y,Data Gyroscope Z,Data Magnetometer X,Data Magnetometer Y,Data Magnetometer Z
imu,467.609817,-1.7771119688,-9.830641268,1.3601994672,1.67493531,37.42890145,-4.737549059999999,,,
imu,467.61817,-1.8028325392,-9.8234634344,1.3709662176,1.27865908,37.6158242,-4.057150249999999,,,
imu,467.626523,-1.8530773744,-9.8461932408,1.3883126488,0.63564482,37.9896697,-3.13749032,,,
imu,467.634876,-1.9063129736,-9.822267128800002,1.4074535384,0.09730729999999999,38.55043795,-1.91875399,,,
imu,467.643229,-1.9475855168,-9.802528086400002,1.4277907336,-0.49336859,39.17849838999999,-1.09629389,,,
imu,467.651582,-1.9924469768,-9.792957641600001,1.4164258304,-0.82982954,40.0084354,-0.66263311,,,
imu,467.659935,-2.0175693944,-9.758862932000001,1.4008738576,-1.27096723,40.65144966,-0.6402023799999998,,,
imu,467.668288,-2.0109897136,-9.672728928800002,1.3805366624,-1.63733582,41.39166375,-0.73740221,,,
imu,467.676641,-1.9906525184,-9.578818939200001,1.3751532872,-1.56256672,41.95243199999999,-1.0290017,,,
imu,467.684994,-1.9404076832,-9.520798117600002,1.357806856,-1.03918302,42.75246137,-1.41032411,,,
imu,467.693346,-1.8943499176,-9.520798117600002,1.3536197864,-0.62047606,43.40295253999999,-1.95613854,,,
imu,467.701699,-1.7962528584,-9.479525574400002,1.348834564,-0.2017691,43.96372079,-2.21035348,,,
imu,467.710052,-1.6730333816,-9.434065961600002,1.3715643704,0.27675314,44.49458139999999,-2.38979932,,,
imu,467.718405,-1.552206516,-9.456197615200002,1.4038646216,1.05435178,44.53196595,-2.88327538,,,
imu,467.726758,-1.4259962752,-9.5213962704,1.4343704144,1.60764312,44.14316663,-3.69825857,,,
imu,467.735111,-1.3290955216,-9.547714993600001,1.4582965264,2.13850373,43.26836815999999,-4.51324176,,,
imu,467.743464,-1.2465504352,-9.557285438400001,1.5115321256,2.52730305,42.1019702,-5.08896383,,,
imu,467.752286,-1.2094649616,-9.606333968000001,1.5545991272,2.89367164,40.97295679,-5.45533242,,,
imu,467.761108,-1.1981000584,-9.6434194416,1.5569917384,3.08059439,39.50748243,-5.42542478,,,
imu,467.769931,-1.2178391008,-9.716992236000001,1.5994605872,3.05816366,38.07191571,-4.98428709,,,
imu,467.778753,-1.3207213824,-9.7989391696,1.6072365736,2.99087147,36.84570247,-4.35622665,,,
imu,467.787575,-1.4164258304,-9.8294449624,1.5868993784,2.75908726,35.95595017999999,-3.78050458,,,
imu,467.796397,-1.5139247368,-9.850978463200002,1.5665621832,2.28056502,35.55967395,-2.748691,,,
imu,467.80522,-1.5665621832,-9.8629415192,1.5504120576,1.80204278,35.29050519,-1.61967759,,,
imu,467.814042,-1.5737400168,-9.892849159200003,1.5354582376,1.27865908,35.23816682,-0.9467556899999998,,,
imu,467.822864,-1.6006568928,-9.887465784000002,1.534261932,1.00949032,35.2979821,-0.85703277,,,
imu,467.831686,-1.5767307808,-9.874306422400002,1.5151210424,0.35899915,35.16339772,-0.9243249599999999,,,
imu,467.840509,-1.5306730152,-9.821668976000002,1.501363528,-0.22419983,35.0736748,-1.13367844,,,
imu,467.849331,-1.4666706656,-9.790565030400002,1.4858115552,-0.54570696,34.96152115,-1.36546265,,,
imu,467.858153,-1.387714496,-9.770825988000002,1.4708577352,-0.71019898,34.55776801,-1.63463141,,,
imu,467.866975,-1.2997860344,-9.745105417600001,1.4606891376,-0.95693701,33.72035409,-2.17296893,,,
imu,467.875797,-1.2304003096,-9.7283571392,1.4780355688,-1.07656757,32.86798635,-2.65149117,,,
imu,467.88462,-1.160416432,-9.690673512800002,1.4810263328,-1.23358268,31.89598805,-3.01785976,,,
imu,467.893442,-1.0934233184,-9.685888290400001,1.5037561392,-1.33825942,30.71463627,-3.20478251,,,
imu,467.902264,-1.0503563168,-9.692467971200001,1.5181118064,-1.33825942,29.20430045,-3.28702852,,,
imu,467.911086,-1.055739692,-9.697253193600002,1.5384490016,-1.25601341,27.76125682,-3.13749032,,,
imu,467.919909,-1.0988066936,-9.741516500800001,1.5833104616,-1.33078251,26.36307465,-2.81598319,,,
imu,467.928731,-1.1675942656,-9.765442612800001,1.6197977824,-1.77939711,25.29387652,-2.21035348,,,
imu,467.937553,-1.217240948,-9.797144711200001,1.6562851032,-2.34016536,24.42655496,-1.33555501,,,
imu,467.946375,-1.2615042552,-9.803126239200001,1.6784167568,-3.05047181,23.5592334,-0.60281783,,,
imu,467.954845,-1.2854303672,-9.786976113600002,1.6736315344,-3.58133242,23.07323425,-0.1018648599999998,,,
imu,467.963315,-1.2908137424,-9.7301515976,1.6879872016,-4.11219303,22.44517381,0.1224424399999999,,,
imu,467.971785,-1.2806451448,-9.652989886400002,1.6706407704,-4.321546509999999,21.74234427,0.2645037299999999,,,
imu,467.980255,-1.2824396032,-9.608128426400002,1.65987402,-4.24677741,20.9423149,0.2046884499999999,,,
imu,467.988725,-1.2166427952,-9.5740337168,1.6592758672,-3.98508556,20.02265497,0.07010407000000018,,,
imu,467.997195,-1.1149568192,-9.558481744000002,1.6676500064,-3.60376315,19.13290268,-0.12429559,,,
imu,468.005665,-0.9995133288000001,-9.571641105600001,1.6903798128,-2.84111833,17.89921253,-0.4831872699999999,,,
imu,468.014135,-0.8541621984000002,-9.6015487456,1.7149040776,-2.39250373,16.25429233,-0.8420789499999999,,,
imu,468.022604,-0.6795015808000001,-9.627867468800002,1.7292597448,-1.96631986,14.2130959,-1.15610917,,,
imu,468.031074,-0.4976631296000001,-9.620091482400001,1.7657470656,-1.5476129,11.45411611,-1.5523854,,,
imu,468.039544,-0.3445360128,-9.61530626,1.7872805664,-1.11395212,8.08950661,-1.73930815,,,
imu,468.048014,-0.2165313136,-9.591380148,1.7848879552,-0.5681376899999999,4.20899032,-1.75426197,,,
imu,468.056484,-0.1274065464,-9.5877912312,1.767541524,-0.18681528,-0.1575251200000003,-1.88136944,,,
imu,468.064954,-0.09570444800000001,-9.555490980000002,1.7783082744,0.18703022,-4.91283988,-1.65706214,,,
imu,468.073424,-0.1603049504,-9.597361676,1.8165900536,0.71789083,-9.54852408,-0.9542325999999999,,,
imu,468.081894,-0.2757484408,-9.632054538400002,1.8351327904,0.77770611,-13.8253166,-0.04952648999999987,,,
imu,468.090364,-0.4498109056,-9.648204664000001,1.863245972,0.8375213899999999,-17.60863306,1.37108641,,,
imu,468.098834,-0.6531828576,-9.709216249600003,1.8596570552,1.01696723,-20.4797665,3.04591425,,,
imu,468.107303,-0.8774901576000002,-9.739722042400002,1.8518810688,0.9347212199999999,-22.29665563,4.578680800000001,,,
imu,468.115773,-1.1107697496,-9.8043225448,1.8626478192,0.620691,-23.53782269,5.782463310000001,,,
imu,468.124243,-1.2973934232,-9.834828337600001,1.851282916,0.11226112,-23.91166819,6.53763122,,,
imu,468.132713,-1.4427445536,-9.821668976000002,1.8315438736,-0.45598404,-23.76212999,6.42547757,,,
imu,468.141183,-1.5384490016,-9.800135475200001,1.8022343864,-1.07656757,-22.91723916,5.83480168,,,
imu,468.149653,-1.5863012256,-9.727758986400001,1.761559996,-1.30087487,-21.54896463,4.84784956,,,
imu,468.158246,-1.5719455584,-9.644017594400001,1.7364375784,-1.07656757,-19.96385971,3.8309898,,,
imu,468.16672,-1.5121302784,-9.585398620000001,1.7184929944,-1.01675229,-18.59558518,2.54496128,,,
imu,468.175194,-1.37575144,-9.5393408544,1.6861927432,-0.47093786,-17.14506464,1.22902512,,,
imu,468.183667,-1.2094649616,-9.522592576000001,1.6562851032,0.21693786,-16.38989673,0.0177657,,,
imu,468.192141,-1.0300191216,-9.478927421600002,1.6132181016,1.09921324,-16.28521999,-1.4028472,,,
imu,468.200615,-0.8697141712000002,-9.432869656000001,1.6186014768,1.98148862,-16.80112678,-2.77112173,,,
imu,468.209088,-0.7153907488000001,-9.401765710400001,1.6215922408,3.06564057,-17.98247856,-3.57862801,,,
imu,468.217562,-0.5843952856000001,-9.4041583216,1.623984852,4.25446926,-20.03862881,-4.146873169999999,,,
imu,468.226036,-0.4839056152000001,-9.415523224800001,1.6431257416,5.50311323,-22.58825512,-4.35622665,,,
imu,468.23451,-0.4605776560000001,-9.498666464000001,1.6993521048,6.54988063,-25.55658839,-4.363703559999999,,,
imu,468.242983,-0.5311596864,-9.7128051664,1.8052251504,7.36486382,-28.45762947,-3.90761205,,,
imu,468.251457,-0.6693329832000001,-9.850978463200002,1.8381235544,7.2751409,-31.0222096,-3.18235178,,,
imu,468.259931,-0.8619381848000001,-9.960440425600002,1.8823868616,6.31061951,-32.95872929,-2.04586146,,,
imu,468.268404,-1.0934233184,-10.0334150672,1.88418132,4.9572988,-33.90081995,-0.3560797999999998,,,
imu,468.276878,-1.3302918272,-10.1081841672,1.8566662912,3.40210152,-34.0877427,1.01219473,,,
imu,468.285352,-1.5540009744,-10.1345028904,1.8058233032,1.80951969,-33.33257479,2.08886977,,,
imu,468.293826,-1.7298578976,-10.0860525136,1.7549803152,0.25432241,-32.03906936,2.73188403,,,
imu,468.302299,-1.8686293472,-9.999320357600002,1.7101188552,-1.15881358,-30.07264203,2.83656077,,,
imu,468.310773,-1.9583522672,-9.895241770400002,1.6556869504,-2.07847351,-27.66507701,2.64963802,,,
imu,468.319247,-2.0056063384,-9.8270523512,1.6191996296,-2.68410322,-24.83880503,2.10382359,,,
imu,468.32772,-2.0115878664,-9.783387196800001,1.5892919896,-2.8186876,-22.17702507,1.55800916,,,
imu,468.336194,-1.9834746848,-9.699047652,1.5713474056,-2.85607215,-19.50029129,0.83274889,,,
imu,468.344668,-1.917079724,-9.644615747200001,1.5725437112,-2.66167249,-16.82355751,-0.01961884999999985,,,
imu,468.353142,-1.8285531096,-9.635045302400002,1.5653658776,-2.16819643,-14.56553069,-0.9841402399999999,,,
imu,468.3616,-1.7143059248,-9.631456385600002,1.561178808,-1.72705874,-12.81593375,-2.09819983,,,
imu,468.370058,-1.5904882952,-9.602146898400001,1.5737400168,-1.25601341,-11.2083981,-3.2720747,,,
imu,468.378517,-1.4403519424,-9.585398620000001,1.5886938368,-0.85973718,-10.45323019,-4.20668845,,,
imu,468.386975,-1.3045712568,-9.581809703200001,1.603049504,-0.4260764,-10.0868616,-4.92447181,,,
imu,468.395434,-1.1699868768,-9.580613397600002,1.6215922408,0.11226112,-10.05695396,-5.350655679999999,,,
imu,468.403892,-1.0491600112,-9.584800467200001,1.6514998808,0.63564482,-10.52052238,-5.567486069999999,,,
imu,468.412351,-0.9432869656,-9.6075302736,1.6981557992,1.0693056,-11.61962815,-5.589916799999999,,,
imu,468.420809,-0.8798827688,-9.66016772,1.740624648,1.40576655,-13.02528723,-5.612347529999999,,,
imu,467.633718,,,,,,,34.05807720000001,-30.65841320000002,21.75934879999999
imu,467.735281,,,,,,,34.33884280000001,-30.46309800000002,19.26908
imu,467.844625,,,,,,,31.34807880000001,-30.17012520000002,18.04836
imu,468.429268,-0.8308342392000001,-9.70502918,1.7807008856,1.55530475,-14.90946855,-5.44785551,,,
imu,468.437726,-0.8744993936000002,-9.7953502528,1.8518810688,1.32352054,-16.78617296,-5.14877911,,,
imu,468.446185,-0.9618297024000001,-9.880886103200002,1.893153612,0.97958268,-18.32641642,-4.50576485,,,
imu,468.454643,-1.0635156784,-9.867726741600002,1.8793960976,0.0001074699999999984,-19.47038365,-3.66087402,,,
imu,468.463101,-1.1957074472,-9.8210708232,1.8704238056,-0.91207555,-19.8816137,-2.63653735,,,
imu,468.47156,-1.3380678136,-9.789966877600001,1.8357309432,-1.57752054,-19.68721404,-1.41032411,,,
imu,468.480018,-1.4582965264,-9.7744149048,1.8130011368,-2.25791935,-19.2086918,-0.3635567099999999,,,
imu,468.488477,-1.5510102104,-9.725964528,1.7669433712,-2.65419558,-18.26660114,0.3691804699999999,,,
imu,468.496935,-1.6395368248,-9.676915998400002,1.7531858568,-2.63924176,-17.09272627,0.5336724899999998,,,
imu,468.505394,-1.713707772,-9.636839760800001,1.7310542032,-2.5196112,-15.82165157,0.1897346300000002,,,
imu,468.513852,-1.7711304408,-9.603343204000002,1.7238763696,-2.21305789,-14.07205463,-0.14672632,,,
imu,468.522311,-1.800439928,-9.571641105600001,1.7250726752,-1.68967419,-12.07571966,-0.4532796299999999,,,
imu,468.530769,-1.8261604984,-9.5501076048,1.7352412728,-1.36816706,-10.04200014,-0.8420789499999999,,,
imu,468.539228,-1.8118048312,-9.514218436800002,1.7472043288,-0.82235263,-8.10548045,-1.38041647,,,
imu,468.547686,-1.7687378296,-9.4873015608,1.7513913984,-0.01484635000000001,-5.974561100000001,-1.97856927,,,
imu,468.556144,-1.6730333816,-9.478927421600002,1.7621581488,0.74779847,-4.08290287,-2.79355246,,,
imu,468.564609,-1.5719455584,-9.459786532,1.7687378296,1.58521239,-2.40059812,-3.60853565,,,
imu,468.573074,-1.4660725128,-9.477132963200003,1.77950458,2.34785721,-1.05475432,-4.3936112,,,
imu,468.581539,-1.3380678136,-9.4831144912,1.7866824136,3.25256332,-0.05284837999999992,-4.94690254,,,
imu,468.590004,-1.2184372536,-9.465169907200002,1.8046269976,3.9105314,0.4854891399999999,-5.567486069999999,,,
imu,468.598469,-1.0940214712,-9.443038253600001,1.8327401792,4.66569931,0.58268897,-6.19554651,,,
imu,468.606933,-0.9749890640000002,-9.454403156800002,1.8506847632,5.34609812,-0.08275602000000015,-6.82360695,,,
imu,468.615398,-0.8798827688,-9.475936657600002,1.82436604,6.17603513,-1.144477240000001,-7.24231391,,,
imu,468.623863,-0.7859727792000001,-9.477731116000001,1.8022343864,7.17794107,-2.59499778,-7.28717537,,,
imu,468.632328,-0.7345316384000001,-9.479525574400002,1.8112066784,8.015354989999999,-4.43431764,-7.34699065,,,
imu,468.640793,-0.7530743752000001,-9.559678049600002,1.842310624,8.777999809999999,-6.475514069999999,-7.13763717,,,
imu,468.649257,-0.8326286976000001,-9.7325442088,1.890162848,9.331291149999998,-8.34474157,-6.43480763,,,
imu,468.657722,-0.9414925072000001,-9.844398782400003,1.88418132,9.136891489999998,-9.98966177,-5.4403786,,,
imu,468.666187,-1.052748928,-9.977188704000001,1.893153612,8.733138349999999,-10.87193715,-4.10948862,,,
imu,468.674652,-1.1819499328,-10.0483688872,1.8674330416,7.67141713,-11.2831672,-2.84589083,,,
imu,468.683117,-1.2973934232,-10.0716968464,1.8297494152,6.20594277,-11.46261304,-2.10567674,,,
imu,468.691581,-1.3930978712,-10.0890432776,1.7801027328,4.83766824,-11.26821338,-1.50752394,,,
imu,468.700046,-1.43556672,-10.0657153184,1.7268671336,3.51425517,-10.93175243,-1.04395552,,,
imu,468.708511,-1.4588946792,-10.0334150672,1.6550887976,2.31047266,-10.36350727,-0.9243249599999999,,,
imu,468.716976,-1.4499223872,-9.967618259200002,1.5857030728,0.97958268,-9.8625543,-1.04395552,,,
imu,468.725441,-1.4002757048,-9.9299346328,1.5390471544,0.08983038999999998,-9.51861644,-1.253309,,,
imu,468.733906,-1.321917688,-9.883278714400001,1.4971764584,-0.59056842,-9.32421678,-1.43275484,,,
imu,468.74237,-1.2435596712,-9.8234634344,1.4361648728,-1.22610577,-9.58590863,-1.90380017,,,
imu,468.750835,-1.1855388496,-9.8168837536,1.4140332192,-1.33078251,-10.25883053,-2.44213769,,,
imu,468.7593,-1.1352940144,-9.815089295200002,1.384723732,-1.60742818,-11.15605973,-2.92813684,,,
imu,468.76812,-1.0994048464,-9.803126239200001,1.3793403568,-1.68219728,-12.03833511,-3.08515195,,,
imu,468.776939,-1.0892362488,-9.7845835024,1.393696024,-1.86164312,-13.04024105,-3.21225942,,,
imu,468.785759,-1.079665804,-9.7504887928,1.3913034128,-1.93641222,-14.15430064,-3.18235178,,,
imu,468.794578,-1.0934233184,-9.745105417600001,1.4122387608,-1.8466893,-15.23097568,-2.98047521,,,
imu,468.803398,-1.124527264,-9.706225485600001,1.4092479968,-1.82425857,-16.0683896,-2.56924516,,,
imu,468.812217,-1.148453376,-9.6224840936,1.4200147472,-1.83173548,-16.92823425,-2.24773803,,,
imu,468.821037,-1.1909222248,-9.578818939200001,1.4331741088,-1.62985891,-17.65349452,-2.001,,,
imu,468.829857,-1.274065464,-9.554892827200002,1.4218092056,-1.19619813,-18.10958603,-1.55986231,,,
imu,468.838676,-1.3942941768,-9.548313146400002,1.4367630256,-0.7999219,-18.3114626,-1.08134007,,,
imu,468.847496,-1.498372764,-9.516012895200001,1.4421464008,-0.40364567,-17.98995547,-0.4682334499999998,,,
imu,468.856315,-1.6066384208,-9.513022131200001,1.4523149984,0.06739966,-17.18244919,0.1673038999999998,,,
imu,468.865135,-1.7292597448,-9.5213962704,1.4511186928,0.7253677399999999,-16.06091269,0.2645037299999999,,,
imu,468.873955,-1.8219734288,-9.551902063200002,1.4582965264,1.48053565,-14.46833086,0.2794575500000001,,,
imu,468.882774,-1.8835831672,-9.5668558832,1.483418944,2.16841137,-12.33741151,-0.2214954199999999,,,
imu,468.891594,-1.926052016,-9.588987536800001,1.4941856944,2.75161035,-10.2363998,-1.19349372,,,
imu,468.900413,-1.9583522672,-9.603343204000002,1.5396453072,3.14788658,-7.918557699999999,-2.41223005,,,
imu,468.909233,-1.9332298496,-9.6470083584,1.588095684,3.52173208,-5.43622358,-3.68330475,,,
imu,468.918052,-1.8979388344,-9.703832874400002,1.609031032,3.88062376,-3.14081221,-4.82727198,,,
imu,468.926872,-1.8279549568,-9.764246307200002,1.6245830048,4.19465398,-0.8678315700000003,-5.97871612,,,
imu,468.935692,-1.746606176,-9.758862932000001,1.6413312832,4.2096078,1.10607267,-6.91332987,,,
imu,468.944511,-1.6520980336,-9.744507264800001,1.650901728,4.14979252,2.90800798,-7.70588233,,,
imu,468.953331,-1.5324674736,-9.718786694400002,1.6592758672,4.05259269,4.11179049,-8.41618878,,,
imu,468.96215,-1.4319778032,-9.727758986400001,1.6652573952,4.08250033,4.91181986,-8.700311359999999,,,
imu,468.97062,-1.3165343128,-9.743909112,1.6616684784,4.24699235,5.30061918,-9.11901832,,,
imu,468.97909,-1.2238206288,-9.737927584000001,1.6550887976,4.14979252,5.21837317,-9.36575635,,,
imu,468.98756,-1.1311069448,-9.746301723200002,1.6873890488,4.32176145,4.66508183,-9.246125789999999,,,
imu,468.99603,-1.0503563168,-9.748694334400001,1.692772424,4.232038530000001,3.76037572,-8.90966484,,,
imu,469.0045,-1.004896704,-9.7576666264,1.6556869504,4.30680763,2.40705501,-8.5806808,,,
imu,469.01297,-0.9827650504000001,-9.785779808000001,1.6700426176,4.07502342,0.9640113799999996,-8.04982019,,,
imu,469.02144,-0.9737927584000001,-9.769629682400002,1.6520980336,3.91800831,-0.5612782599999999,-7.032960429999999,,,
imu,469.02991,-1.0102800792,-9.7606573904,1.6347516024,3.78342393,-2.21367537,-5.829177919999999,,,
imu,469.038379,-1.0730861232,-9.7612555432,1.6245830048,3.43948607,-3.64924209,-4.625395409999999,,,
imu,469.046849,-1.1317050976,-9.7821908912,1.6102273376,3.17031731,-4.965178249999999,-3.48142818,,,
imu,469.055319,-1.2046797392,-9.7845835024,1.5922827536,2.81890254,-5.94465346,-2.35989168,,,
imu,469.063789,-1.2848322144,-9.815687448000002,1.60005874,2.43010322,-6.86431339,-1.52247776,,,
imu,469.072259,-1.3536197864,-9.853371074400002,1.5934790592,1.84690424,-7.350312539999999,-0.76730985,,,
imu,469.080729,-1.4361648728,-9.867128588800002,1.5701511,1.28613599,-7.454989279999999,-0.29626452,,,
imu,469.089199,-1.4989709168,-9.852174768800001,1.5468231408,0.67302937,-7.20825125,-0.02709575999999991,,,
imu,469.097669,-1.5396453072,-9.824061587200001,1.5061487504,0.17955331,-6.782067379999999,0.1747808100000001,,,
imu,469.106139,-1.558188044,-9.8013317808,1.4911949304,-0.32887657,-6.056807109999999,-0.07195722000000004,,,
imu,469.114609,-1.5707492528,-9.7995373224,1.4672688184,-0.64290679,-5.294162289999999,-0.5953409199999999,,,
imu,469.123078,-1.5665621832,-9.796546558400001,1.4493242344,-0.8821679099999999,-4.39693309,-1.44023175,,,
imu,469.131548,-1.5480194464,-9.777405668800002,1.4409500952,-0.97189083,-3.62681136,-2.27764567,,,
imu,469.140018,-1.5199062648,-9.748694334400001,1.4457353176,-1.05413684,-2.84921272,-2.96552139,,,
imu,469.148488,-1.4846152496,-9.748096181600001,1.444539012,-1.2485365,-2.04918335,-3.62348947,,,
imu,469.156958,-1.4678669712,-9.7361331256,1.4529131512,-1.22610577,-1.34635381,-4.02724261,,,
imu,469.165428,-1.4391556368,-9.7217774584,1.4529131512,-1.3980747,-0.9351237599999997,-4.20668845,,,
imu,469.173912,-1.4481279288,-9.727160833600001,1.4708577352,-1.11395212,-0.2921095,-4.20668845,,,
imu,469.182396,-1.489400472,-9.746899876,1.5025598336,-1.18124431,0.1639820099999998,-4.079580979999999,,,
imu,469.19088,-1.5360563904,-9.7995373224,1.5234951816,-1.27096723,0.7097964399999999,-3.73564312,,,
imu,469.199363,-1.5928809064,-9.810902225600001,1.5504120576,-1.34573633,1.58459491,-3.23469015,,,
imu,469.207847,-1.6784167568,-9.878493492,1.5928809064,-1.66724346,2.67622377,-2.71878336,,,
imu,469.216331,-1.818384512,-9.941897688800001,1.6311626856,-2.370073,3.88000628,-2.53186061,,,
imu,469.224815,-1.952968892,-9.9401032304,1.6562851032,-3.07290254,5.876341249999999,-2.12810747,,,
imu,469.233299,-2.051664104,-9.910793743200001,1.6485091168,-4.02994702,8.440921379999999,-1.94118472,,,
imu,469.241783,-2.0917403416,-9.83961356,1.6251811576,-5.00194532,11.3718701,-2.19539966,,,
imu,467.938436,,,,,,,33.069294,-30.42647640000002,14.69137999999999
imu,468.04006,,,,,,,30.50578200000001,-29.20575640000001,16.27831599999999
imu,468.141531,,,,,,,33.74069,-29.96260280000001,14.21529919999999
imu,468.243154,,,,,,,31.5678084,-29.88935960000001,17.74317999999999
imu,468.34487,,,,,,,32.28803320000001,-29.02264840000002,20.12358399999999
imu,468.446218,,,,,,,32.67866360000001,-29.04706280000002,20.4409712
imu,468.547811,,,,,,,34.13132040000001,-29.03485560000001,20.85601599999999
imu,468.649404,,,,,,,33.8505548,-29.3400356,20.85601599999999
imu,469.250143,-2.0899458832,-9.7821908912,1.6018531984,-5.49542138,14.4374032,-2.69635263,,,
imu,469.258627,-2.0672160768,-9.710412555200001,1.5946753648,-5.75711323,17.49545939,-3.50385891,,,
imu,469.267111,-1.9996248104,-9.6434194416,1.5982642816,-5.936559069999999,20.4937003,-4.44594957,,,
imu,469.275595,-1.9099018904,-9.581809703200001,1.6138162544,-5.652436489999999,23.11809571,-5.350655679999999,,,
imu,469.284079,-1.821375276,-9.5602762024,1.620994088,-5.27859099,25.50323,-6.19554651,,,
imu,469.292563,-1.767541524,-9.5698466472,1.662864784,-4.702868919999999,27.62667244,-6.80865313,,,
imu,469.301047,-1.7178948416,-9.575230022400001,1.6915761184,-4.22434668,29.3912232,-7.02548352,,,
imu,469.309531,-1.7083243968,-9.620689635200002,1.740624648,-3.82807045,31.06605104,-7.10772953,,,
imu,469.318014,-1.6849964376,-9.6733270816,1.77950458,-3.40188658,32.83807871,-6.75631476,,,
imu,469.326498,-1.6634629368,-9.675719692800001,1.7848879552,-3.31964057,34.53533728,-6.28526943,,,
imu,469.334982,-1.6945668824,-9.751685098400001,1.8399180128,-3.35702512,36.05315001,-5.8142241,,,
imu,469.343466,-1.7196893,-9.772022293600001,1.8464976936,-3.65610152,37.74293167,-5.567486069999999,,,
imu,469.35195,-1.7442135648,-9.779200127200001,1.8548718328,-3.79816281,39.53739006999999,-5.27588658,,,
imu,469.360434,-1.788476872,-9.825856045600002,1.8913591536,-3.95517792,41.47390976,-4.86465653,,,
imu,469.368918,-1.7836916496,-9.833632032,1.8883683896,-4.50099235,43.44033709,-4.8422258,,,
imu,469.377361,-1.7663452184,-9.840809865600002,1.9045185152,-4.95708386,45.36937987,-4.89456417,,,
imu,469.385804,-1.7262689808,-9.8294449624,1.9033222096,-5.54775975,47.20869973,-5.17120984,,,
imu,469.394247,-1.6712389232,-9.8013317808,1.8883683896,-6.04123581,48.80128156,-5.70954736,,,
imu,469.402691,-1.6108254904,-9.802528086400002,1.9164815712,-6.2580662,50.38638648,-6.2628387,,,
imu,469.411134,-1.5205044176,-9.743310959200002,1.8895646952,-6.6319117,51.73970719,-6.681545659999999,,,
imu,469.419577,-1.45052054,-9.711608860800002,1.9093037376,-6.93846501,52.6444133,-7.18249863,,,
imu,469.42802,-1.3889108016,-9.745703570400002,1.9625393368,-7.17024922,53.13041244999999,-7.6834516,,,
imu,469.436463,-1.3213195352,-9.744507264800001,1.9523707392,-7.29735669,53.63136541999999,-7.847943620000001,,,
imu,469.444907,-1.2453541296,-9.720581152800001,1.9517725864,-7.34221815,53.94539563999999,-7.758220699999999,,,
imu,469.45335,-1.175370252,-9.7086180968,1.970913476,-7.536617809999999,53.95287255,-7.8329898,,,
imu,469.461793,-1.160416432,-9.672728928800002,1.9816802264,-7.536617809999999,53.53416558999999,-7.713359239999999,,,
imu,469.470236,-1.1765665576,-9.7122070136,2.0050081856,-7.47680253,53.26499682999999,-7.339513739999999,,,
imu,469.478679,-1.1466589176,-9.6799067624,1.9822783792,-7.55157163,53.12293553999999,-6.50209982,,,
imu,469.487123,-1.1358921672,-9.685888290400001,2.0271398392,-7.71606365,52.74161313,-5.48524006,,,
imu,469.495566,-1.1323032504,-9.688879054400001,2.036710284,-7.895509489999999,52.37524454,-4.75250288,,,
imu,469.504009,-1.0760768872,-9.6290637744,2.0193638528,-8.01514005,51.93410685,-4.22164227,,,
imu,469.512452,-1.0342061912,-9.5907819952,2.0343176728,-8.14224752,51.30604640999999,-3.73564312,,,
imu,469.520895,-0.9779798280000002,-9.544126076800001,2.045682576,-7.940370949999999,50.33404811,-3.53376655,,,
imu,469.529339,-0.9121830200000002,-9.4699551296,2.0205601584,-7.73849438,49.32466526,-3.51881273,,,
imu,469.537782,-0.8296379336000002,-9.453805004000001,2.0325232144,-7.28987978,48.21060567,-3.32441307,,,
imu,469.546225,-0.7500836112000001,-9.450216087200001,2.0702068408,-6.72163462,46.75260822,-3.27955161,,,
imu,469.554668,-0.681894192,-9.468160671200001,2.126433204,-6.452465859999999,44.90581144999999,-3.66087402,,,
imu,469.563111,-0.6119103144000001,-9.5291722568,2.1718928168,-5.83188233,43.00667631,-3.96742733,,,
imu,469.571555,-0.5365430616000001,-9.576426328,2.1569389968,-5.151483519999999,40.85332623,-4.244073,,,
imu,469.580021,-0.4868963792000001,-9.568650341600001,2.1700983584,-4.56828454,38.31865373999999,-4.50576485,,,
imu,469.588487,-0.5221873944000001,-9.5704448,2.2059875264,-4.20191595,35.61948923,-4.87961035,,,
imu,469.596953,-0.5419264368000001,-9.546518688,2.207183832,-3.75330135,33.3539855,-4.78241052,,,
imu,469.605419,-0.5730303824,-9.505844297600001,2.1964170816,-3.28973293,31.31278907,-4.079580979999999,,,
imu,469.613885,-0.5909749664,-9.460384684800001,2.207183832,-2.87102597,29.39870011,-3.54872037,,,
imu,469.622351,-0.6178918424000002,-9.418513988800001,2.18325772,-2.31773463,27.49956497,-2.98795212,,,
imu,469.630817,-0.6507902464,-9.4173176832,2.1946226232,-1.6971511,25.80978331,-2.43466078,,,
imu,469.639283,-0.6663422192,-9.433467808800001,2.1934263176,-0.80739881,24.21720148,-1.96361545,,,
imu,469.647749,-0.6657440664000001,-9.471749588000002,2.2077819848,-0.19429219,22.60966583,-1.61220068,,,
imu,469.656215,-0.6466031768,-9.4729458936,2.204193068,0.41881443,21.08437619,-1.60472377,,,
imu,469.664681,-0.631051204,-9.463973601600001,2.210174596,0.8823828499999999,19.4469329,-1.76921579,,,
imu,469.673148,-0.5808063688,-9.463973601600001,2.2209413464,1.49548947,17.69733596,-1.74678506,,,
imu,469.681614,-0.5586747152,-9.479525574400002,2.208978290400001,2.06373463,15.82810846,-1.96361545,,,
imu,469.69008,-0.5000557408,-9.482516338400002,2.2083801376,2.69179507,14.00374242,-1.88136944,,,
imu,469.698546,-0.4318663216,-9.501657228000001,2.205389373600001,3.43200916,12.1195611,-1.80660034,,,
imu,469.707012,-0.3744436528,-9.492086783200001,2.2083801376,3.947915950000001,10.05593394,-1.84398489,,,
imu,469.715478,-0.3391526376000001,-9.5082369088,2.2185487352,4.41896128,7.670799649999999,-1.73183124,,,
imu,469.723944,-0.3241988176,-9.5357519376,2.2376896248,5.09936009,5.34548064,-1.51500085,,,
imu,469.73241,-0.3092449976000001,-9.5949690648,2.2532415976,5.39095958,2.88557725,-1.26078591,,,
imu,469.740876,-0.3289840400000001,-9.623680399200001,2.252045292,5.7049898,0.5378275100000001,-0.9617095099999999,,,
imu,469.749342,-0.3576953744,-9.630858232800001,2.2508489864,5.89938946,-1.67533785,-0.4757103599999999,,,
imu,469.757808,-0.3971734592000001,-9.665551095200001,2.2574286672,5.83209727,-3.68662664,0.05515025000000007,,,
imu,469.766274,-0.430670016,-9.709814402400001,2.249054528,5.98911238,-5.383885210000001,0.87013344,,,
imu,469.774741,-0.4641665728000001,-9.7540777096,2.2424748472,5.65265143,-6.9465594,1.25893276,,,
imu,469.783569,-0.5048409632,-9.7636481544,2.237091472,5.30123666,-8.44941831,1.61034753,,,
imu,469.792398,-0.5257763112000001,-9.7750130576,2.2209413464,4.97225262,-9.95975413,1.96923921,,,
imu,469.801227,-0.5395338256000001,-9.752283251200002,2.1826595672,4.658222400000001,-11.32055175,2.17111578,,,
imu,469.810056,-0.517402172,-9.748694334400001,2.1449759408,4.41896128,-12.61405718,2.20102342,,,
imu,469.818885,-0.4857000736000001,-9.721179305600002,2.106694161600001,4.38157673,-13.91503952,2.19354651,,,
imu,469.827714,-0.4324644744,-9.743310959200002,2.0648234656,4.25446926,-15.50762135,1.98419303,,,
imu,469.836543,-0.35889168,-9.737927584000001,2.0205601584,4.12736179,-17.31703357,1.53557843,,,
imu,469.845372,-0.2787392048,-9.710412555200001,1.9936432824,3.94043904,-19.20121489,1.14677911,,,
imu,469.8542,-0.17944584,-9.70502918,1.991848824,3.96286977,-21.63121064,0.6383492300000002,,,
imu,469.863029,-0.0933118368,-9.6799067624,1.9625393368,3.96286977,-24.5172979,0.08505788999999986,,,
imu,469.871858,-0.008374139200000002,-9.672728928800002,1.9344261552,3.96286977,-27.66507701,-0.28878761,,,
imu,469.880687,0.03947808480000001,-9.6296619272,1.920070488,4.34419218,-30.98482505,-0.1915877799999999,,,
imu,469.889516,0.0592171272,-9.5800152448,1.9284446272,4.72551459,-34.48401893,-0.04204958000000003,,,
imu,469.898345,0.06041343280000001,-9.548313146400002,1.9087055848,5.248898290000001,-38.08041264,0.4364726600000002,,,
imu,469.907174,0.0161501256,-9.5010590752,1.8764053336,5.75732817,-41.58708343,1.29631731,,,
imu,469.916002,-0.1094619624,-9.536350090400001,1.9272483216,6.29566569,-44.6301858,2.53748437,,,
imu,469.924831,-0.3720510416,-9.779798280000001,2.0414955064,6.83400321,-47.2471043,3.89080508,,,
imu,469.93366,-0.6765108168000001,-10.0017129688,2.0917403416,6.57978827,-48.518179,5.72264803,,,
imu,469.942489,-1.007887468,-10.117754612,2.1019089392,5.248898290000001,-48.68267102,7.4946757,,,
imu,469.951318,-1.3051694096,-10.1979070872,2.135405496,3.34228624,-47.56113452,8.60125838,,,
imu,469.960147,-1.6132181016,-10.192523712,2.114470148,1.33099745,-45.13113877,8.58630456,,,
imu,469.968976,-1.851282916,-10.1500548632,2.0833662024,-0.70272207,-41.79643691,7.659167720000001,,,
imu,469.977805,-2.0211583112,-10.04896704,2.0349158256,-2.45231901,-37.34767546,6.02920134,,,
imu,469.986267,-2.0923384944,-9.9335235496,1.9930451296,-3.64862461,-32.15869992,3.82351289,,,
imu,469.994729,-2.1019089392,-9.812098531200002,1.9780913096,-4.28416196,-26.52858669,1.48324006,,,
imu,470.003191,-2.0498696456,-9.697851346400002,1.9846709904,-4.418746339999999,-20.82370436,-1.07386316,,,
imu,470.011654,-1.967922712,-9.5776226336,1.994839588,-4.321546509999999,-15.46275989,-3.7206893,,,
imu,470.020116,-1.8458995408,-9.488497866400001,2.031326908800001,-3.81311663,-10.34107654,-6.34508471,,,
imu,470.028578,-1.7125114664,-9.4203084472,2.0522622568,-3.08037945,-5.600715599999999,-8.88723411,,,
imu,470.03704,-1.561178808,-9.393391571200002,2.0881514248,-2.01865823,-1.50336892,-11.00319964,,,
imu,470.045503,-1.3942941768,-9.3754469872,2.1270313568,-1.03918302,2.03320951,-12.63316602,,,
imu,470.053965,-1.2154464896,-9.328791068800001,2.1551445384,-0.06718472,4.6426511,-13.60516432,,,
imu,470.062427,-1.0090837736,-9.309052026400002,2.189239248,1.21136689,6.564216969999999,-14.32294768,,,
imu,468.750941,,,,,,,34.3266356,-29.37665720000002,21.7837632
imu,468.852351,,,,,,,36.0112292,-29.65742280000001,21.23443919999999
imu,468.953883,,,,,,,35.52294120000001,-29.48652200000001,22.04011439999999
imu,469.055506,,,,,,,37.9765884,-30.03584600000002,19.40335919999999
imu,469.157069,,,,,,,35.5473556,-29.37665720000002,21.7227272
imu,469.258631,,,,,,,37.98879560000001,-30.27999000000001,20.23344879999999
imu,469.360224,,,,,,,34.778302,-28.80291880000001,21.9790784
imu,469.462123,,,,,,,34.1557348,-28.93719800000001,20.34331359999999
imu,470.07089,-0.8188711832000002,-9.311444637600001,2.1958189288,2.19831901,7.439015439999999,-14.85380829,,,
imu,470.079352,-0.6274622872000001,-9.322809540800002,2.2137635128,3.27499405,7.35676943,-14.98091576,,,
imu,470.087814,-0.4151180432000001,-9.3622876256,2.246063764000001,4.31428454,6.45954023,-14.80894683,,,
imu,470.096276,-0.1967922712,-9.444832712,2.2735787928,5.26385211,4.4183438,-14.49491661,,,
imu,470.104739,0.0005981528000000001,-9.5327611736,2.2717843344,5.81714345,1.41262598,-14.05377892,,,
imu,470.113201,0.1597067976,-9.667943706400001,2.2981030576,6.25828114,-2.41555194,-13.48553376,,,
imu,470.121663,0.2099516328,-9.8144911424,2.3124587248,6.12369676,-6.92412867,-12.56587383,,,
imu,470.130125,0.1543234224,-9.9718053288,2.348347892800001,5.36852885,-11.73925871,-11.22750694,,,
imu,470.138588,0.0281131816,-10.099810028,2.3345903784,4.00773123,-16.18054325,-9.16387978,,,
imu,470.14705,-0.1842310624,-10.1572326968,2.299897516,2.31047266,-20.05358263,-6.74136094,,,
imu,470.155512,-0.4551942808000001,-10.1709902112,2.2382877776,0.23936859,-23.10416191,-4.33379592,,,
imu,470.163974,-0.7118018320000001,-10.1679994472,2.1928281648,-1.60742818,-25.45191165,-2.05333837,,,
imu,470.172437,-1.0132708432,-10.1321102792,2.1096849256,-3.55890169,-26.99215511,-0.7822636699999999,,,
imu,470.180899,-1.3123472432,-10.0734913048,2.054654868000001,-5.03932987,-27.59030791,-0.1691570499999999,,,
imu,470.189363,-1.5725437112,-10.007096344,2.0265416864,-6.25058929,-27.29123151,-0.14672632,,,
imu,470.197826,-1.7902713304,-9.920364188,1.9972321992,-7.46184871,-26.22951029,-0.6701100199999999,,,
imu,470.20629,-1.9242575576,-9.845595088000001,1.98885806,-8.0525246,-24.2929906,-1.54490849,,,
imu,470.214753,-2.0056063384,-9.752283251200002,1.9864654488,-8.650677400000001,-21.70597974,-2.71130645,,,
imu,470.223217,-2.0163730888,-9.641026830400001,1.976895004,-8.8749847,-18.95447686,-4.11696553,,,
imu,470.23168,-1.9691190176,-9.5291722568,1.9792876152,-8.85255397,-16.00109741,-5.612347529999999,,,
imu,470.240144,-1.8674330416,-9.444234559200002,1.9780913096,-8.29178572,-13.29445599,-7.04791425,,,
imu,470.248607,-1.7424191064,-9.388606348800002,1.9685208648,-7.57400236,-10.84950642,-8.33394277,,,
imu,470.257071,-1.5468231408,-9.3317818328,1.9661282536,-6.78892681,-8.95037128,-9.440525449999999,,,
imu,470.265534,-1.2991878816,-9.336567055200002,1.9810820736,-5.83188233,-8.03818826,-10.64430796,,,
imu,470.273998,-1.0665064424,-9.4041583216,1.9762968512,-4.81502257,-8.05314208,-12.23688979,,,
imu,470.282462,-0.8427972952,-9.477731116000001,1.9924469768,-3.87293191,-8.99523274,-13.58273359,,,
imu,470.290925,-0.6376308848000001,-9.5291722568,1.9984285048,-3.17010237,-10.92427552,-14.45005515,,,
imu,470.299389,-0.4492127528000001,-9.573435564,2.0211583112,-3.12524091,-13.57110166,-14.45005515,,,
imu,470.307852,-0.3188154424,-9.6428212888,2.0444862704,-2.81121069,-17.0403879,-13.83694853,,,
imu,470.316316,-0.28412258,-9.7128051664,2.062430854400001,-2.82616451,-20.68911998,-12.88738096,,,
imu,470.324779,-0.34393786,-9.798341016800002,2.117460912,-3.0429949,-24.62197464,-10.94338436,,,
imu,470.333243,-0.4833074624000001,-9.824061587200001,2.141387024,-3.46917877,-28.44267565,-8.14702002,,,
imu,470.341608,-0.6777071224000001,-9.791761336000002,2.1330128848,-4.32902342,-31.56802403,-5.01419473,,,
imu,470.350072,-0.8966310472000002,-9.785779808000001,2.1425833296,-5.09914515,-33.94568141,-1.85893871,,,
imu,470.358535,-1.1131623608,-9.802528086400002,2.1360036488,-5.644959579999999,-35.98687784,0.7729336099999999,,,
imu,470.366999,-1.3255066048,-9.821668976000002,2.1258350512,-6.385173669999999,-37.10093743,2.91880678,,,
imu,470.375463,-1.5264859456,-9.817481906400001,2.1330128848,-6.9309881,-37.63927495,4.43661951,,,
imu,470.383926,-1.6873890488,-9.794153947200002,2.1437796352,-7.49923326,-37.38506001,5.43852545,,,
imu,470.392388,-1.80941222,-9.7510869456,2.164714983200001,-7.940370949999999,-36.79438412,5.9245246,,,
imu,470.400851,-1.875209028,-9.746301723200002,2.1814632616,-8.31421645,-35.91958565,5.737601850000001,,,
imu,470.409313,-1.8638441248,-9.706823638400001,2.1736872752,-8.78526178,-34.55878803,5.341325619999999,,,
imu,470.417775,-1.76455076,-9.648204664000001,2.177276192,-9.174061100000001,-33.24285187,4.67588063,,,
imu,470.426237,-1.6096291848,-9.5800152448,2.177276192,-9.18901492,-32.39796104,3.77117452,,,
imu,470.4347,-1.438557484,-9.575828175200002,2.1814632616,-9.35350694,-32.18113065,2.29074634,,,
imu,470.443162,-1.2854303672,-9.6087265792,2.1736872752,-9.547906600000001,-32.35309958,0.3317959200000002,,,
imu,470.451624,-1.1562293624,-9.632054538400002,2.1766780392,-9.72735244,-33.25032878,-1.38789338,,,
imu,470.460087,-1.0700953592,-9.6284656216,2.2000059984,-9.7722139,-34.22232708,-2.38232241,,,
imu,470.468549,-0.9893447312000001,-9.639830524800002,2.243073,-9.83950609,-35.52330942,-2.85336774,,,
imu,470.477011,-0.9444832712000001,-9.636839760800001,2.25802682,-10.18344395,-37.14579889,-3.0477674,,,
imu,470.485473,-0.9666149248000001,-9.6159044128,2.2723824872,-10.30307451,-38.75333454,-2.88327538,,,
imu,470.493936,-1.0102800792,-9.546518688,2.28793446,-10.25073614,-40.23376272,-2.3000764,,,
imu,470.502398,-1.0485618584,-9.4460290176,2.329805156,-10.0712903,-41.57960652,-1.41032411,,,
imu,470.51086,-1.1352940144,-9.3868118904,2.3603109488,-9.86193682,-42.97778869,-0.8196482199999999,,,
imu,470.519322,-1.232194768,-9.374250681600001,2.3848352136,-9.63762952,-44.31615558,-0.4308489,,,
imu,470.527785,-1.3476382584,-9.355109792000002,2.371675852,-9.15910728,-45.38535371,0.1897346300000002,,,
imu,470.536247,-1.471455888,-9.328791068800001,2.3650961712,-8.37403173,-46.05827561,1.01967164,,,
imu,470.544709,-1.5958716704,-9.312042790400001,2.3740684632,-7.58147927,-46.18538308,2.14868505,,,
imu,470.553171,-1.7208856056,-9.322809540800002,2.4069668672,-6.75154226,-45.9760296,3.50948267,,,
imu,470.561634,-1.7842898024,-9.3838211264,2.440463424,-6.026281989999999,-45.16852332,4.93757248,,,
imu,470.570096,-1.8405161656,-9.450814240000001,2.4685766056,-5.27859099,-43.85258716,6.36566229,,,
imu,470.578558,-1.875209028,-9.5381445488,2.541551247200001,-4.89726858,-42.45440499,7.25541458,,,
imu,470.587021,-1.896144376,-9.630858232800001,2.5983757632,-4.777638019999999,-40.8169617,7.62178317,,,
imu,470.595487,-1.9087055848,-9.749890640000002,2.6653688768,-4.95708386,-39.4711179,7.292799130000001,,,
imu,470.603953,-1.8883683896,-9.820472670400001,2.7090340312,-5.600098119999999,-37.96078208,6.4479083,,,
imu,470.612419,-1.8530773744,-9.841408018400001,2.740736129600001,-6.69920389,-36.45792317,5.01981849,,,
imu,470.620885,-1.7908694832,-9.847389546400002,2.7532973384,-7.88055567,-35.2092792,3.09825262,,,
imu,470.629351,-1.7119133136,-9.8402117128,2.748512116,-9.35350694,-34.05783506,0.7729336099999999,,,
imu,470.637817,-1.6371442136,-9.825856045600002,2.724586004,-10.79655057,-33.10826749,-1.4776163,,,
imu,470.646283,-1.5863012256,-9.765442612800001,2.6952765168,-12.17977892,-32.37553031,-3.82536604,,,
imu,470.654749,-1.6012550456,-9.654784344800001,2.649816904,-13.23402323,-31.93439262,-5.93385466,,,
imu,470.663215,-1.6263774632,-9.554294674400001,2.6336667784,-13.72749929,-31.21660926,-7.429236659999999,,,
imu,470.671681,-1.6461165056,-9.457992073600002,2.6217037224,-14.01909878,-30.29694933,-7.847943620000001,,,
imu,470.680147,-1.6700426176,-9.373054376,2.613329583200001,-13.77983766,-29.27261266,-7.668497779999999,,,
imu,470.688614,-1.7113151608,-9.309650179200002,2.6115351248,-13.40599216,-28.330522,-7.35446756,,,
imu,470.69708,-1.7603636904,-9.256414580000001,2.6163203472,-12.71063953,-27.40338516,-6.85351459,,,
imu,470.705546,-1.7962528584,-9.229497704000002,2.634264931200001,-12.00033308,-26.43886377,-5.95628539,,,
imu,470.714012,-1.8261604984,-9.226506940000002,2.6629762656,-11.26011899,-25.46686547,-4.87961035,,,
imu,470.722478,-1.8458995408,-9.267779483200002,2.7024543504,-10.40027434,-24.34532897,-3.70573548,,,
imu,470.730944,-1.8524792216,-9.286920372800001,2.7209970872,-9.64510643,-23.19388483,-2.69635263,,,
imu,470.73941,-1.8584607496,-9.288714831200002,2.748512116,-8.8749847,-22.30413254,-1.96361545,,,
imu,470.747876,-1.872218264,-9.2917055952,2.780812367200001,-8.30673954,-21.33961115,-1.63463141,,,
imu,470.756342,-1.8835831672,-9.3144354016,2.8119163128,-7.753448199999999,-20.36013594,-1.26078591,,,
imu,470.764808,-1.8686293472,-9.325800304800001,2.8286645912,-7.259972139999999,-19.56758348,-1.29069355,,,
imu,470.773274,-1.8608533608,-9.325800304800001,2.8418239528,-6.67677316,-18.79746175,-1.67949287,,,
imu,470.78174,-1.8554699856,-9.319220624000002,2.8436184112,-6.34031221,-17.95257092,-2.28512258,,,
imu,470.790207,-1.8506847632,-9.3246039992,2.8513943976,-5.794497779999999,-17.15254155,-3.07019813,,,
imu,470.799024,-1.8578625968,-9.3246039992,2.8633574536,-5.21877571,-16.50952729,-3.75807385,,,
imu,470.80784,-1.8776016392,-9.301276040000001,2.8657500648,-4.6879151,-15.76183629,-4.33379592,,,
imu,470.816657,-1.8805924032,-9.313239096000002,2.8789094264,-4.30659269,-14.80479181,-4.931948719999999,,,
imu,470.825474,-1.8704238056,-9.350922722400002,2.8866854128,-3.73834753,-13.87017806,-5.22354821,,,
imu,470.834291,-1.8823868616,-9.363483931200001,2.880105732000001,-3.28973293,-13.02528723,-5.50767079,,,
imu,470.843108,-1.893153612,-9.370063612000001,2.9064244552,-2.93084125,-12.34488842,-5.73197809,,,
imu,470.851925,-1.8805924032,-9.3838211264,2.9261634976,-2.63176485,-11.83645854,-5.739455,,,
imu,470.860742,-1.8518810688,-9.409541696800002,2.9447062344,-2.61681103,-11.30559793,-5.65720899,,,
imu,470.869559,-1.8237678872,-9.474740352000001,2.9530803736,-2.50465738,-10.6850144,-5.612347529999999,,,
imu,470.878376,-1.7968510112,-9.509433214400001,2.954874832000001,-2.75139541,-10.3111689,-5.53010152,,,
imu,469.563288,,,,,,,31.68988040000001,-28.10710840000002,17.74317999999999
imu,469.666682,,,,,,,30.566818,-27.6920636,15.9121
imu,469.766444,,,,,,,30.749926,-27.08170360000002,14.8989024
imu,469.868006,,,,,,,30.31046680000001,-27.26481160000001,15.5092624
imu,469.969691,,,,,,,31.95843880000001,-27.50895560000002,15.35056879999999
imu,470.071131,,,,,,,32.8007356,-27.26481160000001,18.29250399999999
imu,470.172694,,,,,,,34.75388760000001,-28.3512524,15.77782079999999
imu,470.274256,,,,,,,33.37447400000001,-27.88737880000001,18.8296208
imu,470.887193,-1.7537840096,-9.520798117600002,2.9764083328,-3.08037945,-10.19153834,-5.44785551,,,
imu,470.89601,-1.7208856056,-9.527377798400002,2.9722212632,-3.55142478,-10.25135362,-5.32074804,,,
imu,470.904827,-1.6975576464,-9.5172092008,2.9704268048,-3.84302427,-10.43079946,-5.45533242,,,
imu,470.913644,-1.6820056736,-9.471151435200001,2.936930248,-4.17200831,-10.79716805,-5.74693191,,,
imu,470.92246,-1.7178948416,-9.392195265600002,2.9016392328,-4.50099235,-11.10372136,-5.93385466,,,
imu,470.931277,-1.7567747736,-9.330585527200002,2.8998447744,-4.538376899999999,-11.38784394,-5.94880848,,,
imu,470.940094,-1.8106085256,-9.307257568,2.8836946488,-4.17948522,-11.29064411,-5.56000916,,,
imu,470.948911,-1.8536755272,-9.297687123200001,2.8669463704,-3.89536264,-11.09624445,-5.20111748,,,
imu,470.957728,-1.9236594048,-9.3126409432,2.889676176800001,-3.53647096,-10.76726041,-4.81231816,,,
imu,470.966545,-1.9930451296,-9.325202152000001,2.910611524800001,-3.20748692,-10.25883053,-4.61044159,,,
imu,470.975362,-2.0911421888,-9.332379985600001,2.9303505672,-3.01308726,-9.57095481,-4.53567249,,,
imu,470.984179,-2.1814632616,-9.349128264,2.9405191648,-2.80373378,-8.47184904,-4.63287232,,,
imu,470.992996,-2.2586249728,-9.329987374400002,2.9560711376,-2.54204193,-6.976467039999999,-4.49828794,,,
imu,471.001463,-2.30288828,-9.301276040000001,2.9644452768,-2.20558098,-5.04742426,-4.63287232,,,
imu,471.009929,-2.3304033088,-9.279144386400002,2.9596600544,-1.86912003,-2.93145873,-5.20859439,,,
imu,471.018396,-2.3256180864,-9.246245982400001,2.9554729848,-1.59995127,-0.7855855599999999,-6.180592689999999,,,
imu,471.026863,-2.3100661136,-9.221123564800001,2.939921012000001,-1.06161375,1.21074941,-7.18249863,,,
imu,471.03533,-2.2675972648,-9.2067678976,2.9405191648,-0.52327623,3.05754618,-8.25917367,,,
imu,471.043797,-2.2358951664,-9.197795605600001,2.9333413312,0.12721494,4.91929677,-9.13397214,,,
imu,471.052263,-2.21316536,-9.197197452800001,2.9345376368,0.94967504,6.61655534,-9.791940219999999,,,
imu,471.06073,-2.1970152344,-9.204973439200002,2.9273598032,1.57025857,8.022214420000001,-10.42000066,,,
imu,471.069197,-2.156340844,-9.2342829264,2.9387247064,2.12354991,9.33815058,-10.74150779,,,
imu,471.077664,-2.1342091904,-9.2719665528,2.9500896096,2.74413344,10.51950236,-10.80132307,,,
imu,471.086131,-2.132414732,-9.325202152000001,2.9776046384,3.51425517,11.63356195,-10.31532392,,,
imu,471.094597,-2.1180590648,-9.426289975200001,3.020073487200001,3.65631646,12.63546789,-9.59006365,,,
imu,471.103064,-2.133611037600001,-9.507638756,3.036223612800001,3.34228624,13.33082052,-8.700311359999999,,,
imu,471.111531,-2.1599297608,-9.530966715200002,3.0511774328,3.19274804,14.26543427,-7.13763717,,,
imu,471.119998,-2.1611260664,-9.51062952,3.0457940576,2.73665653,15.17014038,-5.70954736,,,
imu,471.128465,-2.1599297608,-9.495077547200001,3.0410088352,2.17588828,16.0823234,-4.48333412,,,
imu,471.136931,-2.1216479816,-9.459786532,3.022466098400001,1.71231986,16.74776839,-3.62348947,,,
imu,471.145398,-2.066617924,-9.388008196000001,2.996745528,1.38333582,17.41321338,-3.26459779,,,
imu,471.153865,-1.9996248104,-9.305463109600002,2.981791708,1.368382,17.86930489,-3.24964397,,,
imu,471.162332,-1.9439966,-9.242657065600001,2.9584637488,1.55530475,17.83192034,-3.60105874,,,
imu,471.170799,-1.8776016392,-9.211553120000001,2.9470988456,1.86185806,17.79453579,-3.98985806,,,
imu,471.179265,-1.8118048312,-9.2133475784,2.924369039200001,2.47496468,17.56275158,-4.28145755,,,
imu,471.187732,-1.758569232,-9.204973439200002,2.9094152192,3.11050203,17.1290908,-4.73007215,,,
imu,471.196199,-1.7178948416,-9.190617772000001,2.9088170664,3.70117792,16.44869199,-5.26840967,,,
imu,471.204666,-1.6784167568,-9.1930103832,2.8944613992,4.5086842,15.61875498,-5.53010152,,,
imu,471.213124,-1.6652573952,-9.2139457312,2.895657704800001,5.106837000000001,14.54207994,-5.99366994,,,
imu,471.221583,-1.7101188552,-9.2486385936,2.9004429272,5.69003598,13.59998928,-6.06096213,,,
imu,471.230041,-1.7789064272,-9.302472345600002,2.917789358400001,6.13117367,12.85977519,-6.031054489999999,,,
imu,471.2385,-1.8847794728,-9.357502403200002,2.941117317600001,6.39286552,12.3438684,-5.69459354,,,
imu,471.246958,-1.9697171704,-9.401765710400001,2.9470988456,6.80409557,12.25414548,-5.07401001,,,
imu,471.255417,-2.069608688,-9.454403156800002,2.963847124,6.73680338,12.45602205,-4.759979789999999,,,
imu,471.263875,-2.1718928168,-9.506442450400002,2.972819416000001,6.31061951,13.27100524,-4.66277996,,,
imu,471.272333,-2.2275210272,-9.511227672800002,2.9584637488,6.06388148,14.42244938,-4.5431494,,,
imu,471.280792,-2.2376896248,-9.482516338400002,2.938126553600001,5.52554396,15.8580161,-4.87213344,,,
imu,471.28925,-2.1904355536,-9.441841948000002,2.914798594400001,5.13674464,17.30853664,-5.33570186,,,
imu,471.297709,-2.075590216,-9.4107380024,2.904031844000001,5.1816061,18.78896482,-5.83665483,,,
imu,471.306167,-1.9146871128,-9.415523224800001,2.880105732000001,5.1816061,19.82825531,-6.32265398,,,
imu,471.314626,-1.7238763696,-9.447823476,2.8753205096,5.31619048,20.41145429,-7.15259099,,,
imu,471.323084,-1.5420379184,-9.490292324800002,2.8615629952,5.00963717,20.01517806,-8.15449693,,,
imu,471.331543,-1.369769912,-9.502255380800001,2.8394313416,4.71056077,18.96841066,-9.00686467,,,
imu,471.340001,-1.2638968664,-9.477132963200003,2.8226830632,4.49373038,17.21881372,-9.56763292,,,
imu,471.34846,-1.2315966152,-9.416121377600001,2.7975606456,4.31428454,14.90844853,-9.724648029999999,,,
imu,471.356918,-1.2507375048,-9.371259917600002,2.784401284,4.53111493,12.94949811,-8.60311153,,,
imu,471.365376,-1.3081601736,-9.338959666400001,2.7778216032,4.56102257,10.96811696,-6.45723836,,,
imu,471.373835,-1.4888023192,-9.3802322096,2.8119163128,5.09188318,9.211043109999999,-3.7954584,,,
imu,471.382293,-1.716698536,-9.411934308000001,2.832253508,5.39843649,7.99230678,-0.93927878,,,
imu,471.390752,-1.8955462232,-9.444234559200002,2.8555814672,5.45077486,7.409107799999999,1.99914685,,,
imu,471.39921,-2.0444862704,-9.452010545600002,2.8819001904,5.26385211,7.551169089999999,4.361850410000001,,,
imu,471.407669,-2.2364933192,-9.4460290176,2.9022373856,5.06945245,8.23904481,5.408617809999999,,,
imu,471.41613,-2.3591146432,-9.436458572800001,2.9046299968,4.94234498,9.7269499,5.73012494,,,
imu,471.424591,-2.3908167416,-9.373652528800001,2.875918662400001,4.8825297,11.58122358,5.67778657,,,
imu,471.433544,-2.36270356,-9.290509289600001,2.859170384,5.00963717,13.75700439,4.56372698,,,
imu,471.442005,-2.3369829896,-9.228899551200001,2.8328516608,5.51059014,16.08980031,2.66459184,,,
imu,471.450466,-2.2927196824,-9.1960011472,2.8077292432,6.3031426,18.33287331,0.7205952400000002,,,
imu,471.458927,-2.1754817336,-9.1619064376,2.779616061600001,7.34991,20.59837704,-1.00657097,,,
imu,471.467388,-2.0474770344,-9.134989561600001,2.7556899496,8.239662289999998,22.66948111,-2.69635263,,,
imu,471.475849,-1.917079724,-9.146952617600002,2.748512116,9.46587553,24.31440131,-4.32631901,,,
imu,471.48431,-1.7980473168,-9.188823313600002,2.736549060000001,10.6397504,25.66024511,-5.77683955,,,
imu,471.492771,-1.6754259928,-9.1918140776,2.7377453656,11.51454887,26.43036684,-6.621730379999999,,,
imu,471.501232,-1.5653658776,-9.2127494256,2.7772234504,12.26223987,26.85655071,-7.317083009999999,,,
imu,471.509693,-1.462483596,-9.312042790400001,2.7431287408,12.98750014,26.42288993,-8.25169676,,,
imu,471.518154,-1.3709662176,-9.391597112800001,2.7090340312,13.69032968,25.47332236,-8.9545263,,,
imu,471.526615,-1.2908137424,-9.455001309600002,2.7108284896,14.29595939,24.49384715,-9.02181849,,,
imu,471.535076,-1.265093172,-9.526181492800001,2.739539824,14.6025127,23.1853879,-8.55077316,,,
imu,471.543537,-1.2764580752,-9.632054538400002,2.7449231992,14.43054377,21.94422084,-7.578774859999999,,,
imu,471.551998,-1.3284973688,-9.710412555200001,2.7120247952,14.10155973,20.87502271,-5.91142393,,,
imu,471.560459,-1.4092479968,-9.7714241408,2.7030525032,13.36882255,20.15723935,-4.00481188,,,
imu,471.56892,-1.4798300272,-9.818678212000002,2.6635744184,12.35196279,19.70862475,-2.43466078,,,
imu,471.577381,-1.5749363224,-9.8593526024,2.6121332776,11.18556483,19.38711762,-1.47013939,,,
imu,471.585842,-1.6652573952,-9.8820824088,2.5594958312,9.727567379999998,19.25253324,-0.96918642,,,
imu,471.594303,-1.758569232,-9.8886620896,2.536167872,8.321908299999999,19.60394801,-0.82712513,,,
imu,471.602764,-1.8315438736,-9.858754449600001,2.5110454544,6.83400321,20.53856176,-0.9542325999999999,,,
imu,471.611225,-1.8399180128,-9.821668976000002,2.4631932304,5.31619048,21.71243663,-1.24583209,,,
imu,471.620035,-1.8118048312,-9.801929933600002,2.449435716,3.9853005,22.86388077,-1.73930815,,,
imu,471.628845,-1.755578468,-9.7702278352,2.4147428536,3.07311748,23.92560199,-2.56176825,,,
imu,471.637656,-1.6514998808,-9.680504915200002,2.383638908,2.24318047,24.78544664,-3.36927453,,,
imu,471.646466,-1.5426360712,-9.599156134400001,2.379451838400001,1.53287402,25.19667669,-4.34874974,,,
imu,471.655276,-1.4212110528,-9.574631869600001,2.4057705616,1.27865908,25.40603017,-5.10391765,,,
imu,471.664087,-1.3081601736,-9.549509452,2.3842370608,1.27118217,25.04713849,-5.68711663,,,
imu,471.672897,-1.2280076984,-9.507638756,2.389620436,1.32352054,24.28449367,-5.896470109999999,,,
imu,471.681707,-1.1412755424,-9.485507102400002,2.4081631728,1.60764312,23.1853879,-5.85908556,,,
imu,471.690517,-1.0814602624,-9.4591883792,2.4332855904,1.85438115,21.80963646,-5.500193879999999,,,
imu,471.699328,-1.0545433864,-9.460982837600001,2.4572117024,2.23570356,20.17967008,-4.84970271,,,
imu,470.37628,,,,,,,35.632806,-28.7785044,17.58448639999999
imu,470.477842,,,,,,,34.0336628,-28.21697320000001,21.1245744
imu,470.579405,,,,,,,37.4272644,-27.14273960000002,23.17538399999999
imu,470.680967,,,,,,,39.4658668,-26.70328040000001,23.52939279999999
imu,470.78253,,,,,,,40.63775800000001,-26.04409160000001,24.090924
imu,470.884092,,,,,,,41.1016316,-26.27602840000001,23.98105919999999
imu,470.985655,,,,,,,41.6509556,-26.03188440000002,23.3462848
imu,471.087217,,,,,,,41.7119916,-25.94643400000001,23.85898719999999
imu,471.708138,-1.067702748,-9.461580990400002,2.487717495200001,2.48244159,18.31044258,-3.90013514,,,
imu,471.716948,-1.118545736,-9.4753385048,2.5248029688,2.84881018,16.56832255,-2.90570611,,,
imu,471.725759,-1.1986982112,-9.478329268800001,2.5547106088,3.10302512,14.91592544,-1.79912343,,,
imu,471.734569,-1.2902155896,-9.493283088800002,2.587609012800001,3.02825602,13.52522018,-0.7523560299999998,,,
imu,471.743379,-1.3661809952,-9.523190728800001,2.60196468,3.12545585,12.58312952,0.01028879000000016,,,
imu,471.752189,-1.456502068,-9.548313146400002,2.6055535968,2.95348692,12.02236127,0.36170356,,,
imu,471.761,-1.5228970288,-9.575230022400001,2.6306760144,2.79647181,11.83543852,0.6308723199999999,,,
imu,471.76981,-1.5719455584,-9.590183842400002,2.6282834032,2.67684125,11.93263835,0.6009646800000001,,,
imu,471.77862,-1.5874975312,-9.547714993600001,2.613927736,2.52730305,12.57565261,0.3168421000000001,,,
imu,471.787431,-1.594077212,-9.502853533600002,2.603759138400001,2.37776485,13.27100524,-0.23644924,,,
imu,471.796241,-1.5629732664,-9.458590226400002,2.615124041600001,2.45253395,14.07103461,-1.11124771,,,
imu,471.805051,-1.4941856944,-9.450814240000001,2.6175166528,2.39271867,14.6617105,-2.47204533,,,
imu,471.813861,-1.4343704144,-9.468758824,2.597179457600001,2.76656417,15.26734021,-3.8702275,,,
imu,471.822339,-1.3500308696,-9.464571754400001,2.5905997768,2.93105619,15.66361644,-5.34317877,,,
imu,471.830817,-1.2585134912,-9.438851184,2.592992388,3.3871477,15.85053919,-6.33013089,,,
imu,471.839294,-1.175370252,-9.439449336800001,2.6097406664,3.76847011,15.73090863,-7.055391159999999,,,
imu,471.847772,-1.115554972,-9.471749588000002,2.6031609856,4.16474634,15.21500184,-7.61615941,,,
imu,471.856249,-1.0449729416,-9.506442450400002,2.6163203472,4.45634583,14.3626341,-7.758220699999999,,,
imu,471.864727,-1.0042985512,-9.516611048000001,2.631872320000001,4.61336094,13.41306653,-7.578774859999999,,,
imu,471.873204,-1.0180560656,-9.516611048000001,2.645629834400001,4.85262206,12.29900694,-7.11520644,,,
imu,471.881682,-1.0605249144,-9.523190728800001,2.649816904,5.15917537,11.18494735,-6.12825432,,,
imu,471.890159,-1.112564208,-9.555490980000002,2.6635744184,5.03954481,10.16808759,-4.931948719999999,,,
imu,471.898637,-1.1891277664,-9.594370912,2.6659670296,5.0320679,9.28581221,-3.51133582,,,
imu,471.907114,-1.2632987136,-9.644615747200001,2.668957793600001,4.91991425,8.620367219999999,-2.20287657,,,
imu,471.915592,-1.3296936744,-9.666149248000002,2.658789196,4.62083785,8.17175262,-1.11872462,,,
imu,471.924069,-1.3901071072,-9.6703363176,2.648022445600001,3.99277741,7.96987605,-0.5355256399999999,,,
imu,471.932547,-1.4373611784,-9.668541859200001,2.6193111112,3.52920899,7.723138019999999,-0.2214954199999999,,,
imu,471.941024,-1.4576983736,-9.631456385600002,2.584020096,3.02825602,7.999783689999999,0.0626271599999999,,,
imu,471.949502,-1.4409500952,-9.579417092000002,2.5523179976,2.63197979,8.612890310000001,0.2570268200000001,,,
imu,471.957979,-1.3751532872,-9.536350090400001,2.522410357600001,2.4899185,9.009166539999999,0.2046884499999999,,,
imu,471.966457,-1.2997860344,-9.5154147424,2.5038676208,2.46001086,9.40544277,-0.2738337899999999,,,
imu,471.974935,-1.2004926696,-9.502853533600002,2.4871193424,2.40019558,9.49516569,-1.18601681,,,
imu,471.983412,-1.0862454848,-9.492086783200001,2.473959980800001,2.73665653,9.166181649999999,-2.04586146,,,
imu,471.99189,-0.9869521200000001,-9.485507102400002,2.469772911200001,3.20022495,8.56802885,-3.13001341,,,
imu,472.000367,-0.8906495192000001,-9.502255380800001,2.4661839944,3.43948607,7.45396926,-4.30388828,,,
imu,472.008845,-0.8200674888,-9.513022131200001,2.4655858416,3.62640882,5.921202709999999,-5.5151477,,,
imu,472.017322,-0.7620466672,-9.501657228000001,2.4781470504,3.70865483,4.2688056,-6.27779252,,,
imu,472.025787,-0.744700236,-9.4729458936,2.48233412,3.86566994,2.14536316,-6.793699309999999,,,
imu,472.034252,-0.7770004872000001,-9.477132963200003,2.4954934816,4.0600696,0.01444380999999995,-7.21988318,,,
imu,472.042717,-0.8571529624000002,-9.5010590752,2.508652843200001,4.47877656,-1.98936807,-7.06286807,,,
imu,472.051181,-0.9833632032,-9.526779645600001,2.5134380656,4.56849948,-3.85111866,-6.404899990000001,,,
imu,472.059646,-1.1502478344,-9.557883591200001,2.530186344,4.69560695,-5.21939319,-5.61982444,,,
imu,472.068111,-1.3057675624,-9.5632669664,2.5176251352,4.71056077,-5.98203801,-4.78988743,,,
imu,472.076576,-1.477437416,-9.5501076048,2.5218122048,4.66569931,-6.056807109999999,-3.8702275,,,
imu,472.085041,-1.6263774632,-9.5501076048,2.515232524,4.7329915,-5.496038860000001,-3.1973056,,,
imu,472.093505,-1.7489987872,-9.589585689600002,2.5176251352,4.74794532,-4.40441,-2.66644499,,,
imu,472.10197,-1.8321420264,-9.618297024,2.522410357600001,4.59840712,-2.96136637,-2.39727623,,,
imu,472.110435,-1.8746108752,-9.6260730104,2.509250996,4.359146,-1.09961578,-2.42718387,,,
imu,472.1189,-1.8668348888,-9.588389384000001,2.4907082592,4.31428454,0.84438082,-2.77112173,,,
imu,472.127365,-1.8375254016,-9.564463272000001,2.4865211896,4.4339151,2.93791562,-3.4216129,,,
imu,472.13583,-1.8028325392,-9.555490980000002,2.4709692168,4.31428454,4.82957385,-4.23659609,,,
imu,472.144294,-1.7268671336,-9.540537160000001,2.462595077600001,4.45634583,6.65393989,-4.976810179999999,,,
imu,472.152759,-1.6485091168,-9.5327611736,2.4530246328,4.47129965,8.21661408,-5.477763149999999,,,
imu,472.161224,-1.5617769608,-9.520798117600002,2.4392671184,4.56849948,9.48768878,-6.053485220000001,,,
imu,472.169689,-1.4630817488,-9.520798117600002,2.420126228800001,4.90496043,10.34005652,-6.61425347,,,
imu,472.178154,-1.3841255792,-9.511227672800002,2.425509604,5.11431391,10.84100949,-6.89837605,,,
imu,472.186618,-1.3057675624,-9.506442450400002,2.419528076,5.38348267,10.96064005,-7.100252619999999,,,
imu,472.195083,-1.2519338104,-9.510031367200002,2.4177336176,5.66760525,10.83353258,-7.11520644,,,
imu,472.203548,-1.2369799904,-9.512423978400001,2.4231169928,5.7797589,10.4746409,-6.965668239999999,,,
imu,472.212013,-1.24116706,-9.536948243200001,2.4320892848,5.90686637,9.96621102,-6.203023419999999,,,
imu,472.220478,-1.2692802416,-9.5501076048,2.4350800488,6.13117367,9.46525805,-5.260932759999999,,,
imu,472.228937,-1.306963868,-9.5812115504,2.4189299232,6.17603513,9.121320189999999,-4.244073,,,
imu,472.237397,-1.3631902312,-9.6159044128,2.4009853392,6.21341968,8.88205907,-3.27955161,,,
imu,472.245857,-1.40565908,-9.6290637744,2.3902185888,6.13117367,8.77738233,-2.40475314,,,
imu,472.254317,-1.4319778032,-9.642223136000002,2.3728721576,5.86948182,8.84467452,-1.68696978,,,
imu,472.262776,-1.4618854432,-9.651195428000001,2.3513386568,5.87695873,9.076458729999999,-1.253309,,,
imu,472.271236,-1.4888023192,-9.668541859200001,2.3130568776,5.69003598,9.38301204,-1.05890934,,,
imu,472.279696,-1.4750448048,-9.656578803200002,2.2891307656,5.35357503,9.74190372,-1.19349372,,,
imu,472.288155,-1.3978830936,-9.6428212888,2.2831492376,5.28628284,10.28024124,-1.27573973,,,
imu,472.296615,-1.2908137424,-9.654186192000001,2.263410195200001,5.23394447,10.57184073,-1.85893871,,,
imu,472.305075,-1.1747720992,-9.6918698184,2.2562323616,5.12926773,10.42977944,-2.70382954,,,
imu,472.313535,-1.0533470808,-9.748694334400001,2.2484563752,4.86009897,9.80919591,-3.7206893,,,
imu,472.321994,-0.9337165208000001,-9.762451848800001,2.2454656112,4.45634583,9.031597269999999,-4.56558013,,,
imu,472.330454,-0.8332268504000001,-9.7504887928,2.2568305144,3.90305449,7.745568749999999,-5.16373293,,,
imu,472.338914,-0.7823838624,-9.7427128064,2.2406803888,3.52920899,6.10064855,-5.761885729999999,,,
imu,472.347374,-0.7799912512000001,-9.699047652,2.243073,2.87124091,4.23142105,-6.008623759999999,,,
imu,472.355833,-0.8427972952,-9.667345553600002,2.2478582224,2.57216451,2.35471664,-5.95628539,,,
imu,472.364293,-0.9385017432000002,-9.611119190400002,2.249652680800001,2.37028794,0.7920424499999998,-5.49271697,,,
imu,472.372753,-1.0760768872,-9.575828175200002,2.2502508336,2.33290339,-0.4491246100000001,-4.81231816,,,
imu,472.381212,-1.2184372536,-9.585996772800002,2.255036056,2.39271867,-1.286538530000001,-4.00481188,,,
imu,472.389672,-1.3739569816,-9.578818939200001,2.2544379032,2.4899185,-1.49589201,-3.37675144,,,
imu,472.398132,-1.5318693208,-9.574631869600001,2.2562323616,2.54225687,-1.1893387,-2.95804448,,,
imu,472.406592,-1.6556869504,-9.560874355200001,2.2508489864,2.65441052,-0.3818324200000003,-2.66644499,,,
imu,472.415051,-1.74959694,-9.565061424800001,2.2574286672,2.75161035,1.04625739,-2.55429134,,,
imu,472.423511,-1.7920657888,-9.588987536800001,2.2502508336,2.87124091,2.9229618,-2.44213769,,,
imu,472.43202,-1.80941222,-9.575828175200002,2.2478582224,3.02825602,5.0164966,-2.33746095,,,
imu,472.44053,-1.7836916496,-9.583006008800002,2.2508489864,3.282470959999999,7.08760067,-2.40475314,,,
imu,472.449039,-1.710717008,-9.548313146400002,2.2478582224,3.37967079,8.9044898,-2.80850628,,,
imu,472.457548,-1.6078347264,-9.541733465600002,2.2735787928,3.51425517,10.57931764,-3.41413599,,,
imu,472.466058,-1.4678669712,-9.617100718400001,2.296906752,3.611455,11.70085414,-4.44594957,,,
imu,472.474567,-1.3512271752,-9.669140012000002,2.252045292,3.62640882,12.20928402,-5.27588658,,,
imu,472.483076,-1.2130538784,-9.6709344704,2.2484563752,3.85819303,12.35882222,-5.75440882,,,
imu,472.491586,-1.0784694984,-9.651195428000001,2.249054528,3.76847011,11.80553088,-6.19554651,,,
imu,472.500095,-0.9875502728000001,-9.657775108800001,2.249652680800001,3.60397809,10.84100949,-6.487145999999999,,,
imu,472.508604,-0.9115848672000001,-9.668541859200001,2.2233339576,3.64136264,9.51759642,-6.352561619999999,,,
imu,472.517114,-0.8978273528000001,-9.700243957600001,2.2293154856,3.52173208,8.044645150000001,-5.76936264,,,
imu,471.196745,,,,,,,43.29892760000001,-26.60562280000001,21.45416879999999
imu,471.298185,,,,,,,40.6133436,-26.5445868,23.6880864
imu,471.399748,,,,,,,41.8950996,-27.65544200000001,20.64849359999999
imu,471.50128,,,,,,,39.0996508,-26.4103076,23.2852488
imu,471.602842,,,,,,,38.4770836,-26.87418120000002,21.649484
imu,471.704435,,,,,,,37.8178948,-27.11832520000002,22.2842584
imu,471.806028,,,,,,,37.02442680000001,-26.99625320000001,22.78475359999999
imu,471.907987,,,,,,,36.2187516,-27.61882040000001,22.33308719999999
imu,472.525525,-0.9193608536000001,-9.706823638400001,2.2376896248,3.32733242,6.54178624,-4.96185636,,,
imu,472.534034,-0.9642223136000001,-9.7283571392,2.22811918,2.87124091,5.27071154,-3.98238115,,,
imu,472.542544,-1.0431784832,-9.731347903200001,2.2173524296,2.57964142,4.16412886,-2.98795212,,,
imu,472.551053,-1.1490515288,-9.744507264800001,2.2203431936,2.1908421,3.00520781,-2.35989168,,,
imu,472.559562,-1.2615042552,-9.755872168000002,2.2257265688,1.68988913,2.1752708,-2.001,,,
imu,472.568071,-1.3554142448,-9.7403201952,2.2077819848,1.0693056,1.91357895,-1.82155416,,,
imu,472.576581,-1.4427445536,-9.7325442088,2.2125672072,0.44872207,1.8761944,-1.83650798,,,
imu,472.58509,-1.522298876,-9.709216249600003,2.205389373600001,0.13469185,2.33228591,-1.8514618,,,
imu,472.593599,-1.5629732664,-9.664952942400001,2.191631859200001,-0.28401511,3.02763854,-2.16549202,,,
imu,472.602109,-1.5474212936,-9.612913648800001,2.1808651088,-0.53823005,3.97720611,-2.27016876,,,
imu,472.008994,,,,,,,35.85253560000001,-27.15494680000001,21.73493439999999
imu,472.110892,,,,,,,35.7792924,-27.27701880000002,20.6973224
imu,472.212149,,,,,,,36.0722652,-27.13053240000001,21.38092559999999
imu,472.313681,,,,,,,38.0620388,-28.59539640000002,19.8672328
imu,472.415274,,,,,,,35.80370680000001,-28.14373000000001,21.53961919999999
imu,472.516959,,,,,,,38.2329396,-28.5831892,18.8906568
