Type,Timestamp,Data Accelerometer X,Data Accelerometer Y,Data Accelerometer Z,Data Gyroscope X,Data Gyroscope Y,Data Gyroscope Z,Data Magnetometer X,Data Magnetometer Y,Data Magnetometer Z
imu,394.310622,-2.307673502400001,-9.767835224,1.4553057624,-0.49336859,-43.31424964,-6.14320814,,,
imu,394.319444,-2.5475327752,-9.805518850400002,1.456502068,-0.63542988,-39.01502639,-6.397423079999999,,,
imu,394.328266,-2.7526991856,-9.8270523512,1.462483596,-0.76253735,-33.53445136,-6.42733072,,,
imu,394.337088,-2.8603666896,-9.88447502,1.4977746112,-1.0989983,-27.23141623,-6.225454149999999,,,
imu,394.345911,-2.8723297456,-9.9048122152,1.4935875416,-1.54013599,-20.47228959,-5.64973208,,,
imu,394.354733,-2.82627198,-9.938308772000001,1.5079432088,-2.28782699,-13.86270115,-5.09644074,,,
imu,394.363555,-2.697669128,-9.999320357600002,1.5228970288,-2.99065653,-7.529758380000001,-4.44594957,,,
imu,394.372377,-2.5164288296,-10.0543504152,1.516317348,-3.98508556,-1.66038403,-3.18982869,,,
imu,394.3812,-2.2981030576,-10.0531541096,1.4977746112,-5.054283689999999,3.25194584,-1.61220068,,,
imu,394.390022,-2.0462807288,-9.939505077600002,1.4499223872,-6.34778912,6.99040084,-0.04204958000000003,,,
imu,394.398844,-1.7567747736,-9.8617452136,1.441548248,-7.065572479999999,9.689565349999999,1.40099405,,,
imu,394.407319,-1.4732503464,-9.802528086400002,1.3948923296,-7.5291409,11.09522443,2.26831561,,,
imu,394.415794,-1.2076705032,-9.730749750400001,1.357806856,-7.92541713,11.22980881,2.38794617,,,
imu,394.424269,-0.9773816752000002,-9.672130776000001,1.3512271752,-8.00018623,10.29519506,2.35803853,,,
imu,394.432744,-0.7775986400000001,-9.613511801600001,1.357806856,-7.81326348,8.396059919999999,1.81970101,,,
imu,394.441219,-0.6298548984000001,-9.5877912312,1.3619939256,-7.48427944,5.92867962,1.07201001,,,
imu,394.449694,-0.5347486032000001,-9.547714993600001,1.3781440512,-7.05061866,3.12483837,0.3467497399999999,,,
imu,394.458169,-0.5102243384,-9.496872005600002,1.4014720104,-6.430035129999999,-0.04537147000000008,-0.23644924,,,
imu,394.466644,-0.5383375200000001,-9.444234559200002,1.4289870392,-5.57019048,-2.95388946,-0.2813106999999999,,,
imu,394.475119,-0.5987509528,-9.391597112800001,1.4696614296,-4.54585381,-5.84745363,-0.17663396,,,
imu,394.483594,-0.7016332344,-9.370063612000001,1.5067469032,-3.55142478,-8.43446449,-0.01214194000000002,,,
imu,394.492069,-0.8625363376,-9.388606348800002,1.513326584,-2.57942648,-10.73735277,-0.18411087,,,
imu,394.500544,-1.0330098856,-9.408943544000001,1.5007653752,-1.19619813,-12.44956516,-0.01214194000000002,,,
imu,394.509019,-1.2004926696,-9.453805004000001,1.549215752,0.01506129,-13.65334767,0.3392728300000001,,,
imu,394.517494,-1.3601994672,-9.5154147424,1.5743381696,1.21136689,-14.15430064,0.6607799600000002,,,
imu,394.525969,-1.5061487504,-9.571042952800001,1.5785252392,2.19831901,-14.06457772,0.9598563599999999,,,
imu,394.534444,-1.6473128112,-9.585996772800002,1.5868993784,2.78151799,-13.10753324,1.24397894,,,
imu,394.542919,-1.7603636904,-9.591380148,1.594077212,3.05816366,-11.75421253,1.34865568,,,
imu,394.551394,-1.80941222,-9.6159044128,1.5863012256,3.47687062,-9.77283138,1.23650203,,,
imu,394.559869,-1.8189826648,-9.660765872800003,1.5863012256,3.64136264,-7.679296580000001,0.44394957,,,
imu,394.568344,-1.7962528584,-9.7074217912,1.5785252392,3.88810067,-5.48108504,-0.52057182,,,
imu,394.576819,-1.7250726752,-9.717590388800001,1.576132628,3.88062376,-3.33521187,-1.87389253,,,
imu,394.585294,-1.6156107128,-9.758862932000001,1.5874975312,3.86566994,-1.36878454,-3.30198234,,,
imu,394.593769,-1.4995690696,-9.8061170032,1.5857030728,3.6862241,0.2088434699999997,-4.58801086,,,
imu,394.602244,-1.3978830936,-9.870717505600002,1.5773289336,3.32733242,1.4275798,-5.82170101,,,
imu,394.61071,-1.2967952704,-9.8982325344,1.5833104616,2.53477996,2.2500399,-6.67406875,,,
imu,394.619176,-1.1909222248,-9.908401132000002,1.5839086144,1.97401171,2.67622377,-7.06286807,,,
imu,394.627642,-1.1317050976,-9.905410368000002,1.5755344752,1.35342818,2.9229618,-7.06286807,,,
imu,394.636108,-1.1071808328,-9.876699033600001,1.5713474056,0.9347212199999999,2.87810034,-6.65163802,,,
imu,394.644574,-1.1137605136,-9.8461932408,1.561178808,0.3963837,2.87062343,-5.6646859,,,
imu,394.65304,-1.163407196,-9.835426490400001,1.5713474056,-0.007369440000000005,2.78837742,-4.51324176,,,
imu,394.661506,-1.2453541296,-9.8300431152,1.5803196976,-0.31392275,2.78090051,-3.37675144,,,
imu,394.669972,-1.339862272,-9.8198745176,1.579123392,-0.6503837,3.01268472,-2.13558438,,,
imu,394.678438,-1.4283888864,-9.805518850400002,1.5958716704,-0.91207555,3.61083752,-0.96918642,,,
imu,394.686905,-1.5205044176,-9.7995373224,1.594077212,-1.26349032,4.30619015,-0.32617216,,,
imu,394.695371,-1.6072365736,-9.766040765600001,1.5898901424,-1.36069015,5.59969558,-0.1093417699999999,,,
imu,394.703837,-1.6604721728,-9.706823638400001,1.5922827536,-1.51770526,7.23713887,-0.05700339999999993,,,
imu,394.712303,-1.6682481592,-9.633848996800001,1.5767307808,-1.50275144,9.03907418,-0.3336490699999999,,,
imu,394.720769,-1.6437238944,-9.5668558832,1.5575898912,-1.29339796,10.78867112,-1.05143243,,,
imu,394.729235,-1.5952735176,-9.491488630400001,1.543234224,-0.7999219,12.68032935,-2.17296893,,,
imu,394.737701,-1.51033582,-9.4244955168,1.5318693208,-0.0522309,14.45235702,-3.24964397,,,
imu,394.746167,-1.4092479968,-9.4005694048,1.5270840984,0.8375213899999999,15.65613953,-4.53567249,,,
imu,394.754633,-1.2884211312,-9.441841948000002,1.5534028216,1.8917657,16.76272221,-5.896470109999999,,,
imu,394.763099,-1.1622108904,-9.482516338400002,1.5749363224,3.05068675,17.38330574,-7.234837000000001,,,
imu,394.771565,-1.0449729416,-9.555490980000002,1.6245830048,3.85071612,17.51041321,-8.5059117,,,
imu,394.780031,-0.9163700896000002,-9.644017594400001,1.6413312832,4.49373038,17.12161389,-9.39566399,,,
imu,394.788498,-0.7955432240000001,-9.718188541600002,1.6455183528,4.8825297,16.14213868,-9.96390915,,,
imu,394.796964,-0.681894192,-9.770825988000002,1.6706407704,4.97972953,14.8112487,-10.36766229,,,
imu,394.80543,-0.6340419680000001,-9.786976113600002,1.6670518536,4.92739116,12.91959047,-10.20317027,,,
imu,394.813889,-0.6077232448000001,-9.824061587200001,1.6556869504,4.964775710000001,10.78119421,-9.507817639999999,,,
imu,394.822349,-0.5873860496000001,-9.886269478400003,1.6622666312,4.62831476,8.597936489999999,-8.326465859999999,,,
imu,394.830809,-0.6065269392000001,-9.912588201600002,1.6640610896,4.16474634,6.205325289999999,-6.636684199999999,,,
imu,394.839269,-0.6741182056000001,-9.9401032304,1.665855548,3.60397809,3.94729847,-4.909517989999999,,,
imu,394.847728,-0.8021229048,-9.986759148800001,1.6604721728,2.84133327,1.74908693,-3.42908981,,,
imu,394.856188,-0.9743909112000002,-10.0064981912,1.6544906448,1.98896553,-0.06780220000000003,-2.10567674,,,
imu,394.864648,-1.1323032504,-9.980179468000001,1.632957144,1.04687487,-1.04727741,-0.8495558599999999,,,
imu,394.873108,-1.2537282688,-9.9430939944,1.603049504,0.13469185,-1.48093819,0.1448731699999999,,,
imu,394.881567,-1.381732968,-9.880886103200002,1.5617769608,-0.76253735,-1.49589201,0.30188828,,,
imu,394.890027,-1.4876060136,-9.824659740000001,1.52528964,-1.20367504,-1.05475432,0.2944113700000002,,,
imu,394.898487,-1.558188044,-9.743909112,1.4971764584,-1.62985891,0.05182836000000002,0.10001171,,,
imu,394.906946,-1.5767307808,-9.675121540000001,1.4660725128,-1.71210492,1.40514907,-0.34860289,,,
imu,394.915406,-1.5677584888,-9.639232372,1.4469316232,-1.68967419,2.78090051,-1.37293956,,,
imu,394.923866,-1.5019616808,-9.6075302736,1.4307814976,-1.41302852,4.28375942,-2.30755331,,,
imu,394.932326,-1.4307814976,-9.5907819952,1.4397537896,-1.06909066,5.4651112,-3.36179762,,,
imu,394.940785,-1.3207213824,-9.5740337168,1.4349685672,-0.5980453299999999,6.52683242,-4.23659609,,,
imu,394.949145,-1.2124557256,-9.597361676,1.4433427064,-0.16438455,6.99787775,-5.044102369999999,,,
imu,394.957605,-1.1011993048,-9.605735815200001,1.4547076096,0.35152224,7.341815609999999,-5.75440882,,,
imu,394.966064,-1.037795108,-9.638036066400002,1.4798300272,0.76275229,7.1848005,-6.08339286,,,
imu,394.974524,-0.9767835224000002,-9.648204664000001,1.4810263328,0.9945364999999999,6.7361859,-6.360038530000001,,,
imu,394.982984,-0.9343146736000002,-9.652989886400002,1.5085413616,1.41324346,5.9137258,-6.23293106,,,
imu,394.991444,-0.9044070336000001,-9.667345553600002,1.522298876,1.60764312,4.97163514,-6.0385314,,,
imu,394.999903,-0.9073977976000001,-9.675121540000001,1.537252696,1.77213514,3.99215993,-5.522624609999999,,,
imu,395.008363,-0.9438851184000001,-9.711608860800002,1.558188044,2.14598064,2.96782326,-4.75250288,,,
imu,395.016852,-1.0007096344,-9.754675862400001,1.5839086144,2.33290339,1.86124058,-3.70573548,,,
imu,395.025341,-1.0868436376,-9.803126239200001,1.6084328792,2.38524176,1.04625739,-2.62906044,,,
imu,395.03383,-1.1795573216,-9.815687448000002,1.6126199488,2.23570356,0.5453044199999999,-1.91127708,,,
imu,395.042319,-1.2662894776,-9.8300431152,1.6341534496,2.03382699,0.3658585799999998,-1.34303192,,,
imu,395.050808,-1.3452456472,-9.8210708232,1.6311626856,1.57025857,0.5752120599999997,-0.8121713099999999,,,
imu,395.059297,-1.4068553856,-9.8144911424,1.6263774632,1.22632071,0.9415806499999997,-0.7598329399999999,,,
imu,395.067786,-1.4493242344,-9.788172419200002,1.623984852,0.88985976,1.75656384,-0.82712513,,,
imu,395.076275,-1.447529776,-9.7570684736,1.6126199488,0.64312173,2.73603905,-1.0290017,,,
imu,395.084764,-1.4200147472,-9.7193848472,1.6018531984,0.5982602699999999,3.71551426,-1.44023175,,,
imu,395.093253,-1.3775458984,-9.7086180968,1.6012550456,0.59078336,4.70246638,-2.12810747,,,
imu,395.101742,-1.31593616,-9.690075360000002,1.5982642816,0.70293701,5.38286519,-3.01785976,,,
imu,395.110231,-1.2345873792,-9.6775141512,1.5964698232,0.9347212199999999,6.07074091,-3.78050458,,,
imu,395.11872,-1.157425668,-9.6918698184,1.6042458096,0.97210577,6.25766366,-4.55062631,,,
imu,395.127209,-1.0928251656,-9.706823638400001,1.6066384208,1.15155161,6.26514057,-5.1413022,,,
imu,395.135698,-1.0306172744,-9.744507264800001,1.6197977824,1.2188438,6.227756019999999,-5.71702427,,,
imu,395.144187,-0.9708019944000001,-9.731946056000002,1.6197977824,1.37585891,5.88381816,-6.068439039999999,,,
imu,395.152676,-0.9205571592,-9.7283571392,1.620994088,1.21136689,5.23332699,-6.247884879999999,,,
imu,395.161165,-0.8762938520000002,-9.7325442088,1.6186014768,1.07678251,4.216467229999999,-6.28526943,,,
imu,395.169654,-0.8631344904,-9.7325442088,1.6102273376,1.10669015,3.22951511,-6.38994617,,,
imu,395.178143,-0.8571529624000002,-9.7301515976,1.6221903936,1.0693056,2.09302479,-6.2628387,,,
imu,395.186632,-0.8840698384000001,-9.739722042400002,1.6168070184,1.08425942,0.8144731799999998,-5.58243989,,,
imu,395.195121,-0.9444832712000001,-9.7361331256,1.6221903936,1.03192105,-0.39678624,-4.87213344,,,
imu,395.203609,-1.0276265104,-9.7540777096,1.626975616,0.9646288599999999,-1.27158471,-4.15435008,,,
imu,395.212098,-1.1137605136,-9.767835224,1.618003324,0.91229049,-1.85478369,-3.39170526,,,
imu,395.221007,-1.2184372536,-9.7612555432,1.618003324,0.66555246,-2.15386009,-2.80850628,,,
imu,395.229915,-1.3213195352,-9.763050001600002,1.5994605872,0.41881443,-1.99684498,-2.32998404,,,
imu,395.238824,-1.3841255792,-9.7474980288,1.5839086144,0.31413769,-1.63047639,-1.91875399,,,
imu,395.247732,-1.4457353176,-9.727758986400001,1.5707492528,0.26179932,-0.8379239300000001,-1.91127708,,,
imu,395.256641,-1.489400472,-9.727758986400001,1.5755344752,0.41133752,0.1565051,-2.13558438,,,
imu,395.265549,-1.4882041664,-9.7074217912,1.5557954328,0.60573718,1.16588795,-2.2253073,,,
imu,395.274458,-1.4559039152,-9.6733270816,1.552206516,0.59078336,2.34723973,-2.66644499,,,
imu,395.283366,-1.4104443024,-9.662560331200002,1.5498139048,0.88985976,3.54354533,-3.26459779,,,
imu,395.292275,-1.3524234808,-9.663158484000002,1.5408416128,1.42072037,4.53797436,-3.85527368,,,
imu,395.301183,-1.2878229784,-9.673925234400002,1.552206516,1.83942733,5.30061918,-4.35622665,,,
imu,395.310092,-1.2375781432,-9.682299373600001,1.567160336,1.87681188,5.69689541,-4.954379449999999,,,
imu,395.319,-1.2136520312,-9.672728928800002,1.5569917384,2.22074974,6.01840254,-5.34317877,,,
imu,395.327909,-1.1580238208,-9.688280901600002,1.579123392,2.58711833,6.41467877,-5.567486069999999,,,
imu,395.336817,-1.0988066936,-9.703234721600001,1.564169572,2.75161035,6.49692478,-5.79927028,,,
imu,395.345726,-1.037795108,-9.678112304,1.567160336,2.72170271,6.39224804,-5.88151629,,,
imu,395.354634,-1.0114763848,-9.6535880392,1.5677584888,2.96096383,5.876341249999999,-6.16563887,,,
imu,394.391143,,,,,,,38.01321,-28.26580200000002,24.3838968
imu,394.492859,,,,,,,38.25735400000001,-28.14373000000001,24.40831119999999
imu,394.594329,,,,,,,41.4190188,-28.71746840000002,24.396104
imu,394.695831,,,,,,,39.2095156,-28.33904520000001,24.66466239999999
imu,395.363543,-0.9803724392000001,-9.638634219200002,1.5408416128,3.05068675,5.33800373,-6.28526943,,,
imu,395.372451,-0.9678112304000002,-9.646410205600002,1.5336637792,3.30490169,4.59031273,-6.17311578,,,
imu,395.38136,-0.9402962016,-9.648204664000001,1.534261932,3.75351629,3.797760269999999,-6.00114685,,,
imu,395.390268,-0.9504647992000002,-9.663158484000002,1.5211025704,3.91800831,2.87062343,-5.70207045,,,
imu,395.399177,-0.9821668976000001,-9.6912716656,1.519308112,4.23951544,1.92853277,-5.1413022,,,
imu,395.408085,-1.0383932608,-9.724768222400002,1.5175136536,4.61336094,0.9939190199999999,-4.58801086,,,
imu,395.416993,-1.0820584152,-9.7714241408,1.5306730152,4.62083785,0.3209971199999999,-3.93004278,,,
imu,395.425424,-1.157425668,-9.8061170032,1.5270840984,4.42643819,-0.1650020300000001,-3.29450543,,,
imu,395.433854,-1.2309984624,-9.855165532800001,1.5474212936,3.9853005,-0.5014629800000003,-3.03281358,,,
imu,395.442285,-1.2944026592,-9.899428840000002,1.5366545432,3.44696298,-0.6435242699999999,-2.78607555,,,
imu,395.450715,-1.3243102992,-9.900625145600001,1.513326584,2.72170271,-0.3294940500000001,-2.65896808,,,
imu,395.459146,-1.3446474944,-9.911391896000003,1.507345056,2.10859609,0.2237972899999998,-2.60662971,,,
imu,395.467576,-1.354816092,-9.922756799200002,1.4911949304,1.38333582,0.6499811599999998,-2.748691,,,
imu,395.476007,-1.3625920784,-9.899428840000002,1.4810263328,0.79265993,1.17336486,-3.14496723,,,
imu,395.484437,-1.363788384,-9.8749045752,1.5025598336,0.31413769,1.86871749,-3.80293531,,,
imu,395.492868,-1.3314881328,-9.838417254400001,1.5001672224,-0.14943073,2.41453192,-4.44594957,,,
imu,395.501298,-1.2806451448,-9.7953502528,1.4582965264,-0.59056842,2.64631613,-5.17868675,,,
imu,395.509729,-1.2435596712,-9.7074217912,1.4361648728,-0.59056842,2.87062343,-5.72450118,,,
imu,395.518159,-1.21125942,-9.633250844,1.4451371648,-0.34383039,2.90800798,-5.97123921,,,
imu,395.52659,-1.190324072,-9.635045302400002,1.4487260816,0.05244583999999999,2.84071579,-5.612347529999999,,,
imu,395.53502,-1.1669961128,-9.666149248000002,1.4517168456,0.44872207,2.6986545,-4.96185636,,,
imu,395.543451,-1.1502478344,-9.669738164800002,1.4786337216,0.85995212,2.55659321,-4.29641137,,,
imu,395.551881,-1.1628090432,-9.673925234400002,1.4989709168,1.00201341,2.3995781,-3.67582784,,,
imu,395.560312,-1.1496496816,-9.6984494992,1.5049524448,1.17398234,2.13788625,-3.21973633,,,
imu,395.568742,-1.1406773896,-9.708019944000002,1.51033582,1.21136689,1.92105586,-3.0477674,,,
imu,395.577173,-1.1448644592,-9.709814402400001,1.5109339728,1.24127453,1.59207182,-3.1973056,,,
imu,395.585603,-1.1628090432,-9.693066124000001,1.5157191952,1.17398234,1.21074941,-3.43656672,,,
imu,395.594034,-1.184342544,-9.680504915200002,1.5217007232,1.23379762,1.2032725,-3.61601256,,,
imu,395.602464,-1.1981000584,-9.685290137600001,1.5306730152,1.25622835,1.1285034,-3.90761205,,,
imu,395.610895,-1.232194768,-9.709216249600003,1.5378508488,1.30856672,1.06121121,-4.20668845,,,
imu,395.619325,-1.2435596712,-9.730749750400001,1.54024346,1.38333582,1.24813396,-4.27398064,,,
imu,395.627859,-1.2567190328,-9.7283571392,1.5557954328,1.39081273,1.50982581,-4.17678081,,,
imu,395.636392,-1.2752617696,-9.743310959200002,1.5719455584,1.368382,1.89862513,-4.25154991,,,
imu,395.644925,-1.2848322144,-9.768433376800001,1.564169572,1.21136689,2.2500399,-4.169303899999999,,,
imu,395.653459,-1.2824396032,-9.779200127200001,1.5623751136,1.11416706,2.51173175,-4.08705789,,,
imu,395.661992,-1.2764580752,-9.761853696000001,1.5665621832,1.03939796,2.71360832,-3.98238115,,,
imu,395.670526,-1.2806451448,-9.749890640000002,1.5737400168,0.9347212199999999,2.96034635,-3.98985806,,,
imu,395.679059,-1.2812432976,-9.748096181600001,1.567160336,0.85995212,3.05006927,-4.0197657,,,
imu,395.687593,-1.2764580752,-9.743909112,1.5575898912,0.78518302,3.37905331,-3.9449966,,,
imu,395.696126,-1.2668876304,-9.745105417600001,1.55519728,0.91229049,3.51363769,-3.87770441,,,
imu,395.70466,-1.2609061024,-9.7295534448,1.546224988,0.91229049,3.6706528,-4.06462716,,,
imu,395.713193,-1.250139352,-9.7337405144,1.5474212936,0.9945364999999999,3.82766791,-4.06462716,,,
imu,395.721727,-1.2477467408,-9.725964528,1.5330656264,1.00201341,3.80523718,-4.10948862,,,
imu,395.73026,-1.22621324,-9.745105417600001,1.5366545432,1.13659779,3.92486774,-4.102011709999999,,,
imu,395.738794,-1.2070723504,-9.751685098400001,1.5336637792,1.24875144,3.87252937,-4.04967334,,,
imu,395.747327,-1.1765665576,-9.742114653600002,1.5187099592,1.43567419,3.87252937,-3.75807385,,,
imu,395.755861,-1.1616127376,-9.714001472000001,1.507345056,1.26370526,3.62579134,-3.51133582,,,
imu,395.764394,-1.1598182792,-9.7217774584,1.5031579864,1.0693056,3.20708438,-3.42908981,,,
imu,395.772928,-1.190324072,-9.7283571392,1.492391236,1.24127453,3.05006927,-3.15992105,,,
imu,395.781461,-1.2136520312,-9.7301515976,1.5139247368,1.12912088,3.02763854,-2.66644499,,,
imu,395.789995,-1.2280076984,-9.745703570400002,1.5169155008,0.9571519499999999,2.96034635,-2.24026112,,,
imu,395.798528,-1.2782525336,-9.7534795568,1.5151210424,0.88985976,2.9977309,-2.21783039,,,
imu,395.807062,-1.3619939256,-9.765442612800001,1.546224988,0.79265993,3.32671494,-2.32250713,,,
imu,395.815595,-1.4487260816,-9.763050001600002,1.5617769608,0.46367589,3.65569898,-2.48699915,,,
imu,395.824128,-1.543234224,-9.779200127200001,1.5904882952,0.20198404,4.68751256,-2.35241477,,,
imu,395.832582,-1.6443220472,-9.806715156000001,1.5982642816,-0.05970781,6.04083327,-2.5243837,,,
imu,395.841035,-1.7812990384,-9.8162856008,1.5988624344,-0.41859949,7.88015313,-2.68139881,,,
imu,395.849489,-1.961941184,-9.8713156584,1.6491072696,-0.8821679099999999,10.24285669,-2.748691,,,
imu,395.857942,-2.1898374008,-9.952066286400001,1.6736315344,-1.40555161,13.53269709,-2.98795212,,,
imu,395.866395,-2.4380708128,-10.0106852608,1.6915761184,-2.00370441,17.78705888,-3.30945925,,,
imu,395.874849,-2.6306760144,-10.03401322,1.70473548,-2.93831816,22.90126532,-3.96742733,,,
imu,395.883302,-2.8256738272,-10.0214520112,1.6879872016,-3.902839549999999,29.02485461,-4.61044159,,,
imu,395.891755,-2.9118078304,-9.959244120000001,1.6503035752,-4.85240712,35.83631962,-5.45533242,,,
imu,395.900209,-2.9088170664,-9.852174768800001,1.6197977824,-5.764590139999999,43.11882996,-6.36751544,,,
imu,395.908662,-2.7927754232,-9.724768222400002,1.5653658776,-6.05618963,50.44620175999999,-7.04043734,,,
imu,395.917116,-2.6211055696,-9.6290637744,1.5510102104,-5.87674379,57.04083637999999,-7.586251770000001,,,
imu,395.925569,-2.4398652712,-9.5865949256,1.5486175992,-5.59262121,62.89525690999999,-8.36385041,,,
imu,395.934022,-2.3154494888,-9.6218859408,1.60005874,-4.92717622,68.1963861,-8.73769591,,,
imu,395.942476,-2.2705880288,-9.7534795568,1.6772204512,-4.26920814,72.82459339,-8.45357333,,,
imu,395.950929,-2.2574286672,-9.852174768800001,1.7280634392,-4.418746339999999,77.28830866,-7.89280508,,,
imu,395.959382,-2.2741769456,-9.931729091200001,1.776513816,-4.99446841,81.91651595,-6.45723836,,,
imu,395.967836,-2.2478582224,-9.964029342400002,1.7998417752,-5.958989799999999,86.38770813000001,-5.01419473,,,
imu,395.976289,-2.2723824872,-10.0465744288,1.8195808176,-7.24501832,90.99348469,-3.77302767,,,
imu,395.984743,-2.2424748472,-10.0920340416,1.7998417752,-8.78526178,95.70393799,-2.4496146,,,
imu,395.993196,-2.147368552000001,-10.0824635968,1.7609618432,-10.3703667,100.21999163,-1.24583209,,,
imu,396.001649,-2.0504677984,-10.013077872,1.7220819112,-11.93304089,104.46687651,-0.6402023799999998,,,
imu,396.010103,-1.8740127224,-9.9688145648,1.695763188,-13.30879233,108.47450027,-0.4308489,,,
imu,396.018556,-1.6263774632,-9.7714241408,1.5863012256,-14.34808282,111.87649432,-0.31869525,,,
imu,396.027009,-1.3320862856,-9.5249851872,1.5306730152,-14.71445141,114.478459,-0.49066418,,,
imu,396.035347,-1.0282246632,-9.355109792000002,1.5336637792,-14.02657569,116.10842538,-0.77478676,,,
imu,396.043596,-0.708811068,-9.2103568144,1.5450286824,-12.84522391,116.44488633,-1.12620153,,,
imu,396.051934,-0.4743351704000001,-9.230694009600002,1.6018531984,-11.08815006,115.59251859,-1.44770866,,,
imu,396.060271,-0.2607946208,-9.3317818328,1.6586777144,-9.241353290000001,114.07470586,-2.02343073,,,
imu,396.068609,-0.146547436,-9.395784182400002,1.7262689808,-8.01514005,111.45778736,-3.01038285,,,
imu,396.076947,-0.09989151760000002,-9.4843107968,1.8339364848,-7.020711019999999,108.39973117,-3.98238115,,,
imu,396.085284,-0.11963056,-9.5237888816,1.8823868616,-6.44498895,105.48373627,-4.58053395,,,
imu,396.093622,-0.218325772,-9.559678049600002,1.9422021416,-6.36274294,102.56774137,-4.96933327,,,
imu,396.10196,-0.2781410520000001,-9.475936657600002,1.9254538632,-6.48985041,100.01063815,-5.305794219999999,,,
imu,396.110297,-0.3164228312,-9.444832712,1.9535670448,-6.16086637,97.74513442,-5.193640569999999,,,
imu,396.118635,-0.2978800944000001,-9.486105255200002,1.976895004,-5.75711323,95.47215378,-5.16373293,,,
imu,396.126973,-0.2500278704,-9.398774946400001,1.9158834184,-5.2112988,93.28889606,-5.60487062,,,
imu,396.13531,-0.176455076,-9.364680236800002,1.9422021416,-4.605669089999999,90.80656194000001,-6.27779252,,,
imu,396.143648,0.020935348,-9.283929608800001,1.917079724,-3.58880933,87.92047468,-6.920806779999999,,,
imu,396.151986,0.2787392048,-9.190019619200001,1.8799942504,-2.48970356,84.28669642,-7.862897439999999,,,
imu,396.160323,0.4982612824000001,-9.239068148800001,1.8758071808,-0.61299915,79.95756553,-9.12649523,,,
imu,396.168661,0.6699311360000001,-9.4460290176,1.9416039888,1.13659779,75.00785111,-10.27793937,,,
imu,394.797424,,,,,,,41.52888360000001,-28.96161240000001,22.8946184
imu,394.898956,,,,,,,38.1596964,-28.29021640000002,24.77452719999999
imu,395.000549,,,,,,,39.0874436,-29.08368440000002,22.25984399999999
imu,395.102111,,,,,,,38.74564200000001,-28.33904520000001,23.82236559999999
imu,395.203643,,,,,,,38.3061828,-28.49773880000001,24.27403199999999
imu,395.305236,,,,,,,37.89113800000001,-28.48553160000002,24.1397528
imu,395.406799,,,,,,,38.440462,-28.36345960000002,24.6768696
imu,395.508361,,,,,,,38.1230748,-28.21697320000001,24.57921199999999
imu,396.176999,0.7494854584000001,-9.665551095200001,1.9930451296,2.48244159,69.59456827,-10.76393852,,,
imu,396.185336,0.7387187080000002,-9.800135475200001,2.0283361448,2.73665653,63.96445504,-10.63683105,,,
imu,396.193674,0.6358364264000002,-9.801929933600002,2.0594400904,2.33290339,58.74557186,-10.06858589,,,
imu,396.202012,0.4970649768000001,-9.788770572,2.0947311056,1.77961205,53.96034946,-8.88723411,,,
imu,396.210349,0.340947096,-9.800135475200001,2.105497856,0.94967504,49.78823368,-7.249790819999999,,,
imu,396.218687,0.2380648144,-9.8144911424,2.0839643552,0.47862971,46.45353181999999,-5.41794787,,,
imu,396.227025,0.1620994088,-9.765442612800001,2.0498696456,0.04496892999999999,43.22350669999999,-4.25902682,,,
imu,396.235856,0.0675912664,-9.655980650400002,2.0229527696,-0.19429219,40.21778888,-3.8702275,,,
imu,396.244688,0.003588916800000001,-9.5740337168,2.057645632,-0.19429219,37.45880909,-3.7954584,,,
imu,396.253519,0.0251224176,-9.532163020800002,2.0474770344,0.2468455,35.09610553,-3.57862801,,,
imu,396.262351,0.1387714496,-9.519003659200001,2.0265416864,0.7552753799999999,32.64367905,-3.52628964,,,
imu,396.271182,0.2781410520000001,-9.4974701584,1.9900543656,1.55530475,30.11648347,-3.90013514,,,
imu,396.280014,0.4193051128000001,-9.482516338400002,1.9936432824,2.37776485,27.16310402,-4.57305704,,,
imu,396.288845,0.5598710208000001,-9.484908949600001,1.9834746848,3.3123786,23.69381778,-4.954379449999999,,,
imu,396.297677,0.6986424704000002,-9.496872005600002,1.9906525184,4.32176145,19.82825531,-4.8422258,,,
imu,396.306508,0.8463862120000001,-9.5291722568,2.0026155744,5.05449863,15.49164751,-4.602964679999999,,,
imu,396.31534,0.9845595088000001,-9.5698466472,2.0211583112,5.96668165,10.7737173,-4.169303899999999,,,
imu,396.324171,1.0665064424,-9.580613397600002,2.006802644,6.76671102,5.637080129999999,-3.55619728,,,
imu,396.333003,1.1029937632,-9.587193078400002,1.9996248104,7.13307961,0.21632038,-2.88327538,,,
imu,396.341834,1.1173494304,-9.593772759200002,1.9882599072,7.53683275,-5.144624090000001,-1.82155416,,,
imu,396.350666,1.0808621096,-9.6260730104,1.9954377408,7.910678249999999,-10.51304547,-0.40841817,,,
imu,396.359497,1.0515526224,-9.639830524800002,1.9906525184,8.30695448,-15.72445174,1.10939456,,,
imu,396.368329,0.9959244120000001,-9.644615747200001,1.9924469768,8.501354139999998,-20.67416616,2.45523836,,,
imu,396.37716,0.9456795768000001,-9.676317845600002,1.994839588,8.822861269999999,-25.52668075,3.63659014,,,
imu,396.385992,0.8966310472000002,-9.725366375200002,1.9894562128,9.062122389999999,-30.28947242,4.48148097,,,
imu,396.394824,0.8547603512000002,-9.783387196800001,1.9643337952,9.151845309999999,-34.86534134,4.997387760000001,,,
imu,396.403655,0.8756956992000001,-9.798341016800002,1.917079724,9.114460759999998,-39.27671824,5.229171969999999,,,
imu,396.412487,0.9385017432000002,-9.787574266400002,1.8847794728,9.151845309999999,-43.74043351,5.31141798,,,
imu,396.421318,1.0629175256,-9.8144911424,1.8554699856,9.09950694,-48.64528647,5.012341579999999,,,
imu,396.43015,1.190324072,-9.8330338792,1.758569232,8.979876379999999,-53.94641566,4.49643479,,,
imu,396.438656,1.2854303672,-9.8013317808,1.6574814088,8.89763037,-59.76345164,4.34689659,,,
imu,396.447163,1.3494327168,-9.7510869456,1.5994605872,9.039691659999999,-65.87208711,4.52634243,,,
imu,396.45567,1.3793403568,-9.6290637744,1.5199062648,9.18922986,-72.16016841999999,5.4011409,,,
imu,396.464177,1.3213195352,-9.5172092008,1.4559039152,9.809813389999999,-78.51554191999999,6.694646330000001,,,
imu,396.472683,1.2070723504,-9.450814240000001,1.4092479968,10.84910388,-84.43725463999999,8.578827650000001,,,
imu,396.48119,1.0748805816,-9.411934308000001,1.3775458984,12.18747077,-89.88792203,11.37519199,,,
imu,396.489697,0.9008181168,-9.3443430416,1.3344788968,13.04731542,-94.79277499,14.12669487,,,
imu,396.498204,0.70282954,-9.330585527200002,1.3141417016,14.73709708,-98.77049111,17.0651205,,,
imu,396.506711,0.4695499480000001,-9.418513988800001,1.3165343128,16.45678638,-102.36688482,19.67456209,,,
imu,396.515217,0.2739539824000001,-9.591380148,1.3356752024,17.8923531,-105.46980247,21.73818925,,,
imu,396.523724,0.068787572,-9.767835224,1.3500308696,18.63256719,-108.0343826,22.71766446,,,
imu,396.532231,-0.1070693512,-10.1937200176,1.5306730152,18.61013646,-109.84379482,22.5980339,,,
imu,396.540738,-0.2015774936,-10.4772444448,1.5175136536,17.13718519,-111.20459244,21.22975937,,,
imu,396.549244,-0.3068523864000001,-10.5801267264,1.411640608,14.41558995,-112.04200636,18.6352716,,,
imu,396.557751,-0.3074505392,-10.6100343664,1.3715643704,11.46968741,-111.87751434,15.81647653,,,
imu,396.566258,-0.233279592,-10.5268911272,1.2632987136,8.22470847,-111.42142283,13.13226584,,,
imu,396.574765,-0.170473548,-10.4461404992,1.1747720992,5.42834413,-110.9503775,10.52282425,,,
imu,396.583272,-0.1244157824,-10.386923372,1.1329014032,3.20022495,-110.56157818,7.771321370000001,,,
imu,396.591778,-0.1268083936,-10.3582120376,1.103591916,1.4431511,-109.69425662,5.670309659999999,,,
imu,396.600285,-0.1890162848,-10.2547316032,1.0742824288,-0.05970781,-108.80450433,4.683357539999999,,,
imu,396.608792,-0.2607946208,-10.0794728328,1.07667504,-1.35321324,-107.70539856,4.48148097,,,
imu,396.617299,-0.3852104032000001,-9.9167752712,1.0952177768,-2.17567334,-106.02309381,4.533819339999999,,,
imu,396.625805,-0.5323559920000001,-9.783985349600002,1.1209383472,-2.69905704,-104.01180502,4.623542260000001,,,
imu,396.634312,-0.6741182056000001,-9.686486443200002,1.1610145848,-2.54951884,-101.61171691,5.191787420000001,,,
imu,396.642733,-0.8069081272,-9.6296619272,1.2064741976,-2.16071952,-98.70319891999999,5.74507876,,,
imu,396.651153,-0.9247442288000001,-9.541135312800002,1.229204004,-1.71958183,-95.58532745,5.98433988,,,
imu,396.659573,-1.0336080384,-9.463973601600001,1.2824396032,-1.04665993,-92.25810249999999,6.103970440000001,,,
imu,396.667993,-1.1143586664,-9.4041583216,1.3374696608,-0.127,-88.72900098,6.089016620000001,,,
imu,396.676414,-1.1759684048,-9.377241445600001,1.3954904824,1.17398234,-84.87839233,6.17873954,,,
imu,396.684834,-1.1945111416,-9.368269153600002,1.4289870392,2.18336519,-80.97544531,5.96938606,,,
imu,396.693254,-1.1963056,-9.398774946400001,1.4965783056,3.2376095,-77.19960576,5.565632920000001,,,
imu,396.701675,-1.1586219736,-9.482516338400002,1.567160336,4.20213089,-73.67050424,4.705788269999999,,,
imu,396.710095,-1.1113679024,-9.557285438400001,1.6036476568,4.84514515,-70.47038676,2.92628369,,,
imu,396.718515,-1.0724879704,-9.675719692800001,1.665855548,5.21899065,-67.59177641,0.60844159,,,
imu,396.726936,-1.0395895664,-9.853969227200002,1.746606176,5.15917537,-64.77298133999999,-2.27764567,,,
imu,396.735356,-0.9797742864000001,-10.0268353864,1.8130011368,4.60588403,-62.07381683000001,-5.044102369999999,,,
imu,396.743776,-0.9414925072000001,-10.1763735864,1.872218264,3.52920899,-59.2849294,-7.4591443,,,
imu,396.752197,-0.9109867144000001,-10.3235191752,1.9583522672,1.8917657,-56.52594961,-9.462956179999999,,,
imu,396.760617,-0.9175663952000002,-10.4114476368,1.9792876152,0.16459949,-53.64733926,-10.68169251,,,
imu,396.769037,-0.9684093832000001,-10.306172744,1.9463892112,-2.13081188,-50.75377509,-11.24993767,,,
imu,396.777457,-1.03181358,-10.1638123776,1.9583522672,-4.38136179,-47.60599598,-11.1975993,,,
imu,396.785878,-1.1107697496,-10.0423873592,1.952968892,-6.003851259999999,-44.50307833,-10.83870762,,,
imu,396.794298,-1.1879314608,-9.963431189600001,1.9206686408,-7.35717197,-41.45997596,-10.5994465,,,
imu,396.802718,-1.2417652128,-9.881484256,1.8937517648,-7.92541713,-38.36453522,-10.5246774,,,
imu,396.811139,-1.3057675624,-9.8049206976,1.9087055848,-8.44880083,-35.32143285,-10.71160015,,,
imu,396.819559,-1.3763495928,-9.743909112,1.9457910584,-8.70301577,-32.41291486,-11.16769166,,,
imu,396.827979,-1.4224073584,-9.6846919848,1.9565578088,-8.49366229,-29.35485867,-11.45929115,,,
imu,396.8364,-1.4523149984,-9.637437913600001,1.9846709904,-8.366554820000001,-26.22951029,-11.63873699,,,
imu,396.844863,-1.4672688184,-9.591380148,2.0085971024,-8.16467825,-23.11163882,-12.07239777,,,
imu,396.853327,-1.4762411104,-9.5219944232,2.0223546168,-7.820740389999999,-20.00124426,-12.56587383,,,
imu,396.86179,-1.4720540408,-9.4526086984,2.030728756,-7.31231051,-17.07029554,-13.13411899,,,
imu,396.870254,-1.46547436,-9.3975786408,2.045682576,-6.572096419999999,-14.07953154,-13.83694853,,,
imu,396.878717,-1.4277907336,-9.360493167200001,2.0498696456,-5.652436489999999,-11.22335192,-14.54725498,,,
imu,396.887181,-1.378742204,-9.325202152000001,2.0432899648,-4.77016111,-8.60643342,-15.459438,,,
imu,396.895644,-1.3141417016,-9.311444637600001,2.0414955064,-3.80563972,-6.41569879,-16.26694428,,,
imu,396.904108,-1.2627005608,-9.298285276000001,2.0289342976,-2.54951884,-4.36702545,-16.96977382,,,
imu,396.912571,-1.2016889752,-9.294098206400001,2.0115878664,-1.59995127,-2.90155109,-17.71746482,,,
imu,396.921035,-1.163407196,-9.315631707200001,2.0091952552,-0.39616876,-1.51832274,-18.48758655,,,
imu,396.929499,-1.1221346528,-9.321613235200001,1.994839588,0.64312173,-0.6360473600000001,-19.38481575,,,
imu,396.937962,-1.0898344016,-9.352119028,1.9930451296,1.75718132,-0.03041764999999996,-20.37176787,,,
imu,396.946426,-1.0401877192,-9.418513988800001,2.006802644,2.95348692,0.3733354899999997,-21.42601218,,,
imu,396.954889,-0.9893447312000001,-9.575828175200002,2.0887495776,3.99277741,0.7097964399999999,-22.12136481,,,
imu,396.963353,-0.9253423816,-9.8049206976,2.1629205248,4.516161110000001,0.7696117199999999,-22.19613391,,,
imu,396.971816,-0.9175663952000002,-9.964029342400002,2.1904355536,4.27689999,0.6574580699999997,-21.31385853,,,
imu,396.98028,-0.9385017432000002,-10.0483688872,2.2023986096,3.40957843,0.2910894799999997,-19.31004665,,,
imu,396.988743,-0.9821668976000001,-10.0752857632,2.231109944,2.18336519,-0.09023292999999999,-16.77537416,,,
imu,395.60995,,,,,,,40.54010040000001,-28.63201800000002,23.6880864
imu,395.711665,,,,,,,38.2939756,-28.63201800000002,24.2252032
imu,395.816218,,,,,,,40.6621724,-29.41327880000002,21.7227272
imu,395.914668,,,,,,,37.12208440000001,-28.57098200000001,23.88340159999999
imu,396.018275,,,,,,,36.97559800000001,-28.44891000000001,17.82863039999999
imu,396.117823,,,,,,,31.5067724,-26.39810040000001,16.20507279999999
imu,396.219355,,,,,,,30.1029444,-25.33607400000002,12.0302104
imu,396.320948,,,,,,,30.02970120000001,-24.99427240000001,10.83390479999999
imu,396.997207,-1.0623193728,-10.066911624,2.2317080968,0.9347212199999999,-0.5463244400000002,-14.31547077,,,
imu,397.00567,-1.1909222248,-10.0471725816,2.2173524296,-0.64290679,-1.16690797,-12.40885872,,,
imu,397.014134,-1.348834564,-10.0513596512,2.222735804800001,-2.25791935,-1.57813802,-10.83123071,,,
imu,397.022598,-1.5157191952,-10.042985512,2.2245302632,-3.81311663,-1.34635381,-9.69474039,,,
imu,397.031061,-1.6245830048,-9.9783850096,2.2029967624,-5.30849863,-0.7482010100000003,-9.223695059999999,,,
imu,397.039525,-1.7155022304,-9.8653341304,2.1790706504,-6.42255822,0.5527813299999997,-9.31341798,,,
imu,397.048002,-1.77950458,-9.754675862400001,2.1425833296,-7.0805263,2.04816333,-9.552679099999999,,,
imu,397.05648,-1.7872805664,-9.630858232800001,2.1072923144,-7.544094719999999,3.78280645,-10.09849353,,,
imu,397.064957,-1.7789064272,-9.516012895200001,2.0803754384,-7.678679099999999,5.66698777,-10.89104599,,,
imu,397.073435,-1.7489987872,-9.4382530312,2.0654216184,-7.17024922,7.80538403,-11.77332137,,,
imu,397.081912,-1.6951650352,-9.3904008072,2.0522622568,-6.452465859999999,9.67461153,-12.62568911,,,
imu,397.09039,-1.626975616,-9.3592968616,2.0522622568,-5.54028284,11.5214083,-13.40328775,,,
imu,397.098867,-1.5545991272,-9.33118368,2.051664104,-4.55333072,13.10651322,-14.15845566,,,
imu,397.107345,-1.4852134024,-9.315631707200001,2.0492714928,-3.43179422,14.31029573,-14.77156228,,,
imu,397.115822,-1.4164258304,-9.306659415200002,2.051664104,-2.25791935,15.1103251,-15.37719199,,,
imu,397.1243,-1.3458438,-9.309650179200002,2.0498696456,-1.35321324,15.56641661,-15.81832968,,,
imu,397.13286,-1.2609061024,-9.336567055200002,2.0618327016,-0.33635348,15.81315464,-16.15479063,,,
imu,397.141338,-1.1986982112,-9.378437751200002,2.0737957576,0.53844499,15.72343172,-16.40152866,,,
imu,397.149815,-1.1251254168,-9.443636406400001,2.111479384,1.40576655,15.27481712,-16.17722136,,,
imu,397.158293,-1.0330098856,-9.527975951200002,2.1389944128,2.22822665,14.46731084,-15.5342071,,,
imu,397.16677,-0.9588389384,-9.630260080000001,2.1898374008,2.82637945,13.29343597,-14.45753206,,,
imu,397.175248,-0.8960328944000001,-9.668541859200001,2.2000059984,3.140409669999999,11.88029998,-12.90233478,,,
imu,397.183725,-0.8756956992000001,-9.6846919848,2.22811918,2.96844074,9.99611866,-10.80879998,,,
imu,397.192203,-0.8619381848000001,-9.706823638400001,2.2329044024,2.63197979,8.05959897,-8.53581934,,,
imu,397.20068,-0.8846679912000001,-9.722375611200002,2.2454656112,2.46001086,5.79409524,-6.17311578,,,
imu,397.209158,-0.9588389384,-9.7786019744,2.2424748472,2.13102682,3.56597606,-4.11696553,,,
imu,397.217635,-1.0246357464,-9.7714241408,2.2382877776,1.67493531,1.45748744,-2.56176825,,,
imu,397.226113,-1.0940214712,-9.739123889600002,2.2448674584,1.00949032,-0.65847809,-1.66453905,,,
imu,397.234591,-1.1759684048,-9.6775141512,2.2299136384,0.70293701,-2.2361061,-1.35798574,,,
imu,397.243068,-1.2938045064,-9.667345553600002,2.2215394992,0.47862971,-3.38755024,-1.44023175,,,
imu,397.25187,-1.4403519424,-9.6709344704,2.2155579712,0.31413769,-4.03804141,-1.67949287,,,
imu,397.260673,-1.582114156,-9.679308609600001,2.2394840832,0.17955331,-4.0305645,-2.2253073,,,
imu,397.269475,-1.7244745224,-9.6284656216,2.2143616656,0.23936859,-3.23801204,-2.71130645,,,
imu,397.278277,-1.9152852656,-9.568052188800001,2.207183832,0.21693786,-1.85478369,-3.56367419,,,
imu,397.28708,-2.1186572176,-9.5237888816,2.1964170816,0.32909151,0.4032431299999999,-4.58053395,,,
imu,397.295882,-2.253839750400001,-9.4729458936,2.1820614144,0.7552753799999999,3.68560662,-5.47028624,,,
imu,397.304684,-2.3196365584,-9.423299211200002,2.1485648576,1.25622835,7.34929252,-6.51705364,,,
imu,397.313487,-2.36270356,-9.372456223200002,2.1192553704,1.8917657,11.3718701,-7.870374350000001,,,
imu,397.322289,-2.380648144,-9.3419504304,2.1102830784,2.7142258,15.6337088,-9.23864888,,,
imu,397.331091,-2.3453571288,-9.325800304800001,2.096525564,3.589024269999999,19.85068604,-10.01624752,,,
imu,397.339894,-2.2484563752,-9.313239096000002,2.0773846744,4.61336094,23.85083289,-10.3751392,,,
imu,397.348696,-2.129423968,-9.3347725968,2.0839643552,5.7797589,27.4472266,-10.68916942,,,
imu,397.357498,-2.015774936,-9.356306097600001,2.0881514248,6.9760645,30.60248262,-10.86861526,,,
imu,397.366301,-1.8877702368,-9.388008196000001,2.0827680496,8.239662289999998,33.31660095,-10.80879998,,,
imu,397.375103,-1.758569232,-9.423299211200002,2.1001144808,8.935014919999999,35.38770502,-10.5246774,,,
imu,397.383905,-1.5964698232,-9.486703408,2.12344244,9.630367549999999,36.97280994,-10.04615516,,,
imu,397.392708,-1.3895089544,-9.630260080000001,2.1665094416,10.27338181,37.81770076999999,-9.41809472,,,
imu,397.40151,-1.1669961128,-9.7786019744,2.2305117912,10.28085872,37.84760841,-8.61806535,,,
imu,397.410312,-0.885266144,-9.950271828000002,2.2897289184,9.921967039999998,36.76345646,-7.63859014,,,
imu,397.419115,-0.5855915912,-10.0836599024,2.3052808912,8.90510728,34.67739857,-6.47219218,,,
imu,397.427917,-0.3146283728000001,-10.1345028904,2.321431016800001,7.11064888,31.37260435,-5.09644074,,,
imu,397.436719,-0.07955432240000002,-10.1638123776,2.3178421,5.13674464,26.85655071,-3.65339711,,,
imu,397.445522,0.08733030880000002,-10.1422788768,2.2927196824,3.140409669999999,21.37597568,-2.0757691,,,
imu,397.453995,0.1603049504,-10.1189509176,2.228717332800001,1.27865908,15.28229403,-0.17663396,,,
imu,397.462469,0.1453511304,-10.0364058312,2.186248484,-0.4260764,8.78485924,1.90194702,,,
imu,397.470943,0.1112564208,-9.952066286400001,2.1461722464,-2.04856587,2.33976282,4.077727830000001,,,
imu,397.479417,0.0526374464,-9.837220948800002,2.0971237168,-3.25982529,-3.79130338,5.849755500000001,,,
imu,397.48789,-0.05802082160000001,-9.681103068,2.031326908800001,-3.96265483,-9.82516975,7.08344565,,,
imu,397.496364,-0.2075590216,-9.549509452,2.0002229632,-4.231823589999999,-15.31322169,8.00310558,,,
imu,397.504838,-0.3672658192000001,-9.457393920800001,1.9595485728,-3.81311663,-20.105921,8.87790405,,,
imu,397.513311,-0.5221873944000001,-9.363483931200001,1.8997332928,-2.5943803,-24.33037515,9.61064123,,,
imu,397.521785,-0.6675385248000001,-9.285724067200002,1.8925554592,-1.48779762,-27.94919959,9.670456510000001,,,
imu,397.530259,-0.8015247520000001,-9.224114328800002,1.9057148208,-0.02980017,-30.74556393,9.34894938,,,
imu,397.538733,-0.9660167720000001,-9.251629357600002,1.91408896,1.63755076,-32.77180654,9.102211350000001,,,
imu,397.547206,-1.1029937632,-9.302472345600002,1.9362206136,2.90862546,-34.07278888,8.82556568,,,
imu,397.55568,-1.1957074472,-9.372456223200002,1.9637356424,4.23951544,-34.64103404,8.64611984,,,
imu,397.564154,-1.2842340616,-9.4454308648,1.9852691432,5.248898290000001,-34.76814151,7.95824412,,,
imu,397.572627,-1.3655828424,-9.506442450400002,2.0103915608,6.04892766,-34.31952691,6.896522900000001,,,
imu,397.581101,-1.441548248,-9.556089132800002,2.0253453808,6.40034243,-33.6391281,5.603017469999999,,,
imu,397.589575,-1.5145228896,-9.596165370400001,2.0379065896,6.78914175,-32.35309958,4.6534499,,,
imu,397.598049,-1.5845067672,-9.686486443200002,2.0690105352,7.08074124,-30.60350264,3.74874379,,,
imu,397.606522,-1.6317608384,-9.792957641600001,2.0857588136,7.02840287,-28.32304509,3.09825262,,,
imu,397.614996,-1.6263774632,-9.9448884528,2.1312184264,6.54988063,-25.99024917,2.6346842,,,
imu,397.62347,-1.5976661288,-10.0507614984,2.1401907184,5.76480508,-23.53782269,2.44776145,,,
imu,397.631943,-1.5689547944,-10.0932303472,2.132414732,4.24699235,-21.16016531,2.15616196,,,
imu,397.640417,-1.5288785568,-10.0962211112,2.1318165792,2.81142563,-19.01429214,2.11877741,,,
imu,397.648891,-1.4648762072,-10.0543504152,2.096525564,1.31604363,-17.08524936,2.14868505,,,
imu,397.657379,-1.3942941768,-10.0136760248,2.0462807288,-0.15690764,-15.58239045,1.90194702,,,
imu,397.665866,-1.3087583264,-9.982572079200002,2.009793408,-1.25601341,-14.32626957,1.61034753,,,
imu,397.674354,-1.2399707544,-9.927542021600003,1.9571559616,-2.39998064,-13.27202526,0.9673332700000001,,,
imu,397.682842,-1.1897259192,-9.896438076,1.9344261552,-3.37197894,-12.65891864,-0.1093417699999999,,,
imu,397.691329,-1.1502478344,-9.835426490400001,1.8973406816,-3.94770101,-12.09067348,-1.04395552,,,
imu,397.699817,-1.139481084,-9.764246307200002,1.8764053336,-4.43370016,-11.48504377,-1.79912343,,,
imu,397.708305,-1.1442663064,-9.697253193600002,1.8799942504,-4.75520729,-10.73735277,-2.57672207,,,
imu,397.716792,-1.1622108904,-9.630858232800001,1.8680311944,-4.538376899999999,-9.81769284,-2.87579847,,,
imu,397.72528,-1.1628090432,-9.577024480800002,1.8614515136,-4.20191595,-8.815786899999999,-2.92065993,,,
imu,397.733768,-1.1717813352,-9.532163020800002,1.8770034864,-3.902839549999999,-7.896126969999999,-3.18235178,,,
imu,397.742256,-1.2040815864,-9.4843107968,1.8817887088,-3.28973293,-7.10357451,-3.89265823,,,
imu,397.750743,-1.229204004,-9.469356976800002,1.8955462232,-2.69905704,-6.191391489999999,-4.64034923,,,
imu,397.759231,-1.2375781432,-9.455001309600002,1.9099018904,-1.93641222,-5.24182392,-5.20859439,,,
imu,397.767719,-1.2543264216,-9.4699551296,1.9296409328,-1.40555161,-4.28477944,-6.158161959999999,,,
imu,397.776206,-1.2543264216,-9.492086783200001,1.9404076832,-0.81487572,-3.17071985,-6.95819133,,,
imu,397.784694,-1.2537282688,-9.5172092008,1.9727079344,-0.37373803,-2.29592138,-7.758220699999999,,,
imu,397.793182,-1.235185532,-9.5638651192,1.9804839208,-0.02980017,-1.55570729,-8.588157709999999,,,
imu,397.801669,-1.1939129888,-9.623680399200001,2.00381188,0.28423005,-0.6435242699999999,-9.35827944,,,
imu,397.810157,-1.1496496816,-9.683495679200002,2.0074007968,0.29918387,-0.2173404000000003,-10.19569336,,,
imu,396.422511,,,,,,,30.2372236,-24.66467800000001,11.45647199999999
imu,396.524043,,,,,,,31.97064600000001,-25.81215480000001,14.48385759999999
imu,396.625758,,,,,,,34.66843720000001,-26.56900120000001,19.75736799999999
imu,396.727137,,,,,,,39.0996508,-27.41129800000002,23.1875912
imu,396.82873,,,,,,,41.0283884,-27.27701880000002,24.0665096
imu,396.930445,,,,,,,44.360954,-28.30242360000002,22.6138528
imu,397.031855,,,,,,,41.8706852,-27.59440600000001,25.11632879999999
imu,397.133418,,,,,,,43.689558,-28.71746840000002,22.6138528
imu,397.818645,-1.1346958616,-9.709814402400001,2.024747228,0.16459949,-0.1350943900000003,-11.10039947,,,
imu,397.827133,-1.1149568192,-9.7337405144,2.0462807288,-0.11952309,-0.25472495,-11.90042884,,,
imu,397.83562,-1.1143586664,-9.767835224,2.0540567152,-0.32887657,-0.3294940500000001,-12.21445906,,,
imu,397.844108,-1.1317050976,-9.8013317808,2.0618327016,-0.56066078,-0.35192478,-12.34904344,,,
imu,397.852596,-1.1765665576,-9.827650504000003,2.0749920632,-0.97189083,-0.4939860700000001,-12.40885872,,,
imu,397.861151,-1.2465504352,-9.844996935200001,2.1072923144,-1.49527453,-0.45660152,-12.13221305,,,
imu,397.869706,-1.3051694096,-9.863539672000002,2.1192553704,-2.11585806,-0.25472495,-11.63126008,,,
imu,397.878261,-1.396686788,-9.880886103200002,2.1521537744,-2.72896468,0.2013665599999999,-11.15273784,,,
imu,397.886816,-1.5037561392,-9.9030177568,2.1790706504,-3.39440967,0.86681155,-10.86113835,,,
imu,397.895371,-1.6162088656,-9.8820824088,2.1964170816,-4.10471612,1.77151766,-10.61440032,,,
imu,397.903926,-1.7388301896,-9.832435726400002,2.2119690544,-4.964560769999999,2.99025399,-10.54710813,,,
imu,397.912481,-1.8530773744,-9.7959484056,2.2185487352,-5.6599134,4.82209694,-10.8237538,,,
imu,397.921036,-1.9565578088,-9.737329431200001,2.2167542768,-6.36274294,6.96797011,-11.30975295,,,
imu,397.929592,-2.0223546168,-9.655382497600002,2.1958189288,-6.878649729999999,9.40544277,-12.07239777,,,
imu,397.938147,-2.0552530208,-9.556089132800002,2.1766780392,-6.901080459999999,12.1195611,-12.76027349,,,
imu,397.946702,-2.045084423200001,-9.4831144912,2.1527519272,-6.639388609999999,14.87854089,-13.38833393,,,
imu,397.955257,-2.004410032800001,-9.393989724,2.130022120800001,-6.30292766,17.45807484,-13.99396364,,,
imu,397.963812,-1.9457910584,-9.3335762912,2.1360036488,-5.63000576,19.73853239,-14.51734734,,,
imu,397.972367,-1.845301388,-9.3174261656,2.1419851768,-4.87483785,21.73486736,-15.10054632,,,
imu,397.980922,-1.7280634392,-9.306659415200002,2.1629205248,-3.82059354,23.31997228,-15.11550014,,,
imu,397.989477,-1.5982642816,-9.3335762912,2.1946226232,-2.99065653,24.29197058,-15.12297705,,,
imu,397.998032,-1.4547076096,-9.409541696800002,2.2203431936,-2.28782699,24.56861625,-15.14540778,,,
imu,398.006587,-1.3015804928,-9.481320032800001,2.249054528,-1.6971511,24.31440131,-14.95848503,,,
imu,398.015142,-1.1340977088,-9.569248494400002,2.3016919744,-1.49527453,23.06575734,-14.6369779,,,
imu,398.023698,-0.9678112304000002,-9.651195428000001,2.3333940728,-1.50275144,21.20400675,-14.07620965,,,
imu,398.032253,-0.8481806704000001,-9.676915998400002,2.3495441984,-1.78687402,18.45998078,-13.19393427,,,
imu,398.040808,-0.7656355840000001,-9.6918698184,2.3680869352,-2.10838115,15.17761729,-11.99015176,,,
imu,398.049363,-0.7195778184000001,-9.703832874400002,2.3752647688,-2.48222665,11.65599268,-10.0760628,,,
imu,398.057918,-0.7141944432000001,-9.680504915200002,2.3722740048,-2.76634923,8.01473751,-7.50400576,,,
imu,398.066268,-0.7458965416000001,-9.6224840936,2.3782555328,-2.90841052,4.26132869,-4.72259524,,,
imu,398.074619,-0.8302360864000001,-9.554294674400001,2.3902185888,-3.03551799,0.6350273399999997,-2.02343073,,,
imu,398.082969,-0.9253423816,-9.519601812000001,2.4081631728,-2.93831816,-2.85668963,0.1074886200000003,,,
imu,398.091319,-1.004896704,-9.461580990400002,2.389022283200001,-2.70653395,-5.93717655,1.46828624,,,
imu,398.09967,-1.070693512,-9.426888128000002,2.3944056584,-2.11585806,-8.49427977,2.23840797,,,
imu,398.10802,-1.1502478344,-9.406550932800002,2.4027797976,-1.62985891,-10.70744513,2.56739201,,,
imu,398.116371,-1.2184372536,-9.385017432000001,2.389022283200001,-0.7999219,-12.66639555,2.59729965,,,
imu,398.124721,-1.295000812,-9.374250681600001,2.3800499912,-0.03727708,-14.31131575,1.99914685,,,
imu,398.133071,-1.369769912,-9.377839598400001,2.3704795464,0.7403215599999999,-15.61229809,1.11687147,,,
imu,398.141422,-1.4349685672,-9.364680236800002,2.3519368096,1.43567419,-16.28521999,0.1747808100000001,,,
imu,398.149772,-1.4965783056,-9.3545116392,2.36270356,2.17588828,-16.61420403,-0.7897405799999999,,,
imu,398.158122,-1.5629732664,-9.370661764800001,2.3513386568,3.0880713,-16.60672712,-1.71687742,,,
imu,398.166473,-1.6042458096,-9.382026668000002,2.335786684,3.73856247,-16.41232746,-2.64401426,,,
imu,398.174823,-1.656883256,-9.416121377600001,2.3244217808,4.17222325,-15.92632831,-3.54124346,,,
imu,398.183174,-1.7035391744,-9.4526086984,2.323823628,4.83019133,-14.92442237,-4.012288789999999,,,
imu,398.191524,-1.752587704,-9.5154147424,2.3082716552,5.19655992,-14.01971626,-4.341272829999999,,,
imu,398.199874,-1.8088140672,-9.5812115504,2.3184402528,5.27132902,-13.04771796,-4.52071867,,,
imu,398.208225,-1.845301388,-9.6637566368,2.331001461600001,5.39095958,-11.49252068,-4.146873169999999,,,
imu,398.216575,-1.8740127224,-9.7361331256,2.3292070032,5.17412919,-9.72049301,-3.63844329,,,
imu,398.224831,-1.9134908072,-9.8013317808,2.3274125448,4.65074549,-7.82135787,-3.31693616,,,
imu,398.233182,-1.9218649464,-9.8270523512,2.3172439472,3.9853005,-6.079237839999999,-3.09262886,,,
imu,398.241532,-1.9164815712,-9.822267128800002,2.296906752,3.03573293,-4.13524124,-2.68887572,,,
imu,398.249882,-1.8919573064,-9.802528086400002,2.2681954176,2.3403803,-2.34078284,-2.73373718,,,
imu,398.258233,-1.8351327904,-9.7989391696,2.243073,1.45810492,-0.65847809,-2.85336774,,,
imu,398.267051,-1.7621581488,-9.7540777096,2.2107727488,0.8375213899999999,0.9565344699999998,-3.04029049,,,
imu,398.275869,-1.6592758672,-9.710412555200001,2.1934263176,0.41881443,2.27247063,-3.50385891,,,
imu,398.284688,-1.567160336,-9.697253193600002,2.180266956,0.38142988,3.28185348,-4.20668845,,,
imu,398.293506,-1.489400472,-9.672130776000001,2.170696511200001,-0.007369440000000005,3.86505246,-4.98428709,,,
imu,398.302324,-1.4242018168,-9.6523917336,2.1689020528,-0.29896893,4.246374869999999,-5.59739371,,,
imu,398.311142,-1.3691717592,-9.631456385600002,2.1635186776,-0.48589168,4.25385178,-6.08339286,,,
imu,398.319961,-1.3302918272,-9.618895176800002,2.165313136,-0.5756146,4.07440594,-6.58434583,,,
imu,398.328779,-1.3081601736,-9.600352440000002,2.1808651088,-0.64290679,3.73046808,-6.98062206,,,
imu,398.337597,-1.2812432976,-9.597959828800002,2.1826595672,-0.71019898,3.20708438,-7.212406269999999,,,
imu,398.346415,-1.2519338104,-9.605735815200001,2.2029967624,-0.68029134,2.63136231,-7.249790819999999,,,
imu,398.355234,-1.2375781432,-9.6290637744,2.228717332800001,-0.64290679,1.94348659,-7.189975539999999,,,
imu,398.364052,-1.259111644,-9.648802816800002,2.2412785416,-0.8522602699999999,1.04625739,-7.17502172,,,
imu,398.37287,-1.2878229784,-9.660765872800003,2.2472600696,-1.08404448,0.1789358299999999,-7.13763717,,,
imu,398.381688,-1.3003841872,-9.655980650400002,2.2472600696,-1.57752054,-0.7556779200000001,-7.257267730000001,,,
imu,398.390507,-1.3416567304,-9.620689635200002,2.2394840832,-1.83173548,-1.413646,-7.279698460000001,,,
imu,398.399325,-1.381732968,-9.596763523200002,2.2317080968,-2.18315025,-2.12395245,-7.36942138,,,
imu,398.408143,-1.4206129,-9.600352440000002,2.2299136384,-2.10838115,-2.69219761,-7.41428284,,,
imu,398.416961,-1.4702595824,-9.610521037600002,2.2305117912,-2.370073,-3.27539659,-7.847943620000001,,,
imu,398.42578,-1.5444305296,-9.5985579816,2.2329044024,-2.42241137,-3.67167282,-8.24421985,,,
imu,398.434598,-1.6317608384,-9.592576453600001,2.253839750400001,-2.42241137,-3.76139574,-8.49843479,,,
imu,398.443416,-1.6975576464,-9.614109954400002,2.2681954176,-2.49718047,-3.62681136,-8.54329625,,,
imu,398.452234,-1.7603636904,-9.6296619272,2.284943696,-2.63176485,-3.17819676,-8.46852715,,,
imu,398.461053,-1.8130011368,-9.6434194416,2.3130568776,-2.69158013,-2.55761323,-8.46852715,,,
imu,398.469533,-1.8913591536,-9.671532623200001,2.3549275736,-2.91588743,-1.89216824,-8.44609642,,,
imu,398.478013,-1.9332298496,-9.679308609600001,2.3579183376,-3.08037945,-1.08466196,-8.12458929,,,
imu,398.486493,-1.9404076832,-9.671532623200001,2.3770592272,-3.618716969999999,-0.09770984000000027,-7.870374350000001,,,
imu,398.494973,-1.9332298496,-9.654784344800001,2.3848352136,-3.97760865,0.9640113799999996,-7.541390310000001,,,
imu,398.503453,-1.9302390856,-9.613511801600001,2.3920130472,-4.41126943,1.97339423,-7.24231391,,,
imu,398.511933,-1.9033222096,-9.567454036,2.4332855904,-4.889791669999999,2.75099287,-6.9357606,,,
imu,398.520413,-1.8339364848,-9.535153784800002,2.4428560352,-5.173914249999999,3.39400713,-7.010529699999999,,,
imu,398.528893,-1.7591673848,-9.558481744000002,2.4051724088,-5.23372953,3.58840679,-7.57129795,,,
imu,398.537373,-1.7143059248,-9.549509452,2.386629672,-5.09166824,3.40148404,-8.22926603,,,
imu,398.545853,-1.6443220472,-9.513620284000002,2.395601964,-4.89726858,3.07997691,-8.610588439999999,,,
imu,398.554333,-1.5868993784,-9.4496179344,2.3908167416,-4.69539201,2.39210119,-8.76760355,,,
imu,398.562814,-1.5695529472,-9.405952780000002,2.383638908,-4.41126943,1.68179474,-8.76012664,,,
imu,398.571294,-1.5659640304,-9.3796340568,2.368685088,-3.85797809,1.02382666,-8.24421985,,,
imu,398.579774,-1.5779270864,-9.3335762912,2.3782555328,-3.28225602,0.4032431299999999,-7.055391159999999,,,
imu,398.588254,-1.594077212,-9.326398457600002,2.3902185888,-2.48970356,-0.1949096699999999,-5.8889932,,,
imu,398.596734,-1.632957144,-9.325800304800001,2.409957631200001,-1.96631986,-0.9500775800000003,-5.08148692,,,
imu,398.605214,-1.686790896,-9.370063612000001,2.4308929792,-1.30835178,-1.64543021,-4.23659609,,,
imu,398.613694,-1.7412228008,-9.410139849600002,2.4542209384,-0.90459864,-2.06413717,-3.59358183,,,
imu,398.622174,-1.7926639416,-9.440645642400002,2.488315648,-0.71019898,-2.54265941,-3.35432071,,,
imu,398.630654,-1.8476939992,-9.4908904776,2.503269468,-0.70272207,-2.55013632,-3.14496723,,,
imu,397.234831,,,,,,,40.06401960000001,-27.8263428,25.250608
imu,397.336424,,,,,,,40.0396052,-27.38688360000001,24.57921199999999
imu,397.437956,,,,,,,39.16068680000001,-27.54557720000001,25.06749999999999
imu,397.53961,,,,,,,38.01321,-27.66764920000002,24.0420952
imu,397.641081,,,,,,,40.0518124,-27.26481160000001,24.518176
imu,397.742705,,,,,,,41.4068116,-27.44791960000001,24.8965992
imu,397.844237,,,,,,,41.6021268,-27.24039720000002,24.7256984
imu,397.945738,,,,,,,41.49226200000001,-27.35026200000001,25.31164399999999
imu,398.639134,-1.8799942504,-9.516012895200001,2.5038676208,-0.68029134,-2.48284413,-3.09262886,,,
imu,398.647614,-1.9063129736,-9.498666464000001,2.5074565376,-0.8522602699999999,-2.13890627,-3.06272122,,,
imu,398.656094,-1.9134908072,-9.505246144800001,2.5140362184,-0.68029134,-1.72019931,-3.16739796,,,
imu,398.664574,-1.9164815712,-9.510031367200002,2.5014750096,-0.68029134,-1.21176943,-3.53376655,,,
imu,398.673037,-1.902125904,-9.490292324800002,2.504465773600001,-0.6279529699999999,-0.7556779200000001,-3.8702275,,,
imu,398.681499,-1.881190556,-9.5004609224,2.5080546904,-0.62047606,-0.3220171400000003,-4.27398064,,,
imu,398.689961,-1.8728164168,-9.520199964800002,2.5146343712,-0.45598404,0.21632038,-4.647826139999999,,,
imu,398.698424,-1.8614515136,-9.554892827200002,2.52719558,-0.46346095,0.6125966099999998,-4.909517989999999,,,
imu,398.706886,-1.8530773744,-9.5668558832,2.531980802400001,-0.5008455,1.0537343,-5.1413022,,,
imu,398.715348,-1.8237678872,-9.560874355200001,2.539158636000001,-0.71019898,1.26308778,-5.260932759999999,,,
imu,398.72381,-1.8237678872,-9.536350090400001,2.5409530944,-0.7401066199999999,1.62945637,-5.01419473,,,
imu,398.732273,-1.8369272488,-9.5184055064,2.5493272336,-0.83730645,2.06311715,-4.67773378,,,
imu,398.740735,-1.8309457208,-9.502853533600002,2.5588976784,-0.77749117,2.38462428,-4.23659609,,,
imu,398.749197,-1.8297494152,-9.491488630400001,2.5535143032,-0.77749117,2.50425484,-3.57862801,,,
imu,398.757659,-1.8315438736,-9.477731116000001,2.5445420112,-0.6503837,2.64631613,-3.13749032,,,
imu,398.766122,-1.8279549568,-9.439449336800001,2.555308761600001,-0.45598404,2.85566961,-2.70382954,,,
imu,398.774584,-1.8147955952,-9.443636406400001,2.555308761600001,-0.22419983,3.0725,-2.3748455,,,
imu,398.783046,-1.7956547056,-9.440047489600001,2.5612902896,0.01506129,3.05754618,-2.12810747,,,
imu,398.791508,-1.788476872,-9.441841948000002,2.5606921368,0.21693786,3.25942275,-1.97856927,,,
imu,398.799971,-1.7896731776,-9.425691822400001,2.5606921368,0.29918387,3.49120696,-1.94866163,,,
imu,398.808433,-1.7597655376,-9.417915836,2.5774404152,0.41133752,3.6706528,-1.97109236,,,
imu,398.816895,-1.7370357312,-9.4496179344,2.5756459568,0.58330645,3.58840679,-2.1505382,,,
imu,398.825358,-1.7155022304,-9.460384684800001,2.548130928,0.7253677399999999,3.64074516,-2.39727623,,,
imu,398.83382,-1.6945668824,-9.452010545600002,2.5349715664,0.97210577,3.65569898,-2.58419898,,,
imu,398.842282,-1.6802112152,-9.447823476,2.5343734136,1.39828964,3.64822207,-2.68887572,,,
imu,398.850744,-1.6784167568,-9.475936657600002,2.5343734136,1.68988913,3.60336061,-2.61410662,,,
imu,398.859207,-1.6730333816,-9.5082369088,2.525401121600001,1.88428879,3.50616078,-2.71878336,,,
imu,398.867669,-1.6975576464,-9.513620284000002,2.529588191200001,2.01887317,3.60336061,-2.56176825,,,
imu,398.876135,-1.7119133136,-9.540537160000001,2.5493272336,2.07868845,3.70056044,-2.38232241,,,
imu,398.884601,-1.7202874528,-9.557285438400001,2.5475327752,2.16093446,3.82766791,-2.21783039,,,
imu,398.893067,-1.7579710792,-9.565061424800001,2.5499253864,2.10859609,4.02954448,-2.2253073,,,
imu,398.901533,-1.7848879552,-9.5566872856,2.539158636000001,1.92915025,4.17908268,-2.23278421,,,
imu,398.909999,-1.7968510112,-9.546518688,2.5439438584,1.71979677,4.57535891,-2.21783039,,,
imu,398.918465,-1.8261604984,-9.5423316184,2.5385604832,1.61512003,4.88938913,-2.33746095,,,
imu,398.926931,-1.83931986,-9.516012895200001,2.5307844968,1.48053565,5.614649399999999,-2.53933752,,,
imu,398.935398,-1.8351327904,-9.491488630400001,2.5134380656,1.42072037,6.19784838,-2.8234601,,,
imu,398.943864,-1.821375276,-9.475936657600002,2.4919045648,1.48801256,6.76609354,-3.05524431,,,
imu,398.95233,-1.7998417752,-9.451412392800002,2.4895119536,1.71231986,7.51378454,-3.20478251,,,
imu,398.960796,-1.785486108,-9.4346641144,2.4787452032,2.01139626,8.029691329999999,-3.45899745,,,
imu,398.969262,-1.7561766208,-9.432869656000001,2.4745581336,2.08616536,8.485782839999999,-3.53376655,,,
imu,398.977728,-1.737633884,-9.439449336800001,2.476352592,2.63197979,9.06150491,-3.29450543,,,
imu,398.986194,-1.7005484104,-9.459786532,2.4805396616,3.08059439,9.45778114,-3.10758268,,,
imu,398.99466,-1.6766222984,-9.478329268800001,2.4751562864,3.15536349,9.59236552,-2.99542903,,,
imu,399.003126,-1.67482784,-9.48072188,2.4871193424,3.43200916,9.83162664,-2.77859864,,,
imu,399.011592,-1.6520980336,-9.496872005600002,2.4871193424,3.611455,9.69704226,-2.49447606,,,
imu,399.020058,-1.6395368248,-9.505246144800001,2.4829322728,3.59650118,9.65965771,-2.19539966,,,
imu,399.028525,-1.6251811576,-9.514218436800002,2.4829322728,3.59650118,9.45030423,-1.95613854,,,
imu,399.036991,-1.6293682272,-9.520199964800002,2.4936990232,3.69370101,9.1287971,-1.78416961,,,
imu,399.045457,-1.6365460608,-9.552500216,2.4889138008,3.7609932,8.88205907,-1.4776163,,,
imu,399.053923,-1.641929436,-9.5698466472,2.4960916344,3.79090084,8.76242851,-1.02152479,,,
imu,399.062389,-1.6670518536,-9.5865949256,2.4889138008,3.589024269999999,8.665228679999998,-0.73740221,,,
imu,399.070855,-1.6724352288,-9.577024480800002,2.4901101064,3.40210152,8.620367219999999,-0.3934643499999999,,,
imu,399.07934,-1.7005484104,-9.575230022400001,2.5020731624,3.31985551,8.76242851,-0.2514030599999999,,,
imu,399.087825,-1.6969594936,-9.569248494400002,2.4847267312,3.07311748,8.941874349999999,-0.17663396,,,
imu,399.09631,-1.7089225496,-9.551902063200002,2.473959980800001,2.83385636,9.15870474,-0.4458027199999999,,,
imu,399.104796,-1.698753952,-9.533359326400001,2.4655858416,2.9385331,9.62975007,-0.74487912,,,
imu,399.113281,-1.6616684784,-9.519003659200001,2.4596043136,2.85628709,9.74190372,-1.30564737,,,
imu,399.121766,-1.6395368248,-9.5154147424,2.4530246328,2.87124091,10.07836467,-1.76173888,,,
imu,399.130251,-1.6132181016,-9.5148165896,2.4536227856,2.89367164,10.28024124,-2.32998404,,,
imu,399.138736,-1.5946753648,-9.504647992000002,2.4542209384,3.02077911,10.16061068,-2.92813684,,,
imu,399.147221,-1.5892919896,-9.509433214400001,2.4572117024,3.26751714,10.44473326,-3.07019813,,,
imu,399.155707,-1.5695529472,-9.516012895200001,2.4572117024,3.26751714,10.39239489,-3.35432071,,,
imu,399.164192,-1.5474212936,-9.517807353600002,2.454819091200001,3.19274804,10.3251027,-3.62348947,,,
imu,399.172677,-1.5426360712,-9.520798117600002,2.4578098552,3.34976315,10.28771815,-3.67582784,,,
imu,399.181162,-1.5378508488,-9.539939007200001,2.4596043136,3.37219388,10.12322613,-3.39918217,,,
imu,399.189647,-1.5234951816,-9.558481744000002,2.4655858416,3.39462461,9.93630338,-2.98795212,,,
imu,399.198132,-1.5187099592,-9.576426328,2.4817359672,3.30490169,9.7269499,-2.45709151,,,
imu,399.206617,-1.5270840984,-9.61530626,2.500278704,3.11050203,9.39048895,-1.96361545,,,
imu,399.215103,-1.5486175992,-9.644615747200001,2.5164288296,2.998348379999999,9.38301204,-1.32060119,,,
imu,399.223588,-1.5617769608,-9.6428212888,2.5349715664,2.4151494,9.44282732,-0.62524856,,,
imu,399.232073,-1.5803196976,-9.6284656216,2.5313826496,2.01139626,9.794242090000001,0.1074886200000003,,,
imu,399.240558,-1.6024513512,-9.5949690648,2.5158306768,1.70484295,10.11574922,0.54862631,,,
imu,399.249043,-1.5988624344,-9.5459205352,2.494297176,1.63007385,10.61670219,0.8551796199999999,,,
imu,399.257528,-1.5815160032,-9.511227672800002,2.4775488976,1.68241222,11.10270134,0.8626565300000002,,,
imu,399.266014,-1.5575898912,-9.450814240000001,2.458408008,1.98896553,11.68590032,0.7579797899999998,,,
imu,399.274499,-1.5091395144,-9.422102905600001,2.4356782016,2.39271867,12.2690993,0.4514264799999999,,,
imu,399.2833,-1.4630817488,-9.384419279200001,2.4332855904,3.1628404,12.76257536,0.07758098000000002,,,
imu,399.292101,-1.4218092056,-9.3754469872,2.4069668672,3.76847011,12.96445193,-0.4458027199999999,,,
imu,399.300902,-1.3733588288,-9.380830362400001,2.4027797976,4.54606875,13.12894395,-1.08881698,,,
imu,399.309703,-1.306963868,-9.405952780000002,2.3962001168,5.27132902,13.20371305,-1.61967759,,,
imu,398.047941,,,,,,,43.6407292,-27.75309960000001,22.98006879999999
imu,398.149077,,,,,,,39.5757316,-26.81314520000002,24.9942568
imu,398.250487,,,,,,,40.62555080000001,-26.80093800000001,25.3360584
imu,398.352049,,,,,,,40.77203720000001,-26.77652360000003,23.419528
imu,398.453581,,,,,,,40.6499652,-26.71548760000002,25.45813039999999
imu,398.555144,,,,,,,40.3691996,-26.61783000000002,24.9820496
imu,398.656706,,,,,,,40.58892920000001,-26.55679400000002,24.70128399999999
imu,398.758269,,,,,,,41.0894244,-26.58120840000002,24.70128399999999
imu,398.859924,,,,,,,40.71100120000001,-26.20278520000001,24.090924
imu,398.961456,,,,,,,40.820866,-26.16616360000002,24.0176808
imu,399.063018,,,,,,,42.72518920000001,-27.42350520000001,22.74813199999999
imu,399.164611,,,,,,,39.92974040000001,-26.37368600000001,24.18858159999999
imu,399.266143,,,,,,,42.1270364,-27.70427080000002,20.95367359999999
