Type,Timestamp,Data Accelerometer X,Data Accelerometer Y,Data Accelerometer Z,Data Gyroscope X,Data Gyroscope Y,Data Gyroscope Z,Data Magnetometer X,Data Magnetometer Y,Data Magnetometer Z
imu,247.496235,-0.5233837000000001,-9.6326526912,2.4213225344,0.35152224,-6.16148385,-4.32631901,,,
imu,247.504729,-0.5479079648000001,-9.669738164800002,2.4350800488,0.55339881,-5.727823069999999,-4.40108811,,,
imu,247.513224,-0.5766192992000001,-9.692467971200001,2.434481896,0.66555246,-5.144624090000001,-4.386134289999999,,,
imu,247.521718,-0.5903768136,-9.709814402400001,2.4392671184,0.65807555,-4.63619421,-4.32631901,,,
imu,247.530212,-0.6047324808000001,-9.716992236000001,2.4446504936,0.55339881,-4.06047214,-4.244073,,,
imu,247.538917,-0.6137047728000001,-9.7151977776,2.4542209384,0.50853735,-3.51465771,-4.034719519999999,,,
imu,247.547623,-0.6172936896000001,-9.7217774584,2.4566135496,0.25432241,-2.78192053,-3.80293531,,,
imu,247.556328,-0.62806044,-9.721179305600002,2.4572117024,0.02253820000000001,-2.06413717,-3.66835093,,,
imu,247.565034,-0.6346401208000001,-9.7151977776,2.4619969248,-0.40364567,-1.413646,-3.45152054,,,
imu,247.573739,-0.6430142600000001,-9.713403319200001,2.458408008,-0.77001426,-0.8080162900000003,-3.36179762,,,
imu,247.582444,-0.6477994824000001,-9.681103068,2.4482394104,-0.9943215599999999,-0.0005100100000001717,-3.17487487,,,
imu,247.59115,-0.6340419680000001,-9.633848996800001,2.4458467992,-1.21862886,0.7097964399999999,-3.01785976,,,
imu,247.599855,-0.631051204,-9.6296619272,2.434481896,-1.16629049,1.38271834,-3.0477674,,,
imu,247.608561,-0.6184899952000001,-9.610521037600002,2.423715145600001,-1.11395212,1.98834805,-3.13001341,,,
imu,247.617266,-0.5933675776,-9.611119190400002,2.419528076,-0.85973718,2.60145467,-3.18982869,,,
imu,247.625972,-0.5820026744000001,-9.597361676,2.4386689656,-0.83730645,3.19960747,-3.21225942,,,
imu,247.634677,-0.56824516,-9.617100718400001,2.4530246328,-0.79244499,3.43886859,-3.4216129,,,
imu,247.643383,-0.5544876456000001,-9.6643547896,2.4578098552,-0.82235263,3.70056044,-3.51133582,,,
imu,247.652088,-0.5299633808,-9.668541859200001,2.4596043136,-0.85973718,3.97720611,-3.61601256,,,
imu,247.660794,-0.5299633808,-9.658971414400002,2.4590061608,-0.94198319,4.14169813,-3.95995042,,,
imu,247.669499,-0.5305615336,-9.661364025600001,2.488315648,-1.1737674,4.171605769999999,-4.26650373,,,
imu,247.678205,-0.5317578392000001,-9.667943706400001,2.4925027176,-1.3233056,4.1192674,-4.52819558,,,
imu,247.68691,-0.5197947832,-9.6745233872,2.4757544392,-1.57752054,4.104313579999999,-4.759979789999999,,,
imu,247.695616,-0.5144114080000001,-9.661962178400001,2.4787452032,-1.76444329,3.95477538,-5.03662546,,,
imu,247.704321,-0.5162058664000001,-9.644017594400001,2.497287940000001,-1.98875059,3.8949601,-5.13382529,,,
imu,247.713027,-0.520392936,-9.637437913600001,2.5236066632,-2.36259609,3.73046808,-5.23102512,,,
imu,247.721732,-0.5323559920000001,-9.654186192000001,2.5140362184,-2.53456502,3.49120696,-5.38804023,,,
imu,247.730437,-0.5449172008000001,-9.685888290400001,2.503269468,-2.72896468,3.32671494,-5.522624609999999,,,
imu,247.738912,-0.5634599376000001,-9.697851346400002,2.524204816,-2.84111833,3.10240764,-5.61982444,,,
imu,247.747387,-0.5754229936,-9.7056273328,2.545140164,-3.10281018,3.06502309,-5.61982444,,,
imu,247.755862,-0.5879842024,-9.724768222400002,2.5547106088,-3.31216366,2.81828506,-5.634778259999999,,,
imu,247.764337,-0.5945638832000001,-9.7128051664,2.5547106088,-3.54394787,2.75846978,-5.68711663,,,
imu,247.772812,-0.5945638832000001,-9.6733270816,2.564879206400001,-3.66357843,2.63136231,-5.53010152,,,
imu,247.781287,-0.5993491056000001,-9.646410205600002,2.554112456,-3.66357843,2.75099287,-5.03662546,,,
imu,247.789762,-0.5861897440000001,-9.612315496,2.5493272336,-3.70096298,2.74351596,-4.55810322,,,
imu,247.798237,-0.5879842024,-9.568650341600001,2.5505235392,-3.75330135,2.81828506,-4.16182699,,,
imu,247.806712,-0.5814045216000001,-9.523190728800001,2.5307844968,-3.67853225,2.79585433,-3.72816621,,,
imu,247.815187,-0.5730303824,-9.484908949600001,2.531980802400001,-3.49908641,2.76594669,-3.10758268,,,
imu,247.823662,-0.5640580904000001,-9.465169907200002,2.530186344,-3.05794872,2.54163939,-2.68887572,,,
imu,247.832137,-0.5461135064000001,-9.440047489600001,2.5349715664,-2.65419558,2.51173175,-2.26269185,,,
imu,247.840612,-0.5407301312,-9.4215047528,2.5445420112,-1.98875059,2.50425484,-1.80660034,,,
imu,247.849087,-0.5275707696,-9.4316733504,2.551121692,-1.36816706,2.34723973,-1.67949287,,,
imu,247.857562,-0.5263744640000001,-9.433467808800001,2.562486595200001,-0.80739881,2.26499372,-1.46266248,,,
imu,247.866037,-0.5180003248000001,-9.435860420000001,2.5684681232,-0.47841477,2.30985518,-1.27573973,,,
imu,247.874512,-0.5114206440000001,-9.455001309600002,2.5905997768,0.02253820000000001,2.30237827,-1.28321664,,,
imu,247.882987,-0.49347606,-9.490292324800002,2.6031609856,0.4861066199999999,2.21265535,-1.14115535,,,
imu,247.891462,-0.4755314760000001,-9.528574104,2.6223018752,0.620691,2.20517844,-1.11124771,,,
imu,247.899937,-0.4623721144,-9.556089132800002,2.6294797088,0.67302937,2.48182411,-1.21592445,,,
imu,247.908412,-0.4354552384000001,-9.5800152448,2.637853848,0.77770611,2.53416248,-1.32060119,,,
imu,247.916887,-0.4348570856000001,-9.5812115504,2.641442764800001,0.81509066,2.78090051,-1.44770866,,,
imu,247.925362,-0.4091365152000001,-9.591380148,2.6420409176,0.9048135799999999,2.93043871,-1.4776163,,,
imu,247.933837,-0.3780325696000001,-9.595567217600001,2.646227987200001,0.77770611,3.08745382,-1.48509321,,,
imu,247.942311,-0.3630787496,-9.613511801600001,2.637853848,0.8823828499999999,3.09493073,-1.67949287,,,
imu,247.950785,-0.3463304712,-9.6117173432,2.637853848,0.9347212199999999,3.18465365,-2.14306129,,,
imu,247.959258,-0.3253951232,-9.618895176800002,2.6312741672,0.80013684,3.17717674,-2.50195297,,,
imu,247.967732,-0.3188154424,-9.61530626,2.6366575424,0.94219813,3.1472691,-2.80850628,,,
imu,247.976206,-0.2948893304,-9.632054538400002,2.655200279200001,0.88985976,2.97530017,-3.27955161,,,
imu,247.984679,-0.2883096496000001,-9.651195428000001,2.637853848,1.10669015,2.87810034,-3.59358183,,,
imu,247.993153,-0.2637853848,-9.6505972752,2.6175166528,0.9571519499999999,2.5491163,-3.90013514,,,
imu,248.001627,-0.272159524,-9.617100718400001,2.610936972000001,0.97958268,2.52668557,-4.034719519999999,,,
imu,248.010101,-0.2685706072,-9.6075302736,2.620507416800001,1.04687487,2.2500399,-4.30388828,,,
imu,248.018574,-0.2613927736,-9.636839760800001,2.6330686256,1.03192105,1.90610204,-4.55062631,,,
imu,248.027048,-0.2637853848,-9.651195428000001,2.622900028000001,0.9571519499999999,1.5023489,-4.715118329999999,,,
imu,248.035522,-0.2619909264,-9.642223136000002,2.615124041600001,0.9048135799999999,1.21822632,-4.7674567,,,
imu,248.043995,-0.2727576768,-9.638634219200002,2.6312741672,0.71789083,0.9341037399999998,-4.64034923,,,
imu,248.052469,-0.2877114968,-9.644017594400001,2.6223018752,0.76275229,0.86681155,-4.28145755,,,
imu,248.060943,-0.2835244272,-9.6248767048,2.6043572912,0.5982602699999999,0.6125966099999998,-3.84779677,,,
imu,248.069417,-0.3080486920000001,-9.593772759200002,2.5888053184,0.41881443,0.4481045899999998,-3.53376655,,,
imu,248.07789,-0.3146283728000001,-9.556089132800002,2.5726551928,0.51601426,0.3434278499999999,-3.26459779,,,
imu,248.086364,-0.3218062064,-9.524387034400002,2.564879206400001,0.6281679099999999,0.2537049300000001,-3.1225365,,,
imu,248.094838,-0.3343674152,-9.520798117600002,2.5463364696,0.7552753799999999,0.06678217999999969,-3.10010577,,,
imu,248.103311,-0.3463304712,-9.505844297600001,2.5582995256,0.9048135799999999,-0.2622018600000002,-3.35432071,,,
imu,248.111785,-0.3684621248000001,-9.527975951200002,2.5612902896,1.17398234,-0.23229422,-3.50385891,,,
imu,248.120259,-0.3702565832000001,-9.559678049600002,2.548130928,1.37585891,-0.4416477000000003,-3.83284295,,,
imu,248.128733,-0.391790084,-9.571042952800001,2.5475327752,1.5179202,-0.45660152,-4.00481188,,,
imu,248.137206,-0.4049494456000001,-9.594370912,2.5612902896,1.69736604,-0.3594016900000003,-4.15435008,,,
imu,248.14566,-0.4216977240000001,-9.599754287200001,2.569066276,1.82447351,-0.2846325900000002,-4.17678081,,,
imu,248.154113,-0.4318663216,-9.602745051200001,2.5852164016,1.95158098,-0.07527911000000032,-4.33379592,,,
imu,248.162566,-0.451605364,-9.625474857600002,2.5852164016,1.77961205,0.11164364,-4.37118047,,,
imu,248.17102,-0.4480164472000001,-9.638634219200002,2.5923942352,1.71979677,0.1714589200000001,-4.341272829999999,,,
imu,248.179473,-0.4504090584,-9.6505972752,2.5911979296,1.64502767,0.3135202100000001,-4.3936112,,,
imu,248.187775,-0.4539979752000001,-9.667943706400001,2.6025628328,1.62259694,0.5303505999999998,-4.46090339,,,
imu,248.196229,-0.4575868920000001,-9.680504915200002,2.6007683744,1.30108981,0.58268897,-4.66277996,,,
imu,248.204682,-0.4510072112,-9.7008421104,2.6103388192,0.8524752099999999,0.4630584099999999,-4.78988743,,,
imu,248.213135,-0.4480164472000001,-9.710412555200001,2.6157221944,0.6954601,0.5378275100000001,-4.80484125,,,
imu,248.221589,-0.4420349192,-9.706823638400001,2.6193111112,0.620691,0.62007352,-4.77493361,,,
imu,248.230042,-0.4414367664,-9.7074217912,2.6061517496,0.32909151,0.4929660499999997,-4.79736434,,,
imu,248.238495,-0.4318663216,-9.6918698184,2.625890792,-0.08213854000000001,0.3284740299999998,-4.86465653,,,
imu,248.246949,-0.4348570856000001,-9.690075360000002,2.6252926392,-0.26158438,0.2462280199999998,-4.692687599999999,,,
imu,248.255402,-0.4282774048000001,-9.672728928800002,2.622900028000001,-0.64290679,-0.0603252900000002,-4.72259524,,,
imu,248.263856,-0.4318663216,-9.657775108800001,2.6157221944,-0.91955246,-0.25472495,-4.64034923,,,
imu,248.272309,-0.4402404608,-9.631456385600002,2.6163203472,-1.20367504,-0.57623208,-4.5431494,,,
imu,248.280762,-0.4593813504000001,-9.599156134400001,2.631872320000001,-1.21862886,-0.7781086500000001,-4.5431494,,,
imu,248.289216,-0.4695499480000001,-9.593772759200002,2.634264931200001,-1.31582869,-1.10709269,-4.40108811,,,
imu,248.297669,-0.4940742128000001,-9.5698466472,2.6366575424,-1.43545925,-1.286538530000001,-4.51324176,,,
imu,248.306122,-0.5078317272000001,-9.575230022400001,2.6432372232,-1.38312088,-1.30149235,-4.22164227,,,
imu,248.314576,-0.520392936,-9.553098368800002,2.6444335288,-1.28592105,-1.34635381,-3.98238115,,,
imu,248.323029,-0.5419264368000001,-9.528574104,2.6534058208,-1.45788998,-1.570661110000001,-3.93751969,,,
imu,248.331483,-0.5491042704000001,-9.523190728800001,2.664770724000001,-1.3980747,-1.49589201,-3.84779677,,,
imu,248.339936,-0.565254396,-9.5291722568,2.6725467104,-1.14385976,-1.42112291,-3.69825857,,,
imu,248.348754,-0.5724322296000001,-9.541135312800002,2.6773319328,-1.03170611,-1.43607673,-3.56367419,,,
imu,248.357572,-0.5754229936,-9.527975951200002,2.6821171552,-1.03170611,-1.22672325,-3.55619728,,,
imu,248.366391,-0.5861897440000001,-9.514218436800002,2.6845097664,-0.69524516,-1.06970814,-3.54124346,,,
imu,248.375209,-0.5873860496000001,-9.501657228000001,2.6875005304,-0.53823005,-0.9201699400000001,-3.45899745,,,
imu,248.384027,-0.5909749664,-9.498666464000001,2.6934820584,-0.29149202,-0.6360473600000001,-3.50385891,,,
imu,248.392845,-0.5879842024,-9.495675700000001,2.680920849600001,-0.08213854000000001,-0.37435551,-3.63844329,,,
imu,248.401664,-0.5808063688,-9.496872005600002,2.680920849600001,0.41881443,-0.2397711300000003,-3.63844329,,,
imu,248.410482,-0.5879842024,-9.495077547200001,2.679724544,0.6281679099999999,-0.08275602000000015,-3.7206893,,,
imu,248.4193,-0.5957601888000001,-9.499862769600002,2.680920849600001,1.0693056,0.1789358299999999,-3.86275059,,,
imu,248.428118,-0.601143564,-9.516611048000001,2.6695559464,1.39828964,0.3957662200000001,-3.92256587,,,
imu,248.436937,-0.5987509528,-9.5213962704,2.6845097664,1.92167334,0.8219500899999996,-3.95247351,,,
imu,248.445755,-0.6005454112,-9.540537160000001,2.692285752800001,2.01139626,1.06868812,-4.11696553,,,
imu,248.454573,-0.5939657304000001,-9.5632669664,2.7072395728,2.25065738,1.25561087,-4.244073,,,
imu,247.522042,,,,,,,72.6328292,-3.277663600000014,-3.277618400000004
imu,247.620949,,,,,,,75.41607079999999,-3.72933000000002,-4.034464800000004
imu,247.722512,,,,,,,73.01125239999999,-2.911447600000017,-4.046672000000006
imu,248.463391,-0.6029380224,-9.5877912312,2.697669128,2.43758013,1.45748744,-4.28145755,,,
imu,248.47221,-0.5826008272000001,-9.614708107200002,2.701856197600001,2.57964142,1.70422547,-4.430995749999999,,,
imu,248.481028,-0.5742266880000001,-9.627269316000001,2.686902377600001,2.3403803,1.91357895,-4.42351884,,,
imu,248.489846,-0.5586747152,-9.6326526912,2.685706072000001,2.28804193,2.15284007,-4.37865738,,,
imu,248.498664,-0.5544876456000001,-9.638036066400002,2.6773319328,2.03382699,2.19022462,-4.363703559999999,,,
imu,248.507483,-0.5329541448,-9.6434194416,2.6803226968,1.89924261,2.30237827,-4.21416536,,,
imu,248.516301,-0.5162058664000001,-9.644615747200001,2.694678364,1.65998149,2.36219355,-4.079580979999999,,,
imu,248.525119,-0.5006538936,-9.642223136000002,2.6851079192,1.30108981,2.33976282,-3.95995042,,,
imu,248.533937,-0.4862982264000001,-9.634447149600001,2.6892949888,1.06182869,2.3995781,-3.74312003,,,
imu,248.542756,-0.4749333232000001,-9.648802816800002,2.7024543504,0.78518302,2.39210119,-3.59358183,,,
imu,248.551249,-0.4671573368000001,-9.668541859200001,2.7012580448,0.3216146,2.22013226,-3.48890509,,,
imu,248.559741,-0.4474182944000001,-9.681103068,2.706043267200001,0.03001510999999998,2.05564024,-3.41413599,,,
imu,248.568234,-0.4498109056,-9.672130776000001,2.7078377256,-0.38869185,1.91357895,-3.24964397,,,
imu,248.576727,-0.454596128,-9.6643547896,2.7090340312,-0.69524516,1.74161002,-2.93561375,,,
imu,248.58522,-0.454596128,-9.642223136000002,2.70664142,-0.92702937,1.6518871,-2.69635263,,,
imu,248.593712,-0.4498109056,-9.6117173432,2.686902377600001,-1.12142903,1.53973345,-2.56176825,,,
imu,248.602205,-0.4533998224,-9.562668813600002,2.671350404800001,-1.0242292,1.37524143,-2.53186061,,,
imu,248.610698,-0.4599795032,-9.531564868,2.671350404800001,-0.80739881,1.2780416,-2.60662971,,,
imu,248.619191,-0.4551942808000001,-9.510031367200002,2.6605836544,-0.71019898,1.19579559,-2.63653735,,,
imu,248.627684,-0.4671573368000001,-9.4831144912,2.6641725712,-0.51579932,1.01634975,-2.8234601,,,
imu,248.636176,-0.4689517952000001,-9.475936657600002,2.6581910432,0.05992275,1.09111885,-2.91318302,,,
imu,248.644669,-0.4797185456,-9.478329268800001,2.6534058208,0.55339881,1.10607267,-2.95804448,,,
imu,248.653162,-0.4910834488,-9.4938812416,2.6641725712,0.85995212,1.30794924,-2.94309066,,,
imu,248.661655,-0.4868963792000001,-9.495675700000001,2.6695559464,1.24875144,1.48739508,-2.98795212,,,
imu,248.670148,-0.4922797544,-9.5010590752,2.661779960000001,1.71231986,1.76404075,-2.83841392,,,
imu,248.67864,-0.4880926848000001,-9.499862769600002,2.6695559464,2.02635008,2.14536316,-2.748691,,,
imu,248.687133,-0.4892889904,-9.5148165896,2.678528238400001,2.1908421,2.30237827,-2.81598319,,,
imu,248.695626,-0.4857000736000001,-9.528574104,2.6839116136,2.34785721,2.57154703,-2.98047521,,,
imu,248.704119,-0.4857000736000001,-9.554892827200002,2.6863042248,2.35533412,2.72856214,-3.1973056,,,
imu,248.712611,-0.4803166984,-9.564463272000001,2.6904912944,2.51234923,3.05754618,-3.27955161,,,
imu,248.721104,-0.4653628784000001,-9.5865949256,2.7000617392,2.57216451,3.28933039,-3.50385891,,,
imu,248.729597,-0.4755314760000001,-9.589585689600002,2.696472822400001,2.46748777,3.50616078,-3.74312003,,,
imu,248.73809,-0.46356842,-9.592576453600001,2.688696836,2.46001086,3.60336061,-3.96742733,,,
imu,248.746583,-0.4659610312,-9.6039413568,2.6934820584,2.46748777,3.73794499,-4.28145755,,,
imu,248.75504,-0.4647647256,-9.609324732000001,2.700659892,2.28804193,3.76037572,-4.647826139999999,,,
imu,248.763497,-0.4569887392,-9.6075302736,2.699463586400001,2.31047266,3.79028336,-4.976810179999999,,,
imu,248.771954,-0.4486146000000001,-9.6296619272,2.7090340312,2.06373463,3.797760269999999,-5.20111748,,,
imu,248.780411,-0.4330626272,-9.646410205600002,2.715613712000001,1.95158098,3.84262173,-5.350655679999999,,,
imu,248.788869,-0.4181088072000001,-9.6643547896,2.7353527544,1.8169966,3.64074516,-5.38804023,,,
imu,248.797326,-0.4001642232,-9.672130776000001,2.746119504800001,1.4431511,3.52859151,-5.23102512,,,
imu,248.805783,-0.3804251808,-9.673925234400002,2.7323619904,1.30108981,3.45382241,-4.89456417,,,
imu,248.81424,-0.3750418056000001,-9.6428212888,2.733558296,0.9870595899999999,3.07997691,-4.77493361,,,
imu,248.822697,-0.367863972,-9.612913648800001,2.750306574400001,0.76275229,2.78090051,-4.43847266,,,
imu,248.831154,-0.3672658192000001,-9.630260080000001,2.742530588,0.56087572,2.45191647,-4.28145755,,,
imu,248.839612,-0.3726491944000001,-9.631456385600002,2.7449231992,0.31413769,1.9509635,-4.35622665,,,
imu,248.848069,-0.391790084,-9.593174606400002,2.7449231992,0.01506129,1.3528107,-4.430995749999999,,,
imu,248.856526,-0.4139217376000001,-9.5590798968,2.745521352,-0.23167674,0.66493498,-4.363703559999999,,,
imu,248.864983,-0.4462219888000001,-9.547714993600001,2.7443250464,-0.20924601,0.27613566,-4.04967334,,,
imu,248.87344,-0.4695499480000001,-9.539939007200001,2.7383435184,-0.07466163,0.02939763000000006,-3.6459202,,,
imu,248.881898,-0.4898871432,-9.519601812000001,2.730567532,-0.02232326000000001,-0.1799558500000003,-3.44404363,,,
imu,248.890355,-0.505439116,-9.510031367200002,2.722791545600001,0.2468455,-0.17247894,-2.92813684,,,
imu,248.898812,-0.5233837000000001,-9.507040603200002,2.7102303368,0.66555246,0.006966899999999665,-2.49447606,,,
imu,248.907269,-0.5341504504000001,-9.486703408,2.70664142,1.07678251,0.08173599999999981,-2.34493786,,,
imu,248.915726,-0.5556839512000001,-9.472347740800002,2.692285752800001,1.48801256,0.07425908999999997,-2.38232241,,,
imu,248.924183,-0.5497024232000001,-9.4669643656,2.6988654336,2.07868845,0.4107200399999997,-2.24026112,,,
imu,248.932641,-0.565254396,-9.468758824,2.6839116136,2.60954906,0.6350273399999997,-2.30755331,,,
imu,248.941098,-0.5646562432000001,-9.489096019200002,2.685706072000001,3.0880713,0.92662683,-2.60662971,,,
imu,248.949555,-0.5778156048000002,-9.516012895200001,2.6779300856,3.44696298,1.22570323,-2.80850628,,,
imu,248.958008,-0.56824516,-9.533359326400001,2.686902377600001,3.82828539,1.53225654,-3.0477674,,,
imu,248.966462,-0.5670488544000001,-9.561472508000001,2.6815190024,3.93296213,1.85376367,-3.21225942,,,
imu,248.974915,-0.5550857984,-9.571042952800001,2.6701540992,3.90305449,2.19770153,-3.45152054,,,
imu,248.983369,-0.5395338256000001,-9.591978300800001,2.6641725712,4.03763887,2.66126995,-3.44404363,,,
imu,248.991822,-0.5281689224000001,-9.602146898400001,2.6426390704,4.232038530000001,2.97530017,-3.42908981,,,
imu,249.000275,-0.5114206440000001,-9.626671163200001,2.640844612,4.05259269,3.23699202,-3.54872037,,,
imu,249.008729,-0.4940742128000001,-9.654784344800001,2.6330686256,4.03763887,3.40148404,-3.65339711,,,
imu,249.017182,-0.4653628784000001,-9.676317845600002,2.634264931200001,3.79090084,3.46877623,-3.66087402,,,
imu,249.025635,-0.4629702672000001,-9.7056273328,2.6330686256,3.48434753,3.39400713,-3.69825857,,,
imu,249.034089,-0.4504090584,-9.7151977776,2.6306760144,3.17031731,3.39400713,-3.67582784,,,
imu,249.042542,-0.4372496968000001,-9.717590388800001,2.619909264,2.73665653,3.36409949,-3.81041222,,,
imu,249.050995,-0.4420349192,-9.708019944000002,2.6031609856,2.1908421,3.12483837,-4.012288789999999,,,
imu,249.059449,-0.4599795032,-9.702636568800001,2.615124041600001,1.60764312,2.87810034,-4.169303899999999,,,
imu,249.067902,-0.4533998224,-9.710412555200001,2.6145258888,1.05435178,2.60893158,-4.49081103,,,
imu,249.076356,-0.4647647256,-9.711608860800002,2.6127314304,0.4861066199999999,2.51920866,-4.77493361,,,
imu,249.084809,-0.4647647256,-9.697851346400002,2.603759138400001,0.13469185,2.45191647,-4.78241052,,,
imu,249.093262,-0.4797185456,-9.6918698184,2.620507416800001,-0.22419983,2.324809,-4.89456417,,,
imu,249.101716,-0.4767277816000001,-9.7074217912,2.6282834032,-0.5681376899999999,2.35471664,-4.74502597,,,
imu,249.110169,-0.4803166984,-9.681103068,2.634264931200001,-0.94198319,2.324809,-4.602964679999999,,,
imu,249.118622,-0.4665591840000001,-9.675121540000001,2.643835376000001,-1.19619813,2.45191647,-4.48333412,,,
imu,249.127076,-0.4587831976000001,-9.672728928800002,2.6402464592,-1.40555161,2.6238854,-4.146873169999999,,,
imu,249.135529,-0.4468201416000001,-9.638036066400002,2.649816904,-1.72705874,2.74351596,-3.91508896,,,
imu,249.143983,-0.4390441552000001,-9.6159044128,2.645629834400001,-1.97379677,2.60893158,-3.76555076,,,
imu,249.152436,-0.4348570856000001,-9.578220786400001,2.6605836544,-1.90650458,2.57902394,-3.81788913,,,
imu,249.160889,-0.4378478496000001,-9.560874355200001,2.6719485576,-2.01865823,2.48930102,-3.80293531,,,
imu,249.169692,-0.4623721144,-9.547116840800001,2.673743016,-2.13828879,2.34723973,-4.034719519999999,,,
imu,249.178494,-0.4683536424000001,-9.532163020800002,2.6761356272,-2.27287317,2.06311715,-4.23659609,,,
imu,249.187296,-0.4928779072000001,-9.522592576000001,2.6749393216,-2.31773463,1.68927165,-4.55062631,,,
imu,249.196099,-0.5018501992000001,-9.4944793944,2.6719485576,-2.10838115,1.45748744,-4.7674567,,,
imu,249.204901,-0.5138132552000001,-9.486105255200002,2.6725467104,-1.90650458,1.24065705,-4.78988743,,,
imu,249.213703,-0.5185984776000001,-9.510031367200002,2.6725467104,-1.59247436,1.13598031,-4.81231816,,,
imu,249.222506,-0.5233837000000001,-9.516611048000001,2.6695559464,-1.29339796,1.00139593,-4.79736434,,,
imu,249.231308,-0.5096261856000001,-9.509433214400001,2.652807668,-0.82982954,0.94905756,-4.41604193,,,
imu,249.24011,-0.5018501992000001,-9.499264616800001,2.6569947376,-0.17186146,1.00887284,-3.90013514,,,
imu,249.248913,-0.5048409632,-9.499264616800001,2.657592890400001,0.63564482,1.34533379,-3.25712088,,,
imu,249.257715,-0.5030465048,-9.499862769600002,2.6611818072,1.24875144,1.59207182,-2.35989168,,,
imu,249.266517,-0.4922797544,-9.501657228000001,2.6653688768,1.99644244,1.97339423,-1.57481613,,,
imu,249.27532,-0.4749333232000001,-9.512423978400001,2.6659670296,2.46001086,2.22760917,-1.23835518,,,
imu,247.823971,,,,,,,75.1719268,-3.534014800000018,-6.280589600000008
imu,247.925503,,,,,,,73.48733320000001,-2.679510800000018,-3.155546400000009
imu,248.027127,,,,,,,73.3286396,-3.460771600000023,-6.024238400000003
imu,248.128934,,,,,,,72.9013876,-2.533024400000006,-3.900185600000006
imu,248.230191,,,,,,,72.84035159999999,-2.606267600000023,-3.436312000000008
imu,248.331784,,,,,,,72.9135948,-2.655096400000012,-3.25320400000001
imu,248.433316,,,,,,,72.864766,-2.386538000000016,-3.72928480000001
imu,248.534878,,,,,,,72.620622,-2.471988400000003,-2.630636800000008
imu,249.283995,-0.4743351704000001,-9.528574104,2.686902377600001,2.69927198,2.42948574,-1.04395552,,,
imu,249.292797,-0.4713444064,-9.530966715200002,2.689893141600001,2.74413344,2.55659321,-1.32060119,,,
imu,249.3016,-0.4605776560000001,-9.5602762024,2.6803226968,2.87124091,2.66874686,-1.66453905,,,
imu,249.310402,-0.4378478496000001,-9.599156134400001,2.6659670296,2.90114855,2.75099287,-2.18044584,,,
imu,249.319204,-0.4420349192,-9.593174606400002,2.664770724000001,2.69179507,2.72108523,-2.78607555,,,
imu,249.328007,-0.430670016,-9.6039413568,2.658789196,2.58711833,2.71360832,-3.20478251,,,
imu,249.336809,-0.4205014184,-9.609922884800001,2.6444335288,2.5646876,2.84071579,-3.63096638,,,
imu,249.345611,-0.4187069600000001,-9.5949690648,2.6426390704,2.52730305,2.89305416,-4.13191935,,,
imu,249.354414,-0.4139217376000001,-9.600352440000002,2.652807668,2.33290339,2.74351596,-4.59548777,,,
imu,249.363216,-0.4097346680000001,-9.633250844,2.667163335200001,2.25813429,2.75099287,-4.78241052,,,
imu,249.371686,-0.406743904,-9.6703363176,2.679724544,2.13850373,2.74351596,-4.991764,,,
imu,249.380156,-0.4222958768,-9.7056273328,2.7012580448,1.78708896,2.61640849,-5.350655679999999,,,
imu,249.388626,-0.4270810992000001,-9.719983000000001,2.703650656000001,1.19641307,2.30985518,-5.70954736,,,
imu,249.397096,-0.442633072,-9.7217774584,2.7203989344,0.78518302,2.11545552,-5.85908556,,,
imu,249.405565,-0.4575868920000001,-9.721179305600002,2.717408170400001,0.35899915,2.12293243,-5.65720899,,,
imu,249.414035,-0.4563905864000001,-9.688280901600002,2.7084358784,-0.14943073,2.00330187,-5.545055339999999,,,
imu,249.422505,-0.4611758088,-9.6470083584,2.696472822400001,-0.58309151,1.97339423,-5.328224949999999,,,
imu,249.430975,-0.4647647256,-9.610521037600002,2.6779300856,-0.81487572,1.83133294,-5.12634838,,,
imu,249.439445,-0.4737370176,-9.5566872856,2.668957793600001,-0.97189083,1.59954873,-5.12634838,,,
imu,249.447915,-0.4779240872000001,-9.52558334,2.661779960000001,-0.7401066199999999,1.47244126,-4.976810179999999,,,
imu,249.456385,-0.4761296288000001,-9.5172092008,2.6755374744,-0.4260764,1.38271834,-4.70764142,,,
imu,249.464855,-0.4874945320000001,-9.508835061600001,2.673743016,-0.34383039,1.09111885,-4.70764142,,,
imu,249.473325,-0.49347606,-9.4980683112,2.6683596408,0.13469185,0.9565344699999998,-4.55810322,,,
imu,249.481795,-0.4976631296000001,-9.5040498392,2.6749393216,0.70293701,0.9714882899999999,-4.169303899999999,,,
imu,249.490264,-0.5000557408,-9.489694172,2.6845097664,0.94219813,0.94905756,-3.96742733,,,
imu,249.498734,-0.5000557408,-9.481320032800001,2.6934820584,1.26370526,1.01634975,-3.72816621,,,
imu,249.507204,-0.5036446576000001,-9.487899713600001,2.6904912944,1.62259694,1.09859576,-3.46647436,,,
imu,249.515674,-0.4964668240000001,-9.4908904776,2.686902377600001,1.8169966,1.0537343,-3.18982869,,,
imu,249.524144,-0.4970649768000001,-9.512423978400001,2.6970709752,2.14598064,0.9640113799999996,-3.22721324,,,
imu,249.532614,-0.4851019208000001,-9.5381445488,2.6928839056,2.39271867,1.06868812,-3.21973633,,,
imu,249.541084,-0.4791203928000001,-9.543527924000001,2.7030525032,2.7142258,1.14345722,-3.0477674,,,
imu,249.549554,-0.4755314760000001,-9.550705757600001,2.7048469616,2.89367164,1.21074941,-2.88327538,,,
imu,249.558024,-0.4641665728000001,-9.553696521600001,2.7024543504,2.84881018,1.36028761,-2.87579847,,,
imu,249.566494,-0.4575868920000001,-9.5566872856,2.7012580448,2.91610237,1.21074941,-3.18235178,,,
imu,249.574976,-0.46356842,-9.559678049600002,2.699463586400001,3.1628404,1.21074941,-3.18235178,,,
imu,249.583459,-0.4623721144,-9.575828175200002,2.699463586400001,2.93105619,0.8742884599999998,-3.41413599,,,
imu,249.591941,-0.4611758088,-9.609922884800001,2.697669128,3.10302512,0.9789651999999998,-3.4216129,,,
imu,249.600424,-0.4563905864000001,-9.620091482400001,2.6910894472,3.02077911,0.8967191899999998,-3.55619728,,,
imu,249.608907,-0.4647647256,-9.633848996800001,2.679724544,2.80394872,0.7397040799999997,-3.62348947,,,
imu,249.617389,-0.4581850448000001,-9.645213900000002,2.673144863200001,2.84133327,0.66493498,-3.41413599,,,
imu,249.625872,-0.4587831976000001,-9.6535880392,2.648022445600001,2.64693361,0.56025824,-3.39170526,,,
imu,249.634354,-0.4593813504000001,-9.639830524800002,2.6492187512,2.60954906,0.5153967799999997,-3.24964397,,,
imu,249.642837,-0.4629702672000001,-9.6523917336,2.6492187512,2.72170271,0.52287369,-3.15992105,,,
imu,249.65132,-0.4629702672000001,-9.669738164800002,2.6540039736,2.65441052,0.4929660499999997,-3.13001341,,,
imu,249.659802,-0.4498109056,-9.675121540000001,2.638452000800001,2.50487232,0.3733354899999997,-3.21973633,,,
imu,249.668285,-0.4599795032,-9.676317845600002,2.6492187512,2.18336519,0.3209971199999999,-3.21973633,,,
imu,249.676768,-0.4629702672000001,-9.6733270816,2.646227987200001,1.89924261,0.4331507699999997,-3.18982869,,,
imu,249.68525,-0.4581850448000001,-9.654784344800001,2.6474242928,1.68241222,0.47801223,-3.11505959,,,
imu,249.693733,-0.4611758088,-9.636839760800001,2.634264931200001,1.42072037,0.4107200399999997,-3.16739796,,,
imu,249.702215,-0.4623721144,-9.612315496,2.6270870976,1.02444414,0.3733354899999997,-3.22721324,,,
imu,249.710698,-0.46356842,-9.5949690648,2.6145258888,0.8375213899999999,0.3658585799999998,-3.25712088,,,
imu,249.719181,-0.4689517952000001,-9.557883591200001,2.613927736,0.56835263,0.3135202100000001,-3.43656672,,,
imu,249.727663,-0.4731388648000001,-9.564463272000001,2.597179457600001,0.5982602699999999,0.3060432999999998,-3.59358183,,,
imu,249.736146,-0.4629702672000001,-9.568650341600001,2.5911979296,0.53844499,0.29856639,-3.78050458,,,
imu,249.744628,-0.4785222400000001,-9.5501076048,2.6097406664,0.68798319,0.1415512799999998,-3.99733497,,,
imu,249.753111,-0.4755314760000001,-9.5632669664,2.6145258888,0.8823828499999999,0.01444380999999995,-4.21416536,,,
imu,249.761594,-0.4833074624000001,-9.578818939200001,2.6282834032,0.97958268,-0.02294074000000013,-4.22164227,,,
imu,249.770076,-0.4892889904,-9.599156134400001,2.643835376000001,0.88985976,0.1265974599999997,-4.20668845,,,
imu,249.778517,-0.49347606,-9.611119190400002,2.6623781128,0.9272443100000001,0.19388965,-4.0945348,,,
imu,249.786958,-0.5012520464000001,-9.613511801600001,2.6492187512,0.8449983,0.01444380999999995,-4.06462716,,,
imu,249.795398,-0.499457588,-9.623082246400001,2.652807668,0.80013684,0.05182836000000002,-4.012288789999999,,,
imu,249.803839,-0.4976631296000001,-9.592576453600001,2.6695559464,0.66555246,-0.06780220000000003,-4.06462716,,,
imu,249.81228,-0.5048409632,-9.593772759200002,2.6695559464,0.64312173,0.06678217999999969,-3.98985806,,,
imu,249.82072,-0.4964668240000001,-9.618297024,2.6773319328,0.66555246,0.1565051,-3.92256587,,,
imu,249.829161,-0.5000557408,-9.612913648800001,2.6845097664,0.5982602699999999,0.1265974599999997,-3.81788913,,,
imu,249.837602,-0.4755314760000001,-9.6290637744,2.7084358784,0.58330645,0.2013665599999999,-3.69078166,,,
imu,249.846042,-0.4964668240000001,-9.631456385600002,2.709632184,0.3889067899999999,0.1041667299999998,-3.75059694,,,
imu,249.854483,-0.4922797544,-9.634447149600001,2.7168100176,0.3963837,0.04435144999999974,-3.67582784,,,
imu,249.862924,-0.4868963792000001,-9.6248767048,2.727576768,0.23189168,-0.05284837999999992,-3.60105874,,,
imu,249.871364,-0.490485296,-9.618297024,2.7443250464,0.05992275,-0.1126636599999999,-3.48890509,,,
imu,249.879805,-0.4827093096,-9.618895176800002,2.75150288,0.03749201999999999,-0.09770984000000027,-3.48142818,,,
imu,249.888245,-0.4892889904,-9.6284656216,2.7676530056,-0.10456927,-0.1949096699999999,-3.27955161,,,
imu,249.896686,-0.4910834488,-9.630260080000001,2.783204978400001,-0.43355331,-0.3594016900000003,-3.41413599,,,
imu,249.905127,-0.4779240872000001,-9.614708107200002,2.7802142144,-0.97189083,-0.6285704500000002,-3.44404363,,,
imu,249.913567,-0.4898871432,-9.5949690648,2.7706437696,-1.16629049,-0.65847809,-3.30198234,,,
imu,249.922008,-0.5060372688000001,-9.5447242296,2.7652603944,-1.30087487,-0.59866281,-3.06272122,,,
imu,249.930449,-0.5102243384,-9.499862769600002,2.7526991856,-1.21862886,-0.6210935399999999,-2.98795212,,,
imu,249.938889,-0.5287670752,-9.4801237272,2.7449231992,-0.88964482,-0.5687551700000002,-2.95056757,,,
imu,249.94733,-0.5281689224000001,-9.4633754488,2.7371472128,-0.71767589,-0.4416477000000003,-2.95804448,,,
imu,249.955771,-0.5317578392000001,-9.450814240000001,2.7353527544,-0.32887657,-0.2696787700000001,-3.06272122,,,
imu,249.964211,-0.5389356728,-9.4424401008,2.722791545600001,0.20946095,0.11164364,-3.0477674,,,
imu,249.972652,-0.5413282840000001,-9.450814240000001,2.736549060000001,0.6281679099999999,0.4107200399999997,-3.16739796,,,
imu,249.981118,-0.5443190480000001,-9.457393920800001,2.7359509072,1.0693056,0.7471809899999999,-3.38422835,,,
imu,249.989584,-0.5467116592000001,-9.463973601600001,2.7413342824,1.63007385,1.16588795,-3.63096638,,,
imu,249.99805,-0.5425245896,-9.4765348104,2.731165684800001,2.07121154,1.49487199,-3.89265823,,,
imu,250.006516,-0.5491042704000001,-9.488497866400001,2.7233896984,2.31047266,1.75656384,-4.37118047,,,
imu,250.014982,-0.5401319784,-9.5213962704,2.7144174064,2.70674889,1.99582496,-4.670256869999999,,,
imu,250.023449,-0.5275707696,-9.544126076800001,2.7090340312,2.91610237,2.324809,-4.999240909999999,,,
imu,250.031915,-0.5335522976000001,-9.554892827200002,2.7084358784,3.11797894,2.56407012,-5.18616366,,,
imu,250.040381,-0.520392936,-9.564463272000001,2.6892949888,3.30490169,2.78837742,-5.4403786,,,
imu,250.048847,-0.5233837000000001,-9.585996772800002,2.688696836,3.35724006,2.9229618,-5.64973208,,,
imu,250.057313,-0.535346756,-9.6039413568,2.6773319328,3.40210152,2.97530017,-5.9637623,,,
imu,250.065779,-0.5287670752,-9.61530626,2.671350404800001,3.37219388,2.97530017,-5.98619303,,,
imu,250.074245,-0.5197947832,-9.632054538400002,2.667761488,3.23013259,2.9977309,-6.15068505,,,
imu,250.082711,-0.5215892416000001,-9.641624983200002,2.657592890400001,3.05816366,2.97530017,-6.046008309999999,,,
imu,250.091177,-0.5221873944000001,-9.646410205600002,2.648022445600001,2.92357928,3.07997691,-5.95628539,,,
imu,248.636441,,,,,,,72.9135948,-2.459781200000011,-3.045681600000005
imu,248.738003,,,,,,,74.9644044,-2.325502000000013,-3.643834400000001
imu,248.839596,,,,,,,72.986838,-2.301087600000007,-3.118924800000011
imu,248.94122,,,,,,,73.0356668,-2.36212360000001,-3.863564000000008
imu,249.046048,,,,,,,74.53715240000001,-3.265456400000022,-5.780094400000002
imu,249.15231,,,,,,,72.3032348,-2.337709200000004,-3.533969600000009
imu,249.253812,,,,,,,72.9135948,-2.764961200000005,-3.533969600000009
imu,249.355191,,,,,,,72.6450364,-2.862618800000005,-4.071086400000001
imu,250.099643,-0.5311596864,-9.651195428000001,2.638452000800001,2.62450288,3.04259236,-5.8889932,,,
imu,250.108109,-0.5293652280000001,-9.634447149600001,2.6306760144,2.21327283,3.01268472,-5.739455,,,
imu,250.116575,-0.535346756,-9.6326526912,2.6324704728,1.98896553,3.13231528,-5.46280933,,,
imu,250.125042,-0.5407301312,-9.634447149600001,2.6354612368,1.70484295,2.87062343,-5.39551714,,,
imu,250.133508,-0.5437208952000001,-9.638036066400002,2.6211055696,1.4431511,2.64631613,-5.26840967,,,
imu,250.141974,-0.5389356728,-9.6326526912,2.6223018752,1.09921324,2.70613141,-5.14877911,,,
imu,250.15044,-0.550300576,-9.648802816800002,2.6426390704,0.8973366700000001,2.56407012,-4.931948719999999,,,
imu,250.158906,-0.5413282840000001,-9.693066124000001,2.655200279200001,0.68050628,2.53416248,-4.79736434,,,
imu,250.167372,-0.5526931872,-9.699645804800001,2.6522095152,0.44124516,2.41453192,-4.7674567,,,
imu,250.175838,-0.5425245896,-9.7217774584,2.6581910432,0.06739966,2.33228591,-4.453426479999999,,,
imu,250.184654,-0.5341504504000001,-9.709216249600003,2.6659670296,-0.15690764,2.45191647,-4.11696553,,,
imu,250.193469,-0.5293652280000001,-9.6709344704,2.6683596408,-0.45598404,2.58650085,-3.61601256,,,
imu,250.202285,-0.5311596864,-9.635045302400002,2.6725467104,-0.7251528,2.63136231,-3.18235178,,,
imu,250.2111,-0.5263744640000001,-9.612315496,2.6653688768,-0.91207555,2.45191647,-2.87579847,,,
imu,250.219916,-0.5048409632,-9.5877912312,2.6629762656,-1.13638285,2.23508608,-2.80102937,,,
imu,250.228732,-0.4958686712000001,-9.5566872856,2.6623781128,-1.04665993,2.11545552,-2.80102937,,,
imu,250.237547,-0.4922797544,-9.539939007200001,2.667163335200001,-1.03170611,1.7266562,-2.86832156,,,
imu,250.246363,-0.4922797544,-9.544126076800001,2.6839116136,-0.94198319,1.70422547,-2.88327538,,,
imu,250.255178,-0.4928779072000001,-9.530966715200002,2.6803226968,-0.8672140899999999,1.59207182,-3.07019813,,,
imu,250.263994,-0.490485296,-9.51062952,2.685706072000001,-0.65786061,1.59954873,-2.92813684,,,
imu,250.27281,-0.4821111568000001,-9.507040603200002,2.6916876,-0.5008455,1.49487199,-2.95804448,,,
imu,250.281625,-0.4713444064,-9.52558334,2.6988654336,-0.22419983,1.33785688,-2.93561375,,,
imu,250.290441,-0.4761296288000001,-9.5423316184,2.6928839056,-0.04475399000000001,1.21074941,-3.08515195,,,
imu,250.299256,-0.4767277816000001,-9.539939007200001,2.7084358784,0.07487657,1.19579559,-3.13749032,,,
imu,250.308072,-0.4809148512,-9.553098368800002,2.7198007816,0.12721494,1.16588795,-3.35432071,,,
imu,250.316888,-0.4821111568000001,-9.572837411200002,2.7287730736,0.20946095,0.9565344699999998,-3.43656672,,,
imu,250.325703,-0.4868963792000001,-9.583604161600002,2.7371472128,0.36647606,1.01634975,-3.51133582,,,
imu,250.334519,-0.4821111568000001,-9.5985579816,2.75150288,0.18703022,0.94905756,-3.7954584,,,
imu,250.343334,-0.481513004,-9.620091482400001,2.7628677832,0.007584380000000002,0.86681155,-3.81041222,,,
imu,250.35215,-0.4833074624000001,-9.638036066400002,2.759877019200001,-0.02232326000000001,0.7471809899999999,-3.95995042,,,
imu,250.360966,-0.4940742128000001,-9.661962178400001,2.7718400752,-0.35878421,0.5901658799999998,-4.31136519,,,
imu,250.369781,-0.5000557408,-9.667345553600002,2.7790179088,-0.62047606,0.6275504299999999,-4.3936112,,,
imu,250.378474,-0.5042428104000001,-9.663158484000002,2.7742326864,-0.77001426,0.5976427899999996,-4.4683803,,,
imu,250.386949,-0.5132151024,-9.668541859200001,2.779616061600001,-1.12142903,0.3808123999999999,-4.759979789999999,,,
imu,250.395424,-0.5150095608,-9.669738164800002,2.7820086728,-1.26349032,0.4854891399999999,-4.72259524,,,
imu,250.403899,-0.5287670752,-9.648204664000001,2.7802142144,-1.65976655,0.3060432999999998,-4.75250288,,,
imu,250.412374,-0.55329134,-9.602146898400001,2.7861957424,-2.00370441,0.13407437,-4.79736434,,,
imu,250.420849,-0.5574784096000001,-9.596763523200002,2.7927754232,-2.10090424,0.2387511099999999,-4.759979789999999,,,
imu,250.429324,-0.5658525488000001,-9.603343204000002,2.801747715200001,-2.48222665,0.02939763000000006,-4.9169949,,,
imu,250.437798,-0.5772174520000001,-9.6075302736,2.812514465600001,-2.60933412,0.06678217999999969,-4.89456417,,,
imu,250.446273,-0.5867878968000001,-9.595567217600001,2.8304590496,-2.885979789999999,-0.01546383000000029,-4.81979507,,,
imu,250.454748,-0.6029380224,-9.587193078400002,2.831655355200001,-3.17757928,0.05930526999999985,-4.43847266,,,
imu,250.463223,-0.6178918424000002,-9.581809703200001,2.8304590496,-3.44674804,0.1565051,-4.19173463,,,
imu,250.471698,-0.6196863008000001,-9.565061424800001,2.838235036,-3.52899405,0.3957662200000001,-3.90761205,,,
imu,250.480173,-0.6113121616,-9.5566872856,2.8298608968,-3.55142478,0.41819695,-3.66835093,,,
imu,250.488648,-0.6220789120000001,-9.528574104,2.8280664384,-3.44674804,0.62007352,-3.41413599,,,
imu,250.497123,-0.6196863008000001,-9.4974701584,2.8298608968,-3.28225602,0.7322271699999998,-3.24216706,,,
imu,250.505598,-0.6370327320000001,-9.479525574400002,2.82627198,-3.24487147,0.8593346399999997,-3.18235178,,,
imu,250.514073,-0.6364345792000001,-9.4663662128,2.825075674400001,-2.93084125,1.03130357,-3.05524431,,,
imu,250.522548,-0.6244715232,-9.453206851200001,2.8304590496,-2.57942648,1.23318014,-2.86832156,,,
imu,250.531023,-0.6298548984000001,-9.451412392800002,2.845412869600001,-2.37754991,1.32290306,-2.84589083,,,
imu,250.539498,-0.6178918424000002,-9.483712644000002,2.8579740784,-1.98875059,1.47244126,-2.64401426,,,
imu,250.547973,-0.6119103144000001,-9.495675700000001,2.862161148000001,-1.65976655,1.78647148,-2.39727623,,,
imu,250.556448,-0.5951620360000001,-9.4974701584,2.88608726,-1.39059779,1.83880985,-2.24773803,,,
imu,250.564923,-0.5921712720000001,-9.5004609224,2.8747223568,-1.15133667,1.83133294,-2.03838455,,,
imu,250.573398,-0.5766192992000001,-9.4908904776,2.8789094264,-1.05413684,1.92105586,-1.79164652,,,
imu,250.581873,-0.5724322296000001,-9.499264616800001,2.8986484688,-0.93450628,2.0257326,-1.61220068,,,
imu,250.590337,-0.5622636320000001,-9.520798117600002,2.901041080000001,-0.82982954,2.06311715,-1.52995467,,,
imu,250.5988,-0.5640580904000001,-9.534555632000002,2.9004429272,-0.67281443,1.85376367,-1.7019236,,,
imu,250.607264,-0.5473098120000001,-9.532163020800002,2.9004429272,-0.62047606,1.83133294,-1.61220068,,,
imu,250.615727,-0.5383375200000001,-9.519601812000001,2.907022608,-0.66533752,1.75656384,-1.7766927,,,
imu,250.624191,-0.5144114080000001,-9.5184055064,2.895657704800001,-0.64290679,1.77151766,-1.83650798,,,
imu,250.632655,-0.4958686712000001,-9.5172092008,2.8932650936,-0.6279529699999999,1.71917929,-1.76173888,,,
imu,250.641118,-0.46356842,-9.511227672800002,2.8998447744,-0.55318387,1.69674856,-1.7019236,,,
imu,250.649582,-0.4462219888000001,-9.520199964800002,2.904031844000001,-0.48589168,1.47991817,-1.59724686,,,
imu,250.658045,-0.4599795032,-9.520798117600002,2.8998447744,-0.5756146,1.06121121,-1.44770866,,,
imu,250.666509,-0.4522035168,-9.516611048000001,2.9046299968,-0.51579932,0.72475026,-1.35050883,,,
imu,250.674972,-0.439642308,-9.520798117600002,2.9124059832,-0.41859949,0.5303505999999998,-1.35050883,,,
imu,250.683436,-0.4474182944000001,-9.5213962704,2.918985664,-0.66533752,0.21632038,-1.48509321,,,
imu,250.691899,-0.4486146000000001,-9.523190728800001,2.9213782752,-0.59056842,-0.02294074000000013,-1.38789338,,,
imu,250.700363,-0.4623721144,-9.524387034400002,2.908218913600001,-0.5307531400000001,-0.2771556799999999,-1.39537029,,,
imu,250.708826,-0.4617739616000001,-9.519003659200001,2.9165930528,-0.47093786,-0.5463244400000002,-1.44770866,,,
imu,250.71729,-0.4647647256,-9.5184055064,2.924967192,-0.50832241,-0.6435242699999999,-1.46266248,,,
imu,250.725753,-0.4755314760000001,-9.512423978400001,2.9303505672,-0.53823005,-0.8080162900000003,-1.49257012,,,
imu,250.734217,-0.4880926848000001,-9.5118258256,2.93094872,-0.41112258,-0.6659550000000003,-1.34303192,,,
imu,250.742681,-0.5012520464000001,-9.513022131200001,2.9267616504,-0.18681528,-0.6883857300000003,-1.24583209,,,
imu,250.751144,-0.5096261856000001,-9.516012895200001,2.9237708864,-0.14943073,-0.65847809,-1.24583209,,,
imu,250.759608,-0.5209910888,-9.507638756,2.9237708864,0.01506129,-0.6061397200000003,-1.24583209,,,
imu,250.768071,-0.5407301312,-9.495675700000001,2.9261634976,-0.007369440000000005,-0.4491246100000001,-1.34303192,,,
imu,250.776535,-0.5520950344000001,-9.48072188,2.9183875112,0.09730729999999999,-0.3369709599999999,-1.41032411,,,
imu,250.784998,-0.5634599376000001,-9.487899713600001,2.9159949,0.26179932,-0.2397711300000003,-1.61967759,,,
imu,250.793467,-0.5640580904000001,-9.4831144912,2.933939484000001,0.41133752,0.006966899999999665,-1.67201596,,,
imu,250.801936,-0.5634599376000001,-9.477132963200003,2.9231727336,0.67302937,0.3209971199999999,-1.59724686,,,
imu,250.810404,-0.5766192992000001,-9.4974701584,2.924369039200001,0.88985976,0.52287369,-1.7019236,,,
imu,250.818873,-0.5634599376000001,-9.489096019200002,2.9237708864,1.00201341,0.86681155,-1.75426197,,,
imu,250.827341,-0.5598710208000001,-9.4801237272,2.9213782752,1.11416706,1.41262598,-1.61220068,,,
imu,250.83581,-0.5508987288,-9.471151435200001,2.9159949,1.21136689,1.88367131,-1.48509321,,,
imu,250.844279,-0.5479079648000001,-9.463973601600001,2.928556108800001,1.38333582,2.15284007,-1.41780102,,,
imu,250.852747,-0.5299633808,-9.4753385048,2.9321450256,1.54782784,2.64631613,-1.13367844,,,
imu,250.861216,-0.4982612824000001,-9.469356976800002,2.938126553600001,1.60016621,3.05006927,-0.9467556899999998,,,
imu,250.869685,-0.4946723656000001,-9.485507102400002,2.9423136232,1.64502767,3.34166876,-1.02152479,,,
imu,250.878153,-0.481513004,-9.5082369088,2.9506877624,1.65998149,3.6706528,-0.99161715,,,
imu,250.886622,-0.4587831976000001,-9.544126076800001,2.971024957600001,1.56278166,3.94729847,-1.08134007,,,
imu,250.89509,-0.4492127528000001,-9.5800152448,2.9793990968,1.34595127,4.40338998,-1.17106299,,,
imu,250.903559,-0.4258847936,-9.596165370400001,2.9811935552,1.15155161,4.552928179999999,-1.20097063,,,
imu,250.912028,-0.4169125016,-9.597361676,2.997941833600001,1.09921324,4.84452767,-1.07386316,,,
imu,249.456716,,,,,,,72.2421988,-2.69171800000001,-3.973428800000012
imu,249.558217,,,,,,,72.376478,-2.264466000000009,-3.460726400000003
imu,249.65978,,,,,,,72.73048680000001,-2.508610000000022,-3.717077600000007
imu,249.761342,,,,,,,73.7436844,-2.349916400000018,-4.705860800000005
imu,249.862874,,,,,,,72.8769732,-2.056943600000016,-3.973428800000012
imu,249.964467,,,,,,,75.51372839999999,-3.302078000000019,-6.292796800000011
imu,250.065999,,,,,,,73.37746839999998,-2.203430000000006,-3.363068800000002
imu,250.167623,,,,,,,75.3794492,-2.935862000000022,-6.720048800000011
imu,250.920496,-0.3899956256000001,-9.572837411200002,2.9734175688,0.68798319,5.07631188,-0.99161715,,,
imu,250.928965,-0.3738455000000001,-9.5447242296,2.9722212632,0.49358353,5.547357209999999,-0.74487912,,,
imu,250.937434,-0.3564990688,-9.530368562400001,2.959061901600001,0.52349117,5.75671069,-0.4158950799999999,,,
imu,250.945902,-0.3331711096,-9.516611048000001,2.9482951512,0.68798319,5.89129507,-0.3635567099999999,,,
imu,250.954371,-0.3092449976000001,-9.481320032800001,2.9297524144,0.73284465,5.876341249999999,-0.49066418,,,
imu,250.962839,-0.2907022608000001,-9.462777296000002,2.9165930528,0.74779847,5.80157215,-0.8645096799999998,,,
imu,250.971308,-0.2739539824000001,-9.471151435200001,2.9165930528,0.8823828499999999,5.681941589999999,-1.15610917,,,
imu,250.979777,-0.257205704,-9.457992073600002,2.9034336912,1.18893616,5.57726485,-1.46266248,,,
imu,250.988245,-0.2476352592,-9.4424401008,2.891470635200001,1.37585891,5.27071154,-1.96361545,,,
imu,250.996795,-0.2278962168,-9.443636406400001,2.8908724824,1.68241222,5.03892733,-2.23278421,,,
imu,251.005345,-0.212344244,-9.448421628800002,2.877114968,1.98148862,4.77723548,-2.63653735,,,
imu,251.013895,-0.212344244,-9.4526086984,2.8615629952,2.0413039,4.478159079999999,-2.95056757,,,
imu,251.022445,-0.2051664104,-9.477132963200003,2.8669463704,2.23570356,3.99963684,-3.33936689,,,
imu,251.030995,-0.2027737992,-9.5040498392,2.8687408288,2.38524176,3.61831443,-3.63844329,,,
imu,251.039545,-0.2015774936,-9.5249851872,2.874124204,2.29551884,3.25942275,-3.95247351,,,
imu,251.048095,-0.2009793408,-9.566257730400002,2.8783112736,2.31794957,2.96034635,-3.98238115,,,
imu,251.056645,-0.1967922712,-9.5776226336,2.8783112736,2.116073,2.68370068,-3.93004278,,,
imu,251.065195,-0.191408896,-9.595567217600001,2.8795075792,1.80204278,2.27247063,-3.99733497,,,
imu,251.073745,-0.2015774936,-9.6087265792,2.8765168152,1.60016621,1.94348659,-3.95995042,,,
imu,251.082295,-0.2147368552,-9.6290637744,2.8908724824,1.368382,1.55468727,-3.97490424,,,
imu,251.090845,-0.2278962168,-9.6470083584,2.889676176800001,1.17398234,1.2780416,-3.81788913,,,
imu,251.099395,-0.2338777448,-9.664952942400001,2.901041080000001,0.60573718,0.9415806499999997,-3.7954584,,,
imu,251.107945,-0.2524204816,-9.656578803200002,2.9118078304,0.30666078,0.8294269999999999,-3.57862801,,,
imu,251.116495,-0.2703650656,-9.6434194416,2.9165930528,0.15712258,0.58268897,-3.39918217,,,
imu,251.125045,-0.2829262744000001,-9.641026830400001,2.9171912056,-0.15690764,0.3060432999999998,-3.33188998,,,
imu,251.133595,-0.2895059552,-9.617698871200002,2.904031844000001,-0.47093786,0.2836125699999998,-3.16739796,,,
imu,251.142145,-0.3128339144,-9.557883591200001,2.8962558576,-0.64290679,0.1415512799999998,-3.09262886,,,
imu,251.150695,-0.3295821928000001,-9.5040498392,2.8944613992,-0.6503837,0.2537049300000001,-2.80850628,,,
imu,251.159245,-0.3307784984000001,-9.51062952,2.9064244552,-0.53823005,0.4929660499999997,-2.68139881,,,
imu,251.167795,-0.3373581792000001,-9.516012895200001,2.8986484688,-0.33635348,0.4481045899999998,-2.62158353,,,
imu,251.176346,-0.334965568,-9.502255380800001,2.8986484688,-0.29896893,0.5752120599999997,-2.62906044,,,
imu,251.184896,-0.3391526376000001,-9.510031367200002,2.9118078304,-0.32139966,0.8294269999999999,-2.49447606,,,
imu,251.193446,-0.3355637208,-9.5148165896,2.9255653448,-0.11204618,1.21074941,-2.40475314,,,
imu,251.201895,-0.3212080536,-9.512423978400001,2.9291542616,0.11973803,1.58459491,-2.1505382,,,
imu,251.210345,-0.3104413032000001,-9.5082369088,2.9273598032,0.06739966,1.86871749,-2.16549202,,,
imu,251.218794,-0.2913004136,-9.522592576000001,2.9273598032,0.08983038999999998,2.0257326,-2.3748455,,,
imu,251.227244,-0.2829262744000001,-9.526181492800001,2.935733942400001,0.18703022,2.31733209,-2.47952224,,,
imu,251.235693,-0.2679724544000001,-9.507638756,2.936930248,0.20946095,2.45939338,-2.83841392,,,
imu,251.244143,-0.2566075512,-9.493283088800002,2.9363320952,0.17955331,2.48182411,-3.33936689,,,
imu,251.252592,-0.2500278704,-9.492684936000002,2.9542766792,0.08983038999999998,2.4743472,-3.73564312,,,
imu,251.261042,-0.2578038568000001,-9.489694172,2.9512859152,0.08235347999999998,2.51173175,-4.0197657,,,
imu,251.269492,-0.23926112,-9.498666464000001,2.9554729848,0.13469185,2.5491163,-4.28893446,,,
imu,251.277941,-0.2410555784,-9.513620284000002,2.9680341936,0.09730729999999999,2.30985518,-4.73007215,,,
imu,251.286391,-0.2374666616,-9.516611048000001,2.9746138744,0.08983038999999998,2.24256299,-4.94690254,,,
imu,251.29484,-0.2488315648,-9.5172092008,2.9746138744,0.09730729999999999,2.1005017,-5.0665331,,,
imu,251.30329,-0.2536167872,-9.519601812000001,2.969828652,-0.13447691,2.00330187,-5.11139456,,,
imu,251.311739,-0.2476352592,-9.520199964800002,2.9692304992,-0.2017691,1.75656384,-5.11139456,,,
imu,251.320189,-0.2584020096,-9.524387034400002,2.980595402400001,-0.34383039,1.63693328,-5.05905619,,,
imu,251.328638,-0.2542149400000001,-9.534555632000002,2.971024957600001,-0.40364567,1.56216418,-4.90204108,,,
imu,251.337088,-0.2697669128,-9.551902063200002,2.9871750832,-0.37373803,1.47991817,-4.715118329999999,,,
imu,251.345537,-0.2667761488000001,-9.555490980000002,2.999138139200001,-0.47093786,1.33785688,-4.625395409999999,,,
imu,251.353987,-0.2763465936,-9.569248494400002,3.008708584,-0.46346095,1.18831868,-4.53567249,,,
imu,251.362437,-0.2918985664000001,-9.557883591200001,3.012895653600001,-0.65786061,1.03878048,-4.58053395,,,
imu,251.370886,-0.2990764,-9.554294674400001,3.017082723200001,-0.9494601,0.76213481,-4.56558013,,,
imu,251.379336,-0.311039456,-9.5393408544,3.02067164,-1.04665993,0.6350273399999997,-4.48333412,,,
imu,251.387785,-0.3307784984000001,-9.513022131200001,3.022466098400001,-1.35321324,0.5079198699999998,-4.5431494,,,
imu,251.396235,-0.3253951232,-9.4908904776,3.0099048896,-1.30835178,0.5752120599999997,-4.625395409999999,,,
imu,251.404969,-0.3421434016,-9.48072188,3.0003344448,-1.27096723,0.5527813299999997,-4.61044159,,,
imu,251.413704,-0.3535083048,-9.4591883792,3.0069141256,-1.24105959,0.4929660499999997,-4.625395409999999,,,
imu,251.422439,-0.3559009160000001,-9.452010545600002,3.021269792800001,-1.08404448,0.4107200399999997,-4.49081103,,,
imu,251.431173,-0.3547046104000001,-9.465169907200002,3.023662404,-0.91955246,0.4107200399999997,-4.430995749999999,,,
imu,251.439908,-0.3576953744,-9.4753385048,3.0320365432,-0.77749117,0.5901658799999998,-4.37118047,,,
imu,251.448643,-0.3600879856,-9.482516338400002,3.0350273072,-0.84478336,0.50044296,-4.35622665,,,
imu,251.457377,-0.3654713608,-9.492086783200001,3.056560808,-0.7401066199999999,0.5303505999999998,-4.244073,,,
imu,251.466005,-0.3738455000000001,-9.495675700000001,3.0511774328,-0.80739881,0.5153967799999997,-4.124442439999999,,,
imu,251.47474,-0.370854736,-9.488497866400001,3.0553645024,-0.61299915,0.50044296,-3.87770441,,,
imu,251.483474,-0.3726491944000001,-9.486105255200002,3.057158960800001,-0.85973718,0.4331507699999997,-3.95247351,,,
imu,251.492209,-0.3762381112000001,-9.487899713600001,3.0493829744,-0.80739881,0.56025824,-3.75059694,,,
imu,251.500944,-0.3822196392,-9.4831144912,3.0487848216,-0.81487572,0.5976427899999996,-3.69078166,,,
imu,251.509678,-0.3882011672000001,-9.488497866400001,3.0487848216,-0.59056842,0.62007352,-3.66087402,,,
imu,251.518413,-0.3834159448,-9.4843107968,3.0451959048,-0.50832241,0.8967191899999998,-3.59358183,,,
imu,251.527148,-0.3816214864,-9.4831144912,3.041606988,-0.40364567,1.00887284,-3.58610492,,,
imu,251.535882,-0.385808556,-9.488497866400001,3.0392143768,-0.17933837,1.28551851,-3.54124346,,,
imu,251.544617,-0.3947808480000001,-9.477731116000001,3.0439995992,-0.16438455,1.34533379,-3.67582784,,,
imu,251.553352,-0.4019586816,-9.474142199200001,3.0547663496,-0.06718472,1.65936401,-3.69825857,,,
imu,251.562086,-0.4031549872,-9.481320032800001,3.0493829744,-0.11204618,1.9509635,-3.77302767,,,
imu,251.570821,-0.3899956256000001,-9.496872005600002,3.057158960800001,-0.02232326000000001,2.1752708,-3.85527368,,,
imu,251.579556,-0.3840140976,-9.499264616800001,3.0679257112,0.15712258,2.28742445,-3.96742733,,,
imu,251.58829,-0.376836264,-9.507638756,3.0739072392,-0.007369440000000005,2.34723973,-4.25154991,,,
imu,251.597025,-0.3744436528,-9.507638756,3.0691220168,-0.08213854000000001,2.3995781,-4.37118047,,,
imu,251.605672,-0.3642750552,-9.498666464000001,3.0721127808,-0.17933837,2.42948574,-4.408565019999999,,,
imu,251.614318,-0.3559009160000001,-9.499862769600002,3.0768980032,-0.10456927,2.54163939,-4.42351884,,,
imu,251.622965,-0.3433397072,-9.478329268800001,3.070916475200001,-0.22419983,2.55659321,-4.59548777,,,
imu,251.631612,-0.3397507904000001,-9.471151435200001,3.079290614400001,-0.37373803,2.41453192,-4.68521069,,,
imu,251.640258,-0.3427415544,-9.4801237272,3.0852721424,-0.31392275,2.49677793,-4.58801086,,,
imu,251.648905,-0.3385544848000001,-9.499264616800001,3.088861059200001,-0.51579932,2.27994754,-4.64034923,,,
imu,251.657552,-0.3361618736,-9.5172092008,3.1008241152,-0.56066078,2.1005017,-4.52819558,,,
imu,251.666198,-0.3427415544,-9.530966715200002,3.1062074904,-0.54570696,1.9509635,-4.19921154,,,
imu,251.674845,-0.3415452488,-9.533957479200001,3.0990296568,-0.7401066199999999,2.04068642,-3.78798149,,,
imu,251.683492,-0.3415452488,-9.5327611736,3.1038148792,-0.80739881,2.10797861,-3.41413599,,,
imu,251.692138,-0.3385544848000001,-9.5237888816,3.0996278096,-0.78496808,2.03320951,-3.05524431,,,
imu,251.700785,-0.3307784984000001,-9.498666464000001,3.089459212,-0.8672140899999999,2.16031698,-2.96552139,,,
imu,251.709431,-0.3259932760000001,-9.468160671200001,3.0858702952,-0.92702937,2.22760917,-2.95804448,,,
imu,251.718078,-0.3301803456000001,-9.460982837600001,3.091851823200001,-0.74758353,2.22013226,-3.1225365,,,
imu,251.726725,-0.3391526376000001,-9.4460290176,3.0876647536,-0.63542988,2.10797861,-3.22721324,,,
imu,251.735371,-0.3385544848000001,-9.439449336800001,3.094244434400001,-0.59056842,2.04816333,-3.44404363,,,
imu,250.269246,,,,,,,72.4130996,-2.154601200000017,-4.095500800000007
imu,250.370687,,,,,,,72.59620760000001,-1.800592400000012,-4.15653680000001
imu,250.472402,,,,,,,72.80373,-2.056943600000016,-4.290816000000008
imu,250.573812,,,,,,,72.8281444,-1.654106000000022,-4.241987200000008
imu,250.675374,,,,,,,72.80373,-1.800592400000012,-4.412888000000004
imu,250.776937,,,,,,,73.0356668,-1.470998000000012,-4.559374400000005
imu,250.87856,,,,,,,73.292018,-1.739556400000009,-4.449509600000001
imu,250.980092,,,,,,,73.10891,-1.898250000000012,-4.303023200000011
imu,251.744018,-0.3463304712,-9.423299211200002,3.088861059200001,-0.5008455,2.01825569,-3.71321239,,,
imu,251.752665,-0.3367600264,-9.4215047528,3.0912536704,-0.41112258,2.00330187,-3.73564312,,,
imu,251.761311,-0.3397507904000001,-9.4286825864,3.096038892800001,-0.36626112,2.01825569,-3.71321239,,,
imu,251.769958,-0.3343674152,-9.426289975200001,3.104413032,-0.21672292,2.05564024,-3.58610492,,,
imu,251.778605,-0.3433397072,-9.431075197600002,3.1032167264,-0.25410747,2.00330187,-3.65339711,,,
imu,251.787251,-0.3289840400000001,-9.444234559200002,3.1157779352,-0.10456927,2.22013226,-3.54124346,,,
imu,251.795898,-0.3325729568,-9.4244955168,3.1068056432,-0.11952309,2.21265535,-3.43656672,,,
imu,251.804545,-0.3289840400000001,-9.4424401008,3.112189018400001,-0.02232326000000001,2.19022462,-3.32441307,,,
imu,251.813149,-0.3397507904000001,-9.4699551296,3.101422268000001,-0.05970781,2.22013226,-3.27955161,,,
imu,251.821754,-0.334965568,-9.479525574400002,3.1181705464,0.03749201999999999,2.29490136,-3.13001341,,,
imu,251.830359,-0.3283858872000001,-9.481918185600001,3.1247502272,-0.007369440000000005,2.22760917,-3.13001341,,,
imu,251.838963,-0.3385544848000001,-9.499264616800001,3.128937296800001,-0.09709236,2.18274771,-3.15244414,,,
imu,251.847568,-0.3325729568,-9.501657228000001,3.1355169776,-0.15690764,2.12293243,-3.15992105,,,
imu,251.856173,-0.3182172896000001,-9.523190728800001,3.1450874224,-0.38869185,2.18274771,-3.21225942,,,
imu,251.864777,-0.3367600264,-9.526181492800001,3.1558541728,-0.48589168,2.13788625,-3.2720747,,,
imu,251.873382,-0.3331711096,-9.505246144800001,3.1450874224,-0.79244499,2.18274771,-3.24964397,,,
imu,251.881987,-0.3451341656,-9.516611048000001,3.1666209232,-0.97189083,2.37714737,-3.15244414,,,
imu,251.890591,-0.3325729568,-9.519601812000001,3.1714061456,-1.1737674,2.39210119,-3.20478251,,,
imu,251.899196,-0.3218062064,-9.5154147424,3.1630320064,-1.26349032,2.36967046,-3.23469015,,,
imu,251.907801,-0.3241988176,-9.492086783200001,3.1696116872,-1.28592105,2.48182411,-3.24216706,,,
imu,251.916406,-0.3188154424,-9.4591883792,3.177387673600001,-1.3233056,2.39210119,-3.36927453,,,
imu,251.92501,-0.3158246784000001,-9.453206851200001,3.188154424,-1.24105959,2.3995781,-3.21973633,,,
imu,251.933615,-0.3122357616,-9.46576806,3.198323021600001,-1.27844414,2.30237827,-3.51133582,,,
imu,251.94222,-0.3134320672,-9.453805004000001,3.1857618128,-1.36069015,2.22760917,-3.6459202,,,
imu,251.950824,-0.3080486920000001,-9.423897364000002,3.203108244,-1.30835178,2.06311715,-3.70573548,,,
imu,251.959429,-0.311039456,-9.419710294400002,3.2186602168,-1.12890594,2.05564024,-3.59358183,,,
imu,251.968034,-0.3056560808,-9.412532460800001,3.210286077600001,-1.21862886,2.03320951,-3.496382,,,
imu,251.976638,-0.305057928,-9.382026668000002,3.2096879248,-1.23358268,1.91357895,-3.31693616,,,
imu,251.985243,-0.3038616224,-9.3766432928,3.203108244,-0.9793677399999999,1.88367131,-3.1225365,,,
imu,251.993848,-0.2907022608000001,-9.3658765424,3.209089772,-0.7401066199999999,1.97339423,-3.01038285,,,
imu,252.002452,-0.3014690112,-9.364680236800002,3.2072953136,-0.62047606,1.78647148,-3.07019813,,,
imu,252.011057,-0.3074505392,-9.355109792000002,3.1977248688,-0.35878421,1.63693328,-3.15244414,,,
imu,252.019212,-0.3128339144,-9.3455393472,3.2168657584,-0.17186146,1.52477963,-3.2720747,,,
imu,252.027366,-0.3176191368,-9.352717180800001,3.2156694528,0.22441477,1.5023489,-3.32441307,,,
imu,252.035521,-0.3176191368,-9.356904250400001,3.218062064,0.57582954,1.39019525,-3.38422835,,,
imu,252.043675,-0.31403022,-9.356904250400001,3.214473147200001,0.8375213899999999,1.41262598,-3.28702852,,,
imu,252.05183,-0.3068523864000001,-9.3664746952,3.2084916192,1.20388998,1.30794924,-3.27955161,,,
imu,252.059984,-0.3098431504,-9.382026668000002,3.221052828,1.51044329,1.33785688,-3.2720747,,,
imu,252.068139,-0.3182172896000001,-9.398176793600001,3.221650980800001,1.73475059,1.48739508,-3.24216706,,,
imu,252.076293,-0.3271895816000001,-9.401167557600001,3.224043592000001,2.15345755,1.60702564,-3.2720747,,,
imu,252.084448,-0.3206099008000001,-9.416121377600001,3.2306232728,2.38524176,1.62197946,-3.24216706,,,
imu,252.092603,-0.3236006648,-9.417915836,3.233614036800001,2.53477996,1.62197946,-3.27955161,,,
imu,252.100757,-0.3415452488,-9.420906600000002,3.2324177312,2.66188743,1.66684092,-3.2720747,,,
imu,252.108912,-0.3289840400000001,-9.436458572800001,3.2342121896,2.72917962,1.77899457,-3.39170526,,,
imu,252.117066,-0.3361618736,-9.4412437952,3.238997412,2.70674889,1.91357895,-3.38422835,,,
imu,252.125221,-0.320011748,-9.440645642400002,3.236006648,2.57964142,2.1005017,-3.46647436,,,
imu,252.133375,-0.3224043592,-9.437056725600002,3.228828814400001,2.53477996,2.2500399,-3.496382,,,
imu,252.14153,-0.3247969704000001,-9.4412437952,3.2324177312,2.53477996,2.40705501,-3.51133582,,,
imu,252.149684,-0.3068523864000001,-9.447225323200001,3.225838050400001,2.49739541,2.56407012,-3.60105874,,,
imu,252.157839,-0.305057928,-9.432869656000001,3.227034356,2.49739541,2.7734236,-3.55619728,,,
imu,252.165994,-0.3002727056,-9.438851184,3.2234454392,2.42262631,2.84071579,-3.61601256,,,
imu,252.174148,-0.2877114968,-9.440645642400002,3.2168657584,2.51982614,2.88557725,-3.63844329,,,
imu,252.182303,-0.2763465936,-9.429878892000001,3.2222491336,2.51234923,2.89305416,-3.73564312,,,
imu,252.190457,-0.2715613712,-9.411934308000001,3.2186602168,2.54973378,2.93791562,-3.8702275,,,
imu,252.198612,-0.2554112456,-9.414326919200002,3.2072953136,2.61702597,2.94539253,-3.78050458,,,
imu,252.206766,-0.251224176,-9.408943544000001,3.214473147200001,2.66188743,2.81080815,-3.93004278,,,
imu,252.215587,-0.248233412,-9.414326919200002,3.2066971608,2.94601001,2.69117759,-3.89265823,,,
imu,252.224408,-0.2464389536,-9.416719530400002,3.2037063968,2.94601001,2.57902394,-3.88518132,,,
imu,252.233229,-0.2494297176,-9.429878892000001,3.210286077600001,2.98339456,2.37714737,-3.84779677,,,
imu,252.24205,-0.260196468,-9.422102905600001,3.2066971608,3.13293276,2.22013226,-3.93751969,,,
imu,252.250871,-0.2542149400000001,-9.429878892000001,3.2055008552,3.12545585,2.08554788,-3.74312003,,,
imu,252.259692,-0.2554112456,-9.420906600000002,3.198921174400001,3.39462461,1.92105586,-3.63096638,,,
imu,252.268513,-0.2536167872,-9.414326919200002,3.188154424,3.611455,1.79394839,-3.48142818,,,
imu,252.277334,-0.2643835376,-9.401167557600001,3.1648264648,3.71613174,1.62945637,-3.45152054,,,
imu,252.286154,-0.2691687600000001,-9.390998960000001,3.161237548,4.00025432,1.577118,-3.496382,,,
imu,252.294975,-0.2799355104,-9.388606348800002,3.149872644800001,4.16474634,1.56964109,-3.32441307,,,
imu,252.303796,-0.287113344,-9.401765710400001,3.1516671032,4.50120729,1.53973345,-3.39918217,,,
imu,252.312617,-0.2859170384,-9.414326919200002,3.138507741600001,4.64326858,1.59207182,-3.39918217,,,
imu,252.321438,-0.2907022608000001,-9.436458572800001,3.134320672,4.77785296,1.52477963,-3.45152054,,,
imu,252.330259,-0.290104108,-9.444832712,3.121759463200001,4.98720644,1.49487199,-3.45899745,,,
imu,252.33908,-0.2996745528,-9.452010545600002,3.109796407200001,5.04702172,1.60702564,-3.46647436,,,
imu,252.347901,-0.2948893304,-9.470553282400001,3.105609337600001,4.99468335,1.77899457,-3.43656672,,,
imu,252.356722,-0.2924967192,-9.486703408,3.108001948800001,5.15917537,1.84628676,-3.38422835,,,
imu,252.365543,-0.2913004136,-9.505246144800001,3.101422268000001,5.12179082,1.93600968,-3.44404363,,,
imu,252.374364,-0.2853188856,-9.5237888816,3.09544074,4.964775710000001,1.84628676,-3.69825857,,,
imu,252.383184,-0.2924967192,-9.533957479200001,3.078094308800001,4.86757588,2.09302479,-3.63096638,,,
imu,252.392005,-0.2883096496000001,-9.528574104,3.0667294056,4.62831476,1.91357895,-3.84031986,,,
imu,252.400826,-0.2853188856,-9.537546396000002,3.0511774328,4.49373038,1.92853277,-3.81788913,,,
imu,252.409647,-0.2823281216,-9.5357519376,3.03562546,4.39653055,1.81637912,-3.8702275,,,
imu,252.41813,-0.2853188856,-9.5327611736,3.02067164,4.30680763,1.78647148,-3.95247351,,,
imu,252.426612,-0.2781410520000001,-9.527975951200002,3.02067164,4.08250033,1.78647148,-3.95247351,,,
imu,252.435095,-0.2918985664000001,-9.52558334,3.010503042400001,3.85819303,1.62197946,-4.00481188,,,
imu,252.443578,-0.287113344,-9.536948243200001,3.0218679456,3.67127028,1.62197946,-3.90761205,,,
imu,252.45206,-0.275150288,-9.567454036,3.0182790288,3.58154736,1.66684092,-3.72816621,,,
imu,252.460543,-0.2757484408,-9.595567217600001,3.0158864176,3.14788658,1.53225654,-3.7206893,,,
imu,252.469025,-0.2775428992,-9.620091482400001,3.0248587096,2.72170271,1.50982581,-3.60105874,,,
imu,252.477508,-0.2745521352,-9.6218859408,3.021269792800001,2.33290339,1.36776452,-3.42908981,,,
imu,252.485991,-0.2805336632,-9.610521037600002,3.0122975008,2.14598064,1.48739508,-3.13001341,,,
imu,252.494473,-0.2745521352,-9.576426328,2.989567694400001,2.08616536,1.55468727,-2.93561375,,,
imu,251.081543,,,,,,,75.58697160000001,-2.435366800000005,-6.756670400000009
imu,251.183075,,,,,,,73.13332439999999,-1.446583600000007,-4.095500800000007
imu,251.284668,,,,,,,75.11089079999999,-2.447574000000019,-6.781084800000004
imu,251.388061,,,,,,,73.12111720000001,-1.751763600000023,-4.437302400000009
imu,251.487762,,,,,,,73.047874,-1.568655600000013,-5.279599200000007
imu,251.589325,,,,,,,73.0967028,-1.483205200000004,-4.254194400000011
imu,251.690887,,,,,,,73.2187748,-1.373340400000012,-3.997843200000006
imu,251.792572,,,,,,,73.0600812,-1.45879080000002,-4.303023200000011
imu,251.894043,,,,,,,72.9135948,-1.165818000000018,-5.71905840000001
imu,251.995544,,,,,,,72.85255880000001,-0.8850524000000082,-4.827932800000012
imu,252.097229,,,,,,,75.3306204,-1.45879080000002,-6.915364000000002
imu,252.19873,,,,,,,73.0600812,-0.6653228000000233,-3.997843200000006
imu,252.300323,,,,,,,75.4038636,-2.203430000000006,-6.720048800000011
imu,252.401855,,,,,,,73.4995404,-0.7629804000000018,-4.217572800000003
