Type,Timestamp,Data Accelerometer X,Data Accelerometer Y,Data Accelerometer Z,Data Gyroscope X,Data Gyroscope Y,Data Gyroscope Z,Data Magnetometer X,Data Magnetometer Y,Data Magnetometer Z
imu,319.741996,-0.6238733704,-9.440645642400002,2.838235036,4.1348387,6.205325289999999,-3.4216129,,,
imu,319.750465,-0.6178918424000002,-9.444234559200002,2.838235036,4.44886892,6.23523293,-3.4216129,,,
imu,319.758934,-0.5957601888000001,-9.4555994624,2.8298608968,4.658222400000001,6.13055619,-3.58610492,,,
imu,319.767402,-0.5837971328000001,-9.484908949600001,2.8190941464,4.8077606,6.033356359999999,-3.78050458,,,
imu,319.775871,-0.5670488544000001,-9.502255380800001,2.820290452000001,4.97972953,5.92867962,-4.012288789999999,,,
imu,319.784339,-0.5568802568000001,-9.519003659200001,2.8190941464,4.91991425,5.82400288,-4.22911918,,,
imu,319.792808,-0.5461135064000001,-9.535153784800002,2.81131816,4.84514515,5.84643361,-4.28145755,,,
imu,319.801277,-0.5431227424,-9.5656595776,2.8226830632,4.8077606,5.614649399999999,-4.386134289999999,,,
imu,319.809745,-0.520392936,-9.593772759200002,2.8226830632,4.40400746,5.50249575,-4.29641137,,,
imu,319.818214,-0.5048409632,-9.593772759200002,2.8119163128,3.94043904,5.352957549999999,-4.30388828,,,
imu,319.826683,-0.5108224912,-9.596763523200002,2.804140326400001,3.67874719,5.27071154,-4.07210407,,,
imu,319.835151,-0.5030465048,-9.61530626,2.805934784800001,3.30490169,5.15108098,-3.87770441,,,
imu,319.84362,-0.5030465048,-9.627269316000001,2.794569881600001,3.11797894,5.12865025,-3.75059694,,,
imu,319.852089,-0.5072335744,-9.613511801600001,2.779616061600001,2.92357928,4.91181986,-3.81041222,,,
imu,319.860557,-0.5078317272000001,-9.6015487456,2.7682511584,2.66188743,4.85948149,-3.9449966,,,
imu,319.869026,-0.5072335744,-9.6015487456,2.7652603944,2.66188743,4.68003565,-4.16182699,,,
imu,319.877494,-0.5108224912,-9.596165370400001,2.7538954912,2.62450288,4.478159079999999,-4.22164227,,,
imu,319.885963,-0.5341504504000001,-9.585996772800002,2.7413342824,2.66188743,4.08935976,-4.40108811,,,
imu,319.894423,-0.5293652280000001,-9.5776226336,2.7359509072,2.67684125,4.0444983,-4.4683803,,,
imu,319.902882,-0.5479079648000001,-9.579417092000002,2.7257823096,2.75161035,4.08188285,-4.33379592,,,
imu,319.911342,-0.5371412144000001,-9.573435564,2.7102303368,2.75908726,4.03702139,-4.244073,,,
imu,319.919802,-0.5413282840000001,-9.557285438400001,2.7209970872,2.80394872,4.08935976,-4.012288789999999,,,
imu,319.928262,-0.5251781584,-9.560874355200001,2.717408170400001,2.97591765,4.29871324,-3.83284295,,,
imu,319.936721,-0.5251781584,-9.5668558832,2.715613712000001,2.99087147,4.26132869,-3.98238115,,,
imu,319.945181,-0.4988594352000001,-9.599156134400001,2.7538954912,2.85628709,4.08188285,-4.11696553,,,
imu,319.953641,-0.4713444064,-9.644017594400001,2.763465936,2.81142563,4.18655959,-4.0945348,,,
imu,319.962101,-0.46356842,-9.661962178400001,2.764064088800001,2.6394567,4.18655959,-3.96742733,,,
imu,319.97056,-0.4384460024000001,-9.636241608,2.7688493112,2.2656112,4.126744309999999,-4.06462716,,,
imu,319.97902,-0.4480164472000001,-9.6290637744,2.7742326864,1.94410407,3.85009864,-4.169303899999999,,,
imu,319.98748,-0.4175106544000001,-9.635045302400002,2.7826068256,1.74970441,3.49868387,-4.04967334,,,
imu,319.995939,-0.4013605288,-9.641624983200002,2.772438228,1.64502767,3.30428421,-4.02724261,,,
imu,320.004399,-0.4175106544000001,-9.614109954400002,2.7562881024,1.40576655,2.95286944,-4.16182699,,,
imu,320.012859,-0.4318663216,-9.576426328,2.7509047272,1.24127453,2.67622377,-4.37118047,,,
imu,320.021319,-0.4468201416000001,-9.5632669664,2.7413342824,1.33099745,2.35471664,-4.57305704,,,
imu,320.029778,-0.4773259344000001,-9.553098368800002,2.7419324352,1.39081273,1.9509635,-4.78988743,,,
imu,320.038238,-0.4785222400000001,-9.52558334,2.747913963200001,1.13659779,1.56216418,-5.20859439,,,
imu,320.046698,-0.5030465048,-9.526779645600001,2.739539824,1.33099745,1.39019525,-5.4403786,,,
imu,320.055158,-0.5180003248000001,-9.536948243200001,2.7353527544,1.55530475,1.16588795,-5.55253225,,,
imu,320.063617,-0.5341504504000001,-9.5501076048,2.7556899496,1.48053565,0.92662683,-5.612347529999999,,,
imu,320.072077,-0.5491042704000001,-9.549509452,2.7562881024,1.5179202,0.8294269999999999,-5.69459354,,,
imu,320.080537,-0.5580765624000001,-9.5381445488,2.7658585472,1.42072037,0.70231953,-5.61982444,,,
imu,320.088996,-0.5700396184000001,-9.526181492800001,2.7538954912,1.47305874,0.6125966099999998,-5.60487062,,,
imu,320.097906,-0.5634599376000001,-9.526779645600001,2.773634533600001,1.48801256,0.41819695,-5.522624609999999,,,
imu,320.106816,-0.5778156048000002,-9.522592576000001,2.7664567,1.5179202,0.2611818399999999,-5.39551714,,,
imu,320.115726,-0.5790119104,-9.524387034400002,2.7700456168,1.79456587,0.13407437,-5.29831731,,,
imu,320.124636,-0.5778156048000002,-9.545322382400002,2.7915791176,1.72727368,0.006966899999999665,-5.23102512,,,
imu,320.133546,-0.5969564944000001,-9.557285438400001,2.7790179088,1.85438115,-0.2248173100000002,-5.2908404,,,
imu,320.142455,-0.5963583416000001,-9.556089132800002,2.796962492800001,2.07121154,-0.3594016900000003,-5.238502029999999,,,
imu,320.151365,-0.5999472584000001,-9.553098368800002,2.8065329376,2.25065738,-0.6958626400000001,-5.18616366,,,
imu,320.160275,-0.6143029256000001,-9.556089132800002,2.815505229600001,2.2656112,-0.8902623000000003,-5.08148692,,,
imu,320.169185,-0.6137047728000001,-9.5566872856,2.8208886048,2.37028794,-1.286538530000001,-4.909517989999999,,,
imu,320.178095,-0.61310662,-9.552500216,2.825075674400001,2.33290339,-1.67533785,-4.78241052,,,
imu,320.187004,-0.6268641344,-9.553098368800002,2.8256738272,2.50487232,-2.09404481,-4.56558013,,,
imu,320.195914,-0.6585662328000002,-9.555490980000002,2.838235036,2.61702597,-2.62490542,-4.27398064,,,
imu,320.204824,-0.6699311360000001,-9.557883591200001,2.8418239528,2.58711833,-2.99127401,-3.9449966,,,
imu,320.213734,-0.6741182056000001,-9.551303910400001,2.844216564,2.37028794,-3.37259642,-3.68330475,,,
imu,320.222644,-0.7040258456,-9.530368562400001,2.838833188800001,2.49739541,-3.62681136,-3.3468438,,,
imu,320.231553,-0.7177833600000001,-9.5154147424,2.8448147168,2.60207215,-3.91841085,-3.05524431,,,
imu,320.240463,-0.7656355840000001,-9.516611048000001,2.8400294944,2.48244159,-4.22496416,-2.71130645,,,
imu,320.249373,-0.7991321408000002,-9.5291722568,2.8310572024,2.46001086,-4.30721017,-2.3748455,,,
imu,320.258283,-0.8350213088000001,-9.5429297712,2.8328516608,2.35533412,-4.15019506,-2.02343073,,,
imu,320.267193,-0.8374139200000001,-9.5656595776,2.8274682856,2.52730305,-3.79130338,-1.61967759,,,
imu,320.276102,-0.8392083784000002,-9.575828175200002,2.8226830632,2.58711833,-3.32025805,-1.32060119,,,
imu,320.285012,-0.8356194616000001,-9.571042952800001,2.805934784800001,2.6394567,-2.87164345,-1.11124771,,,
imu,320.293922,-0.8344231560000002,-9.5501076048,2.7855975896,2.66188743,-2.50527486,-0.9766633299999998,,,
imu,320.302313,-0.8212637944000001,-9.533359326400001,2.7742326864,2.68431816,-2.15386009,-1.01404788,,,
imu,320.310751,-0.7997302936000001,-9.516611048000001,2.757484408000001,2.82637945,-1.83235296,-1.15610917,,,
imu,320.319142,-0.7907580016000001,-9.507638756,2.7329601432,2.74413344,-1.48093819,-1.28321664,,,
imu,320.327533,-0.7889635432000001,-9.5004609224,2.726978615200001,2.83385636,-1.10709269,-1.43275484,,,
imu,320.335924,-0.771617112,-9.502255380800001,2.7287730736,3.12545585,-0.68090882,-1.35798574,,,
imu,320.344315,-0.7566632920000002,-9.530966715200002,2.7203989344,3.15536349,-0.3070633200000001,-1.63463141,,,
imu,320.352706,-0.7458965416000001,-9.5429297712,2.7341564488,3.36471697,-0.03789456000000024,-1.96361545,,,
imu,320.361097,-0.741709472,-9.572239258400002,2.7281749208,3.21517877,0.13407437,-2.28512258,,,
imu,320.369488,-0.7387187080000002,-9.5877912312,2.733558296,3.15536349,0.33595094,-2.57672207,,,
imu,320.377879,-0.7279519576000001,-9.609324732000001,2.7323619904,3.03573293,0.5378275100000001,-2.80850628,,,
imu,320.38627,-0.7177833600000001,-9.614109954400002,2.7317638376,2.81890254,0.6275504299999999,-2.99542903,,,
imu,320.394661,-0.7177833600000001,-9.618297024,2.7401379768,2.69179507,0.84438082,-3.31693616,,,
imu,320.403053,-0.7064184568,-9.621287788000002,2.7263804624,2.54973378,1.01634975,-3.28702852,,,
imu,320.411444,-0.6854831088000001,-9.627867468800002,2.7203989344,2.34785721,1.03130357,-3.37675144,,,
imu,320.419835,-0.6824923448,-9.6039413568,2.6982672808,2.10859609,1.09111885,-3.33188998,,,
imu,320.428226,-0.684884956,-9.590183842400002,2.6910894472,2.12354991,1.33037997,-3.1973056,,,
imu,320.436617,-0.6717255944000001,-9.6015487456,2.6892949888,2.01887317,1.23318014,-2.90570611,,,
imu,320.445008,-0.6543791632000001,-9.620091482400001,2.692285752800001,2.10111918,1.59954873,-2.38979932,,,
imu,320.453399,-0.6364345792000001,-9.6296619272,2.6839116136,2.20579592,1.67431783,-2.02343073,,,
imu,320.46179,-0.6166955368000001,-9.627269316000001,2.659387348800001,2.10111918,1.58459491,-1.74678506,,,
imu,320.470181,-0.6005454112,-9.640428677600001,2.6360593896,2.13102682,1.46496435,-1.61220068,,,
imu,320.478572,-0.5897786608000001,-9.626671163200001,2.628881556000001,2.29551884,1.60702564,-1.4028472,,,
imu,320.486963,-0.5676470072,-9.602745051200001,2.6121332776,2.39271867,1.42010289,-1.46266248,,,
imu,320.495354,-0.5526931872,-9.594370912,2.613329583200001,2.54973378,1.19579559,-1.45518557,,,
imu,320.503817,-0.5407301312,-9.574631869600001,2.599572068800001,2.69179507,0.98644211,-1.52247776,,,
imu,320.512279,-0.5479079648000001,-9.5776226336,2.592992388,2.58711833,0.7097964399999999,-1.36546265,,,
imu,320.520741,-0.5389356728,-9.591978300800001,2.5983757632,2.52730305,0.4107200399999997,-1.51500085,,,
imu,320.529203,-0.5359449088000001,-9.595567217600001,2.6031609856,2.52730305,0.13407437,-1.51500085,,,
imu,320.537666,-0.5317578392000001,-9.5907819952,2.6007683744,2.52730305,0.06678217999999969,-1.35050883,,,
imu,320.546128,-0.5168040192000001,-9.592576453600001,2.5977776104,2.24318047,-0.2995864100000003,-1.35050883,,,
imu,320.55459,-0.5168040192000001,-9.600352440000002,2.6085443608,1.90671952,-0.5538013500000001,-1.37293956,,,
imu,320.563052,-0.490485296,-9.609922884800001,2.603759138400001,1.64502767,-0.6285704500000002,-1.32060119,,,
imu,320.571515,-0.4839056152000001,-9.609324732000001,2.610936972000001,1.58521239,-0.7855855599999999,-1.22340136,,,
imu,320.579977,-0.4833074624000001,-9.61530626,2.6103388192,1.40576655,-0.9126930300000002,-1.26078591,,,
imu,320.588439,-0.4910834488,-9.625474857600002,2.6127314304,1.19641307,-0.9575544899999997,-1.30564737,,,
imu,320.596901,-0.4916816016,-9.61530626,2.6163203472,1.24127453,-0.9351237599999997,-1.33555501,,,
imu,320.605364,-0.4839056152000001,-9.623082246400001,2.6103388192,1.24127453,-1.09961578,-1.48509321,,,
imu,320.613826,-0.4767277816000001,-9.618895176800002,2.6187129584,1.368382,-1.12204651,-1.85893871,,,
imu,320.622288,-0.4719425592000001,-9.61530626,2.6372556952,1.28613599,-1.15195415,-2.38232241,,,
imu,320.630751,-0.4599795032,-9.633250844,2.6444335288,1.23379762,-1.40616909,-2.72626027,,,
imu,320.639213,-0.4575868920000001,-9.648802816800002,2.6719485576,1.25622835,-1.66786094,-2.9729983,,,
imu,320.647675,-0.4450256832000001,-9.651793580800001,2.6725467104,1.03939796,-1.90712206,-3.38422835,,,
imu,320.656137,-0.4258847936,-9.6434194416,2.6821171552,1.02444414,-2.20619846,-3.52628964,,,
imu,320.6646,-0.4151180432000001,-9.631456385600002,2.6863042248,0.9048135799999999,-2.48284413,-3.53376655,,,
imu,320.673062,-0.3995660704000001,-9.620091482400001,2.6845097664,0.7104139199999999,-2.93145873,-3.59358183,,,
imu,320.681524,-0.352910152,-9.611119190400002,2.696472822400001,0.5982602699999999,-3.48475007,-3.5711511,,,
imu,320.689986,-0.3056560808,-9.6075302736,2.7000617392,0.65807555,-4.11281051,-3.30945925,,,
imu,320.698449,-0.2625890792,-9.572837411200002,2.6934820584,0.8375213899999999,-5.02499353,-3.20478251,,,
imu,320.706964,-0.215335008,-9.556089132800002,2.7084358784,0.9272443100000001,-6.22129913,-2.9729983,,,
imu,320.71548,-0.13458438,-9.571641105600001,2.7281749208,1.11416706,-7.53723529,-2.73373718,,,
imu,320.723996,-0.04545961280000001,-9.5907819952,2.7359509072,1.38333582,-9.144770939999999,-2.13558438,,,
imu,320.732511,0.0317020984,-9.571042952800001,2.7383435184,1.48801256,-11.20092119,-1.55986231,,,
imu,320.741027,0.08194693360000001,-9.527377798400002,2.7299693792,1.68988913,-13.46642492,-1.04395552,,,
imu,320.749543,0.1112564208,-9.507638756,2.713221100800001,1.89924261,-16.18802016,-0.31869525,,,
imu,320.758058,0.1297991576,-9.490292324800002,2.697669128,2.25065738,-19.03672287,0.38413429,,,
imu,320.766574,0.170473548,-9.5040498392,2.685706072000001,2.62450288,-21.87794867,1.04957928,,,
imu,320.77509,0.1770532288,-9.509433214400001,2.6719485576,2.94601001,-24.92105104,1.75988573,,,
imu,320.783605,0.176455076,-9.502255380800001,2.6510132096,3.30490169,-28.05387633,2.38794617,,,
imu,320.792121,0.2021756464,-9.519003659200001,2.6372556952,3.71613174,-31.23903999,3.03843734,,,
imu,320.800637,0.2338777448,-9.538742701600002,2.615124041600001,3.9853005,-34.5363573,3.56182104,,,
imu,320.809153,0.2045682576000001,-9.5501076048,2.5953849992,4.17222325,-38.01312045,4.159973839999999,,,
imu,320.817668,0.1561178808,-9.5429297712,2.562486595200001,4.38905364,-41.48240669,4.466527149999999,,,
imu,320.826184,0.080750628,-9.554892827200002,2.525401121600001,4.70308386,-44.86197001,4.690834450000001,,,
imu,320.8347,-0.003588916800000001,-9.596763523200002,2.5074565376,4.94982189,-47.9947953,5.15440287,,,
imu,320.843215,-0.08493769760000001,-9.6159044128,2.4901101064,4.964775710000001,-50.73882127,5.520771460000001,,,
imu,319.77631,,,,,,,66.3583284,-3.253249200000008,-12.20108160000001
imu,319.877873,,,,,,,63.2332852,-3.11897000000001,-12.2743248
imu,319.979435,,,,,,,66.4926076,-4.144374800000006,-15.09418800000001
imu,320.080998,,,,,,,63.6361228,-3.045726800000015,-12.39639680000001
imu,320.18256,,,,,,,65.1376084,-4.010095600000008,-14.77680080000001
imu,320.851731,-0.1985867296,-9.6159044128,2.471567369600001,4.93486807,-52.97441736,6.066585890000001,,,
imu,320.860247,-0.3301803456000001,-9.646410205600002,2.446444952,5.13674464,-54.49223009,6.612400320000001,,,
imu,320.868762,-0.4617739616000001,-9.685888290400001,2.423715145600001,5.21151374,-55.44179766,7.180645480000001,,,
imu,320.877278,-0.6059287864000001,-9.718786694400002,2.4057705616,4.97225262,-55.995089,7.89095193,,,
imu,320.885794,-0.6980443176000002,-9.737927584000001,2.389620436,4.74794532,-55.85302771,8.41433563,,,
imu,320.894309,-0.8015247520000001,-9.749890640000002,2.3938075056,4.56849948,-55.21001345,8.84799641,,,
imu,320.902825,-0.8978273528000001,-9.745105417600001,2.3926112,4.18717707,-54.499707,9.01996534,,,
imu,320.911267,-0.9761853696000001,-9.7361331256,2.380648144,3.77594702,-53.47537033,9.11716517,,,
imu,320.919709,-1.0252338992,-9.7331423616,2.3908167416,3.47687062,-52.0323267,8.90033478,,,
imu,320.928151,-1.0485618584,-9.718188541600002,2.4051724088,3.30490169,-50.40236032,8.533966190000001,,,
imu,320.936593,-1.0718898176,-9.701440263200002,2.4081631728,2.91610237,-48.95931669,7.943290300000001,,,
imu,320.945035,-1.0892362488,-9.696655040800001,2.4051724088,2.55721069,-47.3966425,7.419906600000001,,,
imu,320.953476,-1.0952177768,-9.686486443200002,2.4003871864,2.0413039,-45.70686084,6.92643054,,,
imu,320.961918,-1.0659082896,-9.676317845600002,2.4213225344,1.68988913,-43.89744862,6.739507790000001,,,
imu,320.97036,-1.0282246632,-9.679308609600001,2.4308929792,1.34595127,-41.84129837,6.500246670000001,,,
imu,320.978802,-0.9875502728000001,-9.658971414400002,2.4500338688,0.9870595899999999,-40.33096255,6.0740628,,,
imu,320.987244,-0.9612315496000001,-9.6290637744,2.455417244,0.8449983,-38.80567291,5.5506791,,,
imu,320.995686,-0.9558481744000001,-9.593174606400002,2.4518283272,0.6281679099999999,-37.48225984,4.997387760000001,,,
imu,321.004128,-0.9307257568000001,-9.565061424800001,2.45242648,0.59078336,-36.09155458,4.71326518,,,
imu,321.01257,-0.9157719368000001,-9.558481744000002,2.4458467992,0.6132140899999999,-34.84291061,4.331942769999999,,,
imu,321.021012,-0.9103885616000001,-9.554294674400001,2.4482394104,0.8973366700000001,-33.42229771,3.98800491,,,
imu,321.029454,-0.9127811728000002,-9.555490980000002,2.454819091200001,1.08425942,-32.17365374,3.62163632,,,
imu,321.037896,-0.9073977976000001,-9.572239258400002,2.460202466400001,1.41324346,-30.83528685,3.44219048,,,
imu,321.046338,-0.9020144224000001,-9.561472508000001,2.4590061608,1.6674584,-29.33990485,3.17302172,,,
imu,321.05478,-0.8942384360000002,-9.559678049600002,2.4727636752,2.01139626,-28.00901487,2.8589915,,,
imu,321.063222,-0.9038088808000001,-9.582407856000001,2.4865211896,2.37776485,-26.81270927,2.53000746,,,
imu,321.071663,-0.8942384360000002,-9.5985579816,2.5050639264,2.43758013,-25.42948092,2.17859269,,,
imu,321.080105,-0.9121830200000002,-9.6290637744,2.504465773600001,2.51234923,-23.92662201,1.75988573,,,
imu,321.088547,-0.8984255056000002,-9.642223136000002,2.5110454544,2.58711833,-22.74527023,1.58043989,,,
imu,321.096989,-0.8846679912000001,-9.661364025600001,2.5194195936,2.61702597,-21.33961115,1.43090169,,,
imu,321.105431,-0.8481806704000001,-9.6667474008,2.5116436072,2.46748777,-20.04610572,1.2140713,,,
imu,321.114218,-0.8182730304000002,-9.668541859200001,2.5248029688,2.29551884,-18.99186141,0.8477027100000001,,,
imu,321.123004,-0.7943469184000002,-9.6733270816,2.5146343712,2.06373463,-18.19930895,0.4514264799999999,,,
imu,321.13179,-0.7901598488000001,-9.679308609600001,2.5140362184,1.77213514,-17.45161795,0.10001171,,,
imu,321.140577,-0.7734115704000001,-9.6745233872,2.5020731624,1.56278166,-16.85346515,-0.07195722000000004,,,
imu,321.149363,-0.7746078760000001,-9.6733270816,2.4966897872,1.12912088,-16.25531235,-0.4532796299999999,,,
imu,321.15815,-0.7847764736,-9.667345553600002,2.4847267312,0.8674290299999999,-15.67959028,-0.6701100199999999,,,
imu,321.166936,-0.7997302936000001,-9.667943706400001,2.494297176,0.68798319,-15.10386821,-0.7598329399999999,,,
imu,321.175722,-0.8140859608000002,-9.665551095200001,2.4931008704,0.67302937,-14.26645429,-0.5280487299999999,,,
imu,321.184509,-0.8176748776000001,-9.675121540000001,2.500278704,0.3889067899999999,-13.35427127,-0.37103362,,,
imu,321.193295,-0.8128896552000001,-9.713403319200001,2.522410357600001,0.08983038999999998,-12.72621083,-0.26635688,,,
imu,321.202082,-0.8093007384,-9.730749750400001,2.5116436072,-0.30644584,-11.85141236,-0.02709575999999991,,,
imu,321.210868,-0.7853746264000001,-9.727758986400001,2.5289900384,-0.66533752,-10.96166007,0.1897346300000002,,,
imu,321.219654,-0.7680281952000001,-9.725964528,2.522410357600001,-0.874691,-10.22144598,0.4888110299999999,,,
imu,321.228441,-0.7548688336000001,-9.724768222400002,2.5158306768,-1.36816706,-9.51861644,0.6981645100000002,,,
imu,321.237227,-0.7171852072000001,-9.713403319200001,2.5170269824,-1.65228964,-8.73354089,0.8850872600000002,,,
imu,321.246014,-0.6926609424000001,-9.703832874400002,2.4996805512,-2.02613514,-8.16529573,0.9598563599999999,,,
imu,321.2548,-0.6651459136000001,-9.678112304,2.4960916344,-2.19810407,-7.66434276,1.07201001,,,
imu,321.263586,-0.6382290376000002,-9.666149248000002,2.487717495200001,-2.33268845,-7.41012782,0.83274889,,,
imu,321.272373,-0.6262659816,-9.641026830400001,2.485324884000001,-2.46727283,-7.07366687,0.5934877699999999,,,
imu,321.281159,-0.6149010784000001,-9.626671163200001,2.4931008704,-2.63924176,-6.849359570000001,0.4589033900000001,,,
imu,321.289946,-0.6029380224,-9.624278552000002,2.4996805512,-2.66167249,-6.475514069999999,0.2121653600000002,,,
imu,321.298732,-0.6017417168000001,-9.6290637744,2.5134380656,-2.72896468,-6.28859132,-0.1616801399999999,,,
imu,321.307519,-0.6059287864000001,-9.6326526912,2.5259992744,-2.63924176,-6.00446874,-0.2813106999999999,,,
imu,321.316144,-0.6005454112,-9.6296619272,2.5337752608,-2.65419558,-5.57080796,-0.23644924,,,
imu,321.324769,-0.6160973840000001,-9.6218859408,2.5385604832,-2.87102597,-5.25677774,-0.3112183399999999,,,
imu,321.333394,-0.6238733704,-9.630858232800001,2.5493272336,-2.87850288,-4.942747519999999,-0.5579563699999999,,,
imu,321.342019,-0.6322475096000001,-9.6326526912,2.564879206400001,-2.78130305,-4.48665601,-0.7224483899999998,,,
imu,321.350644,-0.6334438152,-9.610521037600002,2.584020096,-2.94579507,-4.15019506,-1.14115535,,,
imu,321.359269,-0.6364345792000001,-9.6009505928,2.5935905408,-2.86354906,-3.7314881,-1.35050883,,,
imu,321.367894,-0.6334438152,-9.590183842400002,2.6007683744,-2.8934567,-3.5071808,-1.67201596,,,
imu,321.376519,-0.6322475096000001,-9.575230022400001,2.6025628328,-2.87850288,-3.12585839,-1.93370781,,,
imu,321.385144,-0.6292567456000001,-9.547116840800001,2.606749902400001,-2.69905704,-2.80435126,-2.08324601,,,
imu,321.393769,-0.6202844536000002,-9.5327611736,2.6097406664,-2.60933412,-2.34825975,-2.09072292,,,
imu,321.402311,-0.5951620360000001,-9.527377798400002,2.6121332776,-2.52708811,-2.11647554,-2.27764567,,,
imu,321.410936,-0.5676470072,-9.554294674400001,2.634264931200001,-2.13828879,-1.69776858,-2.12810747,,,
imu,321.419561,-0.5670488544000001,-9.571042952800001,2.6390501536,-1.9962275,-1.50336892,-2.09819983,,,
imu,321.428186,-0.5580765624000001,-9.580613397600002,2.64682614,-1.86912003,-1.33139999,-1.86641562,,,
imu,321.436811,-0.5407301312,-9.583604161600002,2.6504150568,-1.73453565,-1.17438488,-1.64958523,,,
imu,321.445436,-0.5365430616000001,-9.593772759200002,2.667163335200001,-1.59995127,-0.9575544899999997,-1.59724686,,,
imu,321.454061,-0.5371412144000001,-9.624278552000002,2.701856197600001,-1.58499745,-0.8528777500000002,-1.68696978,,,
imu,321.462686,-0.5401319784,-9.656578803200002,2.718604476,-1.59995127,-0.5014629800000003,-1.44023175,,,
imu,321.471311,-0.5431227424,-9.688879054400001,2.7371472128,-1.82425857,-0.09023292999999999,-1.26078591,,,
imu,321.479936,-0.5766192992000001,-9.711010708000002,2.7317638376,-2.04108896,0.2387511099999999,-1.29069355,,,
imu,321.488561,-0.6376308848000001,-9.710412555200001,2.742530588,-2.78130305,0.5901658799999998,-1.5523854,,,
imu,321.497186,-0.7040258456,-9.708019944000002,2.7413342824,-3.29720984,1.24065705,-1.52247776,,,
imu,321.505812,-0.7662337368000001,-9.734338667200001,2.746119504800001,-3.865455,2.30985518,-1.48509321,,,
imu,321.514437,-0.8416009896000001,-9.769629682400002,2.7532973384,-4.30659269,3.54354533,-1.50752394,,,
imu,321.52275,-0.9594370912000001,-9.822267128800002,2.7491102688,-4.95708386,5.18846553,-1.64958523,,,
imu,321.531064,-1.0545433864,-9.879689797600001,2.7682511584,-6.108528,7.34929252,-1.7766927,,,
imu,321.539377,-1.1107697496,-9.9078029792,2.798756951200001,-7.207633769999999,9.76433445,-2.10567674,,,
imu,321.547691,-1.1526404456,-9.928738327200001,2.817897840800001,-8.46375465,12.46349896,-2.85336774,,,
imu,321.556004,-1.1819499328,-9.905410368000002,2.817897840800001,-10.09372103,15.29724785,-4.169303899999999,,,
imu,321.564318,-1.199296364,-9.851576616000001,2.8119163128,-11.69377977,18.27305803,-5.61982444,,,
imu,321.572631,-1.163407196,-9.8043225448,2.8095237016,-13.24150014,21.24886821,-6.905852959999999,,,
imu,321.580945,-1.1299106392,-9.749890640000002,2.8119163128,-14.43780574,24.00037109,-8.348896589999999,,,
imu,321.589258,-1.0742824288,-9.693066124000001,2.8226830632,-15.4546655,26.7743047,-9.64987893,,,
imu,321.597572,-1.0204486768,-9.6290637744,2.8418239528,-16.17244886,29.26411573,-10.76393852,,,
imu,321.605885,-0.9253423816,-9.553098368800002,2.865151912,-16.30703324,31.8586035,-11.58639862,,,
imu,321.614199,-0.8194693360000002,-9.404756474400001,2.843020258400001,-16.23974105,33.94466139,-12.10230541,,,
imu,321.622512,-0.7399150136000001,-9.2719665528,2.8507962448,-15.73878808,35.5970585,-12.3191358,,,
imu,321.630825,-0.6507902464,-9.183439938400001,2.889078024,-14.96866635,36.81579482999999,-12.73784276,,,
imu,321.639139,-0.5748248408000001,-9.1266154224,2.9165930528,-13.92937586,37.68311639,-13.1415959,,,
imu,321.647452,-0.5048409632,-9.132596950400002,2.9680341936,-12.3143633,38.39342284,-13.03691916,,,
imu,321.655766,-0.4468201416000001,-9.1882251608,3.029643932,-10.72178147,38.74483761,-12.79765804,,,
imu,321.664079,-0.3911919312,-9.2061697448,3.055962655200001,-9.4731375,38.75231452,-12.50605855,,,
imu,320.284092,,,,,,,63.58729400000001,-2.618474800000015,-12.35977520000001
imu,320.385807,,,,,,,64.19765400000001,-2.728339600000007,-11.93252320000001
imu,320.487248,,,,,,,64.24648280000001,-2.801582800000002,-12.01797360000001
imu,320.58878,,,,,,,64.19765400000001,-2.838204400000022,-11.8104512
imu,320.690373,,,,,,,64.42959080000001,-2.533024400000006,-10.98036160000001
imu,320.791996,,,,,,,67.06634600000001,-2.447574000000019,-10.88270400000001
imu,320.894749,,,,,,,65.8334188,-2.606267600000023,-8.160498400000005
imu,320.99506,,,,,,,69.44675000000001,-3.814780400000006,-8.685408000000006
imu,321.672393,-0.3684621248000001,-9.245647829600001,3.140302200000001,-8.4263701,38.55791486,-12.18455142,,,
imu,321.680706,-0.3373581792000001,-9.2899111368,3.182172896,-7.559048539999999,38.37099211,-11.93033648,,,
imu,321.68902,-0.3463304712,-9.301874192800001,3.2025100912,-6.953418829999999,37.93733133,-11.65369081,,,
imu,321.697333,-0.3301803456000001,-9.288116678400002,3.2168657584,-6.34778912,37.64573184,-11.16021475,,,
imu,321.705647,-0.3152265256,-9.283331456,3.221650980800001,-5.94403598,37.24945561,-10.71907706,,,
imu,321.71396,-0.3032634696000001,-9.2755554696,3.227034356,-5.54028284,36.89804084,-10.3003701,,,
imu,321.72249,-0.2769447464000001,-9.289312984,3.2455770928,-5.01689914,36.33727259,-10.10597044,,,
imu,321.73102,-0.2733558296,-9.2958926648,3.242586328800001,-4.56828454,35.72416596999999,-9.97886297,,,
imu,321.739549,-0.266177996,-9.2929019008,3.254549384800001,-4.157054489999999,35.20078227,-9.79941713,,,
imu,321.748079,-0.260196468,-9.3060612624,3.2593346072,-3.84302427,34.85684441,-9.63492511,,,
imu,321.756609,-0.2374666616,-9.312042790400001,3.2551475376,-3.40188658,34.33346071,-9.38071017,,,
imu,321.765138,-0.1991848824,-9.301874192800001,3.247371551200001,-3.14019473,33.76521555,-9.268556519999999,,,
imu,321.773668,-0.170473548,-9.2899111368,3.2485678568,-2.84859524,33.08481674,-9.18631051,,,
imu,321.782198,-0.1268083936,-9.291107442400001,3.2575401488,-2.31025772,32.54647922,-8.9545263,,,
imu,321.790727,-0.07656355840000001,-9.340754124800002,3.2635216768,-1.8466893,31.69411148,-8.75264973,,,
imu,321.799257,-0.0203371952,-9.3694654592,3.2844570248,-1.4728438,30.85669756,-8.5059117,,,
imu,321.807787,0.04964668240000001,-9.398774946400001,3.291634858400001,-1.20367504,29.7650687,-8.40871187,,,
imu,321.816316,0.1058730456,-9.415523224800001,3.314962817600001,-1.04665993,28.46408636,-8.52086552,,,
imu,321.824846,0.2021756464,-9.443636406400001,3.31974804,-0.58309151,27.02851964,-8.25169676,,,
imu,321.833376,0.2883096496000001,-9.447225323200001,3.313766512,-0.2765382,25.26396888,-8.2068353,,,
imu,321.841905,0.3726491944000001,-9.447823476,3.320944345600001,-0.22419983,23.31997228,-8.087204739999999,,,
imu,321.850435,0.4683536424000001,-9.444234559200002,3.322738804,0.02253820000000001,21.00960709,-7.66102087,,,
imu,321.858965,0.5742266880000001,-9.418513988800001,3.3035979144,0.38142988,18.36278095,-7.37689829,,,
imu,321.867494,0.631051204,-9.3718580704,3.2940274696,0.6954601,15.25238639,-7.145114079999999,,,
imu,321.876024,0.6842868032,-9.3383615136,3.265914288000001,0.97958268,11.82796161,-6.883422229999999,,,
imu,321.884554,0.7363260968000002,-9.273761011200001,3.2443807872,1.71979677,8.29886009,-6.315177069999999,,,
imu,321.893083,0.7297464160000001,-9.230694009600002,3.212080536000001,2.1908421,4.29871324,-6.10582359,,,
imu,321.901613,0.7106055264000001,-9.209758661600002,3.1905470352,3.23013259,0.3808123999999999,-5.79927028,,,
imu,321.910143,0.6866794144,-9.190617772000001,3.173200604000001,4.42643819,-3.42493479,-5.34317877,,,
imu,321.918672,0.6483976352,-9.199590064,3.167219076,5.47320559,-7.36526636,-4.887087259999999,,,
imu,321.927079,0.6023398696000001,-9.201982675200002,3.1714061456,6.41529625,-11.26821338,-4.34874974,,,
imu,321.935485,0.5323559920000001,-9.2366755376,3.1558541728,7.46954056,-15.19359113,-3.78798149,,,
imu,321.943891,0.4916816016,-9.325202152000001,3.167219076,8.149939369999998,-18.85727703,-3.3468438,,,
imu,321.952298,0.4551942808000001,-9.3832229736,3.1696116872,8.650892339999999,-22.68545495,-2.92813684,,,
imu,321.960704,0.3564990688,-9.4173176832,3.1666209232,9.05464548,-26.13978737,-2.20287657,,,
imu,321.96911,0.2715613712,-9.4203084472,3.15525602,9.368675699999999,-29.61655052,-1.6271545,,,
imu,321.977517,0.1746606176,-9.443636406400001,3.12534838,9.675229009999999,-32.71946817,-0.8495558599999999,,,
imu,321.985923,0.09690075360000001,-9.4633754488,3.0990296568,10.01168996,-35.56817088,-0.01214194000000002,,,
imu,321.994329,0.003588916800000001,-9.498666464000001,3.075103544800001,10.27338181,-37.87853607,0.6607799600000002,,,
imu,322.002736,-0.0634041968,-9.533359326400001,3.0248587096,10.4154431,-39.94216323,1.25893276,,,
imu,322.011142,-0.1369769912,-9.5148165896,2.991960305600001,10.4154431,-41.8637291,1.67016281,,,
imu,322.019548,-0.2500278704,-9.460384684800001,2.987773236,10.37805855,-43.32172655,2.1860696,,,
imu,322.027955,-0.3481249296000001,-9.4460290176,2.948893304,10.47525838,-44.33858631,2.75431476,,,
imu,322.036361,-0.451605364,-9.489096019200002,2.898050316,10.63227349,-45.16104641,3.35994447,,,
imu,322.044767,-0.5383375200000001,-9.5172092008,2.8615629952,10.80424242,-45.41526135,3.88332817,,,
imu,322.053174,-0.6214807592000001,-9.524387034400002,2.864553759200001,10.84162697,-45.29563079,4.21231221,,,
imu,322.06158,-0.6956517064000001,-9.532163020800002,2.8729278984,10.75938096,-44.95916984,4.61606535,,,
imu,322.069986,-0.7692245008,-9.596165370400001,2.8926669408,10.4902122,-44.29372485,4.91514175,,,
imu,322.078392,-0.8260490168000001,-9.665551095200001,2.8866854128,10.28085872,-43.08246543,5.34880253,,,
imu,322.086799,-0.8756956992000001,-9.688879054400001,2.8854891072,9.73504429,-41.84877528,5.64040202,,,
imu,322.095205,-0.9337165208000001,-9.6984494992,2.8807038848,8.852768909999998,-40.45059311,5.49086382,,,
imu,322.103611,-0.9702038416000002,-9.7128051664,2.883096496000001,8.15741628,-38.80567291,5.558156009999999,,,
imu,322.112018,-1.0007096344,-9.7325442088,2.8848909544,7.48449438,-36.93644541,5.57310983,,,
imu,322.120424,-0.9917373424000001,-9.738525736800002,2.8819001904,6.57978827,-35.2092792,5.318894889999999,,,
imu,322.129236,-0.9875502728000001,-9.727758986400001,2.870535287200001,5.67508216,-33.50454372,4.98243394,,,
imu,322.138047,-1.0007096344,-9.699645804800001,2.8585722312,5.02459099,-31.88205425,4.60858844,,,
imu,322.146859,-0.9839613560000001,-9.685290137600001,2.850198092000001,4.40400746,-30.16236495,4.26465058,,,
imu,322.155671,-0.9977188704000002,-9.659569567200002,2.8208886048,3.731085559999999,-28.5548293,4.047820189999999,,,
imu,322.164482,-0.9714001472000001,-9.657775108800001,2.815505229600001,3.140409669999999,-26.82766309,3.88332817,,,
imu,322.173294,-0.9576426328000002,-9.625474857600002,2.8208886048,2.76656417,-25.20517362,3.77117452,,,
imu,322.182105,-0.9737927584000001,-9.612315496,2.8095237016,2.43758013,-23.42566904,3.66649778,,,
imu,322.190917,-0.9654186192,-9.605735815200001,2.7909809648,2.13102682,-21.79570266,3.77865143,,,
imu,322.199729,-0.9420906600000001,-9.5865949256,2.780812367200001,1.87681188,-20.02367499,3.95809727,,,
imu,322.20854,-0.9385017432000002,-9.555490980000002,2.7861957424,1.83942733,-18.26660114,3.8309898,,,
imu,322.217352,-0.9181645480000001,-9.5489112992,2.802345868,1.68988913,-16.69645004,3.74874379,,,
imu,322.226164,-0.8840698384000001,-9.560874355200001,2.812514465600001,1.68241222,-15.11882203,3.50948267,,,
imu,322.234975,-0.8469843648000001,-9.5740337168,2.8035421736,1.55530475,-13.94494716,3.11320644,,,
imu,322.243787,-0.8116933496000001,-9.584800467200001,2.817299688,1.46558183,-12.74116465,2.86646841,,,
imu,322.252598,-0.7578595976000001,-9.596165370400001,2.823281216,1.16650543,-11.60467433,2.53748437,,,
imu,322.26141,-0.7225685824,-9.593772759200002,2.822084910400001,1.04687487,-10.55043002,2.35803853,,,
imu,322.270222,-0.6950535536000001,-9.583006008800002,2.8190941464,0.8449983,-9.82516975,2.10382359,,,
imu,322.279033,-0.6549773160000001,-9.5656595776,2.8077292432,0.7104139199999999,-9.03261729,1.98419303,,,
imu,322.287845,-0.6184899952000001,-9.561472508000001,2.8167015352,0.5010604399999999,-8.45689522,1.71502427,,,
imu,322.296656,-0.6137047728000001,-9.5632669664,2.8089255488,0.56835263,-7.95594225,1.55053225,,,
imu,322.305468,-0.5969564944000001,-9.557285438400001,2.802345868,0.6132140899999999,-7.41012782,1.32622495,,,
imu,322.31428,-0.5951620360000001,-9.545322382400002,2.8095237016,0.49358353,-7.01385159,1.01219473,,,
imu,322.323091,-0.5879842024,-9.540537160000001,2.8208886048,0.7403215599999999,-6.39326806,0.7355490599999999,,,
imu,322.331576,-0.5969564944000001,-9.534555632000002,2.820290452000001,0.8524752099999999,-5.94465346,0.5112417599999999,,,
imu,322.340062,-0.5843952856000001,-9.5357519376,2.8328516608,0.97210577,-5.25677774,0.3093651899999998,,,
imu,322.348547,-0.5694414656000001,-9.5393408544,2.8364405776,0.91229049,-4.7034864,0.01028879000000016,,,
imu,322.357032,-0.5467116592000001,-9.5381445488,2.8627593008,0.9571519499999999,-4.07542596,-0.2289723299999999,,,
imu,322.365517,-0.5269726168000001,-9.5291722568,2.870535287200001,0.9347212199999999,-3.62681136,-0.4682334499999998,,,
imu,322.374002,-0.5108224912,-9.533957479200001,2.8723297456,0.8674290299999999,-3.15576603,-0.62524856,,,
imu,322.382487,-0.5144114080000001,-9.5423316184,2.877114968,0.70293701,-2.84921272,-0.8944173199999998,,,
imu,322.390972,-0.5084298800000001,-9.519003659200001,2.8783112736,0.67302937,-2.51275177,-1.02152479,,,
imu,322.399457,-0.5066354216000001,-9.501657228000001,2.8998447744,0.74779847,-1.98189116,-1.04395552,,,
imu,322.407942,-0.4928779072000001,-9.512423978400001,2.914798594400001,0.8524752099999999,-1.52579965,-1.13367844,,,
imu,322.416428,-0.4791203928000001,-9.5219944232,2.9237708864,0.94967504,-1.34635381,-1.24583209,,,
imu,322.424913,-0.4701481008,-9.532163020800002,2.924369039200001,0.9571519499999999,-0.9575544899999997,-1.46266248,,,
imu,322.433398,-0.4522035168,-9.5184055064,2.920181969600001,0.94219813,-0.5687551700000002,-1.64958523,,,
imu,322.441883,-0.4127254320000001,-9.514218436800002,2.9351357896,1.17398234,-0.4715553400000001,-1.67201596,,,
imu,322.450368,-0.400762376,-9.496872005600002,2.9405191648,1.23379762,-0.2771556799999999,-1.79912343,,,
imu,322.458853,-0.3905937784,-9.4938812416,2.943509928800001,1.41324346,-0.1799558500000003,-1.93370781,,,
imu,322.467338,-0.3726491944000001,-9.4908904776,2.942911776,1.36090509,-0.03041764999999996,-2.11315365,,,
imu,322.475823,-0.361882444,-9.482516338400002,2.9530803736,1.48801256,-0.07527911000000032,-2.35241477,,,
imu,322.484308,-0.3295821928000001,-9.4938812416,2.9584637488,1.60016621,-0.17247894,-2.65149117,,,
imu,321.09668,,,,,,,68.3969308,-3.070141200000021,-5.255184800000001
imu,321.198273,,,,,,,71.6562532,-3.619465200000005,-7.794282400000007
imu,321.299805,,,,,,,69.32467799999999,-2.948069200000014,-4.681446400000011
imu,321.401368,,,,,,,69.80075880000001,-2.850411600000013,-4.705860800000005
imu,321.50525,,,,,,,69.75193,-2.069150800000008,-4.547167200000002
imu,321.604645,,,,,,,69.935038,-2.069150800000008,-4.400680800000012
imu,321.706055,,,,,,,68.3847236,-1.910457200000004,-6.939778400000007
imu,321.807648,,,,,,,67.45697639999999,-1.08036760000001,-8.258156000000005
imu,322.492891,-0.2847207328,-9.516611048000001,2.9584637488,1.77213514,-0.2771556799999999,-2.78607555,,,
imu,322.501376,-0.2290925224000001,-9.51062952,2.9506877624,1.82447351,-0.6285704500000002,-2.95804448,,,
imu,322.509861,-0.197390424,-9.512423978400001,2.9500896096,1.83195042,-1.25663089,-3.09262886,,,
imu,322.518347,-0.1471455888,-9.478329268800001,2.9542766792,1.97401171,-1.92207588,-2.99542903,,,
imu,322.526832,-0.06998387760000001,-9.471749588000002,2.952482220800001,2.16093446,-2.6847207,-3.02533667,,,
imu,322.535317,0.0681894192,-9.477731116000001,2.947696998400001,2.52730305,-3.91093394,-2.93561375,,,
imu,322.543769,0.2913004136,-9.514218436800002,2.94590254,2.82637945,-5.84745363,-2.77112173,,,
imu,322.552221,0.5263744640000001,-9.502853533600002,2.924967192,3.0880713,-8.79335617,-2.95056757,,,
imu,322.560673,0.726755652,-9.4801237272,2.924369039200001,3.43200916,-12.5542419,-3.15244414,,,
imu,322.569125,0.8709104768000001,-9.4669643656,2.913004136000001,3.7609932,-17.53386396,-3.28702852,,,
imu,322.577577,0.9510629520000001,-9.471151435200001,2.8819001904,4.23951544,-23.11163882,-3.05524431,,,
imu,322.586029,0.9767835224000002,-9.4980683112,2.863955606400001,4.60588403,-29.02587463,-2.8234601,,,
imu,322.594481,0.9205571592,-9.520798117600002,2.864553759200001,4.78532987,-35.08217173,-2.4496146,,,
imu,322.602933,0.8152822664000001,-9.5423316184,2.8633574536,4.93486807,-40.54031603,-1.53743158,,,
imu,322.611385,0.6854831088000001,-9.558481744000002,2.8460110224,4.93486807,-45.58723028,-0.29626452,,,
imu,322.619837,0.5138132552000001,-9.591380148,2.8190941464,4.74046841,-50.20048375,0.9149948999999999,,,
imu,322.628289,0.320011748,-9.596165370400001,2.789186506400001,4.45634583,-54.16324605,1.87951629,,,
imu,322.636741,0.1208268656,-9.571042952800001,2.780812367200001,4.32176145,-57.36336353,2.86646841,,,
imu,322.645193,-0.07058203040000001,-9.557285438400001,2.7413342824,4.21708471,-59.69615945,3.80108216,,,
imu,322.653645,-0.2697669128,-9.539939007200001,2.7084358784,4.21708471,-61.29621819,4.78803428,,,
imu,322.662097,-0.4557924336,-9.5381445488,2.6940802112,4.359146,-62.06633992,5.5506791,,,
imu,322.670549,-0.5975546472000001,-9.555490980000002,2.699463586400001,4.4339151,-62.37289323,6.0740628,,,
imu,322.679001,-0.7153907488000001,-9.577024480800002,2.6863042248,4.49373038,-62.23083193999999,6.4479083,,,
imu,322.687454,-0.8212637944000001,-9.579417092000002,2.6725467104,4.56102257,-61.59529459,6.49276976,,,
imu,322.695906,-0.9331183680000001,-9.575230022400001,2.661779960000001,4.59840712,-60.81021904,6.388093019999999,,,
imu,322.704358,-1.0264302048,-9.595567217600001,2.67673378,4.75542223,-59.64382108,6.350708470000001,,,
imu,322.71281,-1.1047882216,-9.647606511200001,2.6833134608,5.02459099,-57.91665487,6.156308810000001,,,
imu,322.721262,-1.1496496816,-9.706823638400001,2.685706072000001,4.83766824,-56.05490428,5.954432239999999,,,
imu,322.729714,-1.1855388496,-9.724768222400002,2.673743016,4.64326858,-54.08847695,5.98433988,,,
imu,322.738184,-1.2298021568,-9.6918698184,2.6725467104,4.47129965,-51.78558867,5.9245246,,,
imu,322.746654,-1.2357836848,-9.6218859408,2.6563965848,4.15726943,-49.52756185,6.05163207,,,
imu,322.755123,-1.2136520312,-9.532163020800002,2.6270870976,4.01520814,-47.07513537,6.0740628,,,
imu,322.763593,-1.2070723504,-9.453206851200001,2.6103388192,3.67127028,-44.72738563,5.932001509999999,,,
imu,322.772063,-1.1861370024,-9.374848834400002,2.580431179200001,3.52920899,-42.27495915,5.90209387,,,
imu,322.780533,-1.1472570704,-9.337165208000002,2.563084748,3.49182444,-39.83000958,5.999293700000001,,,
imu,322.789003,-1.118545736,-9.307257568,2.5559069144,3.34976315,-37.58693658,5.94695533,,,
imu,322.797473,-1.0910307072,-9.306659415200002,2.5469346224,3.26004023,-35.53826324,5.715171119999999,,,
imu,322.805943,-1.0724879704,-9.3174261656,2.5523179976,3.282470959999999,-33.55688209,5.363756349999999,,,
imu,322.814413,-1.0401877192,-9.322809540800002,2.543345705600001,3.52920899,-31.42596274,5.04224922,,,
imu,322.822883,-1.0001114816,-9.350324569600001,2.541551247200001,3.37967079,-29.64645816,4.28708131,,,
imu,322.831353,-0.9845595088000001,-9.4005694048,2.5499253864,3.56659354,-27.84452285,3.74126688,,,
imu,322.839822,-0.9582407856000001,-9.454403156800002,2.543345705600001,3.55911663,-26.32671012,3.03096043,,,
imu,322.848292,-0.9373054376000002,-9.5154147424,2.5218122048,3.50677826,-24.86123576,2.07391595,,,
imu,322.856762,-0.9343146736000002,-9.600352440000002,2.5170269824,3.70117792,-23.3957614,1.27388658,,,
imu,322.865232,-0.9103885616000001,-9.682897526400001,2.5116436072,4.01520814,-21.92281013,0.6308723199999999,,,
imu,322.873702,-0.8978273528000001,-9.7714241408,2.509250996,4.47877656,-20.41247431,0.08505788999999986,,,
imu,322.882172,-0.8870606024000001,-9.8497821576,2.4996805512,4.9572988,-18.70026192,-0.37103362,,,
imu,322.890642,-0.8739012408000001,-9.935916160800002,2.4996805512,5.72742053,-17.07029554,-0.49066418,,,
imu,322.899112,-0.8487788232000001,-10.0238446224,2.508652843200001,6.28818878,-15.41042152,-0.52057182,,,
imu,322.907582,-0.8380120728000001,-10.087846972,2.518223288000001,6.86391085,-13.70568604,-0.54300255,,,
imu,322.916052,-0.8284416280000001,-10.1105767784,2.518223288000001,7.17794107,-12.16544258,-0.5579563699999999,,,
imu,322.924521,-0.8063099744000001,-10.1004081808,2.530186344,7.53683275,-10.52799929,-0.77478676,,,
imu,322.932991,-0.7931506128000001,-10.0687060824,2.5469346224,7.48449438,-9.04757111,-0.9766633299999998,,,
imu,322.941447,-0.7793930984000002,-9.9915443712,2.5469346224,7.07326433,-7.64938894,-1.14863226,,,
imu,322.949903,-0.7817857096,-9.8820824088,2.5523179976,6.2283735,-6.44560643,-1.39537029,,,
imu,322.958359,-0.7500836112000001,-9.801929933600002,2.598973916,5.34609812,-5.152101,-1.71687742,,,
imu,322.966815,-0.7799912512000001,-9.731347903200001,2.599572068800001,3.88810067,-4.11281051,-2.26269185,,,
imu,322.975271,-0.7973376824000001,-9.694860582400002,2.6043572912,2.1908421,-3.26791968,-2.88327538,,,
imu,322.983727,-0.8116933496000001,-9.61530626,2.5947868464,0.70293701,-2.40059812,-3.52628964,,,
imu,322.992183,-0.8296379336000002,-9.530368562400001,2.576244109600001,-0.77001426,-1.60804566,-4.0945348,,,
imu,323.000639,-0.8655271016000001,-9.415523224800001,2.552916150400001,-2.04108896,-0.7108164600000002,-4.58801086,,,
imu,323.009095,-0.9223516176000001,-9.3383615136,2.518223288000001,-3.01308726,0.2387511099999999,-4.92447181,,,
imu,323.01755,-0.9714001472000001,-9.2970889704,2.518223288000001,-3.44674804,1.40514907,-5.17120984,,,
imu,323.026006,-1.0401877192,-9.2994815816,2.4978860928,-3.476655679999999,2.71360832,-5.44785551,,,
imu,323.034462,-1.0964140824,-9.318024318400001,2.4901101064,-2.9682258,4.28375942,-5.46280933,,,
imu,323.042918,-1.1496496816,-9.3455393472,2.4859230368,-2.2953039,6.13055619,-5.75440882,,,
imu,323.051374,-1.184342544,-9.409541696800002,2.515232524,-1.55508981,8.08950661,-6.0385314,,,
imu,323.05983,-1.2034834336,-9.492684936000002,2.548130928,-0.5681376899999999,10.29519506,-6.360038530000001,,,
imu,323.068286,-1.2076705032,-9.571042952800001,2.5714588872,0.18703022,12.38872986,-6.905852959999999,,,
imu,323.076742,-1.2034834336,-9.6494009696,2.613329583200001,1.00201341,14.44488011,-7.361944469999999,,,
imu,323.085198,-1.202287128,-9.724170069600001,2.645629834400001,1.48801256,16.530938,-7.803082159999999,,,
imu,323.093654,-1.199296364,-9.7809945856,2.6773319328,1.70484295,18.60204207,-7.952620359999999,,,
imu,323.10211,-1.1801554744,-9.8013317808,2.671350404800001,1.52539711,20.62080777,-8.23674294,,,
imu,323.110565,-1.1915203776,-9.810304072800001,2.712622948,1.31604363,22.61714274,-8.42366569,,,
imu,323.119021,-1.1562293624,-9.848585852000001,2.6761356272,1.10669015,24.80040046,-8.588157709999999,,,
imu,323.127477,-1.2010908224,-9.741516500800001,2.6157221944,0.4711528,26.82664307,-8.99191085,,,
imu,323.135933,-1.1598182792,-9.690075360000002,2.5828237904,0.16459949,28.85288568,-9.156402869999999,,,
imu,323.144751,-1.1496496816,-9.6775141512,2.5738514984,-0.02980017,30.8118361,-9.44800236,,,
imu,323.15357,-1.0922270128,-9.613511801600001,2.5158306768,-0.17186146,32.79321725,-9.73960185,,,
imu,323.162388,-1.0718898176,-9.51062952,2.487717495200001,-0.47841477,34.68487548,-10.3003701,,,
imu,323.171206,-1.0096819264,-9.469356976800002,2.4865211896,-0.33635348,36.35970331999999,-10.62935414,,,
imu,323.180024,-0.9301276040000002,-9.550705757600001,2.4590061608,-0.17933837,37.98219279,-10.5994465,,,
imu,323.188843,-0.8691160184000001,-9.4454308648,2.4960916344,-0.2765382,39.17102148,-10.76393852,,,
imu,323.197661,-0.8104970440000001,-9.425691822400001,2.5116436072,0.03001510999999998,40.02338922,-11.04058419,,,
imu,323.206479,-0.7303445688000001,-9.511227672800002,2.499082398400001,0.52349117,40.71874184999999,-11.13778402,,,
imu,323.215297,-0.6872775672000001,-9.6117173432,2.515232524,0.74779847,40.92809533,-11.10787638,,,
imu,323.224116,-0.6190881480000001,-9.5907819952,2.5403549416,0.7253677399999999,41.04772589,-11.16769166,,,
imu,323.232934,-0.5861897440000001,-9.573435564,2.57205704,0.59078336,40.8308955,-11.18264548,,,
imu,323.241752,-0.5676470072,-9.633250844,2.584020096,0.68050628,40.39723472,-10.83123071,,,
imu,323.250571,-0.5209910888,-9.6709344704,2.5947868464,0.5459219,39.76917427999999,-10.24803173,,,
imu,323.259389,-0.5221873944000001,-9.6159044128,2.6234981808,0.20946095,38.98409873,-9.88914005,,,
imu,323.268207,-0.4851019208000001,-9.558481744000002,2.6372556952,-0.007369440000000005,38.213977,-9.64240202,,,
imu,323.277025,-0.4456238360000001,-9.593772759200002,2.6336667784,0.1720764,37.37656308,-8.93209557,,,
imu,323.285844,-0.4276792520000001,-9.606932120800002,2.6306760144,0.01506129,36.38213405,-8.49095788,,,
imu,323.294662,-0.3840140976,-9.5907819952,2.6366575424,-0.11204618,35.26059755,-8.13954311,,,
imu,323.30348,-0.3648732080000001,-9.505246144800001,2.680920849600001,-0.2765382,33.97456903,-7.70588233,,,
imu,321.909394,,,,,,,67.93305720000001,-1.08036760000001,-9.686398400000007
imu,322.010926,,,,,,,66.822202,-1.03153880000002,-8.551128800000008
imu,322.112336,,,,,,,70.97264999999999,-3.045726800000015,-8.70982240000001
imu,322.213929,,,,,,,70.118146,-1.593070000000019,-4.461716800000004
imu,322.315491,,,,,,,73.353054,-2.777168400000019,-7.550138400000006
imu,322.417023,,,,,,,71.0581004,-1.837214000000009,-4.351852000000012
imu,322.526368,,,,,,,71.43652359999999,-1.446583600000007,-3.985636000000004
imu,322.620209,,,,,,,71.4487308,-1.861628400000015,-3.961221600000009
imu,323.312298,-0.3511156936,-9.536948243200001,2.682715308000001,-0.18681528,32.63620214,-7.07034498,,,
imu,323.321117,-0.3146283728000001,-9.5172092008,2.6623781128,0.04496892999999999,31.22306615,-6.382469260000001,,,
imu,323.329935,-0.3164228312,-9.492086783200001,2.661779960000001,0.06739966,29.78749943,-5.77683955,,,
imu,323.338753,-0.2972819416,-9.477731116000001,2.6761356272,0.35899915,28.31454816,-5.22354821,,,
imu,323.347231,-0.3146283728000001,-9.4424401008,2.6653688768,0.6954601,27.05842728,-4.68521069,,,
imu,323.355708,-0.3116376088,-9.423299211200002,2.6534058208,1.13659779,25.96679842,-3.95995042,,,
imu,323.364186,-0.3265914288,-9.436458572800001,2.655798432,1.88428879,24.81535428,-3.38422835,,,
imu,323.372663,-0.2972819416,-9.450814240000001,2.678528238400001,2.28804193,23.76858688,-2.95056757,,,
imu,323.381141,-0.3074505392,-9.444234559200002,2.6635744184,2.62450288,22.99846515,-2.47204533,,,
imu,323.389618,-0.3092449976000001,-9.4286825864,2.694678364,3.20022495,22.16105123,-2.03090764,,,
imu,323.398096,-0.2996745528,-9.477731116000001,2.6892949888,3.81333157,21.36102186,-2.09072292,,,
imu,323.406573,-0.3002727056,-9.522592576000001,2.694678364,4.29933072,20.53856176,-2.3000764,,,
imu,323.415051,-0.3044597752,-9.553098368800002,2.6851079192,4.38157673,19.77591694,-2.61410662,,,
imu,323.423528,-0.2907022608000001,-9.564463272000001,2.6833134608,4.87505279,18.96841066,-2.99542903,,,
imu,323.432006,-0.2709632184,-9.575828175200002,2.6749393216,5.35357503,18.07118146,-3.62348947,,,
imu,323.440483,-0.236270356,-9.588389384000001,2.6719485576,5.66012834,17.09170625,-4.30388828,,,
imu,323.448961,-0.2021756464,-9.6159044128,2.673144863200001,6.07135839,16.02250812,-4.87961035,,,
imu,323.457438,-0.167482784,-9.669738164800002,2.673743016,6.43025007,14.97574072,-5.25345585,,,
imu,323.465916,-0.1333880744,-9.7122070136,2.664770724000001,6.66203428,14.09346534,-5.20859439,,,
imu,323.474393,-0.107667504,-9.731347903200001,2.6563965848,7.02092596,13.22614378,-4.887087259999999,,,
imu,323.482871,-0.09211553120000002,-9.713403319200001,2.6779300856,7.26018708,12.4186375,-4.3936112,,,
imu,323.491349,-0.09211553120000002,-9.693664276800002,2.6432372232,7.31252545,11.76814633,-3.77302767,,,
imu,323.499826,-0.1082656568,-9.6499991224,2.6157221944,7.10317197,11.03540915,-3.0477674,,,
imu,323.508304,-0.1028822816,-9.596763523200002,2.564879206400001,7.26018708,10.3251027,-2.3000764,,,
imu,323.516781,-0.1190324072,-9.505844297600001,2.522410357600001,7.32747927,9.86153428,-1.64958523,,,
imu,323.525259,-0.128602852,-9.460384684800001,2.5164288296,7.55178657,9.29328912,-1.14115535,,,
imu,323.533736,-0.1369769912,-9.3718580704,2.443454188,7.74618623,8.84467452,-0.9467556899999998,,,
imu,323.542214,-0.1776513816,-9.361091320000002,2.4338837432,8.209754649999999,8.26147554,-0.9617095099999999,,,
imu,323.550676,-0.2039701048,-9.3586987088,2.4207243816,8.733138349999999,7.835291669999999,-1.20097063,,,
imu,323.559138,-0.2326814392,-9.368269153600002,2.398592728,9.391106429999999,7.603507459999999,-1.58229304,,,
imu,323.567601,-0.2584020096,-9.417915836,2.3549275736,10.01168996,7.49883072,-2.03090764,,,
imu,323.576063,-0.2745521352,-9.492684936000002,2.3292070032,10.57993512,7.37920016,-2.57672207,,,
imu,323.584443,-0.3098431504,-9.5501076048,2.3136550304,11.14070337,7.439015439999999,-2.85336774,,,
imu,323.592905,-0.3182172896000001,-9.6087265792,2.3220291696,11.73137926,7.68575347,-3.01785976,,,
imu,323.601367,-0.3547046104000001,-9.685888290400001,2.3124587248,12.10522476,7.977352959999999,-3.1225365,,,
imu,323.60983,-0.3499193880000001,-9.772620446400001,2.3154494888,12.17999386,8.306337,-3.26459779,,,
imu,323.618292,-0.3570972216000001,-9.850978463200002,2.3100661136,11.88839437,8.47082902,-3.40665908,,,
imu,323.626754,-0.3559009160000001,-9.876100880800003,2.3124587248,11.57436415,8.87458216,-3.30945925,,,
imu,323.635217,-0.3792288752000001,-9.934121702400002,2.2927196824,10.87153461,9.11384328,-3.35432071,,,
imu,323.643679,-0.3541064576,-9.9879554544,2.3142531832,10.35562782,9.36058131,-3.44404363,,,
imu,323.652141,-0.3714528888,-9.987357301600001,2.320832864,9.42849098,9.61479625,-3.54124346,,,
imu,323.660603,-0.3923882368,-9.9915443712,2.3465534344,8.344339029999999,9.756857539999999,-3.67582784,,,
imu,323.669066,-0.3876030144000001,-10.0148723304,2.3429645176,7.17046416,9.83910355,-4.00481188,,,
imu,323.677528,-0.3774344168000001,-10.0035074272,2.3154494888,6.02649693,9.97368793,-4.25902682,,,
imu,323.68599,-0.3971734592000001,-9.947281064000002,2.3184402528,4.69560695,9.92134956,-4.66277996,,,
imu,323.694452,-0.3690602776000001,-9.925747563200002,2.3321977672,3.45443989,10.00359557,-5.14877911,,,
imu,323.702915,-0.3600879856,-9.8982325344,2.3232254752,2.44505704,10.01107248,-5.56000916,,,
imu,323.711377,-0.35889168,-9.8234634344,2.3052808912,1.23379762,9.891441919999998,-5.83665483,,,
imu,323.719839,-0.3535083048,-9.7923594888,2.3010938216,0.52349117,9.85405737,-6.075915950000001,,,
imu,323.728302,-0.3600879856,-9.735534972800002,2.2795603208,-0.03727708,9.88396501,-6.046008309999999,,,
imu,323.736764,-0.3696584304000001,-9.672728928800002,2.2753732512,-0.36626112,9.891441919999998,-5.9637623,,,
imu,323.745226,-0.3750418056000001,-9.645213900000002,2.2951122936,-0.60552224,9.8764881,-5.896470109999999,,,
imu,323.753691,-0.3642750552,-9.617698871200002,2.2873363072,-0.7401066199999999,9.70451917,-5.97871612,,,
imu,323.762156,-0.3816214864,-9.529770409600001,2.286738154400001,-0.7999219,9.52507333,-5.99366994,,,
imu,323.770621,-0.4025568344,-9.5154147424,2.2915233768,-0.61299915,9.45778114,-6.046008309999999,,,
imu,323.779085,-0.382817792,-9.5327611736,2.2687935704,-0.47093786,9.300766029999998,-6.24040797,,,
imu,323.78755,-0.3714528888,-9.4633754488,2.25802682,-0.007369440000000005,9.233473839999998,-6.374992349999999,,,
imu,323.796015,-0.3750418056000001,-9.4215047528,2.2693917232,0.44872207,9.28581221,-6.703976389999999,,,
imu,323.80448,-0.3804251808,-9.422102905600001,2.2454656112,1.37585891,9.300766029999998,-6.636684199999999,,,
imu,323.812945,-0.3852104032000001,-9.3832229736,2.2514471392,2.32542648,9.39796586,-6.681545659999999,,,
imu,323.821409,-0.3887993200000001,-9.426888128000002,2.249652680800001,3.44696298,9.65965771,-6.82360695,,,
imu,323.829874,-0.3834159448,-9.452010545600002,2.2197450408,4.62083785,9.644703889999999,-7.02548352,,,
imu,323.838339,-0.4013605288,-9.435262267200002,2.2358951664,5.854528,9.69704226,-7.0852988,,,
imu,323.846804,-0.3870048616000001,-9.402962016000002,2.219146888,7.02092596,9.80919591,-7.451667389999999,,,
imu,323.855269,-0.4091365152000001,-9.471749588000002,2.2185487352,8.239662289999998,9.65965771,-8.064774009999999,,,
imu,323.863733,-0.3983697648000001,-9.567454036,2.1988096928,9.570552269999999,9.622273159999999,-8.33394277,,,
imu,323.872198,-0.3899956256000001,-9.582407856000001,2.205389373600001,10.4154431,9.51759642,-8.64049608,,,
imu,323.880663,-0.3989679176000001,-9.606932120800002,2.2448674584,11.37248758,9.63722698,-8.72274209,,,
imu,323.889128,-0.3846122504,-9.6637566368,2.2568305144,12.31457824,9.63722698,-8.71526518,,,
imu,323.897593,-0.3564990688,-9.731347903200001,2.234100708,12.85291576,9.54750406,-8.52834243,,,
imu,323.906058,-0.3612842912,-9.773218599200002,2.2574286672,12.80057739,9.74190372,-8.23674294,,,
imu,323.914522,-0.334965568,-9.7959484056,2.2562323616,12.68842374,9.869011189999998,-7.758220699999999,,,
imu,323.922987,-0.3415452488,-9.822267128800002,2.25802682,12.36691661,10.10827231,-6.87594532,,,
imu,323.931452,-0.3373581792000001,-9.873708269600002,2.2795603208,11.67904089,10.35501034,-5.85908556,,,
imu,323.939917,-0.3271895816000001,-9.908401132000002,2.2921215296,10.90891916,10.6241791,-4.78988743,,,
imu,323.948382,-0.3606861384,-9.956253356,2.3022901272,9.79485957,10.75128657,-3.73564312,,,
imu,323.956897,-0.3672658192000001,-10.0124797192,2.326814392,8.763045989999998,10.86344022,-3.09262886,,,
imu,323.965413,-0.3732473472,-10.0358076784,2.3196365584,7.56674039,10.79614803,-2.86832156,,,
imu,323.973929,-0.3415452488,-9.999320357600002,2.2927196824,6.05640457,10.54941,-2.95056757,,,
imu,323.982444,-0.3247969704000001,-9.925747563200002,2.299897516,4.59840712,10.35501034,-3.05524431,,,
imu,323.99096,-0.2948893304,-9.8467913936,2.2933178352,3.07311748,10.1755645,-3.18982869,,,
imu,323.999476,-0.2787392048,-9.803126239200001,2.3016919744,1.60764312,9.92134956,-3.14496723,,,
imu,324.007991,-0.2470371064,-9.773816752000002,2.290327071200001,0.19450713,9.71947299,-3.01038285,,,
imu,324.016507,-0.2081571744,-9.789368724800001,2.2945141408,-1.22610577,9.43535041,-2.86832156,,,
imu,324.025023,-0.173464312,-9.797742864000002,2.2741769456,-2.48222665,9.1287971,-2.65896808,,,
imu,324.033538,-0.140565908,-9.764246307200002,2.2646065008,-3.59628624,8.9792589,-2.20287657,,,
imu,324.042054,-0.122621324,-9.721179305600002,2.2394840832,-4.79259184,8.78485924,-1.71687742,,,
imu,324.05057,-0.1142471848,-9.693066124000001,2.2299136384,-5.86926688,8.485782839999999,-1.61967759,,,
imu,324.059085,-0.0903210728,-9.651195428000001,2.174285428,-6.691726979999999,8.119414249999998,-1.59724686,,,
imu,324.067601,-0.0980970592,-9.573435564,2.1330128848,-7.259972139999999,7.835291669999999,-1.6271545,,,
imu,324.076117,-0.1034804344,-9.544126076800001,2.1150683008,-7.566525449999999,7.506307629999999,-1.90380017,,,
imu,324.084632,-0.1070693512,-9.562070660800002,2.089347730400001,-7.26744905,7.177323589999999,-2.33746095,,,
imu,324.093148,-0.1357806856,-9.5907819952,2.0373084368,-6.96089574,6.87824719,-2.88327538,,,
imu,324.101664,-0.152528964,-9.557883591200001,2.0121860192,-6.56461951,6.706278259999999,-3.30945925,,,
imu,324.110179,-0.1495382,-9.5566872856,2.009793408,-5.92160525,6.65393989,-3.90761205,,,
imu,324.118695,-0.1920070488,-9.554892827200002,1.9960358936,-5.07671442,6.52683242,-4.55810322,,,
imu,322.721589,,,,,,,73.5605764,-2.166808400000009,-3.082303200000003
imu,322.823365,,,,,,,75.9531876,-2.093565200000014,-1.593024800000009
imu,322.924806,,,,,,,77.7232316,-2.203430000000006,-1.324466400000002
imu,323.026307,,,,,,,78.90733,-2.801582800000002,-1.507574400000011
imu,323.127839,,,,,,,78.5289068,-2.301087600000007,-1.849376000000003
imu,323.229432,,,,,,,79.5909332,-3.192213200000005,-3.485140800000008
imu,323.330964,,,,,,,75.3184132,-2.496402800000008,-1.837168800000011
imu,323.432557,,,,,,,73.53616199999999,-2.459781200000011,-2.777123200000009
imu,324.127211,-0.1668846312,-9.620689635200002,2.0050081856,-4.06733157,6.41467877,-5.00671782,,,
imu,324.135726,-0.1710717008,-9.709216249600003,2.0002229632,-3.17010237,6.205325289999999,-5.6646859,,,
imu,324.144242,-0.2207183832,-9.721179305600002,2.0032137272,-2.61681103,6.09317164,-6.21797724,,,
imu,324.152758,-0.2087553272,-9.720581152800001,2.030728756,-2.0709966,5.898771979999999,-6.89837605,,,
imu,324.161523,-0.2566075512,-9.737927584000001,2.0271398392,-1.64481273,5.62212631,-7.623636319999999,,,
imu,324.170288,-0.2590001624000001,-9.776209363200001,2.0468788816,-1.29339796,5.442680469999999,-8.22926603,,,
imu,324.179053,-0.3062542336,-9.805518850400002,2.0678142296,-1.04665993,5.2408039,-8.8797572,,,
imu,324.187819,-0.2930948720000001,-9.839015407200002,2.0977218696,-0.9943215599999999,4.84452767,-9.724648029999999,,,
imu,324.196584,-0.3014690112,-9.833632032,2.1306202736,-1.20367504,4.42582071,-10.24055482,,,
imu,324.205349,-0.3152265256,-9.822267128800002,2.165313136,-1.48032071,4.00711375,-10.5246774,,,
imu,324.214114,-0.3355637208,-9.845595088000001,2.1934263176,-1.97379677,3.51363769,-10.74150779,,,
imu,324.222879,-0.3463304712,-9.813892989600001,2.156340844,-2.75887232,3.06502309,-10.77889234,,,
imu,324.231644,-0.382817792,-9.682299373600001,2.1665094416,-3.18505619,2.61640849,-10.54710813,,,
imu,324.24041,-0.4049494456000001,-9.6428212888,2.1886410952,-3.55142478,2.1752708,-10.27793937,,,
imu,324.249175,-0.4282774048000001,-9.66016772,2.1886410952,-3.48413259,1.6518871,-9.86670932,,,
imu,324.25794,-0.4193051128000001,-9.692467971200001,2.1778743448,-3.3420713,1.33037997,-9.14144905,,,
imu,324.266705,-0.4510072112,-9.630858232800001,2.2018004568,-3.42431731,0.9714882899999999,-8.610588439999999,,,
imu,324.27547,-0.4492127528000001,-9.637437913600001,2.2586249728,-3.55890169,0.3135202100000001,-8.02738946,,,
imu,324.284236,-0.4486146000000001,-9.668541859200001,2.2957104464,-3.73834753,-0.3220171400000003,-7.339513739999999,,,
imu,324.293001,-0.4677554896000001,-9.741516500800001,2.3441608232,-3.84302427,-0.9126930300000002,-6.44976145,,,
imu,324.301766,-0.4683536424000001,-9.818080059200001,2.3585164904,-4.14957758,-1.42112291,-5.41794787,,,
imu,324.310531,-0.4701481008,-9.859950755200002,2.3644980184,-4.680438189999999,-1.99684498,-4.49081103,,,
imu,324.319296,-0.4797185456,-9.7702278352,2.3950038112,-5.34588318,-2.47536722,-3.51133582,,,
imu,324.328061,-0.5000557408,-9.730749750400001,2.4147428536,-5.56271357,-2.85668963,-2.3748455,,,
imu,324.336827,-0.4958686712000001,-9.708019944000002,2.3698813936,-5.787020869999999,-3.20062749,-1.41780102,,,
imu,324.345592,-0.5215892416000001,-9.657176956,2.3591146432,-5.74963632,-3.78382647,-0.5280487299999999,,,
imu,324.354357,-0.5467116592000001,-9.585398620000001,2.374666616,-5.97394362,-4.15019506,0.02524261000000028,,,
imu,324.362838,-0.5586747152,-9.571641105600001,2.401583492,-5.68982104,-4.59133275,0.3766573800000002,,,
imu,324.37132,-0.5736285352000001,-9.61530626,2.4093594784,-5.27859099,-4.8530246,0.5785339500000002,,,
imu,324.379801,-0.5634599376000001,-9.635643455200002,2.4027797976,-4.90474549,-5.17453173,0.8477027100000001,,,
imu,324.388282,-0.5742266880000001,-9.593174606400002,2.3722740048,-4.62062291,-5.51846959,0.7729336099999999,,,
imu,324.396764,-0.5867878968000001,-9.530368562400001,2.3585164904,-3.97760865,-5.757730710000001,0.6981645100000002,,,
imu,324.405245,-0.6226770648,-9.4980683112,2.335786684,-3.16262546,-5.76520762,0.5635801300000001,,,
imu,324.413726,-0.6938572480000001,-9.6224840936,2.2376896248,-2.2205348,-5.89231509,0.3093651899999998,,,
imu,324.422208,-0.7871690848,-9.591978300800001,2.2436711528,-1.53265908,-5.78763835,-0.6925407499999998,,,
imu,324.430689,-0.8840698384000001,-9.385017432000001,2.429696673600001,-0.85973718,-5.473608130000001,-1.79912343,,,
imu,324.43917,-0.7787949456000002,-9.438851184,2.3872278248,0.3889067899999999,-4.53899438,-2.20287657,,,
imu,324.447652,-0.76264482,-9.590183842400002,2.335786684,1.38333582,-3.43988861,-2.17296893,,,
imu,324.456133,-0.7303445688000001,-9.6703363176,2.4039761032,1.63007385,-2.62490542,-2.08324601,,,
imu,324.464614,-0.7249611936,-9.7989391696,2.470371064,1.68241222,-1.6379533,-2.38232241,,,
imu,324.473096,-0.7159889016000002,-9.800135475200001,2.4966897872,1.26370526,-0.9276468500000004,-2.86084465,,,
imu,324.481577,-0.6376308848000001,-9.680504915200002,2.563084748,0.620691,0.01444380999999995,-2.72626027,,,
imu,324.490058,-0.5036446576000001,-9.624278552000002,2.5756459568,0.3216146,1.01634975,-2.13558438,,,
imu,324.49854,-0.4581850448000001,-9.651195428000001,2.536167872,0.0001074699999999984,1.53225654,-1.47013939,,,
imu,324.507021,-0.4845037680000001,-9.6470083584,2.52719558,-0.5681376899999999,1.39019525,-1.39537029,,,
imu,324.515502,-0.5239818528000001,-9.593772759200002,2.5654773592,-1.1737674,1.47991817,-1.51500085,,,
imu,324.523984,-0.4785222400000001,-9.576426328,2.622900028000001,-1.51022835,1.80890221,-1.46266248,,,
imu,324.532465,-0.4348570856000001,-9.594370912,2.6623781128,-1.95884295,2.01077878,-1.56733922,,,
imu,324.540946,-0.4205014184,-9.672130776000001,2.689893141600001,-2.39998064,2.25751681,-1.41780102,,,
imu,324.549428,-0.3182172896000001,-9.667345553600002,2.6875005304,-2.67662631,2.45939338,-0.9617095099999999,,,
imu,324.557909,-0.287113344,-9.6260730104,2.6749393216,-2.84111833,2.58650085,-0.49066418,,,
imu,324.566371,-0.2637853848,-9.557883591200001,2.6097406664,-2.77382614,2.57154703,-0.03457266999999997,,,
imu,324.574834,-0.215335008,-9.513620284000002,2.583421943200001,-2.28782699,2.38462428,0.3766573800000002,,,
imu,324.583296,-0.1758569232,-9.5040498392,2.5738514984,-1.9962275,1.7266562,0.5411494000000001,,,
imu,324.591758,-0.2159331608,-9.440645642400002,2.6234981808,-1.40555161,1.10607267,0.8776103499999999,,,
imu,324.600221,-0.1339862272,-9.4944793944,2.6115351248,-0.69524516,0.56025824,1.16920984,,,
imu,324.608683,-0.140565908,-9.4944793944,2.5828237904,-0.14195382,-0.2173404000000003,1.30379422,,,
imu,324.617145,-0.170473548,-9.488497866400001,2.545140164,0.4711528,-0.9874621299999999,1.19164057,,,
imu,324.625607,-0.2147368552,-9.499862769600002,2.5056620792,1.45062801,-1.85478369,1.16920984,,,
imu,324.63407,-0.2278962168,-9.3832229736,2.5080546904,2.27308811,-2.64733615,0.9598563599999999,,,
imu,324.642532,-0.3086468448,-9.568650341600001,2.483530425600001,3.20770186,-3.2081044,0.3766573800000002,,,
imu,324.650994,-0.3044597752,-9.594370912,2.4452486464,4.0600696,-3.5819499,0.32431901,,,
imu,324.659456,-0.4210995712,-9.504647992000002,2.4775488976,4.30680763,-3.74644192,0.4140419300000002,,,
imu,324.667919,-0.4827093096,-9.469356976800002,2.5176251352,4.90496043,-3.82121102,-0.4532796299999999,,,
imu,324.676397,-0.5191966304000001,-9.416719530400002,2.5200177464,5.62274379,-3.64176518,-1.27573973,,,
imu,324.684859,-0.5790119104,-9.4591883792,2.530186344,6.46015771,-3.02118165,-1.50004703,,,
imu,324.693322,-0.5742266880000001,-9.465169907200002,2.4936990232,7.08821815,-2.24358301,-1.63463141,,,
imu,324.701784,-0.5538894928000001,-9.4729458936,2.473361828,7.49197129,-1.49589201,-1.79912343,,,
imu,324.710246,-0.5676470072,-9.415523224800001,2.4572117024,7.99292426,-0.71829337,-2.06081528,,,
imu,324.718709,-0.5162058664000001,-9.4490197816,2.485324884000001,8.434061949999998,-0.03789456000000024,-2.32998404,,,
imu,324.727171,-0.5138132552000001,-9.474142199200001,2.467380300000001,8.890153459999999,0.7471809899999999,-2.28512258,,,
imu,323.534119,,,,,,,73.78030600000001,-1.959286000000016,-3.009060000000008
imu,323.635743,,,,,,,73.42629720000001,-2.484195600000016,-2.435321600000007
imu,323.737214,,,,,,,73.169946,-2.166808400000009,-3.057888800000008
imu,323.838807,,,,,,,72.65724360000002,-2.423159600000013,-3.228789600000004
imu,323.940369,,,,,,,71.9858476,-2.64288920000002,-2.996852800000005
imu,324.042054,,,,,,,71.705082,-2.948069200000014,-3.668248800000007
imu,324.143525,,,,,,,71.79053239999999,-2.471988400000003,-3.436312000000008
imu,324.252839,,,,,,,73.963414,-3.97347400000001,-5.877752000000003
imu,324.346655,,,,,,,71.6562532,-2.435366800000005,-3.082303200000003
imu,324.448218,,,,,,,74.4028732,-2.948069200000014,-6.268382400000005
imu,324.54978,,,,,,,71.4731452,-2.386538000000016,-3.509555200000003
imu,324.651312,,,,,,,71.8149468,-2.740546800000021,-5.011040800000011
