Type,Timestamp,Data Accelerometer X,Data Accelerometer Y,Data Accelerometer Z,Data Gyroscope X,Data Gyroscope Y,Data Gyroscope Z,Data Magnetometer X,Data Magnetometer Y,Data Magnetometer Z
imu,54.291065,-0.8715086296000001,-9.694860582400002,0.9977188704000002,1.86185806,5.75671069,-3.78798149,,,
imu,54.299529,-0.8416009896000001,-9.7361331256,0.9905410368000002,2.12354991,6.60907843,-3.81788913,,,
imu,54.307992,-0.7853746264000001,-9.769629682400002,0.9833632032,2.12354991,7.28200033,-3.81041222,,,
imu,54.316456,-0.7770004872000001,-9.777405668800002,0.9965225648000002,2.21327283,7.767999479999999,-3.7954584,,,
imu,54.324919,-0.7530743752000001,-9.803126239200001,0.9791761336000001,2.25813429,8.18670644,-3.56367419,,,
imu,54.333383,-0.6884738728,-9.837819101600003,0.9881484256000002,2.22074974,8.553075029999999,-3.17487487,,,
imu,54.341846,-0.6531828576,-9.8228652816,0.9779798280000002,2.16841137,8.74747469,-2.88327538,,,
imu,54.35031,-0.5993491056000001,-9.800733628000001,0.9839613560000001,2.23570356,8.73999778,-2.73373718,,,
imu,54.358773,-0.5269726168000001,-9.820472670400001,1.0180560656,2.45253395,8.81476688,-2.55429134,,,
imu,54.367237,-0.4886908376000001,-9.831837573600001,0.9965225648000002,2.50487232,8.53812121,-2.50195297,,,
imu,54.3757,-0.4504090584,-9.8043225448,1.0042985512,2.57216451,7.96987605,-2.50942988,,,
imu,54.384164,-0.4366515440000001,-9.8270523512,1.004896704,2.57964142,7.56612291,-2.48699915,,,
imu,54.392628,-0.4372496968000001,-9.828846809600002,0.9953262592000002,2.72170271,6.93806247,-2.32250713,,,
imu,54.401091,-0.4587831976000001,-9.7809945856,0.9815687448000001,2.65441052,6.40720186,-2.35241477,,,
imu,54.409555,-0.4701481008,-9.769031529600001,0.9773816752000002,2.59459524,5.704372319999999,-2.62158353,,,
imu,54.418018,-0.472540712,-9.800135475200001,0.9725964528000002,2.89367164,5.18846553,-2.96552139,,,
imu,54.426482,-0.4952705184000001,-9.800135475200001,0.9576426328000002,3.0133022,4.72489711,-3.06272122,,,
imu,54.434945,-0.4874945320000001,-9.8043225448,0.9522592576000002,2.99087147,4.33609779,-2.92065993,,,
imu,54.443409,-0.5042428104000001,-9.803724392000001,0.9163700896000002,2.82637945,3.82766791,-3.01785976,,,
imu,54.451872,-0.5048409632,-9.817481906400001,0.8942384360000002,2.89367164,3.58092988,-2.91318302,,,
imu,54.460336,-0.517402172,-9.8617452136,0.9205571592,2.9385331,3.34914567,-2.84589083,,,
imu,54.468799,-0.5317578392000001,-9.8820824088,0.9139774784000001,2.78151799,3.13979219,-2.6739219,,,
imu,54.477263,-0.5485061176,-9.9048122152,0.9050051864,2.6394567,3.10240764,-2.59167589,,,
imu,54.485726,-0.5491042704000001,-9.904214062400001,0.9044070336000001,2.34785721,3.05006927,-2.77859864,,,
imu,54.49419,-0.5568802568000001,-9.876699033600001,0.9044070336000001,1.97401171,3.19213056,-2.83841392,,,
imu,54.502654,-0.5431227424,-9.863539672000002,0.9097904088000002,1.75718132,3.34914567,-2.65896808,,,
imu,54.511139,-0.5347486032000001,-9.855763685600001,0.8882569080000001,1.45062801,3.63326825,-2.59167589,,,
imu,54.519624,-0.5048409632,-9.821668976000002,0.8643307960000001,1.40576655,3.76785263,-2.5243837,,,
imu,54.528109,-0.4946723656000001,-9.7989391696,0.8733030880000001,1.36090509,3.95477538,-2.56924516,,,
imu,54.536594,-0.4779240872000001,-9.8144911424,0.8511714344000001,1.37585891,4.05945212,-2.64401426,,,
imu,54.545079,-0.430670016,-9.832435726400002,0.8416009896000001,1.27865908,4.05945212,-2.77859864,,,
imu,54.553565,-0.4318663216,-9.8300431152,0.8362176144000002,1.39081273,3.8949601,-2.94309066,,,
imu,54.56205,-0.4193051128000001,-9.822267128800002,0.8326286976000001,1.24875144,3.71551426,-3.07767504,,,
imu,54.570535,-0.4193051128000001,-9.8264541984,0.8344231560000002,1.34595127,3.53606842,-3.15244414,,,
imu,54.57902,-0.4234921824,-9.8264541984,0.8475825176000001,1.51044329,3.4463455,-3.15992105,,,
imu,54.587505,-0.4258847936,-9.837220948800002,0.8613400320000001,1.45062801,3.10240764,-3.36179762,,,
imu,54.59599,-0.424688488,-9.836622796,0.8685178656000001,1.5926893,2.87810034,-3.25712088,,,
imu,54.604475,-0.4187069600000001,-9.83961356,0.8774901576000002,1.5926893,2.5491163,-3.17487487,,,
imu,54.612961,-0.4444275304,-9.828248656800001,0.8649289488,1.52539711,2.39210119,-3.07767504,,,
imu,54.621446,-0.4671573368000001,-9.838417254400001,0.8930421304000001,1.62259694,2.44443956,-2.85336774,,,
imu,54.629931,-0.4653628784000001,-9.873708269600002,0.8996218112000001,1.53287402,2.54163939,-2.64401426,,,
imu,54.638416,-0.4851019208000001,-9.908999284800002,0.8894532136000001,1.42072037,2.4743472,-2.72626027,,,
imu,54.646901,-0.499457588,-9.9000269928,0.885266144,1.2188438,2.53416248,-2.9729983,,,
imu,54.655386,-0.505439116,-9.905410368000002,0.8948365888000002,0.94219813,2.54163939,-3.30945925,,,
imu,54.663872,-0.5000557408,-9.954458897600002,0.8900513664000002,0.5010604399999999,2.71360832,-3.66087402,,,
imu,54.672357,-0.4809148512,-9.949075522400001,0.8762938520000002,0.07487657,2.71360832,-4.057150249999999,,,
imu,54.680842,-0.4480164472000001,-9.906008520800002,0.8774901576000002,-0.2765382,2.60893158,-4.13191935,,,
imu,54.689327,-0.4372496968000001,-9.8886620896,0.8727049352000001,-0.29896893,2.75099287,-3.93004278,,,
imu,54.697812,-0.4222958768,-9.8432024768,0.8828735328,-0.41859949,2.78837742,-3.6459202,,,
imu,54.706297,-0.4031549872,-9.764246307200002,0.8864624496000001,-0.44103022,2.65379304,-3.50385891,,,
imu,54.715094,-0.4037531400000001,-9.7283571392,0.9062014920000001,-0.25410747,2.30985518,-3.50385891,,,
imu,54.723891,-0.4061457512000001,-9.7163940832,0.9050051864,-0.007369440000000005,2.22760917,-3.78798149,,,
imu,54.732688,-0.3899956256000001,-9.697253193600002,0.9091922560000001,0.29918387,1.90610204,-3.93751969,,,
imu,54.741485,-0.4049494456000001,-9.7086180968,0.903210728,0.53096808,1.64441019,-3.99733497,,,
imu,54.750282,-0.4240903352000001,-9.779200127200001,0.8816772272000001,0.7552753799999999,1.62197946,-4.11696553,,,
imu,54.759079,-0.4659610312,-9.820472670400001,0.8703123240000001,0.8973366700000001,1.54721036,-4.29641137,,,
imu,54.767877,-0.5162058664000001,-9.841408018400001,0.8511714344000001,0.64312173,1.45001053,-4.58801086,,,
imu,54.776674,-0.5102243384,-9.9000269928,0.8421991424,0.63564482,1.53973345,-4.83474889,,,
imu,54.785471,-0.517402172,-9.9496736752,0.8338250032000001,0.4861066199999999,1.59954873,-4.93942563,,,
imu,54.794268,-0.5257763112000001,-9.9484773696,0.8260490168000001,0.08983038999999998,1.62197946,-4.87961035,,,
imu,54.803065,-0.5514968816000001,-9.928738327200001,0.8433954480000001,-0.26906129,1.66684092,-4.65530305,,,
imu,54.811862,-0.5718340768000001,-9.915578965600002,0.8523677400000002,-0.73262971,1.60702564,-4.169303899999999,,,
imu,54.820659,-0.5915731192000001,-9.904214062400001,0.8517695872000001,-0.95693701,1.83880985,-3.8702275,,,
imu,54.829456,-0.6047324808000001,-9.8982325344,0.8655271016000001,-1.14385976,2.1005017,-3.82536604,,,
imu,54.838253,-0.6184899952000001,-9.893447312000001,0.8810790744000001,-1.54013599,2.13040934,-3.97490424,,,
imu,54.84705,-0.6244715232,-9.867726741600002,0.900219964,-1.89155076,2.22760917,-4.15435008,,,
imu,54.855847,-0.6561736216000001,-9.875502728,0.9056033392000001,-2.05604278,2.61640849,-4.21416536,,,
imu,54.864644,-0.6214807592000001,-9.8563618384,0.8894532136000001,-2.17567334,2.98277708,-4.56558013,,,
imu,54.873441,-0.5760211464000001,-9.827650504000003,0.9079959504000001,-2.28035008,3.64822207,-4.87213344,,,
imu,54.882238,-0.5030465048,-9.833632032,0.9097904088000002,-2.19062716,3.93982156,-5.05157928,,,
imu,54.891035,-0.472540712,-9.8043225448,0.9193608536000001,-2.13081188,3.97720611,-5.10391765,,,
imu,54.899832,-0.451605364,-9.802528086400002,0.9576426328000002,-2.04108896,3.82766791,-5.01419473,,,
imu,54.908629,-0.4384460024000001,-9.802528086400002,0.9731946056000002,-1.86912003,3.48373005,-5.16373293,,,
imu,54.917104,-0.451605364,-9.772022293600001,0.9785779808,-1.88407385,2.86314652,-5.2908404,,,
imu,54.925579,-0.4581850448000001,-9.716992236000001,0.9899428840000002,-1.68219728,2.37714737,-5.305794219999999,,,
imu,54.934054,-0.454596128,-9.702636568800001,1.0240375936,-1.46536689,2.05564024,-5.021671639999999,,,
imu,54.942529,-0.4851019208000001,-9.7283571392,1.0330098856,-1.1737674,1.577118,-4.74502597,,,
imu,54.951004,-0.5467116592000001,-9.744507264800001,1.0455710944,-0.7999219,1.2032725,-4.40108811,,,
imu,54.959479,-0.5837971328000001,-9.777405668800002,1.0629175256,-0.54570696,0.94905756,-4.079580979999999,,,
imu,54.967954,-0.6376308848000001,-9.803126239200001,1.0611230672,-0.28401511,1.00139593,-3.93751969,,,
imu,54.976429,-0.6699311360000001,-9.803724392000001,1.055739692,-0.17186146,1.12102649,-3.98985806,,,
imu,54.984904,-0.6777071224000001,-9.806715156000001,1.0539452336,-0.20924601,1.59207182,-3.99733497,,,
imu,54.993379,-0.6926609424000001,-9.803126239200001,1.0545433864,-0.23915365,2.07059406,-4.102011709999999,,,
imu,55.001854,-0.6795015808000001,-9.775611210400001,1.0461692472,-0.23167674,2.55659321,-4.16182699,,,
imu,55.010329,-0.6633514552,-9.7403201952,1.0222431352,-0.15690764,3.02016163,-4.341272829999999,,,
imu,55.018804,-0.5915731192000001,-9.731347903200001,1.0312154272,0.04496892999999999,3.46129932,-4.453426479999999,,,
imu,55.027279,-0.5311596864,-9.727160833600001,1.0126726904,0.17955331,3.66317589,-4.58801086,,,
imu,55.035754,-0.4862982264000001,-9.7122070136,1.0192523712,0.41133752,3.71551426,-4.670256869999999,,,
imu,55.044229,-0.4169125016,-9.7325442088,1.0060930096,0.47862971,3.31176112,-4.77493361,,,
imu,55.052704,-0.3911919312,-9.745703570400002,0.9965225648000002,0.74779847,2.84071579,-4.79736434,,,
imu,55.061179,-0.3684621248000001,-9.801929933600002,1.0025040928,0.97958268,2.33228591,-4.52071867,,,
imu,55.069654,-0.3630787496,-9.851576616000001,0.9857558144000002,1.18893616,1.69674856,-4.27398064,,,
imu,55.078005,-0.3846122504,-9.8581562968,0.9761853696000001,1.1440747,0.8817653699999997,-4.13191935,,,
imu,55.08648,-0.4133235848,-9.893447312000001,0.9755872168000002,1.02444414,0.27613566,-3.95995042,,,
imu,55.094955,-0.4563905864000001,-9.9048122152,0.9815687448000001,1.01696723,-0.1949096699999999,-3.65339711,,,
imu,55.10343,-0.5102243384,-9.908999284800002,0.9917373424000001,0.83004448,-0.4715553400000001,-3.45899745,,,
imu,55.111905,-0.5568802568000001,-9.893447312000001,0.9995133288000001,0.6281679099999999,-0.71829337,-3.37675144,,,
imu,55.120377,-0.6304530512000001,-9.864137824800002,1.0037003984,0.33656842,-0.6659550000000003,-3.46647436,,,
imu,55.12885,-0.6711274416,-9.818080059200001,1.0007096344,0.13469185,-0.37435551,-3.51881273,,,
imu,55.137322,-0.7082129152000001,-9.801929933600002,1.007887468,-0.11952309,-0.0005100100000001717,-3.72816621,,,
imu,55.145795,-0.7034276928000001,-9.820472670400001,1.0174579128,-0.14943073,0.5976427899999996,-3.81041222,,,
imu,55.154267,-0.6555754688000001,-9.825856045600002,1.0090837736,-0.06718472,1.24813396,-3.88518132,,,
imu,55.16274,-0.5903768136,-9.8013317808,1.0132708432,-0.15690764,1.77151766,-3.95247351,,,
imu,55.171212,-0.5568802568000001,-9.769031529600001,1.013868996,-0.21672292,1.83880985,-4.169303899999999,,,
imu,55.179684,-0.5030465048,-9.792957641600001,1.0300191216,-0.04475399000000001,1.83880985,-4.18425772,,,
imu,55.188157,-0.4731388648000001,-9.7995373224,1.007887468,0.007584380000000002,1.62945637,-4.341272829999999,,,
imu,55.196629,-0.4671573368000001,-9.7845835024,1.0192523712,0.14964567,1.30794924,-4.51324176,,,
imu,55.205102,-0.46356842,-9.777405668800002,1.0192523712,0.27675314,1.03878048,-4.59548777,,,
imu,55.213574,-0.481513004,-9.8013317808,1.0114763848,0.40386061,0.7920424499999998,-4.49828794,,,
imu,55.222047,-0.5371412144000001,-9.802528086400002,1.03181358,0.38142988,0.5453044199999999,-4.42351884,,,
imu,55.230519,-0.5676470072,-9.807313308800001,1.0413840248,0.50853735,0.4331507699999997,-4.53567249,,,
imu,55.238992,-0.6065269392000001,-9.8043225448,1.0485618584,0.60573718,0.4107200399999997,-4.56558013,,,
imu,55.247464,-0.6232752176,-9.798341016800002,1.0336080384,0.67302937,0.5901658799999998,-4.48333412,,,
imu,55.255936,-0.6328456624000001,-9.801929933600002,1.0419821776,0.64312173,0.7172733499999997,-4.55062631,,,
imu,55.264409,-0.6190881480000001,-9.8043225448,1.0282246632,0.82256757,0.8742884599999998,-4.363703559999999,,,
imu,55.272881,-0.5933675776,-9.810902225600001,1.025832052,0.76275229,0.9640113799999996,-4.37865738,,,
imu,55.281354,-0.5748248408000001,-9.809107767200002,1.0294209688,0.7552753799999999,0.9341037399999998,-4.37118047,,,
imu,55.289826,-0.5604691736,-9.803126239200001,1.0401877192,0.7104139199999999,1.03130357,-4.408565019999999,,,
imu,55.298299,-0.5544876456000001,-9.802528086400002,1.0276265104,0.59078336,0.8967191899999998,-4.26650373,,,
imu,55.306771,-0.5461135064000001,-9.822267128800002,1.022841288,0.46367589,0.7322271699999998,-4.102011709999999,,,
imu,55.315244,-0.5520950344000001,-9.853371074400002,1.0216449824,0.3963837,0.4555814999999996,-4.15435008,,,
imu,55.323699,-0.5556839512000001,-9.844996935200001,1.0294209688,0.2468455,0.27613566,-4.11696553,,,
imu,55.332155,-0.5718340768000001,-9.830641268,1.034804344,0.28423005,0.1191205499999999,-3.89265823,,,
imu,55.340611,-0.5921712720000001,-9.827650504000003,1.0312154272,0.19450713,-0.01546383000000029,-3.7954584,,,
imu,55.349067,-0.5867878968000001,-9.806715156000001,1.037795108,0.29170696,-0.15004821,-3.6459202,,,
imu,55.357523,-0.5897786608000001,-9.7815927384,1.0533470808,0.43376825,-0.35192478,-3.63844329,,,
imu,55.365979,-0.5915731192000001,-9.775611210400001,1.0395895664,0.4861066199999999,-0.4790322499999999,-3.60853565,,,
imu,55.374435,-0.5808063688,-9.76484446,1.0306172744,0.620691,-0.65847809,-3.69825857,,,
imu,55.382891,-0.571235924,-9.766040765600001,1.0324117328,0.85995212,-0.7781086500000001,-3.56367419,,,
imu,55.391347,-0.5969564944000001,-9.8013317808,1.0270283576,1.10669015,-0.7556779200000001,-3.53376655,,,
imu,55.399803,-0.6017417168000001,-9.830641268,1.0240375936,1.13659779,-0.7108164600000002,-3.51881273,,,
imu,55.408259,-0.61310662,-9.825257892800002,1.0144671488,1.20388998,-0.4939860700000001,-3.63096638,,,
imu,55.416715,-0.6178918424000002,-9.822267128800002,1.0270283576,1.06182869,-0.39678624,-3.87770441,,,
imu,55.42517,-0.6089195504,-9.850380310400002,1.0246357464,0.8973366700000001,-0.4266938800000002,-3.98238115,,,
imu,55.433626,-0.5622636320000001,-9.907204826400001,1.010878232,0.8823828499999999,-0.2248173100000002,-4.04967334,,,
imu,55.442082,-0.5365430616000001,-9.889260242400002,1.007887468,0.55339881,-0.2023865800000002,-4.23659609,,,
imu,55.450538,-0.5449172008000001,-9.8653341304,1.03181358,0.35152224,-0.5612782599999999,-4.35622665,,,
imu,55.458994,-0.5491042704000001,-9.892849159200003,1.0264302048,0.20946095,-0.8753084800000002,-4.19921154,,,
imu,55.46745,-0.5646562432000001,-9.891054700800002,1.0300191216,-0.03727708,-0.9126930300000002,-3.66087402,,,
imu,55.475906,-0.5730303824,-9.8593526024,1.0413840248,-0.14943073,-0.8977392100000001,-3.30198234,,,
imu,54.291229,,,,,,,89.8205668,4.51052999999999,217.5506296
imu,54.392914,,,,,,,89.97926039999999,4.241971599999994,217.0623416
imu,54.494324,,,,,,,89.55200839999999,4.217557199999988,217.208828
imu,54.595917,,,,,,,89.5398012,4.41287239999999,216.7083328
imu,54.697479,,,,,,,89.39331479999998,4.779088399999987,216.6472968
imu,54.799042,,,,,,,91.37088120000001,4.119899599999988,214.4744152
imu,55.484362,-0.56824516,-9.824659740000001,1.0371969552,-0.21672292,-0.9575544899999997,-2.96552139,,,
imu,55.492818,-0.5772174520000001,-9.755872168000002,1.025832052,-0.29896893,-0.8902623000000003,-2.88327538,,,
imu,55.501274,-0.6059287864000001,-9.709216249600003,1.0270283576,-0.2017691,-0.9650314,-2.8234601,,,
imu,55.50973,-0.5927694248,-9.690673512800002,1.0204486768,-0.09709236,-0.90521612,-2.87579847,,,
imu,55.518185,-0.6149010784000001,-9.669738164800002,1.0210468296,0.29170696,-0.7855855599999999,-2.90570611,,,
imu,55.526649,-0.6304530512000001,-9.633250844,1.01685976,0.4861066199999999,-0.6435242699999999,-3.02533667,,,
imu,55.535113,-0.6663422192,-9.6523917336,1.022841288,1.09921324,-0.2995864100000003,-3.10758268,,,
imu,55.543576,-0.6944554008000001,-9.730749750400001,1.0204486768,1.42819728,0.1415512799999998,-3.21225942,,,
imu,55.55204,-0.7016332344,-9.772620446400001,1.0180560656,1.75718132,0.7172733499999997,-3.30198234,,,
imu,55.560503,-0.7082129152000001,-9.8162856008,1.0389914136,1.9665348,1.24813396,-3.51881273,,,
imu,55.568967,-0.6992406232000001,-9.881484256,1.0401877192,1.86185806,1.51730272,-3.84779677,,,
imu,55.57743,-0.6711274416,-9.893447312000001,1.0413840248,1.68241222,2.04816333,-3.92256587,,,
imu,55.585894,-0.6603606912000002,-9.899428840000002,1.0449729416,1.48801256,2.46687029,-3.98238115,,,
imu,55.594357,-0.6466031768,-9.911990048800002,1.0479637056,1.17398234,2.5491163,-3.99733497,,,
imu,55.602821,-0.6418179544000001,-9.891054700800002,1.0461692472,0.88985976,2.69117759,-3.97490424,,,
imu,55.611284,-0.6454068712000001,-9.849184004800001,1.0443747888,0.44124516,2.66874686,-4.057150249999999,,,
imu,55.619748,-0.6328456624000001,-9.8270523512,1.0413840248,0.43376825,2.72856214,-3.93004278,,,
imu,55.628212,-0.6316493568000001,-9.802528086400002,1.0336080384,0.3739529699999999,2.66874686,-3.95995042,,,
imu,55.636675,-0.6382290376000002,-9.7809945856,1.0413840248,0.3963837,2.60145467,-3.80293531,,,
imu,55.645139,-0.62806044,-9.788770572,1.0467674,0.63564482,2.51920866,-3.66835093,,,
imu,55.653602,-0.6382290376000002,-9.754675862400001,1.0521507752,0.8973366700000001,2.43696265,-3.45899745,,,
imu,55.662066,-0.6316493568000001,-9.711608860800002,1.0563378448,1.02444414,2.61640849,-3.0477674,,,
imu,55.670529,-0.6184899952000001,-9.7295534448,1.070693512,1.20388998,2.60893158,-2.99542903,,,
imu,55.678993,-0.6029380224,-9.748096181600001,1.055739692,1.21136689,2.51173175,-3.08515195,,,
imu,55.687456,-0.6107140088,-9.746301723200002,1.0581323032,1.37585891,2.58650085,-3.30198234,,,
imu,55.69592,-0.601143564,-9.786976113600002,1.0808621096,1.48801256,2.35471664,-3.46647436,,,
imu,55.704383,-0.6160973840000001,-9.802528086400002,1.0671045952,1.36090509,2.45191647,-3.45152054,,,
imu,55.712847,-0.6400234960000001,-9.817481906400001,1.0688990536,1.36090509,2.37714737,-3.75807385,,,
imu,55.72131,-0.6615569968000001,-9.867726741600002,1.0665064424,1.57773548,2.29490136,-3.80293531,,,
imu,55.73013,-0.6591643856000001,-9.885671325600002,1.0635156784,1.4431511,2.30985518,-3.61601256,,,
imu,55.73895,-0.6316493568000001,-9.8886620896,1.0653101368,1.30108981,2.41453192,-3.37675144,,,
imu,55.747769,-0.6053306336000001,-9.8946436176,1.0569359976,1.27118217,2.50425484,-3.28702852,,,
imu,55.756589,-0.5574784096000001,-9.8749045752,1.040785872,1.21136689,2.50425484,-3.07019813,,,
imu,55.765408,-0.5377393672000002,-9.837220948800002,1.0479637056,1.2188438,2.49677793,-2.79355246,,,
imu,55.774228,-0.5275707696,-9.8079114616,1.03181358,1.0693056,2.30237827,-2.80102937,,,
imu,55.783048,-0.5317578392000001,-9.797144711200001,1.0234394408,0.9571519499999999,1.98087114,-2.72626027,,,
imu,55.791867,-0.5251781584,-9.769031529600001,1.0150653016,0.9945364999999999,1.74161002,-2.77112173,,,
imu,55.800687,-0.5287670752,-9.7821908912,1.0312154272,1.21136689,1.6518871,-2.91318302,,,
imu,55.809506,-0.55329134,-9.7612555432,1.0210468296,1.33099745,1.53973345,-3.10010577,,,
imu,55.818326,-0.5580765624000001,-9.744507264800001,1.0120745376,1.52539711,1.50982581,-3.16739796,,,
imu,55.827145,-0.5544876456000001,-9.7128051664,1.0174579128,1.64502767,1.61450255,-3.0477674,,,
imu,55.835965,-0.5497024232000001,-9.717590388800001,1.0467674,1.68241222,1.74161002,-3.07019813,,,
imu,55.844785,-0.5287670752,-9.7504887928,1.049758164,1.70484295,1.84628676,-3.16739796,,,
imu,55.853604,-0.5102243384,-9.765442612800001,1.025832052,1.68241222,1.75656384,-3.40665908,,,
imu,55.862424,-0.4701481008,-9.769031529600001,1.0216449824,1.93662716,1.63693328,-3.67582784,,,
imu,55.871243,-0.4803166984,-9.790565030400002,0.9971207176000002,1.99644244,1.47244126,-3.93751969,,,
imu,55.880063,-0.4916816016,-9.824061587200001,0.9869521200000001,2.22822665,1.46496435,-3.87770441,,,
imu,55.888882,-0.5180003248000001,-9.850978463200002,0.9815687448000001,2.25065738,1.18831868,-3.97490424,,,
imu,55.897702,-0.5407301312,-9.866530436000001,0.9702038416000002,2.06373463,0.9116730099999999,-4.04967334,,,
imu,55.906522,-0.5676470072,-9.887465784000002,0.9773816752000002,1.99644244,0.9640113799999996,-3.86275059,,,
imu,55.915341,-0.5760211464000001,-9.894045464800001,0.9827650504000001,1.98148862,1.03130357,-3.75807385,,,
imu,55.924161,-0.5939657304000001,-9.8749045752,0.9875502728000001,1.77961205,1.29299542,-3.52628964,,,
imu,55.932721,-0.6149010784000001,-9.8683248944,0.9923354952000002,1.5179202,1.2780416,-3.42908981,,,
imu,55.941281,-0.61310662,-9.839015407200002,0.9977188704000002,1.368382,1.46496435,-3.3468438,,,
imu,55.949841,-0.6190881480000001,-9.838417254400001,1.0156634544,1.09921324,1.65936401,-3.51133582,,,
imu,55.958402,-0.6256678288,-9.855763685600001,1.0210468296,1.00201341,1.99582496,-3.54872037,,,
imu,55.966962,-0.6125084672000001,-9.858754449600001,1.0300191216,0.8449983,2.09302479,-3.75059694,,,
imu,55.975522,-0.6119103144000001,-9.858754449600001,1.0276265104,0.67302937,2.2500399,-3.85527368,,,
imu,55.984082,-0.5945638832000001,-9.8479876992,1.0210468296,0.64312173,2.48182411,-3.77302767,,,
imu,55.992642,-0.5981528,-9.8049206976,1.0120745376,0.44872207,2.39210119,-3.82536604,,,
imu,56.001202,-0.5784137576,-9.773816752000002,1.0042985512,0.49358353,2.50425484,-3.66087402,,,
imu,56.009763,-0.5616654792000001,-9.7474980288,1.0084856208,0.6281679099999999,2.60893158,-3.63844329,,,
imu,56.018323,-0.5251781584,-9.727160833600001,0.998915176,0.82256757,2.72856214,-3.60105874,,,
imu,56.026883,-0.4928779072000001,-9.720581152800001,1.0126726904,1.09173633,2.60893158,-3.63096638,,,
imu,56.035443,-0.4809148512,-9.718188541600002,1.004896704,1.30108981,2.58650085,-3.63096638,,,
imu,56.044003,-0.502448352,-9.748694334400001,1.0084856208,1.46558183,2.40705501,-3.75059694,,,
imu,56.052564,-0.5180003248000001,-9.8132948368,1.0090837736,1.65998149,1.97339423,-3.87770441,,,
imu,56.061124,-0.5401319784,-9.8617452136,1.0090837736,1.6674584,1.77899457,-4.02724261,,,
imu,56.069684,-0.571235924,-9.868923047200001,0.9953262592000002,1.57025857,1.71917929,-3.93751969,,,
imu,56.078244,-0.5981528,-9.882680561600003,0.9875502728000001,1.41324346,1.63693328,-3.66087402,,,
imu,56.086804,-0.5909749664,-9.883278714400001,0.9845595088000001,1.06182869,1.61450255,-3.59358183,,,
imu,56.095364,-0.5963583416000001,-9.865932283200001,0.9821668976000001,0.94219813,1.6518871,-3.46647436,,,
imu,56.103925,-0.5933675776,-9.85456738,0.9773816752000002,0.8375213899999999,1.70422547,-3.33188998,,,
imu,56.112485,-0.5778156048000002,-9.815089295200002,0.963026008,0.7552753799999999,1.78647148,-3.22721324,,,
imu,56.121045,-0.5879842024,-9.802528086400002,0.9821668976000001,0.65807555,1.8761944,-3.2720747,,,
imu,56.129605,-0.5700396184000001,-9.792957641600001,0.9654186192,0.7253677399999999,1.83133294,-3.30945925,,,
imu,56.137983,-0.58319898,-9.7750130576,0.9749890640000002,0.81509066,1.9509635,-3.21973633,,,
imu,56.146362,-0.5718340768000001,-9.786976113600002,0.9702038416000002,0.97210577,2.10797861,-3.40665908,,,
imu,56.15474,-0.5730303824,-9.805518850400002,0.963026008,0.9870595899999999,2.23508608,-3.75807385,,,
imu,56.163119,-0.5808063688,-9.8198745176,0.9582407856000001,1.17398234,2.09302479,-3.98985806,,,
imu,56.171378,-0.5855915912,-9.825257892800002,0.9564463272000002,1.27865908,2.2500399,-3.84779677,,,
imu,56.179756,-0.5987509528,-9.842006171200001,0.9516611048000001,1.27118217,2.29490136,-4.08705789,,,
imu,56.188134,-0.6119103144000001,-9.861147060800002,0.9486703408000001,1.20388998,2.22760917,-4.0945348,,,
imu,56.196513,-0.6077232448000001,-9.900625145600001,0.9660167720000001,0.9272443100000001,2.324809,-3.93004278,,,
imu,56.204891,-0.6334438152,-9.957449661600002,0.9845595088000001,0.65059864,2.30237827,-3.63844329,,,
imu,56.213269,-0.6430142600000001,-9.959244120000001,0.9923354952000002,0.15712258,2.34723973,-3.25712088,,,
imu,56.221648,-0.61310662,-9.8820824088,1.0060930096,-0.26158438,2.36967046,-3.00290594,,,
imu,56.230026,-0.6226770648,-9.850380310400002,1.0186542184,-0.52327623,2.45939338,-2.81598319,,,
imu,56.238405,-0.6071250920000001,-9.876100880800003,1.0180560656,-0.67281443,2.36967046,-2.95056757,,,
imu,56.246783,-0.6077232448000001,-9.8294449624,1.019850524,-0.84478336,2.34723973,-3.07019813,,,
imu,56.255161,-0.5945638832000001,-9.748694334400001,1.0389914136,-0.79244499,2.46687029,-3.00290594,,,
imu,56.26354,-0.5730303824,-9.7122070136,1.0593286088,-0.58309151,2.45939338,-2.86832156,,,
imu,56.271918,-0.5628617848,-9.685290137600001,1.0473655528,-0.31392275,2.49677793,-2.60662971,,,
imu,56.280296,-0.5694414656000001,-9.659569567200002,1.058730456,0.20198404,2.61640849,-2.34493786,,,
imu,56.288675,-0.5718340768000001,-9.655980650400002,1.0467674,0.620691,2.7734236,-2.36736859,,,
imu,56.297053,-0.5640580904000001,-9.665551095200001,1.0461692472,1.10669015,2.7734236,-2.66644499,,,
imu,54.900489,,,,,,,88.8195764,5.035439599999991,216.9280624
imu,55.002021,,,,,,,91.4563316,3.704854799999979,214.2058568
imu,55.103583,,,,,,,89.16137799999998,4.522737199999982,216.0857656
imu,55.205207,,,,,,,89.1857924,5.108682799999986,215.2800904
imu,55.306861,,,,,,,89.29565720000001,5.365033999999991,216.2566664
imu,55.408301,,,,,,,88.428946,5.230754799999993,216.3299096
imu,55.509864,,,,,,,89.344486,4.888953199999979,216.1956304
imu,55.611548,,,,,,,89.68628759999999,4.962196399999996,216.476396
imu,56.305431,-0.5694414656000001,-9.687084596000002,1.0306172744,1.53287402,2.87062343,-2.92813684,,,
imu,56.31381,-0.580208216,-9.735534972800002,1.0114763848,1.8917657,2.98277708,-3.1225365,,,
imu,56.322188,-0.5861897440000001,-9.7636481544,1.0072893152,1.99644244,3.06502309,-3.25712088,,,
imu,56.330566,-0.5670488544000001,-9.8210708232,1.0066911624,2.16093446,3.21456129,-3.42908981,,,
imu,56.339043,-0.5634599376000001,-9.883876867200001,0.9881484256000002,2.07868845,3.3715764,-3.51133582,,,
imu,56.347519,-0.5526931872,-9.920962340800001,0.9821668976000001,2.01139626,3.54354533,-3.48142818,,,
imu,56.355996,-0.5359449088000001,-9.914980812800001,0.9606333968,1.78708896,3.50616078,-3.39170526,,,
imu,56.364473,-0.490485296,-9.928738327200001,0.9636241608000001,1.48053565,3.5211146,-3.17487487,,,
imu,56.372949,-0.4581850448000001,-9.9329253968,0.963026008,1.26370526,3.53606842,-3.08515195,,,
imu,56.381426,-0.4312681688,-9.876100880800003,0.9618297024000001,0.9870595899999999,3.25942275,-3.0477674,,,
imu,56.389902,-0.4109309736,-9.858754449600001,0.9714001472000001,0.81509066,2.96034635,-3.18235178,,,
imu,56.398379,-0.3929863896,-9.8629415192,0.9767835224000002,0.68050628,2.6986545,-3.15244414,,,
imu,56.406855,-0.4031549872,-9.808509614400002,0.9851576616000001,0.50853735,2.4743472,-3.07019813,,,
imu,56.415332,-0.3995660704000001,-9.802528086400002,0.9983170232,0.26179932,2.08554788,-3.04029049,,,
imu,56.423809,-0.4390441552000001,-9.815089295200002,0.9983170232,0.36647606,1.78647148,-3.04029049,,,
imu,56.432285,-0.4647647256,-9.803724392000001,1.0025040928,0.11973803,1.39019525,-3.30198234,,,
imu,56.440762,-0.4653628784000001,-9.803126239200001,1.0007096344,0.23189168,1.22570323,-3.45152054,,,
imu,56.449238,-0.4749333232000001,-9.802528086400002,0.9983170232,0.34404533,1.00139593,-3.54872037,,,
imu,56.457715,-0.4922797544,-9.80970592,1.0037003984,0.2468455,0.7172733499999997,-3.54124346,,,
imu,56.466191,-0.5138132552000001,-9.803126239200001,0.9917373424000001,0.34404533,0.6275504299999999,-3.50385891,,,
imu,56.474668,-0.5257763112000001,-9.796546558400001,1.0270283576,0.51601426,0.78456554,-3.47395127,,,
imu,56.483144,-0.5383375200000001,-9.818080059200001,1.028822816,0.52349117,0.70231953,-3.62348947,,,
imu,56.491621,-0.5610673264,-9.824659740000001,1.0204486768,0.3739529699999999,0.6574580699999997,-3.84031986,,,
imu,56.500098,-0.5401319784,-9.821668976000002,1.0324117328,0.3739529699999999,0.7696117199999999,-4.07210407,,,
imu,56.508574,-0.4928779072000001,-9.815089295200002,1.0593286088,0.22441477,0.80699627,-3.98238115,,,
imu,56.517051,-0.442633072,-9.8264541984,1.064711984,0.3889067899999999,0.80699627,-3.95247351,,,
imu,56.525527,-0.4109309736,-9.880886103200002,1.0491600112,0.36647606,0.3284740299999998,-3.74312003,,,
imu,56.534004,-0.424688488,-9.902419604000002,1.0431784832,0.22441477,-0.2995864100000003,-3.40665908,,,
imu,56.54248,-0.4258847936,-9.8683248944,1.0413840248,-0.11204618,-0.76315483,-3.17487487,,,
imu,56.550918,-0.4330626272,-9.886867631200001,1.0449729416,-0.08213854000000001,-1.03232359,-2.83841392,,,
imu,56.559355,-0.4623721144,-9.8982325344,1.03181358,-0.14195382,-1.27158471,-2.68887572,,,
imu,56.567793,-0.4976631296000001,-9.8617452136,1.03181358,-0.13447691,-1.32392308,-2.35989168,,,
imu,56.57623,-0.5150095608,-9.8300431152,1.019850524,-0.32887657,-1.24167707,-2.25521494,,,
imu,56.584668,-0.5706377712,-9.805518850400002,1.0001114816,-0.30644584,-0.8977392100000001,-2.39727623,,,
imu,56.593105,-0.5933675776,-9.7815927384,1.0144671488,-0.30644584,-0.57623208,-2.68139881,,,
imu,56.601543,-0.6143029256000001,-9.766638918400002,1.0120745376,-0.30644584,-0.2995864100000003,-2.95804448,,,
imu,56.60998,-0.6525847048000001,-9.762451848800001,1.0192523712,-0.23915365,0.2088434699999997,-3.54872037,,,
imu,56.618417,-0.6472013296000001,-9.751685098400001,1.0132708432,-0.03727708,0.8144731799999998,-3.89265823,,,
imu,56.626855,-0.6268641344,-9.755872168000002,1.0192523712,0.23189168,1.33037997,-4.04967334,,,
imu,56.635292,-0.6232752176,-9.802528086400002,1.03181358,0.17955331,1.62945637,-4.27398064,,,
imu,56.64373,-0.6047324808000001,-9.8270523512,1.034804344,0.23936859,2.16779389,-4.15435008,,,
imu,56.652167,-0.5921712720000001,-9.8330338792,1.0413840248,0.14964567,2.4743472,-4.0945348,,,
imu,56.660605,-0.5772174520000001,-9.841408018400001,1.037795108,-0.06718472,2.5491163,-4.13939626,,,
imu,56.669042,-0.5491042704000001,-9.833632032,1.0383932608,-0.23915365,2.75099287,-4.07210407,,,
imu,56.67748,-0.5138132552000001,-9.8300431152,1.043776636,-0.41112258,2.79585433,-3.9449966,,,
imu,56.685917,-0.4970649768000001,-9.815089295200002,1.0354024968,-0.45598404,2.7734236,-3.7206893,,,
imu,56.694354,-0.4773259344000001,-9.802528086400002,1.0419821776,-0.54570696,2.57902394,-3.45899745,,,
imu,56.702792,-0.4581850448000001,-9.776209363200001,1.043776636,-0.66533752,2.34723973,-3.31693616,,,
imu,56.711229,-0.4629702672000001,-9.7636481544,1.03181358,-0.53823005,2.03320951,-3.24216706,,,
imu,56.719667,-0.4653628784000001,-9.773218599200002,1.025832052,-0.28401511,1.76404075,-3.21973633,,,
imu,56.728104,-0.4868963792000001,-9.790565030400002,1.0234394408,-0.14943073,1.32290306,-3.16739796,,,
imu,56.736542,-0.5275707696,-9.805518850400002,1.0234394408,-0.04475399000000001,1.17336486,-2.98047521,,,
imu,56.745382,-0.5580765624000001,-9.842604324000002,1.022841288,-0.02232326000000001,1.25561087,-2.88327538,,,
imu,56.754223,-0.5820026744000001,-9.895241770400002,1.022841288,-0.24663056,1.33037997,-2.8982292,,,
imu,56.763064,-0.6208826064000001,-9.907204826400001,1.025832052,-0.26906129,1.45001053,-2.90570611,,,
imu,56.771905,-0.6137047728000001,-9.893447312000001,1.0252338992,-0.50832241,1.76404075,-2.92065993,,,
imu,56.780746,-0.5772174520000001,-9.865932283200001,1.0246357464,-0.7401066199999999,2.1752708,-3.21225942,,,
imu,56.789587,-0.5305615336,-9.8653341304,1.0264302048,-0.84478336,2.37714737,-3.496382,,,
imu,56.798427,-0.4946723656000001,-9.8593526024,1.0330098856,-0.92702937,2.45191647,-3.70573548,,,
imu,56.807268,-0.5335522976000001,-9.810902225600001,1.0383932608,-0.9644139199999999,2.48930102,-3.88518132,,,
imu,56.816109,-0.5305615336,-9.761853696000001,1.06172122,-0.88964482,2.52668557,-4.02724261,,,
imu,56.82495,-0.5269726168000001,-9.8013317808,1.0724879704,-0.82235263,2.52668557,-4.11696553,,,
imu,56.833791,-0.5299633808,-9.812696684000002,1.0754787344,-0.8522602699999999,2.53416248,-4.25154991,,,
imu,56.842631,-0.5090280328000001,-9.789966877600001,1.0958159296,-0.85973718,2.36967046,-4.146873169999999,,,
imu,56.851472,-0.4779240872000001,-9.766638918400002,1.109573444,-0.85973718,2.35471664,-3.95247351,,,
imu,56.860313,-0.4593813504000001,-9.7750130576,1.1173494304,-0.81487572,2.15284007,-3.59358183,,,
imu,56.869154,-0.4671573368000001,-9.767835224,1.130508792,-0.88964482,2.10797861,-3.28702852,,,
imu,56.877995,-0.4898871432,-9.7636481544,1.1358921672,-0.7999219,1.90610204,-3.33188998,,,
imu,56.886835,-0.4809148512,-9.813892989600001,1.1556312096,-0.74758353,1.78647148,-3.43656672,,,
imu,56.895676,-0.4880926848000001,-9.8629415192,1.145462612,-0.70272207,1.8014253,-3.75059694,,,
imu,56.904517,-0.4940742128000001,-9.783985349600002,1.1478552232,-1.0242292,1.91357895,-3.74312003,,,
imu,56.913358,-0.4874945320000001,-9.792957641600001,1.15144414,-0.97189083,2.01077878,-3.81788913,,,
imu,56.922199,-0.4964668240000001,-9.770825988000002,1.1358921672,-0.9644139199999999,1.98834805,-3.85527368,,,
imu,56.931039,-0.4928779072000001,-9.7821908912,1.1550330568,-0.77001426,1.96591732,-4.08705789,,,
imu,56.93988,-0.4719425592000001,-9.853969227200002,1.1687905712,-0.56066078,1.86124058,-3.99733497,,,
imu,56.948377,-0.5305615336,-9.842006171200001,1.1741739464,-0.5008455,1.85376367,-3.85527368,,,
imu,56.956874,-0.5317578392000001,-9.876699033600001,1.1986982112,-0.64290679,1.84628676,-3.80293531,,,
imu,56.96537,-0.5251781584,-9.874306422400002,1.1969037528,-0.80739881,2.04816333,-3.88518132,,,
imu,56.973867,-0.5197947832,-9.8144911424,1.18135178,-0.9943215599999999,2.25751681,-3.89265823,,,
imu,56.982363,-0.5329541448,-9.772022293600001,1.1981000584,-1.05413684,2.48182411,-3.81041222,,,
imu,56.99086,-0.5084298800000001,-9.7492924872,1.1759684048,-0.9943215599999999,2.69117759,-3.84031986,,,
imu,56.999357,-0.5108224912,-9.7265626808,1.2244187816,-0.80739881,2.68370068,-4.29641137,,,
imu,57.007853,-0.4851019208000001,-9.715795930400002,1.2339892264,-0.71019898,2.69117759,-4.64034923,,,
imu,57.01635,-0.4946723656000001,-9.767237071200002,1.2435596712,-0.43355331,2.48930102,-5.03662546,,,
imu,57.024846,-0.5413282840000001,-9.745105417600001,1.2453541296,-0.45598404,2.42948574,-4.991764,,,
imu,57.033343,-0.5431227424,-9.746301723200002,1.2698783944,-0.34383039,2.42200883,-4.759979789999999,,,
imu,57.04184,-0.5538894928000001,-9.785779808000001,1.2525319632,-0.13447691,2.55659321,-4.41604193,,,
imu,57.050336,-0.5664507016000001,-9.7606573904,1.2309984624,-0.07466163,2.68370068,-3.95995042,,,
imu,57.058833,-0.5562821040000001,-9.7474980288,1.2214280176,0.10478421,2.49677793,-3.75059694,,,
imu,57.067329,-0.5221873944000001,-9.724768222400002,1.2034834336,0.29170696,2.66126995,-3.51881273,,,
imu,57.075826,-0.5156077136000001,-9.711010708000002,1.1765665576,0.5010604399999999,2.71360832,-3.39918217,,,
imu,57.084323,-0.5150095608,-9.7008421104,1.1532385984,0.8524752099999999,2.65379304,-3.48142818,,,
imu,57.092819,-0.5215892416000001,-9.675719692800001,1.139481084,1.16650543,2.71360832,-3.54124346,,,
imu,57.101316,-0.58319898,-9.70502918,1.1311069448,1.36090509,2.91548489,-3.63096638,,,
imu,57.109812,-0.8104970440000001,-9.768433376800001,1.112564208,1.48053565,3.05754618,-4.012288789999999,,,
imu,57.118309,-0.8559566568000001,-9.803126239200001,1.1251254168,1.58521239,3.5958837,-4.53567249,,,
imu,55.712989,,,,,,,89.49097239999999,4.742466799999989,215.6585136
imu,55.814521,,,,,,,89.02709879999999,5.230754799999993,215.9148648
imu,55.916114,,,,,,,91.6150252,4.266385999999978,214.3645504
imu,56.017676,,,,,,,89.16137799999998,4.937781999999991,216.354324
imu,56.119208,,,,,,,91.480746,3.814719599999994,214.2791
imu,56.220771,,,,,,,88.9050268,5.011025199999986,216.3054952
imu,56.322364,,,,,,,89.08813479999999,5.328412399999993,215.8904504
imu,56.423926,,,,,,,88.5266036,4.913367599999985,216.2688736
imu,57.126806,-0.9325202152000002,-9.803126239200001,1.115554972,1.63007385,5.08378879,-4.909517989999999,,,
imu,57.135302,-0.9504647992000002,-9.848585852000001,1.1173494304,1.63007385,6.95301629,-4.98428709,,,
imu,57.143799,-0.7668318896,-9.907204826400001,1.1053863744,1.55530475,8.530644299999999,-4.93942563,,,
imu,57.152236,-0.7106055264000001,-9.899428840000002,1.0934233184,1.39081273,9.211043109999999,-5.216071299999999,,,
imu,57.160672,-0.6555754688000001,-9.879689797600001,1.115554972,1.18145925,9.56245788,-5.62730135,,,
imu,57.169109,-0.6190881480000001,-9.873110116800001,1.1442663064,1.06182869,9.78676518,-5.33570186,,,
imu,57.177546,-0.6537810104000001,-9.876100880800003,1.1556312096,0.82256757,9.98116484,-4.65530305,,,
imu,57.185983,-0.6495939408000001,-9.808509614400002,1.1556312096,0.56835263,10.04845703,-4.29641137,,,
imu,57.19442,-0.6160973840000001,-9.775611210400001,1.1897259192,0.49358353,10.08584158,-4.20668845,,,
imu,57.202857,-0.5879842024,-9.7492924872,1.1807536272,0.50853735,10.34753343,-4.25154991,,,
imu,57.211293,-0.5377393672000002,-9.742114653600002,1.1849406968,0.59078336,10.33257961,-4.19921154,,,
imu,57.21973,-0.4970649768000001,-9.716992236000001,1.1765665576,0.6132140899999999,10.19799523,-4.33379592,,,
imu,57.228167,-0.4581850448000001,-9.7128051664,1.1909222248,0.71789083,9.9512572,-4.83474889,,,
imu,57.236604,-0.4055475984,-9.702038416,1.1741739464,1.2188438,9.67461153,-5.07401001,,,
imu,57.245041,-0.3959771536000001,-9.690075360000002,1.1801554744,1.55530475,9.26338148,-5.01419473,,,
imu,57.253478,-0.3780325696000001,-9.7265626808,1.2058760448,2.02635008,8.642797949999999,-5.021671639999999,,,
imu,57.261811,-0.3786307224000001,-9.775611210400001,1.1879314608,2.24318047,7.71566111,-5.2908404,,,
imu,57.270248,-0.3487230824000001,-9.7815927384,1.1789591688,2.38524176,7.11750831,-5.20859439,,,
imu,57.278685,-0.34393786,-9.7995373224,1.1909222248,2.6394567,6.422155679999999,-4.73007215,,,
imu,57.287122,-0.3373581792000001,-9.838417254400001,1.1867351552,2.66936434,5.397819009999999,-4.29641137,,,
imu,57.295559,-0.3493212352000001,-9.875502728,1.1711831824,2.52730305,4.410866889999999,-4.11696553,,,
imu,57.303995,-0.4282774048000001,-9.932327244000001,1.1777628632,2.32542648,3.5211146,-3.83284295,,,
imu,57.312432,-0.5544876456000001,-9.9753942456,1.1765665576,2.02635008,2.78837742,-3.40665908,,,
imu,57.320869,-0.6561736216000001,-9.957449661600002,1.172379488,1.58521239,2.73603905,-3.11505959,,,
imu,57.329306,-0.6842868032,-9.8820824088,1.1592201264,1.16650543,3.23699202,-2.87579847,,,
imu,57.337743,-0.6579680800000002,-9.840809865600002,1.1430700008,0.8449983,3.77532954,-3.16739796,,,
imu,57.34618,-0.5538894928000001,-9.811500378400002,1.1167512776,0.80761375,4.31366706,-3.56367419,,,
imu,57.354638,-0.4342589328000001,-9.775611210400001,1.097610388,1.12912088,4.4931129,-3.7206893,,,
imu,57.363097,-0.3905937784,-9.744507264800001,1.079665804,1.25622835,4.15665195,-3.93004278,,,
imu,57.371555,-0.352910152,-9.727160833600001,1.1023956104,1.42072037,3.61831443,-3.88518132,,,
imu,57.380013,-0.3690602776000001,-9.731347903200001,1.1047882216,1.74970441,3.0725,-3.51133582,,,
imu,57.388472,-0.4043512928,-9.743909112,1.1011993048,1.8169966,2.60145467,-3.28702852,,,
imu,57.39693,-0.4193051128000001,-9.793555794400001,1.1149568192,1.89924261,2.50425484,-3.00290594,,,
imu,57.405389,-0.4599795032,-9.812098531200002,1.0910307072,1.77961205,2.3995781,-2.69635263,,,
imu,57.413847,-0.5090280328000001,-9.8234634344,1.103591916,1.53287402,2.19022462,-2.79355246,,,
imu,57.422306,-0.5526931872,-9.860548908000002,1.0868436376,1.22632071,2.324809,-2.95056757,,,
imu,57.430764,-0.5849934384000001,-9.8653341304,1.1017974576,1.0693056,2.70613141,-3.36927453,,,
imu,57.439223,-0.5796100632000001,-9.862343366400001,1.1059845272,0.77770611,3.08745382,-3.83284295,,,
imu,57.447681,-0.5885823552,-9.841408018400001,1.1173494304,0.70293701,3.43886859,-4.22164227,,,
imu,57.45614,-0.5407301312,-9.825257892800002,1.1281161808,0.41133752,3.797760269999999,-4.52819558,,,
imu,57.464598,-0.4982612824000001,-9.8043225448,1.1346958616,0.60573718,4.05945212,-4.58053395,,,
imu,57.473056,-0.4522035168,-9.801929933600002,1.139481084,0.8524752099999999,4.22394414,-4.408565019999999,,,
imu,57.481515,-0.4240903352000001,-9.7911631832,1.1323032504,0.8749059399999999,3.99215993,-4.28893446,,,
imu,57.489973,-0.3684621248000001,-9.789966877600001,1.1215365,1.05435178,3.76785263,-3.93751969,,,
imu,57.498432,-0.3702565832000001,-9.802528086400002,1.1149568192,1.15902852,3.19960747,-3.69078166,,,
imu,57.50689,-0.3965753064,-9.821668976000002,1.1269198752,1.26370526,2.59397776,-3.53376655,,,
imu,57.515349,-0.4139217376000001,-9.827650504000003,1.1287143336,1.2188438,2.14536316,-3.36179762,,,
imu,57.523807,-0.4617739616000001,-9.8330338792,1.1299106392,1.16650543,1.93600968,-3.15992105,,,
imu,57.532266,-0.5132151024,-9.8270523512,1.1209383472,1.02444414,1.86124058,-3.29450543,,,
imu,57.540724,-0.5485061176,-9.8132948368,1.1143586664,0.7253677399999999,1.90610204,-3.496382,,,
imu,57.549183,-0.5443190480000001,-9.803126239200001,1.1071808328,0.58330645,2.08554788,-3.93004278,,,
imu,57.557651,-0.5497024232000001,-9.7995373224,1.109573444,0.6281679099999999,2.33976282,-4.35622665,,,
imu,57.56612,-0.5568802568000001,-9.7959484056,1.1203401944,0.82256757,2.46687029,-4.66277996,,,
imu,57.574588,-0.5736285352000001,-9.793555794400001,1.1167512776,1.02444414,2.64631613,-4.8422258,,,
imu,57.583057,-0.5784137576,-9.800135475200001,1.1161531248,1.09921324,2.73603905,-5.021671639999999,,,
imu,57.591526,-0.565254396,-9.802528086400002,1.1149568192,1.07678251,2.78090051,-5.02914855,,,
imu,57.599994,-0.5449172008000001,-9.802528086400002,1.1119660552,1.0693056,2.73603905,-4.931948719999999,,,
imu,57.608463,-0.5377393672000002,-9.817481906400001,1.1191438888,1.16650543,2.76594669,-4.65530305,,,
imu,57.616932,-0.5676470072,-9.8270523512,1.127518028,1.11416706,2.67622377,-4.49828794,,,
imu,57.6254,-0.5981528,-9.8270523512,1.1311069448,1.09173633,2.67622377,-4.37865738,,,
imu,57.633869,-0.6519865520000001,-9.815687448000002,1.1358921672,0.9945364999999999,2.70613141,-4.41604193,,,
imu,57.642337,-0.6687348304,-9.803724392000001,1.1442663064,0.80761375,2.89305416,-4.46090339,,,
imu,57.650806,-0.6477994824000001,-9.8049206976,1.154434904,0.79265993,3.36409949,-4.68521069,,,
imu,57.659275,-0.6274622872000001,-9.8079114616,1.13649032,0.79265993,3.73794499,-4.89456417,,,
imu,57.667743,-0.6017417168000001,-9.783387196800001,1.127518028,0.78518302,3.93982156,-5.09644074,,,
imu,57.676212,-0.5461135064000001,-9.775611210400001,1.1430700008,0.8749059399999999,3.98468302,-5.11887147,,,
imu,57.684681,-0.5622636320000001,-9.8264541984,1.1239291112,1.0693056,3.81271409,-4.96185636,,,
imu,57.693149,-0.6555754688000001,-9.849184004800001,1.1209383472,1.12912088,3.49868387,-4.58053395,,,
imu,57.701618,-0.8212637944000001,-9.849184004800001,1.130508792,0.9197674,3.36409949,-4.5431494,,,
imu,57.710086,-1.0282246632,-9.836622796,1.1388829312,0.71789083,3.91739083,-4.51324176,,,
imu,57.718555,-1.1789591688,-9.803126239200001,1.1376866256,0.56835263,5.32304991,-4.61044159,,,
imu,57.727024,-1.2902155896,-9.83961356,1.1436681536,0.30666078,7.52126145,-4.80484125,,,
imu,57.735492,-1.3051694096,-9.842604324000002,1.1191438888,0.10478421,10.54193309,-4.63287232,,,
imu,57.743961,-1.2615042552,-9.797742864000002,1.1113679024,0.03749201999999999,13.81681967,-4.49828794,,,
imu,57.75243,-1.2327929208,-9.752283251200002,1.1281161808,0.04496892999999999,16.41878435,-5.01419473,,,
imu,57.761253,-1.2465504352,-9.7474980288,1.139481084,0.28423005,18.72167263,-5.79927028,,,
imu,57.770077,-1.3111509376,-9.766638918400002,1.1508459872,0.47862971,20.93483799,-6.464715269999999,,,
imu,57.7789,-1.3733588288,-9.7636481544,1.1652016544,0.51601426,23.29754155,-7.04043734,,,
imu,57.787724,-1.468465124,-9.805518850400002,1.1657998072,0.45619898,26.07147516,-7.50400576,,,
imu,57.796547,-1.567160336,-9.830641268,1.169388724,0.3889067899999999,29.06971607,-7.758220699999999,,,
imu,57.805371,-1.6724352288,-9.8198745176,1.1837443912,0.15712258,32.58386377,-7.818035979999999,,,
imu,57.814195,-1.6945668824,-9.8013317808,1.18135178,0.01506129,36.57653371,-7.6834516,,,
imu,57.823018,-1.5683566416,-9.776807516000002,1.1616127376,0.05244583999999999,41.04024897999999,-7.474098119999999,,,
imu,57.831842,-1.3231139936,-9.749890640000002,1.1412755424,0.36647606,44.87590381,-7.48157503,,,
imu,57.840665,-0.9552500216000002,-9.711010708000002,1.1053863744,0.63564482,47.54516068,-8.31898895,,,
imu,57.849489,-0.6382290376000002,-9.619493329600001,1.09162886,1.12164397,48.42743606,-9.44800236,,,
imu,57.858312,-0.4049494456000001,-9.5237888816,1.0952177768,1.77213514,48.12835965999999,-10.34523156,,,
imu,57.867136,-0.2590001624000001,-9.4729458936,1.0964140824,2.66936434,46.73017749,-10.50224667,,,
imu,57.875959,-0.2380648144,-9.457393920800001,1.0982085408,3.72360865,44.96562673,-10.31532392,,,
imu,57.884783,-0.275150288,-9.485507102400002,1.1221346528,4.52363802,43.2982758,-9.99381679,,,
imu,57.893607,-0.3056560808,-9.558481744000002,1.1442663064,5.27880593,42.06458565,-8.93209557,,,
imu,57.90243,-0.3236006648,-9.679308609600001,1.1251254168,5.854528,40.97295679,-7.96009727,,,
imu,57.911254,-0.290104108,-9.7744149048,1.1131623608,6.26575805,39.74674355,-7.72831306,,,
imu,57.920077,-0.23926112,-9.789368724800001,1.0898344016,6.35548097,38.44576121,-7.646067049999999,,,
imu,57.928901,-0.1722680064,-9.794752100000002,1.0754787344,6.36295788,36.90551774999999,-7.586251770000001,,,
imu,57.937724,-0.101685976,-9.810902225600001,1.0467674,6.46015771,35.26059755,-7.39932902,,,
imu,56.533201,,,,,,,89.08813479999999,4.962196399999996,215.4509912
imu,56.626921,,,,,,,88.7707476,5.426069999999994,215.6340992
imu,56.728483,,,,,,,88.36791,5.316205199999979,215.866036
imu,56.830198,,,,,,,89.1735852,4.98661079999998,215.0847752
imu,56.931639,,,,,,,88.79516199999999,5.560349199999992,215.5120272
imu,57.033232,,,,,,,91.3830884,4.693637999999978,213.0217584
imu,57.135344,,,,,,,88.8195764,5.84111479999998,215.49982
imu,57.236296,,,,,,,91.26101639999999,4.522737199999982,213.1926592
imu,57.946548,-0.09570444800000001,-9.861147060800002,1.0545433864,6.57978827,33.1296782,-7.37689829,,,
imu,57.955372,-0.1620994088,-9.856959991200002,1.055739692,6.27323496,31.04362031,-7.48157503,,,
imu,57.963843,-0.233279592,-9.8461932408,1.0599267616,6.0788353,29.15943899,-7.26474464,,,
imu,57.972314,-0.3236006648,-9.899428840000002,1.0694972064,5.854528,27.87341047,-6.71893021,,,
imu,57.980785,-0.3744436528,-9.9095974376,1.0671045952,5.56292851,26.7743047,-6.382469260000001,,,
imu,57.989256,-0.3594898328000001,-9.815687448000002,1.037795108,5.17412919,25.8023064,-6.352561619999999,,,
imu,57.997727,-0.3385544848000001,-9.718188541600002,1.0551415392,4.89748352,24.74058518,-6.28526943,,,
imu,58.006199,-0.281131816,-9.706225485600001,1.070693512,5.06197554,23.52932576,-6.25536179,,,
imu,58.01467,-0.2290925224000001,-9.6637566368,1.0694972064,5.42086722,22.31806634,-6.360038530000001,,,
imu,58.023141,-0.161501256,-9.593772759200002,1.0533470808,6.13117367,20.80773052,-6.44976145,,,
imu,58.031612,-0.1459492832,-9.661364025600001,1.067702748,6.95363377,18.85625701,-6.52453055,,,
imu,58.040083,-0.1836329096,-9.714001472000001,1.0599267616,7.67141713,16.85992204,-6.49462291,,,
imu,58.048554,-0.3122357616,-9.8132948368,1.0593286088,8.172370099999998,15.00564836,-6.382469260000001,,,
imu,58.057026,-0.3905937784,-9.905410368000002,1.0665064424,8.07517027,13.4654049,-6.12825432,,,
imu,58.065497,-0.4420349192,-9.895839923200002,1.06172122,7.83590915,12.70276008,-5.44785551,,,
imu,58.073968,-0.505439116,-9.910793743200001,1.0354024968,7.37234073,12.05226891,-5.0665331,,,
imu,58.082439,-0.5138132552000001,-9.9448884528,1.0222431352,6.83400321,11.61860813,-4.86465653,,,
imu,58.09091,-0.5293652280000001,-9.908401132000002,0.9941299536000001,6.20594277,11.03540915,-4.6179185,,,
imu,58.099381,-0.5144114080000001,-9.832435726400002,0.9887465784000001,5.95172783,10.51202545,-4.17678081,,,
imu,58.107853,-0.4689517952000001,-9.797144711200001,0.9773816752000002,5.77228199,9.8764881,-3.95995042,,,
imu,58.116324,-0.4342589328000001,-9.7325442088,0.9379035904000002,5.87695873,8.89701289,-3.91508896,,,
imu,58.124795,-0.4025568344,-9.724768222400002,0.9253423816,6.17603513,7.88015313,-3.9449966,,,
imu,58.133266,-0.4091365152000001,-9.758862932000001,0.8924439776000002,6.57978827,6.74366281,-3.95247351,,,
imu,58.141737,-0.5132151024,-9.8210708232,0.8786864632000002,6.85643394,5.569787939999999,-3.78798149,,,
imu,58.150208,-0.6059287864000001,-9.831837573600001,0.8445917536,6.75923411,4.68003565,-3.62348947,,,
imu,58.15868,-0.681894192,-9.868923047200001,0.8302360864000001,6.70689574,4.40338998,-3.46647436,,,
imu,58.167139,-0.7273538048000001,-9.83961356,0.8762938520000002,6.50501917,4.59778964,-3.17487487,,,
imu,58.175599,-0.7596540560000001,-9.792957641600001,0.8948365888000002,6.13117367,4.61274346,-3.02533667,,,
imu,58.184059,-0.7524762224000001,-9.839015407200002,0.9073977976000001,5.86948182,4.88938913,-2.92813684,,,
imu,58.192519,-0.7034276928000001,-9.8234634344,0.8882569080000001,5.48815941,4.97163514,-2.92813684,,,
imu,58.200978,-0.6926609424000001,-9.783387196800001,0.8577511152000001,5.52554396,5.22585008,-2.94309066,,,
imu,58.209438,-0.6753145112000001,-9.807313308800001,0.8356194616000001,5.7797589,5.14360407,-2.99542903,,,
imu,58.217898,-0.6406216488000002,-9.836024643200002,0.7722152648000001,5.81714345,4.94920441,-3.13749032,,,
imu,58.226357,-0.6119103144000001,-9.8479876992,0.7596540560000001,6.05640457,4.53797436,-3.1973056,,,
imu,58.234817,-0.5921712720000001,-9.806715156000001,0.744700236,6.18351204,4.0444983,-3.33188998,,,
imu,58.243277,-0.5987509528,-9.8264541984,0.7243630408,6.31061951,3.4463455,-3.33188998,,,
imu,58.251737,-0.6154992312,-9.883876867200001,0.6968480120000001,6.42277316,2.94539253,-2.92065993,,,
imu,58.260196,-0.666940372,-9.919167882400002,0.7177833600000001,6.34052715,2.61640849,-2.47204533,,,
imu,58.268656,-0.6902683312000001,-9.9131863544,0.7339334856000002,6.08631221,2.51173175,-1.99352309,,,
imu,58.277116,-0.6902683312000001,-9.9401032304,0.7249611936,5.68255907,2.60893158,-1.65706214,,,
imu,58.285576,-0.7034276928000001,-9.9753942456,0.7004369288000002,5.39095958,2.69117759,-1.29817046,,,
imu,58.294035,-0.6693329832000001,-9.9550570504,0.6950535536000001,4.84514515,2.9229618,-1.24583209,,,
imu,58.302495,-0.6041343280000001,-9.897036228800001,0.6932590952000001,4.5834533,3.08745382,-1.253309,,,
imu,58.310955,-0.5664507016000001,-9.9137845072,0.6699311360000001,4.38157673,2.9229618,-1.64958523,,,
imu,58.319414,-0.5030465048,-9.9550570504,0.6615569968000001,4.21708471,2.55659321,-1.96361545,,,
imu,58.327874,-0.4533998224,-9.893447312000001,0.6382290376000002,4.07502342,2.04068642,-2.41970696,,,
imu,58.336334,-0.400762376,-9.9000269928,0.6226770648,4.11240797,1.58459491,-2.70382954,,,
imu,58.344794,-0.382817792,-9.872511964000001,0.6089195504,3.90305449,0.7995193599999997,-3.03281358,,,
imu,58.353169,-0.4378478496000001,-9.860548908000002,0.6083213976,3.78342393,0.07425908999999997,-3.21225942,,,
imu,58.361628,-0.5018501992000001,-9.870717505600002,0.6089195504,3.74603938,-0.4042631500000002,-3.09262886,,,
imu,58.370097,-0.5957601888000001,-9.926345716,0.6143029256000001,3.55911663,-0.6435242699999999,-2.83841392,,,
imu,58.378566,-0.6400234960000001,-9.938906924800001,0.6059287864000001,3.14788658,-0.4715553400000001,-2.49447606,,,
imu,58.387034,-0.6352382736000001,-9.938308772000001,0.5909749664,2.84133327,-0.2248173100000002,-2.49447606,,,
imu,58.395503,-0.6340419680000001,-9.9401032304,0.5903768136,2.63197979,0.01444380999999995,-2.58419898,,,
imu,58.403971,-0.6107140088,-9.9299346328,0.5933675776,2.37028794,0.2088434699999997,-2.89075229,,,
imu,58.41244,-0.5694414656000001,-9.9197660352,0.5909749664,2.31047266,0.3509047599999997,-2.98795212,,,
imu,58.420909,-0.5449172008000001,-9.899428840000002,0.5796100632000001,2.19831901,0.2836125699999998,-2.98795212,,,
imu,58.429377,-0.5138132552000001,-9.8647359776,0.5664507016000001,2.07868845,0.06678217999999969,-2.93561375,,,
imu,58.437846,-0.5084298800000001,-9.887465784000002,0.5778156048000002,1.94410407,-0.0005100100000001717,-2.83841392,,,
imu,58.446315,-0.4922797544,-9.876100880800003,0.5592728680000001,1.80204278,-0.3369709599999999,-2.99542903,,,
imu,58.454783,-0.4809148512,-9.841408018400001,0.5586747152,1.63755076,-0.71829337,-3.10010577,,,
imu,58.463252,-0.5120187968000001,-9.862343366400001,0.56824516,1.62259694,-0.86035466,-2.8982292,,,
imu,58.47172,-0.5185984776000001,-9.896438076,0.5491042704000001,1.33847436,-1.30896926,-2.86832156,,,
imu,58.480189,-0.5742266880000001,-9.902419604000002,0.5849934384000001,1.28613599,-1.39121527,-2.46456842,,,
imu,58.488658,-0.6220789120000001,-9.922158646400002,0.6005454112,1.18145925,-1.16690797,-2.17296893,,,
imu,58.497126,-0.6430142600000001,-9.954458897600002,0.5808063688,0.8823828499999999,-0.90521612,-2.31503022,,,
imu,58.505595,-0.6573699272000001,-9.974197940000002,0.5891805080000001,0.620691,-0.4715553400000001,-2.66644499,,,
imu,58.514064,-0.6298548984000001,-9.9078029792,0.5957601888000001,0.45619898,0.13407437,-3.01038285,,,
imu,58.522532,-0.6184899952000001,-9.848585852000001,0.5999472584000001,0.16459949,0.6275504299999999,-3.31693616,,,
imu,58.531001,-0.5634599376000001,-9.861147060800002,0.6095177032000001,-0.02232326000000001,0.7172733499999997,-3.72816621,,,
imu,58.539469,-0.5000557408,-9.874306422400002,0.6101158560000001,0.0001074699999999984,0.9939190199999999,-4.034719519999999,,,
imu,58.547938,-0.4773259344000001,-9.8850731728,0.6190881480000001,-0.08213854000000001,0.9415806499999997,-4.28145755,,,
imu,58.556407,-0.4288755576000001,-9.8850731728,0.6418179544000001,-0.3513073,0.4555814999999996,-4.61044159,,,
imu,58.564875,-0.4210995712,-9.866530436000001,0.6789034280000001,-0.54570696,-0.0603252900000002,-4.56558013,,,
imu,58.573341,-0.4486146000000001,-9.897036228800001,0.7082129152000001,-0.82982954,-0.7706317400000002,-4.49828794,,,
imu,58.581808,-0.4713444064,-9.917373424,0.7189796656000002,-0.92702937,-1.3388769,-4.079580979999999,,,
imu,58.590274,-0.5885823552,-9.926345716,0.7500836112000001,-0.93450628,-1.60804566,-3.68330475,,,
imu,58.59874,-0.6615569968000001,-9.920962340800001,0.7620466672,-1.45041307,-1.77253768,-3.24964397,,,
imu,58.607206,-0.6370327320000001,-9.9066066736,0.7548688336000001,-1.59995127,-1.32392308,-2.68139881,,,
imu,58.615672,-0.6495939408000001,-9.882680561600003,0.7303445688000001,-1.73453565,-0.9201699400000001,-2.71878336,,,
imu,58.624138,-0.6113121616,-9.80970592,0.7303445688000001,-1.88407385,-0.4640784300000003,-3.13749032,,,
imu,58.632604,-0.5790119104,-9.746301723200002,0.723764888,-1.70462801,-0.2248173100000002,-3.60105874,,,
imu,58.64107,-0.5700396184000001,-9.7074217912,0.7165870544000001,-1.29339796,-0.1650020300000001,-4.04219643,,,
imu,58.649536,-0.5347486032000001,-9.663158484000002,0.6902683312000001,-1.00179847,-0.2771556799999999,-4.47585721,,,
imu,58.658002,-0.5263744640000001,-9.6075302736,0.6932590952000001,-0.59056842,-0.4416477000000003,-4.84970271,,,
imu,58.666468,-0.4958686712000001,-9.602146898400001,0.7165870544000001,0.01506129,-0.8753084800000002,-5.23102512,,,
imu,58.674934,-0.4874945320000001,-9.661364025600001,0.7333353328000001,0.58330645,-1.15943106,-5.23102512,,,
imu,58.683401,-0.5072335744,-9.678710456800001,0.7159889016000002,0.9347212199999999,-1.73515313,-5.20111748,,,
imu,58.691867,-0.5138132552000001,-9.708019944000002,0.7261574992000001,1.30108981,-2.26601374,-5.00671782,,,
imu,58.700333,-0.5317578392000001,-9.758862932000001,0.7381205552000002,1.7422275,-2.74453598,-4.647826139999999,,,
imu,58.708799,-0.5760211464000001,-9.819276364800002,0.7357279440000001,2.06373463,-3.10342766,-4.23659609,,,
imu,58.717265,-0.6190881480000001,-9.861147060800002,0.7231667352000001,2.02635008,-3.3576426,-3.8702275,,,
imu,58.725731,-0.6400234960000001,-9.889858395200001,0.7094092208000001,1.75718132,-3.47727316,-3.71321239,,,
imu,58.734197,-0.6268641344,-9.885671325600002,0.7213722768,1.60764312,-3.55204226,-3.48890509,,,
imu,58.742663,-0.6268641344,-9.9030177568,0.6974461648000001,1.46558183,-3.43988861,-3.29450543,,,
imu,58.751129,-0.601143564,-9.8850731728,0.6824923448,1.22632071,-3.5071808,-3.41413599,,,
imu,57.338072,,,,,,,87.39133400000001,5.426069999999994,215.1458112
imu,57.439421,,,,,,,87.4401628,5.609177999999981,214.5598656
imu,57.541014,,,,,,,87.62327080000001,5.511520399999981,214.9627032
imu,57.642546,,,,,,,87.5378204,5.914357999999997,214.828424
imu,57.744291,,,,,,,87.15939720000002,5.487105999999997,214.1326136
imu,57.845701,,,,,,,86.53683000000001,5.658006799999993,213.9006768
imu,57.947264,,,,,,,83.7535884,5.523727599999995,212.14284
imu,58.048918,,,,,,,84.9132724,4.449493999999987,210.4582464
imu,58.759595,-0.5341504504000001,-9.8527729216,0.7004369288000002,1.12164397,-3.49222698,-3.45899745,,,
imu,58.768061,-0.4528016696000001,-9.861147060800002,0.6908664840000001,1.09921324,-3.84364175,-3.66835093,,,
imu,58.776876,-0.311039456,-9.895839923200002,0.6896701784000001,0.9048135799999999,-4.52404056,-3.73564312,,,
imu,58.78569,-0.1776513816,-9.926345716,0.6902683312000001,0.9272443100000001,-5.555854139999999,-3.75807385,,,
imu,58.794504,0.003588916800000001,-9.8234634344,0.646005024,0.7403215599999999,-7.372743269999999,-3.84031986,,,
imu,58.803318,-0.004187069600000001,-9.859950755200002,0.6519865520000001,0.88985976,-9.85507739,-4.33379592,,,
imu,58.812133,-0.1991848824,-9.917971576800003,0.6795015808000001,0.8749059399999999,-12.2551655,-4.35622665,,,
imu,58.820947,-0.367863972,-9.949075522400001,0.7530743752000001,0.3216146,-13.57857857,-3.69078166,,,
imu,58.829761,-0.3899956256000001,-10.00410558,0.7614485144,-0.2017691,-14.08700845,-2.72626027,,,
imu,58.838576,-0.3367600264,-10.0268353864,0.7189796656000002,-0.73262971,-14.39356176,-2.35989168,,,
imu,58.84739,-0.305057928,-10.031022456,0.7064184568,-1.27096723,-15.13377585,-2.68887572,,,
imu,58.856204,-0.2506260232,-10.0088908024,0.6860812616,-1.70462801,-15.75435938,-3.16739796,,,
imu,58.865018,-0.1908107432,-9.959842272800001,0.6633514552,-2.1457657,-16.68149622,-3.36179762,,,
imu,58.873833,-0.1309954632,-9.935318008000001,0.6436124128,-2.36259609,-17.88527873,-3.45152054,,,
imu,58.882647,-0.09869521200000002,-9.900625145600001,0.6244715232,-2.370073,-19.5077682,-3.47395127,,,
imu,58.891461,-0.1070693512,-9.834828337600001,0.6202844536000002,-2.31025772,-21.12278076,-3.33936689,,,
imu,58.900275,-0.0741709472,-9.737329431200001,0.6154992312,-2.13828879,-22.7976086,-3.13001341,,,
imu,58.90909,-0.1040785872,-9.7265626808,0.6406216488000002,-2.02613514,-24.58459009,-3.04029049,,,
imu,58.917904,-0.1782495344,-9.759461084800002,0.6382290376000002,-1.75696638,-26.32671012,-2.66644499,,,
imu,58.926718,-0.2799355104,-9.7995373224,0.6412198016000001,-1.57752054,-27.62021555,-2.04586146,,,
imu,58.935533,-0.3690602776000001,-9.819276364800002,0.6376308848000001,-1.37564397,-28.50996784,-1.51500085,,,
imu,58.944347,-0.439642308,-9.85456738,0.6531828576,-1.5476129,-28.98101317,-1.36546265,,,
imu,58.953161,-0.5233837000000001,-9.866530436000001,0.6436124128,-1.51770526,-29.05578227,-1.22340136,,,
imu,58.961975,-0.5826008272000001,-9.863539672000002,0.6436124128,-1.83173548,-29.13055137,-1.57481613,,,
imu,58.97079,-0.6800997336000001,-9.880886103200002,0.6334438152,-2.0709966,-28.81652115,-1.95613854,,,
imu,58.979279,-0.7524762224000001,-9.8778953392,0.6370327320000001,-2.19062716,-28.11369161,-2.30755331,,,
imu,58.987768,-0.8164785720000002,-9.881484256,0.6477994824000001,-2.5196112,-27.31366224,-2.53186061,,,
imu,58.996257,-0.8475825176000001,-9.8563618384,0.6400234960000001,-2.76634923,-26.02015681,-2.62906044,,,
imu,59.004746,-0.8469843648000001,-9.843800629600002,0.6501920936000001,-2.97570271,-24.92852795,-2.88327538,,,
imu,59.013235,-0.8392083784000002,-9.83961356,0.6621551496,-3.02056417,-23.90419128,-3.30945925,,,
imu,59.021723,-0.8469843648000001,-9.828846809600002,0.6675385248000001,-2.99813344,-23.1714541,-3.84779677,,,
imu,59.030212,-0.8481806704000001,-9.802528086400002,0.6860812616,-2.77382614,-22.37890164,-4.18425772,,,
imu,59.038701,-0.8439936008000001,-9.763050001600002,0.6968480120000001,-2.57942648,-21.59382609,-4.3936112,,,
imu,59.04719,-0.8577511152000001,-9.756470320800002,0.7129981376000001,-2.34764227,-20.81622745,-4.41604193,,,
imu,59.055679,-0.8505732816000001,-9.7989391696,0.7405131664000002,-2.01865823,-19.90404443,-4.21416536,,,
imu,59.064168,-0.8511714344000001,-9.772022293600001,0.7399150136000001,-2.00370441,-18.89466158,-4.42351884,,,
imu,59.072657,-0.8768920048000002,-9.7534795568,0.7662337368000001,-1.83173548,-18.05724766,-4.46090339,,,
imu,59.081146,-0.8774901576000002,-9.7612555432,0.7752060288000001,-1.51770526,-17.16001846,-4.29641137,,,
imu,59.089635,-0.8798827688,-9.8013317808,0.8033192104000001,-1.22610577,-16.30765072,-4.37118047,,,
imu,59.098124,-0.8906495192000001,-9.835426490400001,0.8278434752000001,-1.18124431,-15.45528298,-4.49828794,,,
imu,59.106613,-0.9193608536000001,-9.860548908000002,0.8535640456000001,-1.25601341,-14.58048451,-4.82727198,,,
imu,59.115102,-0.9552500216000002,-9.879689797600001,0.8499751288000001,-1.46536689,-13.72811677,-5.14877911,,,
imu,59.123591,-0.9552500216000002,-9.895839923200002,0.8475825176000001,-1.65976655,-12.68882628,-5.42542478,,,
imu,59.13208,-0.9600352440000001,-9.915578965600002,0.8798827688,-1.83921239,-11.52990523,-5.72450118,,,
imu,59.140569,-0.9373054376000002,-9.908401132000002,0.8948365888000002,-2.02613514,-10.52052238,-5.90394702,,,
imu,59.149058,-0.8888550608000001,-9.894045464800001,0.8918458248000001,-2.25791935,-9.75040065,-6.0385314,,,
imu,59.157547,-0.8499751288000001,-9.858754449600001,0.8936402832000001,-2.63924176,-9.1148633,-6.247884879999999,,,
imu,59.166036,-0.7931506128000001,-9.8144911424,0.8984255056000002,-2.73644159,-8.59895651,-6.16563887,,,
imu,59.174525,-0.7339334856000002,-9.802528086400002,0.9050051864,-2.78130305,-8.26997247,-5.90394702,,,
imu,59.182978,-0.7249611936,-9.7815927384,0.9050051864,-2.76634923,-8.26997247,-5.84413174,,,
imu,59.191432,-0.7375224024000001,-9.7492924872,0.9103885616000001,-2.5196112,-8.32231084,-5.806747189999999,,,
imu,59.199885,-0.7512799168000001,-9.734338667200001,0.9295294512000001,-2.08595042,-8.41951067,-5.67963972,,,
imu,59.208338,-0.7787949456000002,-9.708019944000002,0.9217534648000001,-1.90650458,-8.27744938,-5.59739371,,,
imu,59.216792,-0.8236564056000001,-9.7295534448,0.9109867144000001,-1.6971511,-8.09052663,-5.3656095,,,
imu,59.225245,-0.8559566568000001,-9.7612555432,0.9157719368000001,-1.45041307,-7.67181967,-5.29831731,,,
imu,59.233699,-0.9050051864,-9.777405668800002,0.9175663952000002,-1.33825942,-7.327881809999999,-5.34317877,,,
imu,59.242152,-0.9301276040000002,-9.796546558400001,0.9223516176000001,-1.44293616,-6.70729828,-5.24597894,,,
imu,59.250605,-0.9588389384,-9.8043225448,0.9229497704,-1.22610577,-6.086714750000001,-4.73007215,,,
imu,59.259059,-0.9785779808,-9.806715156000001,0.9157719368000001,-1.41302852,-5.226870099999999,-4.56558013,,,
imu,59.267512,-0.9785779808,-9.8061170032,0.9223516176000001,-1.45041307,-4.29973326,-4.318842099999999,,,
imu,59.275965,-0.9480721880000001,-9.803126239200001,0.9301276040000002,-1.23358268,-3.46231934,-4.079580979999999,,,
imu,59.284419,-0.8996218112000001,-9.789368724800001,0.9594370912000001,-1.30087487,-2.67724379,-4.034719519999999,,,
imu,58.150254,,,,,,,82.43521080000001,4.669223599999994,212.1672544
imu,58.251817,,,,,,,84.88885800000001,3.961205999999984,209.9211296
imu,58.353379,,,,,,,82.142238,4.571565999999994,212.7409928
imu,58.454942,,,,,,,82.1544452,4.449493999999987,212.4602272
imu,58.556535,,,,,,,82.691562,4.376250799999992,212.4846416
imu,58.658067,,,,,,,82.5816972,4.205349999999997,212.7043712
imu,58.759751,,,,,,,82.59390440000001,4.461701199999979,212.8508576
imu,58.861192,,,,,,,82.9723276,4.119899599999988,213.4123888
imu,58.962785,,,,,,,84.99872280000001,4.156521199999985,213.6321184
imu,59.064408,,,,,,,85.0353444,4.010034799999995,215.0969824
imu,59.165879,,,,,,,88.28245960000001,3.900169999999981,213.0827944
imu,59.267564,,,,,,,86.1828212,4.449493999999987,215.3289192
