Type,Timestamp,Data Accelerometer X,Data Accelerometer Y,Data Accelerometer Z,Data Gyroscope X,Data Gyroscope Y,Data Gyroscope Z,Data Magnetometer X,Data Magnetometer Y,Data Magnetometer Z
imu,177.84422,-2.0773846744,-10.0118815664,0.9899428840000002,4.25446926,22.512466,-8.37880423,,,
imu,177.852703,-2.5140362184,-9.980179468000001,0.9337165208000001,3.43200916,29.30897719,-9.1040645,,,
imu,177.861186,-3.0188771816,-9.990348065600001,0.8655271016000001,2.72170271,38.07191571,-10.15830881,,,
imu,177.869668,-3.1444892696,-9.925747563200002,0.7991321408000002,1.95158098,48.26294403999999,-11.85556738,,,
imu,177.878151,-3.1008241152,-9.8527729216,0.8218619472,1.03192105,59.41101685,-14.42762442,,,
imu,177.886633,-2.933939484000001,-9.787574266400002,0.8278434752000001,0.8749059399999999,70.24505944,-17.65764954,,,
imu,177.895116,-2.67673378,-9.817481906400001,0.7548688336000001,1.02444414,79.66596604,-21.17179724,,,
imu,177.903599,-2.3938075056,-9.83961356,0.6944554008000001,1.31604363,87.52419845,-24.43920691,,,
imu,177.912081,-2.1814632616,-9.809107767200002,0.6633514552,1.57025857,94.02911015000001,-26.83929502,,,
imu,177.920564,-1.9284446272,-9.819276364800002,0.6986424704000002,1.84690424,100.18260708,-28.05055444,,,
imu,177.929047,-1.728661592,-9.7821908912,0.6394253432000001,2.116073,105.34915189,-28.34215393,,,
imu,177.937529,-1.5378508488,-9.710412555200001,0.5706377712,2.36281103,109.7680057,-28.170185,,,
imu,177.946012,-1.289019284,-9.711608860800002,0.5347486032000001,2.87124091,113.36439941,-28.00569298,,,
imu,177.954494,-0.9492684936000001,-9.767835224,0.4779240872000001,3.43200916,116.1981483,-27.66923203,,,
imu,177.962977,-0.6442105656,-9.7427128064,0.4653628784000001,3.89557758,117.64866884,-27.37763254,,,
imu,177.97146,-0.3612842912,-9.722973764,0.5299633808,4.55354566,117.89540687,-27.05612541,,,
imu,177.979942,-0.0747691,-9.758862932000001,0.5999472584000001,5.31619048,117.0206084,-26.50283407,,,
imu,177.988425,0.2278962168,-9.758862932000001,0.6358364264000002,5.839574180000001,114.83735068,-25.38877448,,,
imu,177.996907,0.4665591840000001,-9.7163940832,0.6412198016000001,6.42277316,111.487695,-24.05040759,,,
imu,178.00539,0.5957601888000001,-9.7427128064,0.7458965416000001,7.2751409,107.3753945,-22.30081065,,,
imu,178.013873,0.5885823552,-9.883876867200001,0.8063099744000001,7.81347842,102.56774137,-20.28204495,,,
imu,178.022355,0.4803166984,-9.891054700800002,0.780589404,7.80600151,97.67784223,-17.62026499,,,
imu,178.030838,0.3762381112000001,-9.862343366400001,0.7698226536000001,7.55926348,93.07206567,-15.22765379,,,
imu,178.039321,0.2835244272,-9.886867631200001,0.7668318896,7.34991,88.95228826,-13.12664208,,,
imu,178.04779,0.2189239248,-9.9724034816,0.7775986400000001,7.08074124,85.02691051000001,-11.45929115,,,
imu,178.05626,0.2237091472,-9.8647359776,0.7297464160000001,6.43025007,81.31088624,-10.40504684,,,
imu,178.06473,0.13458438,-9.797742864000002,0.7692245008,6.33305024,77.72196944000001,-10.21064718,,,
imu,178.0732,0.0161501256,-9.818080059200001,0.7638411256000001,6.57231136,74.18539101,-10.29289319,,,
imu,178.08167,-0.09989151760000002,-9.8210708232,0.7620466672,6.70689574,71.10490409,-10.49476976,,,
imu,178.09014,-0.1603049504,-9.8049206976,0.7829820152,7.02092596,68.78706199,-10.56953886,,,
imu,178.09861,-0.2009793408,-9.858754449600001,0.7931506128000001,7.2003718,66.64118882,-10.23307791,,,
imu,178.10708,-0.2889078024000001,-9.9616367312,0.7853746264000001,7.48449438,64.43550037,-9.49286382,,,
imu,178.11555,-0.4163143488000001,-9.9915443712,0.7799912512000001,7.34991,62.31953484,-8.84237265,,,
imu,178.12402,-0.6717255944000001,-9.997525899200001,0.780589404,6.96858759,60.26338458999999,-8.5806808,,,
imu,178.132489,-0.9008181168,-9.998124052,0.7482891528000001,6.31061951,59.12689426999999,-8.371327319999999,,,
imu,178.140959,-1.0748805816,-9.9586459672,0.7315408744,5.64517452,58.91006388,-8.0572971,,,
imu,178.149429,-1.0772731928,-9.839015407200002,0.7261574992000001,5.14422155,59.75495471,-7.6834516,,,
imu,178.157899,-0.8649289488,-9.734936820000001,0.7596540560000001,5.00963717,60.59984554,-7.623636319999999,,,
imu,178.166369,-0.6932590952000001,-9.606333968000001,0.7482891528000001,5.56292851,60.94378339999999,-7.511482669999999,,,
imu,178.174839,-0.5335522976000001,-9.599754287200001,0.7620466672,6.54988063,60.65218391,-6.920806779999999,,,
imu,178.183309,-0.3750418056000001,-9.648802816800002,0.7943469184000002,7.66394022,59.53812431999999,-6.397423079999999,,,
imu,178.191779,-0.4127254320000001,-9.850978463200002,0.8362176144000002,8.38172358,57.80348119999999,-5.874039379999999,,,
imu,178.200249,-0.5245800056000001,-10.0304243032,0.7979358352000001,8.41910813,55.87443842,-5.328224949999999,,,
imu,178.208719,-0.6316493568000001,-10.0316206088,0.780589404,7.5742173,54.34914878,-4.50576485,,,
imu,178.217188,-0.6872775672000001,-10.0214520112,0.7596540560000001,6.71437265,53.27995065,-3.4216129,,,
imu,178.225658,-0.6412198016000001,-10.0076944968,0.6944554008000001,5.92182019,52.45001363999999,-2.3748455,,,
imu,178.234128,-0.5275707696,-9.887465784000002,0.6747163584000001,5.08440627,51.58269207999999,-1.67949287,,,
imu,178.242598,-0.3726491944000001,-9.8043225448,0.6950535536000001,4.50120729,50.30414047,-1.49257012,,,
imu,178.251057,-0.167482784,-9.738525736800002,0.70282954,4.47129965,48.65174336,-1.51500085,,,
imu,178.259515,-0.1626975616,-9.6817012208,0.7189796656000002,4.93486807,46.3638089,-1.41032411,,,
imu,178.267974,-0.2566075512,-9.731347903200001,0.741709472,5.71246671,43.92633624,-1.18601681,,,
imu,178.276432,-0.3271895816000001,-9.808509614400002,0.7668318896,6.16855822,41.88513981,-0.8719865899999999,,,
imu,178.28489,-0.406743904,-9.923354952,0.7835801680000001,6.46015771,40.37480399,-0.6775869299999999,,,
imu,178.293349,-0.4533998224,-9.9969277464,0.7476910000000001,6.54240372,38.95419108999999,-0.3112183399999999,,,
imu,178.301807,-0.4330626272,-9.960440425600002,0.7369242496000001,6.08631221,37.71302403,0.1673038999999998,,,
imu,178.310266,-0.3780325696000001,-9.9365143136,0.7345316384000001,5.58535924,36.62139517,0.6906876,,,
imu,178.318724,-0.3564990688,-9.9101955904,0.7303445688000001,5.49563632,35.49238176,0.9299487200000001,,,
imu,178.327183,-0.4378478496000001,-9.806715156000001,0.6986424704000002,5.32366739,34.15401487,1.29631731,,,
imu,178.335641,-0.4707462536000001,-9.739722042400002,0.7291482632,5.27132902,32.87546326,1.39351714,,,
imu,178.3441,-0.4402404608,-9.794153947200002,0.7387187080000002,5.61526688,32.06795698,1.46080933,,,
imu,178.352558,-0.3547046104000001,-9.746899876,0.7165870544000001,5.86200491,31.29783525,1.75988573,,,
imu,178.361017,-0.2763465936,-9.638634219200002,0.6753145112000001,6.34800406,30.26602167,1.95428539,,,
imu,178.369475,-0.227298064,-9.678710456800001,0.6597625384000001,7.22280253,29.05476225,2.52253055,,,
imu,178.377933,-0.131593616,-9.885671325600002,0.6537810104000001,7.933108979999999,27.70144154,3.33751374,,,
imu,178.386392,-0.1698753952,-9.9933388296,0.6448087184,8.06769336,26.31821319,4.010435640000001,,,
imu,178.39485,-0.2895059552,-10.0603319432,0.6777071224000001,7.51440202,24.89012338,4.4291426,,,
imu,178.403309,-0.385808556,-10.1201472232,0.684884956,6.48258844,23.86578671,4.645972990000001,,,
imu,178.411767,-0.5431227424,-10.0752857632,0.646005024,5.29375975,23.60409486,5.04224922,,,
imu,178.420226,-0.6376308848000001,-9.9514681336,0.6477994824000001,4.10493106,23.85083289,5.10954141,,,
imu,178.428684,-0.5897786608000001,-9.8527729216,0.6789034280000001,3.40957843,24.61347771,4.750649729999999,,,
imu,178.437143,-0.4539979752000001,-9.791761336000002,0.6866794144,3.32733242,25.60790674,4.533819339999999,,,
imu,178.445601,-0.3241988176,-9.690075360000002,0.6759126640000002,3.79090084,26.22849027,4.90018793,,,
imu,178.454061,-0.16449202,-9.605735815200001,0.6759126640000002,4.44139201,26.27335173,4.997387760000001,,,
imu,178.462521,-0.0317020984,-9.7151977776,0.7147925960000001,5.45077486,25.6527682,4.74317282,,,
imu,178.47098,0.0161501256,-9.922756799200002,0.6884738728,6.2283735,24.69572372,4.58615771,,,
imu,178.47944,-0.0251224176,-9.999320357600002,0.6172936896000001,6.21341968,23.43960284,4.511388609999999,,,
imu,178.4879,-0.1100601152,-10.0358076784,0.6035361752000001,5.51059014,22.27320488,4.361850410000001,,,
imu,178.496359,-0.0813487808,-10.0328169144,0.5604691736,4.62831476,21.53299079,4.45157333,,,
imu,178.504819,-0.0526374464,-10.0053018856,0.5281689224000001,3.73856247,21.21896057,4.6534499,,,
imu,178.513279,0.03947808480000001,-9.937710619200002,0.505439116,3.08059439,20.92736108,4.690834450000001,,,
imu,178.521739,0.1609031032,-9.855165532800001,0.5060372688000001,2.45253395,20.33668519,4.331942769999999,,,
imu,178.530143,0.2787392048,-9.751685098400001,0.5305615336,2.43758013,19.21514869,4.00295873,,,
imu,178.538603,0.3684621248000001,-9.6703363176,0.5485061176,2.75908726,17.63752068,3.59172868,,,
imu,178.547063,0.4324644744,-9.676915998400002,0.56824516,3.29742478,15.67109335,2.95619133,,,
imu,178.555522,0.4641665728000001,-9.744507264800001,0.5754229936,4.05259269,13.81681967,2.69449948,,,
imu,178.563982,0.4492127528000001,-9.8402117128,0.6095177032000001,4.53859184,11.69337723,2.62720729,,,
imu,178.572442,0.3977716120000001,-10.0675097768,0.6364345792000001,4.59840712,9.71947299,2.52253055,,,
imu,178.580902,0.3744436528,-10.1943181704,0.5718340768000001,3.86566994,8.01473751,2.47019218,,,
imu,178.589361,0.3146283728000001,-10.1392881128,0.5592728680000001,2.82637945,6.66889371,2.28326943,,,
imu,178.597821,0.3313766512,-10.0597337904,0.5461135064000001,1.72727368,5.59969558,1.83465483,,,
imu,178.606281,0.3188154424,-10.0190594,0.517402172,0.74779847,4.88191222,1.37108641,,,
imu,178.61474,0.3068523864000001,-9.8982325344,0.5066354216000001,0.09730729999999999,4.01459066,0.7804105200000002,,,
imu,178.6232,0.296085636,-9.8264541984,0.5479079648000001,-0.19429219,3.13979219,-0.1392494099999999,,,
imu,178.63166,0.2500278704,-9.801929933600002,0.5760211464000001,-0.17186146,2.33976282,-1.20844754,,,
imu,178.64012,0.2051664104,-9.719983000000001,0.5873860496000001,0.08235347999999998,1.7266562,-2.06829219,,,
imu,178.648579,0.1686790896,-9.669140012000002,0.5999472584000001,0.64312173,1.31542615,-2.62906044,,,
imu,178.657396,0.1818384512,-9.8049206976,0.6262659816,1.30856672,1.02382666,-2.83093701,,,
imu,178.666213,0.1782495344,-10.00410558,0.6358364264000002,1.63755076,0.8892422799999999,-2.83841392,,,
imu,178.67503,0.152528964,-9.970609023200002,0.6029380224,1.13659779,0.8144731799999998,-2.74121409,,,
imu,178.683847,0.1262102408,-9.977188704000001,0.5879842024,0.7552753799999999,0.8294269999999999,-2.50195297,,,
imu,178.692664,0.1866236736,-10.0453781232,0.5622636320000001,0.31413769,0.6873657099999999,-2.29259949,,,
imu,178.701481,0.2763465936,-10.0232464696,0.5568802568000001,-0.24663056,0.70231953,-2.0757691,,,
imu,178.710298,0.3690602776000001,-9.9580478144,0.5556839512000001,-0.83730645,0.27613566,-2.50942988,,,
imu,178.719115,0.4892889904,-9.892849159200003,0.5568802568000001,-1.00927538,-0.6136166300000001,-3.13001341,,,
imu,178.727932,0.6340419680000001,-9.820472670400001,0.5730303824,-0.95693701,-1.75758386,-3.89265823,,,
imu,178.736749,0.8481806704000001,-9.8061170032,0.5885823552,-0.77749117,-3.5819499,-4.80484125,,,
imu,178.745566,1.043776636,-9.8713156584,0.61310662,-0.5681376899999999,-5.95960728,-5.88151629,,,
imu,178.754383,1.2058760448,-10.0884451248,0.6543791632000001,-0.60552224,-9.24197077,-6.689022570000001,,,
imu,178.763199,1.3572087032,-10.3253136336,0.6298548984000001,-1.30835178,-13.31688672,-7.361944469999999,,,
imu,178.772016,1.4433427064,-10.3217247168,0.5724322296000001,-2.94579507,-17.75817126,-7.72831306,,,
imu,178.780833,1.486409708,-10.2571242144,0.5479079648000001,-4.560807629999999,-22.63311658,-7.997481819999999,,,
imu,178.78965,1.5593843496,-10.2296091856,0.4958686712000001,-5.906651429999999,-27.53796954,-7.89280508,,,
imu,178.798467,1.6467146584,-10.12373614,0.4061457512000001,-7.28987978,-32.68956053,-7.81055907,,,
imu,178.807284,1.6042458096,-10.0202557056,0.4276792520000001,-7.95532477,-37.84115152,-7.339513739999999,,,
imu,178.816101,1.564169572,-9.851576616000001,0.3792288752000001,-8.08990915,-43.37406492,-7.09277571,,,
imu,178.824918,1.31593616,-9.824061587200001,0.3594898328000001,-7.69363292,-48.8172554,-6.771268579999999,,,
imu,178.833735,1.1107697496,-9.9239531048,0.3493212352000001,-7.282402869999999,-53.88660038,-6.0385314,,,
imu,178.842552,0.9582407856000001,-10.0573411792,0.2924967192,-7.22258759,-58.41013093,-5.24597894,,,
imu,178.851369,0.7638411256000001,-10.0525559568,0.2320832864,-7.55157163,-62.47756997,-4.70764142,,,
imu,178.859846,0.6125084672000001,-10.013077872,0.2099516328,-7.798309659999999,-65.78984109999999,-4.08705789,,,
imu,178.868324,0.5108224912,-10.0495651928,0.1908107432,-7.83569421,-68.49648251999999,-3.01038285,,,
imu,178.876801,0.4390441552000001,-9.989151760000002,0.1997830352,-8.06747842,-70.74703242999999,-1.91127708,,,
imu,178.885279,0.3911919312,-9.895839923200002,0.2817299688000001,-8.26187808,-72.65364448,-0.88694041,,,
imu,178.893756,0.3660695136000001,-9.813892989600001,0.3236006648,-8.351601,-74.4630567,-0.2140185099999998,,,
imu,178.902234,0.331974804,-9.741516500800001,0.3726491944000001,-8.231970440000001,-76.30985347,0.3467497399999999,,,
imu,178.910711,0.23926112,-9.685290137600001,0.424688488,-7.798309659999999,-78.11178878,0.6757337799999998,,,
imu,178.919189,0.0753672528,-9.633848996800001,0.4378478496000001,-7.20015686,-79.81652426,0.4289957499999999,,,
imu,178.927666,-0.03648732080000001,-9.642223136000002,0.5030465048,-6.497327319999999,-80.98292221999999,-0.02709575999999991,,,
imu,178.936144,-0.1567160336,-9.6535880392,0.5347486032000001,-5.787020869999999,-81.43901373,-1.06638625,,,
imu,178.944622,-0.263187232,-9.576426328,0.56824516,-5.315975539999999,-81.28199862,-2.51690679,,,
imu,178.953099,-0.2697669128,-9.557883591200001,0.6298548984000001,-4.67296128,-80.72123036999999,-4.18425772,,,
imu,178.961577,-0.1417622136,-9.602745051200001,0.6507902464,-4.07480848,-79.90624718,-5.95628539,,,
imu,178.970054,0.0376836264,-9.568052188800001,0.6651459136000001,-3.39440967,-79.45015566999999,-7.474098119999999,,,
imu,178.978532,0.3265914288,-9.593772759200002,0.7249611936,-2.69158013,-79.94363172999999,-8.66292681,,,
imu,178.987009,0.5814045216000001,-9.585398620000001,0.7004369288000002,-1.65228964,-81.6408903,-9.45547927,,,
imu,178.995487,0.5407301312,-9.451412392800002,0.6322475096000001,-0.76253735,-84.72885412999999,-10.17326263,,,
imu,179.003964,0.3206099008000001,-9.618297024,0.7201759712000001,0.56087572,-87.96635615999999,-10.45738521,,,
imu,179.012442,0.1034804344,-9.815089295200002,0.7118018320000001,1.03939796,-90.59075157,-10.15830881,,,
imu,179.020919,-0.1513326584,-9.746301723200002,0.7512799168000001,0.55339881,-91.91416464,-9.87418623,,,
imu,179.029397,-0.2243073,-9.746899876,0.7979358352000001,0.30666078,-92.01884138,-9.859232409999999,,,
imu,179.037874,-0.08433954480000001,-9.8079114616,0.7536725280000001,-0.20924601,-91.86930317999999,-10.53215431,,,
imu,179.046352,0.1321917688,-9.724170069600001,0.7040258456,-0.71767589,-92.13099503,-11.38452205,,,
imu,179.054829,0.3403489432000001,-9.6912716656,0.6747163584000001,-0.52327623,-93.73853068,-12.65559675,,,
imu,179.063292,0.5191966304000001,-9.722375611200002,0.6089195504,0.01506129,-96.62461794,-14.08368656,,,
imu,179.071754,0.6232752176,-9.642223136000002,0.5215892416000001,0.59078336,-100.34811912,-14.87623902,,,
imu,179.080216,0.6477994824000001,-9.534555632000002,0.4372496968000001,1.30856672,-104.595004,-15.15288469,,,
imu,179.088678,0.4581850448000001,-9.524387034400002,0.3822196392,2.29551884,-109.19330365,-15.0855925,,,
imu,179.097141,-0.05802082160000001,-9.731347903200001,0.3965753064,3.37967079,-113.1934505,-14.22574785,,,
imu,179.105603,-0.7423076248,-9.928140174400001,0.4210995712,3.26751714,-115.17483165,-12.52848928,,,
imu,179.114065,-1.2130538784,-9.9658238008,0.4851019208000001,2.29551884,-114.50190975,-10.29289319,,,
imu,179.122528,-1.3691717592,-9.9753942456,0.5820026744000001,0.9272443100000001,-111.56348412,-8.49843479,,,
imu,179.13099,-1.3063657152,-10.0035074272,0.6137047728000001,-0.36626112,-107.66801401,-7.795605249999999,,,
imu,179.139452,-1.1251254168,-9.828846809600002,0.5377393672000002,-1.67472037,-104.54266563,-8.31898895,,,
imu,179.147914,-0.9385017432000002,-9.679308609600001,0.4629702672000001,-2.27287317,-103.25663711,-9.56015601,,,
imu,179.156377,-0.8774901576000002,-9.632054538400002,0.4181088072000001,-1.90650458,-103.26411402,-11.16021475,,,
imu,179.164839,-1.028822816,-9.7576666264,0.4228940296000001,-1.53265908,-103.85478991,-12.49858164,,,
imu,179.173301,-1.4158276776,-9.88447502,0.4737370176,-1.49527453,-103.90712828,-12.63316602,,,
imu,179.181763,-1.9912506712,-10.0274335392,0.6507902464,-2.04856587,-102.06033151,-11.60135244,,,
imu,179.190226,-2.4859230368,-10.0830617496,0.6507902464,-3.14019473,-98.30692269,-9.91904769,,,
imu,179.198688,-2.7550917968,-9.947281064000002,0.6388271904000001,-4.3888387,-92.28801014,-8.51338861,,,
imu,179.20715,-2.817299688,-9.810902225600001,0.6932590952000001,-5.72720559,-85.06531507999999,-8.304035129999999,,,
imu,177.929461,,,,,,,82.06899480000001,6.317195599999992,209.6891928
imu,178.031054,,,,,,,77.8941324,6.695618799999981,205.5387448
imu,178.132586,,,,,,,75.9898092,7.135077999999995,202.4503232
imu,178.234454,,,,,,,76.1240884,7.598951599999992,199.5205952
imu,178.335894,,,,,,,75.5991788,7.904131599999986,197.7261368
imu,178.437426,,,,,,,77.58895240000001,8.319176399999995,196.1880296
imu,179.215613,-2.6725467104,-9.7403201952,0.6741182056000001,-6.45994277,-77.61831271999999,-8.984433939999999,,,
imu,179.224075,-2.473361828,-9.665551095200001,0.6621551496,-6.69920389,-71.33023141,-10.15830881,,,
imu,179.232537,-2.326814392,-9.566257730400002,0.6472013296000001,-6.27302002,-66.71697793999999,-11.720983,,,
imu,179.240999,-2.2119690544,-9.5590798968,0.6627533024,-5.49542138,-63.06824586,-13.19393427,,,
imu,179.249462,-2.208978290400001,-9.612315496,0.6920627896000001,-4.493515439999999,-59.78588237,-13.62759505,,,
imu,179.257924,-2.234100708,-9.639830524800002,0.7345316384000001,-3.85797809,-56.62314944,-13.10421135,,,
imu,179.266414,-2.1904355536,-9.672130776000001,0.7823838624,-3.48413259,-53.09404792,-11.96024412,,,
imu,179.274904,-2.147368552000001,-9.675121540000001,0.7877672376000001,-2.99813344,-49.54999258,-10.5994465,,,
imu,179.283395,-2.132414732,-9.655382497600002,0.8182730304000002,-2.6691494,-46.19285999,-9.49286382,,,
imu,179.291885,-2.096525564,-9.680504915200002,0.86732156,-2.43736519,-43.08994234,-8.53581934,,,
imu,179.300375,-2.0797772856,-9.614109954400002,0.8697141712000002,-2.30278081,-40.23376272,-7.885328169999999,,,
imu,179.308865,-2.0600382432,-9.538742701600002,0.8888550608000001,-1.9962275,-37.57198276,-7.8329898,,,
imu,179.317356,-2.0522622568,-9.612913648800001,0.9163700896000002,-1.56256672,-34.89524898,-7.997481819999999,,,
imu,179.325846,-2.0731976048,-9.647606511200001,0.9181645480000001,-1.12142903,-32.41291486,-8.0572971,,,
imu,179.334336,-2.0079989496,-9.6117173432,0.9145756312000002,-0.66533752,-29.88571928,-7.93766654,,,
imu,179.342826,-2.0085971024,-9.6015487456,0.9480721880000001,-0.29896893,-27.39590825,-8.12458929,,,
imu,179.351317,-1.9912506712,-9.7265626808,0.9684093832000001,0.32909151,-25.15283525,-7.74326688,,,
imu,179.359807,-1.9631374896,-9.8013317808,0.9869521200000001,0.8449983,-22.91723916,-7.36942138,,,
imu,179.368297,-2.0331213672,-9.802528086400002,0.9995133288000001,1.34595127,-20.80875054,-7.010529699999999,,,
imu,179.376787,-1.9745023928,-9.952664439200001,1.0599267616,1.49548947,-18.70026192,-6.419853809999999,,,
imu,179.385278,-1.9069111264,-10.0974174168,1.0688990536,1.43567419,-16.77121914,-5.784316459999999,,,
imu,179.393768,-1.8309457208,-9.915578965600002,0.9797742864000001,0.68050628,-15.3206986,-5.3656095,,,
imu,179.402258,-1.7986454696,-9.703832874400002,0.9791761336000001,0.17955331,-14.1991621,-5.09644074,,,
imu,179.410748,-1.7370357312,-9.752881404000002,0.9773816752000002,0.23936859,-13.26454835,-4.87961035,,,
imu,179.419239,-1.7268671336,-9.801929933600002,0.9373054376000002,0.3739529699999999,-12.15796567,-4.52071867,,,
imu,179.427729,-1.7454098704,-9.736731278400002,0.9546518688000002,0.14216876,-11.14858282,-4.29641137,,,
imu,179.436219,-1.7627563016,-9.6775141512,0.9714001472000001,0.12721494,-10.0868616,-4.25154991,,,
imu,179.444709,-1.7926639416,-9.746301723200002,0.9803724392000001,0.29170696,-8.815786899999999,-4.32631901,,,
imu,179.4532,-1.8291512624,-9.7989391696,0.9731946056000002,0.14216876,-7.567142929999999,-4.58801086,,,
imu,179.46169,-1.8357309432,-9.822267128800002,0.963026008,0.06739966,-6.019422560000001,-4.59548777,,,
imu,179.470149,-1.8201789704,-9.896438076,0.9761853696000001,-0.04475399000000001,-4.69600949,-4.52819558,,,
imu,179.478609,-1.8237678872,-9.868923047200001,0.9857558144000002,-0.24663056,-3.35016569,-4.51324176,,,
imu,179.487069,-1.77950458,-9.8168837536,1.007887468,-0.19429219,-1.99684498,-4.28145755,,,
imu,179.495529,-1.7543821624,-9.8294449624,1.0054948568,-0.26158438,-0.5538013500000001,-3.69825857,,,
imu,179.503988,-1.7268671336,-9.800733628000001,0.9905410368000002,-0.29896893,0.7770886299999997,-3.06272122,,,
imu,179.512448,-1.632957144,-9.6942624296,1.010878232,-0.21672292,2.00330187,-2.2253073,,,
imu,179.520908,-1.5540009744,-9.630858232800001,1.0180560656,0.06739966,3.15474601,-1.17106299,,,
imu,179.529368,-1.4576983736,-9.599156134400001,1.0371969552,0.44124516,4.08935976,-0.09438795,,,
imu,179.537827,-1.39070526,-9.585398620000001,1.0629175256,0.82256757,4.7921893,0.6383492300000002,,,
imu,179.546287,-1.411640608,-9.6326526912,1.0772731928,1.37585891,5.09874261,1.16920984,,,
imu,179.554747,-1.438557484,-9.641026830400001,1.0850491792,1.47305874,5.58474176,1.39351714,,,
imu,179.563206,-1.4642780544,-9.690673512800002,1.09162886,1.52539711,6.02587945,1.25893276,,,
imu,179.571666,-1.51033582,-9.752881404000002,1.1077789856,1.71231986,6.60907843,0.7729336099999999,,,
imu,179.580126,-1.5324674736,-9.786976113600002,1.1107697496,1.55530475,7.21470814,0.242073,,,
imu,179.588586,-1.5001672224,-9.803126239200001,1.1311069448,1.27118217,8.03716824,-0.15420323,,,
imu,179.597045,-1.4487260816,-9.796546558400001,1.1317050976,1.18145925,8.85215143,-0.52057182,,,
imu,179.605505,-1.408649844,-9.7283571392,1.1346958616,1.2188438,9.323196759999998,-0.90937114,,,
imu,179.613965,-1.4463334704,-9.688879054400001,1.1490515288,1.28613599,9.4278735,-1.08881698,,,
imu,179.62232,-1.5737400168,-9.6775141512,1.1502478344,1.71979677,9.61479625,-0.99161715,,,
imu,179.63078,-1.5773289336,-9.614708107200002,1.169388724,2.07868845,10.41482562,-0.6476792899999999,,,
imu,179.63924,-1.5683566416,-9.558481744000002,1.1628090432,2.60954906,11.55131594,-0.05700339999999993,,,
imu,179.6477,-1.4870078608,-9.590183842400002,1.1227328056,3.36471697,12.45602205,0.3168421000000001,,,
imu,179.656159,-1.3560123976,-9.597959828800002,1.0904325544,4.12736179,12.9420212,0.2794575500000001,,,
imu,179.664619,-1.2465504352,-9.572239258400002,1.0724879704,4.74046841,13.34577434,0.3392728300000001,,,
imu,179.673424,-1.1251254168,-9.588987536800001,1.0252338992,5.71994362,13.57755855,0.60844159,,,
imu,179.682229,-1.025832052,-9.641624983200002,1.00190594,6.34052715,13.1663285,0.5187186700000002,,,
imu,179.691034,-0.9965225648000002,-9.722973764,0.9917373424000001,6.76671102,12.47845278,0.13739626,,,
imu,179.699839,-1.0156634544,-9.789368724800001,0.9696056888000001,6.85643394,12.00740745,-0.02709575999999991,,,
imu,179.708644,-1.139481084,-9.8234634344,0.9564463272000002,6.66203428,11.88777689,0.2345960900000001,,,
imu,179.717449,-1.3572087032,-9.905410368000002,0.9588389384,6.17603513,12.44854514,0.4962879400000002,,,
imu,179.726254,-1.567160336,-9.937710619200002,0.9253423816,5.66760525,13.95140405,0.6533030499999999,,,
imu,179.735059,-1.8159919008,-9.9137845072,0.9062014920000001,4.91991425,16.47112272,0.3467497399999999,,,
imu,179.743864,-2.1659112888,-9.885671325600002,0.8517695872000001,4.30680763,19.7460093,-0.3411259799999999,,,
imu,179.752669,-2.3351885312,-9.9012232984,0.8888550608000001,3.9853005,24.24710912,-1.17106299,,,
imu,179.761474,-2.3519368096,-9.850380310400002,0.8960328944000001,3.64883955,29.55571522,-2.24773803,,,
imu,179.770279,-2.2364933192,-9.831837573600001,0.8810790744000001,3.55163972,34.98395188,-3.78050458,,,
imu,179.779084,-2.1192553704,-9.852174768800001,0.8924439776000002,3.85819303,39.52991316,-5.70954736,,,
imu,179.787889,-2.1276295096,-9.828248656800001,0.8679197128000001,3.925485220000001,43.02163013,-7.339513739999999,,,
imu,179.796694,-2.1790706504,-9.796546558400001,0.8900513664000002,3.88810067,46.6628853,-8.09468165,,,
imu,179.805499,-2.1557426912,-9.671532623200001,0.9020144224000001,3.82080848,50.79761653,-8.25917367,,,
imu,179.814304,-2.1467703992,-9.5865949256,0.9109867144000001,3.82080848,55.13422433,-8.25917367,,,
imu,179.823109,-2.0056063384,-9.489096019200002,0.9056033392000001,4.17222325,59.41849376,-8.69283445,,,
imu,179.831914,-1.54024346,-9.3802322096,0.9785779808,4.72551459,63.06722584,-9.61997129,,,
imu,179.840719,-0.9558481744000001,-9.304266804000001,0.9845595088000001,5.54797469,65.38506794,-10.79384616,,,
imu,179.849524,-0.5018501992000001,-9.218730953600001,0.9887465784000001,6.87138776,65.09346845,-12.3939049,,,
imu,179.858329,-0.1531271168,-9.180449174400001,1.0060930096,8.68827689,62.85787235999999,-14.21827094,,,
imu,179.867134,0.0161501256,-9.259405344000001,1.0001114816,10.65470422,59.3736323,-15.67626839,,,
imu,179.875602,-0.0221316536,-9.3592968616,0.9624278552000001,12.52393172,55.45573146,-16.02768316,,,
imu,179.884071,-0.1411640608,-9.510031367200002,1.0132708432,13.96697535,51.68736882,-15.33980744,,,
imu,179.89254,-0.2374666616,-9.658373261600001,1.004896704,14.78943545,48.44986678999999,-14.36780914,,,
imu,179.901008,-0.3397507904000001,-9.709216249600003,0.9624278552000001,15.31281915,45.75817919,-13.23879573,,,
imu,179.909477,-0.3810233336,-9.6876827488,0.9582407856000001,15.43244971,43.3730449,-12.10230541,,,
imu,179.917946,-0.3535083048,-9.714599624800002,0.9522592576000002,15.51469572,41.15987954,-10.92095363,,,
imu,179.926414,-0.3170209840000001,-9.737329431200001,0.9402962016,15.67171083,38.91680654,-9.93400151,,,
imu,179.934883,-0.2165313136,-9.793555794400001,0.9492684936000001,15.90349504,36.18025747999999,-9.38071017,,,
imu,179.943351,-0.1148453376,-9.783387196800001,0.9426888128,16.29229436,33.21940112,-8.730219,,,
imu,179.95182,-0.1327899216,-9.876699033600001,0.9151737840000002,16.38949419,29.80245325,-7.91523581,,,
imu,179.960289,-0.2284943696,-10.0782765272,0.86732156,16.12780234,26.43036684,-7.07034498,,,
imu,179.968757,-0.3259932760000001,-10.321126564,0.7985339880000002,15.26048078,23.260157,-6.053485220000001,,,
imu,179.977226,-0.4019586816,-10.545433864,0.7285501104000001,13.6305144,20.7180076,-4.70764142,,,
imu,179.985695,-0.5048409632,-10.524498516,0.6196863008000001,11.37996449,18.52727297,-3.39918217,,,
imu,179.994163,-0.6376308848000001,-10.4509257216,0.5568802568000001,9.05464548,16.63561474,-2.48699915,,,
imu,180.002632,-0.7357279440000001,-10.3438563704,0.5287670752,6.99101832,15.01312527,-2.12810747,,,
imu,180.0111,-0.7309427216000001,-10.5418449472,0.5221873944000001,5.18908301,13.68223529,-2.09072292,,,
imu,180.019569,-0.744700236,-11.0245542568,0.5305615336,2.9385331,12.53079115,-2.12810747,,,
imu,180.028038,-0.7357279440000001,-11.2500578624,0.442633072,-0.59056842,11.41673156,-2.16549202,,,
imu,178.538822,,,,,,,77.4058444,8.966157999999979,196.6885248
imu,178.640293,,,,,,,80.8971036,8.709806799999997,193.7343824
imu,178.741886,,,,,,,78.2481412,9.283545199999988,196.0049216
imu,178.843448,,,,,,,79.73741960000001,8.294761999999988,194.2104632
imu,178.945011,,,,,,,77.57674519999999,8.636563599999981,199.5205952
imu,179.046604,,,,,,,77.74764599999999,7.769852399999988,202.0841072
imu,179.148136,,,,,,,79.02940199999999,6.829897999999979,207.8581128
imu,179.249698,,,,,,,81.1778692,5.548141999999978,212.5945064
imu,180.036506,-0.8278434752000001,-10.8947550992,0.4444275304,-4.90474549,10.3251027,-2.92065993,,,
imu,180.044975,-0.8888550608000001,-10.2098701432,0.4862982264000001,-8.41889319,9.076458729999999,-4.453426479999999,,,
imu,180.053444,-0.9038088808000001,-9.755274015200001,0.5855915912,-9.95165974,8.096983519999998,-5.4403786,,,
imu,180.061912,-0.9833632032,-9.167887965600002,0.4761296288000001,-9.846983,7.09507758,-4.84970271,,,
imu,180.070381,-0.8882569080000001,-8.788060937600001,0.490485296,-7.95532477,6.23523293,-4.55810322,,,
imu,180.078897,-0.8236564056000001,-8.6385227376,0.4755314760000001,-4.69539201,5.442680469999999,-5.38056332,,,
imu,180.087412,-0.8697141712000002,-8.810192591200002,0.4755314760000001,-0.58309151,4.478159079999999,-5.477763149999999,,,
imu,180.095928,-0.9235479232000001,-8.843689148000001,0.3798270280000001,3.11050203,3.47625314,-4.670256869999999,,,
imu,180.104444,-0.8625363376,-8.070875730400001,0.2356722032,6.42277316,2.40705501,-4.25154991,,,
imu,180.112959,-0.7704208064000001,-7.317203202400001,0.1938015072,11.60427179,1.55468727,-4.50576485,,,
imu,180.121475,-0.8069081272,-7.530743752000001,0.218325772,19.28305836,0.8219500899999996,-4.70016451,,,
imu,180.129991,-1.0551415392,-8.798827688000001,0.2984782472,26.67772235,0.05182836000000002,-4.625395409999999,,,
imu,180.138506,-1.507345056,-10.8792031264,0.4486146000000001,31.03676088,-0.5837089900000003,-4.28893446,,,
imu,180.147022,-1.5480194464,-13.4249414432,0.4091365152000001,29.10024119,-0.68090882,-4.52819558,,,
imu,180.155538,-0.6322475096000001,-14.4495771896,-0.0747691,19.14099707,-0.2622018600000002,-5.14877911,,,
imu,180.164053,-0.6597625384000001,-11.9684393752,-0.05562821040000001,4.822714420000001,-0.0603252900000002,-5.38804023,,,
imu,180.172569,-1.259111644,-9.154728604,0.248233412,-3.4168404,-0.4715553400000001,-6.10582359,,,
imu,180.181085,-1.2196335592,-8.5308552336,0.323002512,-2.15324261,-1.25663089,-7.07034498,,,
imu,180.1896,-1.1233309584,-9.837220948800002,0.3092449976000001,2.32542648,-1.6379533,-6.73388403,,,
imu,180.198116,-1.0294209688,-10.8875772656,0.1997830352,3.05816366,-1.88469133,-5.88151629,,,
imu,180.206632,-1.0982085408,-10.593286088,0.2386629672,-0.04475399000000001,-2.161337000000001,-6.419853809999999,,,
imu,180.215147,-1.3183287712,-9.906008520800002,0.3188154424,-2.56447266,-2.12395245,-6.973145150000001,,,
imu,180.223663,-1.3404604248,-9.797742864000002,0.3397507904000001,-2.87102597,-2.161337000000001,-6.292746339999999,,,
imu,180.232179,-1.2812432976,-10.0376021368,0.3385544848000001,-2.67662631,-1.85478369,-5.49271697,,,
imu,180.240694,-1.2997860344,-10.0501633456,0.3457323184,-3.09533327,-1.30896926,-5.328224949999999,,,
imu,180.24921,-1.3045712568,-9.827650504000003,0.3959771536000001,-3.94770101,-0.9500775800000003,-5.38056332,,,
imu,180.257726,-1.3057675624,-9.656578803200002,0.4719425592000001,-4.11966994,-0.6136166300000001,-5.20859439,,,
imu,180.266241,-1.2722710056,-9.7056273328,0.5287670752,-3.70096298,-0.3818324200000003,-5.021671639999999,,,
imu,180.274757,-1.247148588,-9.7714241408,0.5467116592000001,-3.4916095,-0.43417079,-5.16373293,,,
imu,180.283172,-1.289019284,-9.748694334400001,0.5814045216000001,-3.35702512,-0.4192169699999999,-5.17868675,,,
imu,180.291588,-1.2955989648,-9.688879054400001,0.6166955368000001,-3.20001001,-0.3893093300000001,-5.08148692,,,
imu,180.300003,-1.2955989648,-9.675121540000001,0.6507902464,-2.90093361,-0.1126636599999999,-5.11139456,,,
imu,180.308418,-1.3045712568,-9.681103068,0.6472013296000001,-2.4448421,-0.05284837999999992,-4.999240909999999,,,
imu,180.316833,-1.3093564792,-9.635643455200002,0.6645477608,-2.12333497,-0.06780220000000003,-4.94690254,,,
imu,180.325248,-1.3141417016,-9.572837411200002,0.6549773160000001,-1.59995127,-0.03041764999999996,-4.93942563,,,
imu,180.333664,-1.2944026592,-9.5865949256,0.648995788,-0.90459864,-0.1425713000000002,-4.72259524,,,
imu,180.342079,-1.2327929208,-9.699645804800001,0.62806044,-0.35878421,-0.3668786000000002,-4.9169949,,,
imu,180.350494,-1.1998945168,-9.837819101600003,0.6047324808000001,-0.0522309,-0.7482010100000003,-4.909517989999999,,,
imu,180.358909,-1.223222476,-9.914980812800001,0.5837971328000001,-0.127,-1.21924634,-4.79736434,,,
imu,180.367325,-1.2244187816,-9.875502728,0.5861897440000001,-0.46346095,-1.63047639,-4.363703559999999,,,
imu,180.37574,-1.214250184,-9.8432024768,0.5724322296000001,-0.88964482,-2.07161408,-4.034719519999999,,,
imu,180.384155,-1.2178391008,-9.878493492,0.5694414656000001,-0.81487572,-2.43798267,-3.6459202,,,
imu,180.39257,-1.2327929208,-9.8629415192,0.5371412144000001,-1.07656757,-2.76696671,-3.40665908,,,
imu,180.400985,-1.2333910736,-9.807313308800001,0.550300576,-1.51022835,-2.99127401,-3.31693616,,,
imu,180.409401,-1.2543264216,-9.749890640000002,0.565254396,-1.57004363,-3.02118165,-3.32441307,,,
imu,180.417816,-1.3195250768,-9.773218599200002,0.5933675776,-1.3233056,-3.0585662,-3.36927453,,,
imu,180.426231,-1.3314881328,-9.780396432800002,0.5963583416000001,-1.13638285,-2.93145873,-3.55619728,,,
imu,180.434646,-1.336871508,-9.773218599200002,0.6286585928,-0.92702937,-2.63238233,-3.86275059,,,
imu,180.443062,-1.2627005608,-9.824061587200001,0.6537810104000001,-0.56066078,-2.28096756,-4.15435008,,,
imu,180.451477,-1.1807536272,-9.918569729600001,0.6412198016000001,-0.44850713,-2.52022868,-4.37118047,,,
imu,180.459892,-1.0850491792,-9.942495841600001,0.6202844536000002,-0.63542988,-3.17819676,-4.3936112,,,
imu,180.468307,-1.0413840248,-9.916177118400002,0.6089195504,-1.01675229,-4.06047214,-4.341272829999999,,,
imu,180.476722,-1.0144671488,-9.896438076,0.6005454112,-1.23358268,-4.91283988,-3.87770441,,,
imu,180.485183,-0.9761853696000001,-9.8479876992,0.601143564,-1.3233056,-6.168960759999999,-3.39918217,,,
imu,180.493644,-0.9761853696000001,-9.7995373224,0.5957601888000001,-1.3233056,-7.305451079999999,-2.77859864,,,
imu,180.502105,-0.9935318008000001,-9.755274015200001,0.5855915912,-1.19619813,-8.34474157,-1.94866163,,,
imu,180.510566,-0.9851576616000001,-9.6434194416,0.5664507016000001,-1.08404448,-9.47375498,-1.13367844,,,
imu,180.519027,-0.9355109792000001,-9.5501076048,0.5951620360000001,-0.7999219,-10.19901525,-0.5280487299999999,,,
imu,180.527488,-0.7758041816000001,-9.575230022400001,0.5784137576,-0.13447691,-11.36541321,-0.31869525,,,
imu,180.535949,-0.5760211464000001,-9.646410205600002,0.5407301312,0.6132140899999999,-13.09257942,-0.28878761,,,
imu,180.54441,-0.4205014184,-9.744507264800001,0.535346756,1.0693056,-15.59734427,-0.3112183399999999,,,
imu,180.552871,-0.242251884,-9.772620446400001,0.4827093096,1.31604363,-18.89466158,-0.40094126,,,
imu,180.561332,-0.1567160336,-9.818678212000002,0.4719425592000001,1.58521239,-22.79013169,-0.49066418,,,
imu,180.569793,-0.1603049504,-9.973599787200001,0.4587831976000001,1.7422275,-26.77532472,-0.07195722000000004,,,
imu,180.578254,-0.2895059552,-10.0926321944,0.4288755576000001,1.33099745,-30.68574865,0.4140419300000002,,,
imu,180.586715,-0.4605776560000001,-10.1045952504,0.4079402096,0.7552753799999999,-34.14008107,1.29631731,,,
imu,180.595176,-0.6238733704,-10.1685976,0.3959771536000001,-0.08213854000000001,-36.58503064,2.61225347,,,
imu,180.603637,-0.7177833600000001,-10.2038886152,0.3427415544,-1.3233056,-38.35705831,3.74874379,,,
imu,180.612098,-0.8589474208000002,-10.174579128,0.3421434016,-2.22801171,-39.52345627,4.67588063,,,
imu,180.620559,-0.9636241608000001,-10.096819264,0.3714528888,-3.21496383,-40.49545457,5.13197214,,,
imu,180.62902,-1.0192523712,-9.993936982400001,0.3852104032000001,-3.95517792,-41.10856119,5.33384871,,,
imu,180.637481,-1.0844510264,-9.9718053288,0.3899956256000001,-4.28416196,-41.62446798,5.13944905,,,
imu,180.645942,-1.1735757936,-9.937710619200002,0.3696584304000001,-4.50099235,-41.95345202,4.81046501,,,
imu,180.654403,-1.3153380072,-9.886269478400003,0.3499193880000001,-4.74025347,-41.70671399,4.272127490000001,,,
imu,180.662864,-1.4259962752,-9.819276364800002,0.3959771536000001,-4.844930209999999,-40.95154608,4.047820189999999,,,
imu,180.671325,-1.528280404,-9.785779808000001,0.4617739616000001,-4.800068749999999,-39.71785593,3.92818963,,,
imu,180.679786,-1.60005874,-9.727160833600001,0.472540712,-4.62809982,-38.07293573,3.71135924,,,
imu,180.688605,-1.647910964,-9.731946056000002,0.5425245896,-4.28416196,-36.0317393,3.25526773,,,
imu,180.697423,-1.6114236432,-9.693664276800002,0.5299633808,-4.0149932,-33.72137411,2.73936094,,,
imu,180.706241,-1.6156107128,-9.620689635200002,0.5766192992000001,-3.91031646,-31.73251605,1.90942393,,,
imu,180.715027,-1.579123392,-9.7128051664,0.6023398696000001,-3.09533327,-29.63898125,0.8776103499999999,,,
imu,180.723846,-1.5348600848,-9.748694334400001,0.5987509528,-2.84859524,-27.75479993,-0.34860289,,,
imu,180.732664,-1.5061487504,-9.746301723200002,0.6513883992,-2.81121069,-26.087449,-1.3280781,,,
imu,180.741482,-1.4762411104,-9.770825988000002,0.6681366776000001,-2.7439185,-24.34532897,-2.17296893,,,
imu,180.7503,-1.4696614296,-9.780396432800002,0.6866794144,-2.48222665,-22.74527023,-2.60662971,,,
imu,180.759119,-1.4630817488,-9.777405668800002,0.7135962904,-2.47474974,-21.16016531,-2.83841392,,,
imu,180.767937,-1.4606891376,-9.767237071200002,0.7213722768,-2.38502682,-19.64982949,-2.92065993,,,
imu,180.776755,-1.4343704144,-9.7492924872,0.7177833600000001,-2.34016536,-18.15444749,-2.83093701,,,
imu,180.785573,-1.4122387608,-9.7361331256,0.7082129152000001,-2.28782699,-16.53943493,-2.65149117,,,
imu,180.794392,-1.3990793992,-9.7427128064,0.7183815128000002,-2.01865823,-14.99171456,-2.11315365,,,
imu,180.80321,-1.3500308696,-9.690075360000002,0.7219704296,-1.74201256,-13.75802441,-1.94866163,,,
imu,180.812028,-1.3261047576,-9.66016772,0.7530743752000001,-1.25601341,-12.50190353,-1.68696978,,,
imu,180.820846,-1.2710747,-9.639830524800002,0.7656355840000001,-0.88964482,-11.45513613,-1.52995467,,,
imu,180.829665,-1.2106612672,-9.678710456800001,0.7662337368000001,-0.3513073,-10.97661389,-1.6271545,,,
imu,180.838483,-1.133499556,-9.697851346400002,0.7333353328000001,0.26927623,-10.59529148,-1.67201596,,,
imu,180.847301,-1.0718898176,-9.7008421104,0.7171852072000001,0.76275229,-10.5354762,-1.95613854,,,
imu,179.35123,,,,,,,83.93669640000002,5.255169199999998,214.4500008
imu,179.45319,,,,,,,85.04755159999999,5.26737639999999,215.5242344
imu,179.554355,,,,,,,85.87764120000001,4.815709999999984,215.4143696
imu,179.656192,,,,,,,85.57246119999999,5.548141999999978,215.7317568
imu,179.757602,,,,,,,87.14719,4.278593199999992,213.4734248
imu,179.859226,,,,,,,83.82683159999999,4.803502799999992,214.7307664
imu,179.960605,,,,,,,82.85025560000001,4.022241999999987,211.0930208
imu,180.062198,,,,,,,78.73642919999999,3.973413199999998,212.8020288
imu,180.856119,-1.0216449824,-9.751685098400001,0.7070166096,1.03939796,-10.67006058,-2.18044584,,,
imu,180.864938,-0.9737927584000001,-9.818080059200001,0.7315408744,1.27118217,-10.85698333,-2.03838455,,,
imu,180.873756,-0.9540537160000001,-9.901821451200002,0.7327371800000001,1.15902852,-11.12615209,-2.13558438,,,
imu,180.882574,-0.9564463272000002,-9.9658238008,0.7123999848000001,0.88985976,-11.38784394,-1.8514618,,,
imu,180.891056,-0.9791761336000001,-9.990946218400001,0.7141944432000001,0.5010604399999999,-11.3579363,-1.38789338,,,
imu,180.899537,-0.9911391896000001,-9.985562843200002,0.7082129152000001,-0.35878421,-11.49252068,-1.14115535,,,
imu,180.908018,-1.0389914136,-9.9586459672,0.7345316384000001,-0.98684465,-11.41027467,-0.9243249599999999,,,
imu,180.9165,-1.0778713456,-9.9239531048,0.7399150136000001,-1.55508981,-11.05138299,-0.68506384,,,
imu,180.924981,-1.1263217224,-9.898830687200002,0.7764023344000002,-2.2205348,-10.69249131,-0.5654332799999999,,,
imu,180.933462,-1.1526404456,-9.865932283200001,0.8296379336000002,-2.72896468,-10.15415379,-0.4981410899999998,,,
imu,180.941944,-1.1765665576,-9.803724392000001,0.8433954480000001,-2.93084125,-9.33169369,-0.5056179999999999,,,
imu,180.950425,-1.2010908224,-9.745703570400002,0.8643307960000001,-3.03551799,-8.43446449,-0.5579563699999999,,,
imu,180.958906,-1.1879314608,-9.697253193600002,0.8709104768000001,-3.05047181,-7.499850739999999,-0.6551562,,,
imu,180.967388,-1.1568275152,-9.6434194416,0.8810790744000001,-2.68410322,-6.782067379999999,-0.9617095099999999,,,
imu,180.975869,-1.1281161808,-9.581809703200001,0.9073977976000001,-2.17567334,-6.019422560000001,-1.44770866,,,
imu,180.98435,-1.0904325544,-9.5602762024,0.9127811728000002,-1.67472037,-5.33154684,-1.90380017,,,
imu,180.992832,-1.0569359976,-9.609324732000001,0.9265386872000001,-1.06161375,-4.88293224,-2.66644499,,,
imu,181.001313,-1.0234394408,-9.639232372,0.9097904088000002,-0.24663056,-4.45674837,-3.37675144,,,
imu,181.009794,-1.019850524,-9.692467971200001,0.9193608536000001,0.20198404,-4.05299523,-3.96742733,,,
imu,181.018276,-1.0031022456,-9.772022293600001,0.9169682424000002,0.43376825,-3.94084158,-4.55810322,,,
imu,181.026757,-1.0360006496,-9.825257892800002,0.8978273528000001,0.6132140899999999,-3.64176518,-4.81231816,,,
imu,181.035238,-1.052748928,-9.875502728,0.9044070336000001,0.53096808,-3.18567367,-4.9169949,,,
imu,181.04372,-1.0623193728,-9.870717505600002,0.8990236584000001,0.12721494,-2.61742851,-5.13382529,,,
imu,181.052201,-1.094619624,-9.8778953392,0.8810790744000001,0.06739966,-1.89964515,-4.7674567,,,
imu,181.060682,-1.0880399432,-9.889858395200001,0.8756956992000001,-0.25410747,-1.39869218,-4.43847266,,,
imu,181.069164,-1.0688990536,-9.8497821576,0.8481806704000001,-0.68029134,-0.8528777500000002,-4.25154991,,,
imu,181.077645,-1.0832547208,-9.76484446,0.8206656416,-0.83730645,-0.25472495,-3.95247351,,,
imu,181.086126,-1.055739692,-9.724768222400002,0.8266471696000001,-0.59056842,0.4256738599999998,-3.78798149,,,
imu,181.094591,-1.025832052,-9.709814402400001,0.7871690848,-0.41112258,0.8742884599999998,-3.57862801,,,
imu,181.103056,-1.019850524,-9.6733270816,0.7608503616000001,-0.08213854000000001,1.25561087,-3.54872037,,,
imu,181.111521,-0.9917373424000001,-9.660765872800003,0.7734115704000001,0.45619898,1.62945637,-3.67582784,,,
imu,181.119986,-0.9971207176000002,-9.685290137600001,0.7734115704000001,0.8973366700000001,1.8761944,-3.97490424,,,
imu,181.12845,-1.00190594,-9.693066124000001,0.7644392784,1.38333582,2.0257326,-4.18425772,,,
imu,181.136915,-1.004896704,-9.706823638400001,0.7728134176000001,1.67493531,1.89862513,-4.70764142,,,
imu,181.14538,-0.9935318008000001,-9.6918698184,0.7793930984000002,2.05625772,1.95844041,-4.931948719999999,,,
imu,181.153845,-1.0389914136,-9.731347903200001,0.7907580016000001,2.25813429,2.1005017,-4.87961035,,,
imu,181.16231,-1.0383932608,-9.8049206976,0.7967395296000002,2.3403803,2.04068642,-4.931948719999999,,,
imu,181.170775,-1.0683009008,-9.8294449624,0.7943469184000002,2.21327283,2.13040934,-4.73007215,,,
imu,181.179239,-1.085647332,-9.825856045600002,0.7997302936000001,2.03382699,2.15284007,-4.58801086,,,
imu,181.187704,-1.094619624,-9.8527729216,0.8021229048,1.98896553,2.30985518,-4.10948862,,,
imu,181.196169,-1.094619624,-9.906008520800002,0.7746078760000001,1.6674584,2.37714737,-3.99733497,,,
imu,181.204634,-1.0940214712,-9.916177118400002,0.7584577504000002,1.45062801,2.69117759,-3.95995042,,,
imu,181.213099,-1.0940214712,-9.870717505600002,0.7399150136000001,1.18893616,2.83323888,-3.83284295,,,
imu,181.221563,-1.097610388,-9.8461932408,0.7494854584000001,1.09173633,2.9229618,-3.68330475,,,
imu,181.230028,-1.0772731928,-9.837819101600003,0.7303445688000001,1.00949032,3.06502309,-3.62348947,,,
imu,181.238493,-1.09162886,-9.793555794400001,0.7070166096,1.03939796,3.34166876,-3.47395127,,,
imu,181.246958,-1.0724879704,-9.7474980288,0.7123999848000001,1.19641307,3.4463455,-3.37675144,,,
imu,181.255423,-1.070693512,-9.7074217912,0.7207741240000002,1.57025857,3.64074516,-3.21973633,,,
imu,181.263887,-1.040785872,-9.676317845600002,0.7112036792,1.80204278,3.86505246,-3.25712088,,,
imu,181.272352,-1.0144671488,-9.6984494992,0.6920627896000001,2.25813429,4.03702139,-3.44404363,,,
imu,181.280817,-1.010878232,-9.7750130576,0.684884956,2.60954906,4.08935976,-3.61601256,,,
imu,181.289282,-1.0395895664,-9.8300431152,0.6812960392000001,2.72917962,3.91739083,-3.72816621,,,
imu,181.297765,-1.0503563168,-9.889260242400002,0.6687348304,2.49739541,3.95477538,-4.04967334,,,
imu,181.306247,-1.0808621096,-9.9484773696,0.6693329832000001,2.27308811,4.09683667,-4.19173463,,,
imu,181.31473,-1.1299106392,-10.0094889552,0.6537810104000001,1.9665348,4.40338998,-4.30388828,,,
imu,181.323212,-1.130508792,-10.0531541096,0.6250696760000001,1.45810492,4.784712389999999,-4.31136519,,,
imu,181.331695,-1.1496496816,-10.0304243032,0.6286585928,0.8973366700000001,5.285665359999999,-4.28145755,,,
imu,181.340178,-1.1460607648,-9.979581315200003,0.6304530512000001,0.23189168,5.78661833,-4.102011709999999,,,
imu,181.34866,-1.0988066936,-9.967618259200002,0.6382290376000002,-0.32139966,6.30252512,-3.74312003,,,
imu,181.357143,-1.0665064424,-9.900625145600001,0.6519865520000001,-0.97189083,6.75861663,-3.39170526,,,
imu,181.365625,-1.0473655528,-9.832435726400002,0.6573699272000001,-1.30087487,7.02778539,-3.13001341,,,
imu,181.374108,-1.007887468,-9.812696684000002,0.6872775672000001,-1.21862886,7.32686179,-2.92813684,,,
imu,181.382591,-0.9851576616000001,-9.767237071200002,0.7106055264000001,-1.33825942,7.461446169999999,-2.748691,,,
imu,181.391073,-0.9624278552000001,-9.710412555200001,0.7375224024000001,-1.23358268,7.58855364,-2.69635263,,,
imu,181.399556,-0.9546518688000002,-9.679308609600001,0.76264482,-0.8821679099999999,7.40163089,-2.86084465,,,
imu,181.408039,-0.9163700896000002,-9.685888290400001,0.7668318896,-0.34383039,7.39415398,-2.66644499,,,
imu,181.416521,-0.8589474208000002,-9.7086180968,0.7865709320000001,-0.03727708,7.22966196,-2.68139881,,,
imu,181.425004,-0.8350213088000001,-9.682897526400001,0.7997302936000001,0.5459219,7.057693029999999,-2.62906044,,,
imu,181.433486,-0.8212637944000001,-9.701440263200002,0.8212637944000001,0.9272443100000001,6.42963259,-2.83841392,,,
imu,181.441969,-0.8224601,-9.739722042400002,0.8284416280000001,1.43567419,5.80904906,-3.21973633,,,
imu,181.450452,-0.8499751288000001,-9.7953502528,0.8320305448000002,1.77213514,5.32304991,-3.22721324,,,
imu,181.458934,-0.8864624496000001,-9.8234634344,0.8302360864000001,1.82447351,5.05388115,-3.10758268,,,
imu,181.467417,-0.9355109792000001,-9.876100880800003,0.8433954480000001,1.62259694,4.672558739999999,-3.0477674,,,
imu,181.475899,-0.9929336480000002,-9.899428840000002,0.8445917536,1.33099745,4.74732784,-3.00290594,,,
imu,181.484382,-1.037795108,-9.9329253968,0.8350213088000001,1.24127453,5.113696429999999,-2.76364482,,,
imu,181.492865,-1.0395895664,-9.928140174400001,0.8272453224,0.8674290299999999,5.36043446,-2.55429134,,,
imu,181.501338,-1.0342061912,-9.901821451200002,0.7877672376000001,0.52349117,5.853910519999999,-2.62158353,,,
imu,181.509812,-0.9929336480000002,-9.844398782400003,0.7883653904000001,0.32909151,6.38477113,-2.73373718,,,
imu,181.518286,-0.9217534648000001,-9.83961356,0.7614485144,0.3889067899999999,6.534309329999999,-2.9729983,,,
imu,181.52676,-0.8804809216,-9.831837573600001,0.744700236,0.35899915,6.489447869999999,-3.1973056,,,
imu,181.535233,-0.8529658928000001,-9.8079114616,0.7381205552000002,0.26927623,6.35486349,-3.28702852,,,
imu,181.543707,-0.8433954480000001,-9.844398782400003,0.7375224024000001,0.35899915,6.160463829999999,-3.28702852,,,
imu,181.552181,-0.8535640456000001,-9.861147060800002,0.7291482632,0.30666078,5.82400288,-3.21973633,,,
imu,181.560654,-0.8475825176000001,-9.840809865600002,0.7315408744,0.02253820000000001,5.69689541,-3.18982869,,,
imu,181.569128,-0.8463862120000001,-9.8234634344,0.7231667352000001,0.08983038999999998,5.41277283,-3.25712088,,,
imu,181.577602,-0.8505732816000001,-9.806715156000001,0.7273538048000001,-0.16438455,5.20341935,-3.33188998,,,
imu,181.586076,-0.8601437264,-9.801929933600002,0.726755652,-0.23167674,4.89686604,-3.4216129,,,
imu,181.594549,-0.8475825176000001,-9.794153947200002,0.7381205552000002,-0.23167674,4.59778964,-3.4216129,,,
imu,181.603023,-0.8445917536,-9.800135475200001,0.7530743752000001,-0.13447691,4.53797436,-3.39918217,,,
imu,181.611497,-0.8517695872000001,-9.797742864000002,0.7476910000000001,-0.02980017,4.29123633,-3.41413599,,,
imu,181.61997,-0.8697141712000002,-9.800733628000001,0.7530743752000001,-0.007369440000000005,3.94729847,-3.35432071,,,
imu,181.628444,-0.8846679912000001,-9.7959484056,0.7488873056,0.05244583999999999,3.75289881,-3.3468438,,,
imu,181.636918,-0.9229497704,-9.8043225448,0.7458965416000001,0.17955331,3.57345297,-3.42908981,,,
imu,181.645392,-0.9522592576000002,-9.824061587200001,0.7554669864000001,0.08983038999999998,3.4463455,-3.33936689,,,
imu,181.653865,-0.9624278552000001,-9.828846809600002,0.7680281952000001,0.15712258,3.4463455,-3.33188998,,,
imu,181.662339,-0.9737927584000001,-9.820472670400001,0.7775986400000001,0.10478421,3.38653022,-3.3468438,,,
imu,180.163697,,,,,,,78.3213844,4.156521199999985,212.4602272
imu,180.26529,,,,,,,78.480078,3.155530799999995,213.2048664
imu,180.366822,,,,,,,79.0782308,3.37526039999998,213.4001816
imu,180.468384,,,,,,,78.785258,3.533953999999984,213.4734248
imu,180.570008,,,,,,,80.5919236,3.692647599999987,213.8762624
imu,180.67154,,,,,,,82.19106679999999,3.65602599999999,215.316712
imu,180.773224,,,,,,,86.3659292,3.04566599999998,213.6199112
imu,180.874726,,,,,,,84.4493988,4.522737199999982,216.4641888
imu,181.670813,-0.9456795768000001,-9.849184004800001,0.7979358352000001,0.10478421,3.42391477,-3.36927453,,,
imu,181.679286,-0.9109867144000001,-9.885671325600002,0.7961413768000002,0.11226112,3.54354533,-3.39170526,,,
imu,181.68776,-0.8798827688,-9.859950755200002,0.7943469184000002,-0.08213854000000001,3.36409949,-3.39170526,,,
imu,181.696234,-0.8451899064,-9.825856045600002,0.8069081272,-0.21672292,2.95286944,-3.54872037,,,
imu,181.705014,-0.8200674888,-9.825257892800002,0.8194693360000002,-0.14943073,2.84071579,-3.44404363,,,
imu,181.713793,-0.8033192104000001,-9.861147060800002,0.8158804192000001,-0.16438455,2.3995781,-3.25712088,,,
imu,181.722573,-0.7979358352000001,-9.818678212000002,0.8098988912000001,-0.23167674,2.04068642,-3.14496723,,,
imu,181.731353,-0.8188711832000002,-9.825856045600002,0.8134878080000001,-0.26906129,1.56964109,-3.08515195,,,
imu,181.740133,-0.8272453224,-9.8593526024,0.7991321408000002,-0.28401511,0.9191499199999997,-3.20478251,,,
imu,181.748912,-0.8248527112,-9.832435726400002,0.7913561544000001,-0.2765382,0.27613566,-3.1973056,,,
imu,181.757692,-0.8266471696000001,-9.803126239200001,0.7901598488000001,-0.36626112,-0.25472495,-3.1225365,,,
imu,181.766472,-0.8392083784000002,-9.8168837536,0.7829820152,-0.20924601,-0.7033395499999999,-2.98047521,,,
imu,181.775252,-0.8296379336000002,-9.824061587200001,0.7895616960000001,-0.3513073,-0.9949390400000002,-2.68887572,,,
imu,181.784032,-0.8416009896000001,-9.819276364800002,0.8087025856000001,-0.3513073,-1.17438488,-2.28512258,,,
imu,181.792811,-0.8619381848000001,-9.8228652816,0.8140859608000002,-0.51579932,-1.32392308,-2.26269185,,,
imu,181.801591,-0.885266144,-9.803126239200001,0.8326286976000001,-0.50832241,-1.76506077,-2.39727623,,,
imu,181.810293,-0.9187627008000002,-9.803126239200001,0.8344231560000002,-0.41859949,-1.9370297,-2.55429134,,,
imu,181.819073,-0.9528574104000002,-9.803126239200001,0.8451899064,-0.48589168,-1.87721442,-2.84589083,,,
imu,181.827853,-0.9875502728000001,-9.7953502528,0.8416009896000001,-0.35878421,-1.76506077,-2.96552139,,,
imu,181.836633,-1.0120745376,-9.748694334400001,0.8577511152000001,-0.47841477,-1.570661110000001,-3.2720747,,,
imu,181.845413,-1.0192523712,-9.748096181600001,0.8756956992000001,-0.3513073,-1.15195415,-3.26459779,,,
imu,181.854192,-1.0210468296,-9.782789044000001,0.8733030880000001,-0.26158438,-0.80053938,-3.30198234,,,
imu,181.862972,-1.004896704,-9.776209363200001,0.8679197128000001,-0.15690764,-0.3668786000000002,-3.2720747,,,
imu,181.871752,-0.9779798280000002,-9.763050001600002,0.9026125752,-0.08961545,-0.1051867500000001,-3.27955161,,,
imu,181.880532,-0.9420906600000001,-9.776209363200001,0.9044070336000001,0.16459949,0.29856639,-3.09262886,,,
imu,181.889311,-0.9038088808000001,-9.7989391696,0.9151737840000002,0.35152224,0.6125966099999998,-2.94309066,,,
imu,181.898091,-0.8655271016000001,-9.785181655200002,0.9067996448000001,0.56087572,0.66493498,-2.94309066,,,
imu,181.906569,-0.8218619472,-9.783985349600002,0.9187627008000002,0.70293701,0.7696117199999999,-2.8234601,,,
imu,181.915046,-0.8122915024000001,-9.803126239200001,0.9211553120000001,0.64312173,0.6873657099999999,-2.84589083,,,
imu,181.923524,-0.7913561544000001,-9.821668976000002,0.9205571592,0.8375213899999999,0.6275504299999999,-2.73373718,,,
imu,181.932001,-0.7764023344000002,-9.775611210400001,0.9038088808000001,0.68050628,0.33595094,-2.95056757,,,
imu,181.940479,-0.7841783208,-9.746301723200002,0.9289312984000001,0.74779847,0.1490281899999997,-3.09262886,,,
imu,181.948956,-0.8098988912000001,-9.785181655200002,0.9361091320000001,0.91229049,-0.09770984000000027,-3.18235178,,,
imu,181.957434,-0.8164785720000002,-9.852174768800001,0.9325202152000002,0.94967504,-0.4117400600000001,-3.17487487,,,
imu,181.965911,-0.8248527112,-9.863539672000002,0.9241460760000001,0.8524752099999999,-0.5911859000000002,-3.29450543,,,
imu,181.974389,-0.8523677400000002,-9.850380310400002,0.9474740352000001,0.8674290299999999,-0.4491246100000001,-3.37675144,,,
imu,181.982866,-0.8709104768000001,-9.8330338792,0.9552500216000002,0.7104139199999999,-0.4416477000000003,-3.47395127,,,
imu,181.991344,-0.8535640456000001,-9.867128588800002,0.9546518688000002,0.68050628,-0.4416477000000003,-3.31693616,,,
imu,181.999822,-0.8481806704000001,-9.83961356,0.9277349928000002,0.56835263,-0.4042631500000002,-3.43656672,,,
imu,182.008299,-0.8505732816000001,-9.791761336000002,0.9301276040000002,0.30666078,-0.5463244400000002,-3.55619728,,,
imu,182.016777,-0.8565548096000002,-9.8043225448,0.9480721880000001,0.35152224,-0.4491246100000001,-3.43656672,,,
imu,182.025254,-0.8559566568000001,-9.8210708232,0.9355109792000001,0.41881443,-0.2846325900000002,-3.07019813,,,
imu,182.033732,-0.8697141712000002,-9.802528086400002,0.9247442288000001,0.40386061,-0.3070633200000001,-2.98795212,,,
imu,182.042209,-0.8978273528000001,-9.766638918400002,0.9235479232000001,0.28423005,-0.2472480400000001,-2.96552139,,,
imu,182.050687,-0.9014162696000001,-9.7128051664,0.9115848672000001,0.3889067899999999,-0.2023865800000002,-3.05524431,,,
imu,182.059164,-0.8978273528000001,-9.7074217912,0.8990236584000001,0.50853735,-0.1126636599999999,-3.54872037,,,
imu,182.067642,-0.9062014920000001,-9.7074217912,0.8798827688,0.71789083,-0.06780220000000003,-3.85527368,,,
imu,182.076119,-0.885266144,-9.7403201952,0.8607418792,0.8749059399999999,-0.03041764999999996,-3.92256587,,,
imu,182.084597,-0.9229497704,-9.760059237600002,0.8577511152000001,1.13659779,-0.08275602000000015,-3.86275059,,,
imu,182.093074,-0.9426888128,-9.803126239200001,0.8505732816000001,1.26370526,0.06678217999999969,-3.81041222,,,
imu,182.101552,-0.9660167720000001,-9.828248656800001,0.8565548096000002,1.43567419,0.11164364,-3.73564312,,,
imu,182.110012,-0.9612315496000001,-9.890456548000001,0.8416009896000001,1.5179202,0.47801223,-3.57862801,,,
imu,182.118471,-0.9325202152000002,-9.9329253968,0.8380120728000001,1.33847436,0.6798887999999996,-3.30945925,,,
imu,182.126931,-0.8996218112000001,-9.9239531048,0.8320305448000002,1.02444414,0.8294269999999999,-3.01785976,,,
imu,182.135391,-0.8780883104000001,-9.8617452136,0.8093007384,0.8449983,1.03878048,-2.51690679,,,
imu,182.143851,-0.8613400320000001,-9.8043225448,0.8248527112,0.6281679099999999,0.9116730099999999,-1.99352309,,,
imu,182.15231,-0.8081044328000001,-9.800135475200001,0.8087025856000001,0.77770611,0.9341037399999998,-1.33555501,,,
imu,182.16077,-0.780589404,-9.7959484056,0.8093007384,0.7552753799999999,0.9191499199999997,-1.00657097,,,
imu,182.16923,-0.7429057776,-9.7989391696,0.8206656416,0.8823828499999999,0.7397040799999997,-0.9617095099999999,,,
imu,182.177689,-0.744700236,-9.8132948368,0.8320305448000002,0.77770611,0.1714589200000001,-1.09629389,,,
imu,182.186149,-0.744700236,-9.775611210400001,0.8069081272,0.67302937,-0.1650020300000001,-1.38789338,,,
imu,182.194609,-0.7770004872000001,-9.818080059200001,0.8212637944000001,0.74779847,-0.5014629800000003,-1.91875399,,,
imu,182.203069,-0.804515516,-9.867726741600002,0.8278434752000001,0.7702292,-0.7407241,-2.50195297,,,
imu,182.211528,-0.8685178656000001,-9.900625145600001,0.8266471696000001,0.63564482,-0.8379239300000001,-2.95804448,,,
imu,182.219988,-0.9223516176000001,-9.855165532800001,0.8278434752000001,0.44872207,-0.8154932000000001,-3.25712088,,,
imu,182.228448,-0.9917373424000001,-9.83961356,0.8499751288000001,0.36647606,-0.6285704500000002,-3.7206893,,,
imu,182.236908,-1.037795108,-9.8330338792,0.8433954480000001,0.27675314,-0.2622018600000002,-3.9449966,,,
imu,182.245367,-1.079665804,-9.8043225448,0.8469843648000001,0.35152224,0.27613566,-3.99733497,,,
imu,182.253827,-1.0832547208,-9.7923594888,0.8565548096000002,0.41881443,0.7920424499999998,-4.13939626,,,
imu,182.262287,-1.0473655528,-9.8013317808,0.8744993936000002,0.41881443,1.33785688,-4.27398064,,,
imu,182.270746,-1.0306172744,-9.765442612800001,0.8619381848000001,0.68798319,1.88367131,-4.04219643,,,
imu,182.279206,-0.998915176,-9.766040765600001,0.8864624496000001,0.88985976,2.10797861,-3.81788913,,,
imu,182.287666,-0.9474740352000001,-9.792957641600001,0.8792846160000001,0.9945364999999999,2.31733209,-3.46647436,,,
imu,182.296126,-0.9121830200000002,-9.803126239200001,0.8709104768000001,1.11416706,2.60893158,-2.89075229,,,
imu,182.304585,-0.8619381848000001,-9.809107767200002,0.8888550608000001,1.15155161,2.60893158,-2.36736859,,,
imu,182.31305,-0.8266471696000001,-9.777405668800002,0.8164785720000002,1.07678251,2.4743472,-2.30755331,,,
imu,182.321515,-0.8302360864000001,-9.689477207200001,0.8374139200000001,1.16650543,2.27247063,-2.57672207,,,
imu,182.32998,-0.7746078760000001,-9.802528086400002,0.8553585040000001,1.54035093,2.00330187,-3.09262886,,,
imu,182.338445,-0.7536725280000001,-9.9030177568,0.8362176144000002,1.83195042,1.61450255,-3.42908981,,,
imu,182.346909,-0.7560651392000002,-9.8713156584,0.8380120728000001,1.56278166,1.25561087,-3.6459202,,,
imu,182.355374,-0.7692245008,-9.849184004800001,0.8523677400000002,1.26370526,0.9565344699999998,-3.85527368,,,
imu,182.363839,-0.8194693360000002,-9.8647359776,0.8326286976000001,1.24875144,0.6948426199999997,-4.079580979999999,,,
imu,182.372304,-0.8344231560000002,-9.858754449600001,0.8152822664000001,1.24875144,0.6051196999999999,-3.90013514,,,
imu,182.380769,-0.8607418792,-9.878493492,0.8344231560000002,1.09173633,0.5527813299999997,-3.82536604,,,
imu,182.389233,-0.8804809216,-9.866530436000001,0.8140859608000002,0.71789083,0.5453044199999999,-3.89265823,,,
imu,182.397698,-0.8816772272000001,-9.8402117128,0.8236564056000001,0.6281679099999999,0.4705353199999998,-3.72816621,,,
imu,182.406163,-0.885266144,-9.803126239200001,0.8254508640000001,0.6281679099999999,0.3658585799999998,-3.58610492,,,
imu,182.414628,-0.9247442288000001,-9.792957641600001,0.8218619472,0.53096808,0.5378275100000001,-3.43656672,,,
imu,182.423093,-0.9241460760000001,-9.777405668800002,0.8248527112,0.73284465,0.4331507699999997,-3.33188998,,,
imu,182.431558,-0.8990236584000001,-9.772620446400001,0.8338250032000001,1.0693056,0.5378275100000001,-2.99542903,,,
imu,182.440022,-0.900219964,-9.770825988000002,0.8374139200000001,1.00949032,0.5901658799999998,-2.86084465,,,
imu,182.448487,-0.8667234072000001,-9.786377960800001,0.8661252544000001,1.22632071,0.5901658799999998,-2.68887572,,,
imu,182.456952,-0.8338250032000001,-9.7911631832,0.86732156,1.33099745,0.50044296,-2.56924516,,,
imu,182.465417,-0.8128896552000001,-9.7989391696,0.8912476720000001,1.4431511,0.3284740299999998,-2.38979932,,,
imu,182.473882,-0.7931506128000001,-9.806715156000001,0.9020144224000001,1.42819728,0.2686587499999997,-2.38232241,,,
imu,182.482346,-0.7817857096,-9.8049206976,0.8864624496000001,1.42819728,0.2013665599999999,-2.5243837,,,
imu,180.976227,,,,,,,88.123766,4.132106799999979,214.401172
imu,181.077759,,,,,,,86.2560644,4.168728399999977,217.3064856
imu,181.179352,,,,,,,86.23164999999999,4.632601999999997,216.4519816
imu,181.280945,,,,,,,86.353722,3.973413199999998,216.5130176
imu,181.382477,,,,,,,85.6090828,4.742466799999989,216.171216
imu,181.484009,,,,,,,85.47480359999999,4.779088399999987,216.476396
imu,181.585602,,,,,,,85.6579116,4.608187599999991,215.7927928
imu,181.68808,,,,,,,85.92647,4.388457999999984,215.4509912
imu,182.490811,-0.7859727792000001,-9.797742864000002,0.8924439776000002,1.56278166,0.1789358299999999,-2.56924516,,,
imu,182.499276,-0.8015247520000001,-9.7923594888,0.8996218112000001,1.53287402,-0.02294074000000013,-2.85336774,,,
imu,182.507741,-0.8272453224,-9.815687448000002,0.9097904088000002,1.45062801,-0.03789456000000024,-2.86832156,,,
imu,182.516212,-0.8637326432000001,-9.833632032,0.8954347416000001,1.46558183,-0.1051867500000001,-2.9729983,,,
imu,182.524683,-0.8774901576000002,-9.824659740000001,0.8846679912000001,1.40576655,-0.09770984000000027,-3.1225365,,,
imu,182.533154,-0.8768920048000002,-9.822267128800002,0.9020144224000001,1.48053565,0.11164364,-3.0477674,,,
imu,182.541626,-0.8679197128000001,-9.874306422400002,0.8792846160000001,1.60016621,0.3060432999999998,-3.07767504,,,
imu,182.550097,-0.8691160184000001,-9.852174768800001,0.8613400320000001,1.52539711,0.4929660499999997,-3.09262886,,,
imu,182.558568,-0.8756956992000001,-9.8168837536,0.8643307960000001,1.39828964,0.7097964399999999,-2.94309066,,,
imu,182.567039,-0.8697141712000002,-9.8013317808,0.8583492680000002,1.45810492,0.84438082,-3.01038285,,,
imu,182.57551,-0.8828735328,-9.794752100000002,0.8416009896000001,1.39828964,0.9789651999999998,-3.07019813,,,
imu,182.583981,-0.8786864632000002,-9.8013317808,0.8439936008000001,1.47305874,1.12102649,-3.10010577,,,
imu,182.592453,-0.8744993936000002,-9.803126239200001,0.8410028368000001,1.60764312,1.29299542,-3.14496723,,,
imu,182.600924,-0.8816772272000001,-9.813892989600001,0.8469843648000001,1.48053565,1.38271834,-3.14496723,,,
imu,182.609395,-0.8643307960000001,-9.8210708232,0.8427972952,1.48053565,1.59207182,-3.01038285,,,
imu,182.617866,-0.8715086296000001,-9.8210708232,0.8350213088000001,1.42819728,1.81637912,-2.89075229,,,
imu,182.626337,-0.8619381848000001,-9.8264541984,0.8224601,1.56278166,2.09302479,-2.87579847,,,
imu,182.634808,-0.8691160184000001,-9.8330338792,0.8266471696000001,1.71231986,2.20517844,-2.81598319,,,
imu,182.64328,-0.8481806704000001,-9.8497821576,0.8236564056000001,1.68241222,2.21265535,-2.92813684,,,
imu,182.651751,-0.8416009896000001,-9.836622796,0.8140859608000002,1.62259694,2.37714737,-3.02533667,,,
imu,182.660222,-0.7913561544000001,-9.806715156000001,0.8242545584000001,1.57773548,2.48930102,-3.08515195,,,
imu,182.668693,-0.7758041816000001,-9.807313308800001,0.8278434752000001,1.54782784,2.53416248,-3.11505959,,,
imu,182.677164,-0.7488873056,-9.800135475200001,0.8104970440000001,1.64502767,2.48182411,-3.03281358,,,
imu,182.685635,-0.726755652,-9.765442612800001,0.8098988912000001,1.71231986,2.51920866,-3.0477674,,,
imu,182.694107,-0.7201759712000001,-9.766638918400002,0.8338250032000001,1.71979677,2.36967046,-3.25712088,,,
imu,182.702578,-0.7141944432000001,-9.776807516000002,0.8236564056000001,1.88428879,2.2500399,-3.27955161,,,
imu,182.711049,-0.7291482632,-9.7953502528,0.8398065312,2.0413039,1.84628676,-3.58610492,,,
imu,182.71987,-0.7333353328000001,-9.8144911424,0.8314323920000001,2.07868845,1.70422547,-4.04219643,,,
imu,182.728691,-0.7351297912000001,-9.8402117128,0.8284416280000001,2.13102682,1.28551851,-4.51324176,,,
imu,182.737512,-0.7668318896,-9.850380310400002,0.8158804192000001,2.01139626,1.03130357,-4.70016451,,,
imu,182.746333,-0.7835801680000001,-9.8617452136,0.8320305448000002,2.10859609,0.7770886299999997,-4.48333412,,,
imu,182.755153,-0.8212637944000001,-9.899428840000002,0.8320305448000002,1.92915025,0.8593346399999997,-4.146873169999999,,,
imu,182.763974,-0.8523677400000002,-9.920962340800001,0.8236564056000001,1.80204278,1.00139593,-3.78798149,,,
imu,182.772795,-0.8715086296000001,-9.911391896000003,0.8146841136000001,1.60764312,1.36776452,-3.52628964,,,
imu,182.781616,-0.8924439776000002,-9.897036228800001,0.8278434752000001,1.2936129,1.33785688,-3.55619728,,,
imu,182.790437,-0.8888550608000001,-9.879689797600001,0.8021229048,1.09173633,1.56216418,-3.60105874,,,
imu,182.799258,-0.8924439776000002,-9.88447502,0.8027210576,0.8375213899999999,1.68927165,-3.7206893,,,
imu,182.808079,-0.8912476720000001,-9.892849159200003,0.8057118216000001,0.78518302,1.84628676,-3.86275059,,,
imu,182.8169,-0.8715086296000001,-9.864137824800002,0.8122915024000001,0.7253677399999999,2.08554788,-3.63096638,,,
imu,182.825721,-0.8595455736000001,-9.836622796,0.8021229048,0.76275229,2.15284007,-3.40665908,,,
imu,182.834542,-0.8487788232000001,-9.7845835024,0.7997302936000001,0.97958268,2.40705501,-3.10010577,,,
imu,181.788869,,,,,,,85.02313720000001,4.803502799999992,215.5730632
imu,181.890431,,,,,,,88.40453159999998,4.010034799999995,212.5578848
imu,181.991994,,,,,,,85.2062452,4.937781999999991,215.6463064
imu,182.093648,,,,,,,88.5876396,4.241971599999994,213.5954968
imu,182.195119,,,,,,,85.92647,5.011025199999986,216.0735584
imu,182.296681,,,,,,,85.8288124,4.864538799999996,216.0857656
imu,182.398213,,,,,,,86.03633479999999,4.595980399999977,216.2688736
imu,182.499776,,,,,,,86.4513796,4.376250799999992,215.9392792
imu,182.601369,,,,,,,86.24385720000001,4.803502799999992,216.11018
imu,182.702901,,,,,,,86.24385720000001,4.998817999999994,215.5974776
imu,182.804646,,,,,,,86.4391724,4.608187599999991,216.0125224
