Type,Timestamp,Data Accelerometer X,Data Accelerometer Y,Data Accelerometer Z,Data Gyroscope X,Data Gyroscope Y,Data Gyroscope Z,Data Magnetometer X,Data Magnetometer Y,Data Magnetometer Z
imu,221.273256,-1.4810263328,-9.1092689912,3.514147700000001,-0.67281443,-45.6021841,19.24837822,,,
imu,221.281685,-1.528280404,-9.160710132,3.4896234352,0.41881443,-45.55732264,19.91382321,,,
imu,221.290114,-1.6048439624,-9.135587714400002,3.460313948,1.30108981,-45.25076933,20.8035755,,,
imu,221.298598,-1.692772424,-9.183439938400001,3.4950068104,2.28804193,-44.39092468,21.6260356,,,
imu,221.307082,-1.7442135648,-9.297687123200001,3.530895978400001,3.17031731,-42.90301959,22.26157295,,,
imu,221.315566,-1.7878787192,-9.305463109600002,3.4968012688,3.731085559999999,-41.09360737,22.43354188,,,
imu,221.32405,-1.8488903048,-9.277349928000001,3.5015864912,4.16474634,-39.13465695,22.20923458,,,
imu,221.332534,-1.857264444,-9.2970889704,3.4920160464,4.56849948,-36.86915322,21.61108178,,,
imu,221.341018,-1.8787979448,-9.3246039992,3.474669615200001,4.93486807,-34.46906511,20.84843696,,,
imu,221.349502,-1.8524792216,-9.364082084000001,3.4734733096,5.34609812,-32.30076121,19.42034715,,,
imu,221.357985,-1.8458995408,-9.361091320000002,3.451341656,5.93677401,-29.93805765,17.92496515,,,
imu,221.366469,-1.8285531096,-9.357502403200002,3.420835863200001,6.46015771,-27.68003083,16.77352101,,,
imu,221.374953,-1.7848879552,-9.3557079448,3.388535612000001,6.84895703,-25.33228109,15.943584,,,
imu,221.383437,-1.785486108,-9.346735652800001,3.3394870824,7.29009472,-22.87985461,15.15850845,,,
imu,221.391921,-1.7741212048,-9.329389221600001,3.313766512,7.66394022,-20.24798229,14.79213986,,,
imu,221.400405,-1.797449164,-9.3317818328,3.3035979144,7.97049353,-17.64601761,14.2986638,,,
imu,221.408856,-1.7950565528,-9.323407693600002,3.286849636000001,8.299477569999999,-14.97676074,13.42386533,,,
imu,221.41734,-1.7998417752,-9.3060612624,3.298812692000001,8.449015769999999,-12.00095056,12.22008282,,,
imu,221.425824,-1.7603636904,-9.33118368,3.2940274696,8.64341543,-8.92046364,10.82937756,,,
imu,221.434308,-1.6616684784,-9.302472345600002,3.2575401488,8.516307959999999,-5.84745363,9.35642629,,,
imu,221.442792,-1.5659640304,-9.2929019008,3.2294269672,8.26956993,-3.07352002,7.91338266,,,
imu,221.451276,-1.4301833448,-9.305463109600002,3.2204546752,8.366769759999999,-0.4715553400000001,6.806799980000001,,,
imu,221.459759,-1.297991576,-9.340155972000002,3.207893466400001,8.74809217,1.71917929,5.827324770000001,,,
imu,221.468243,-1.1861370024,-9.381428515200001,3.2084916192,9.017260929999999,3.27437657,4.84784956,,,
imu,221.476727,-1.1077789856,-9.447225323200001,3.212678688800001,9.592982999999998,4.62022037,4.115112379999999,,,
imu,221.485211,-1.0545433864,-9.487899713600001,3.20011748,9.892059399999999,5.55483412,3.28517537,,,
imu,221.493695,-1.0563378448,-9.529770409600001,3.1929396464,10.05655142,6.25766366,2.485146,,,
imu,221.502145,-1.0575341504,-9.541135312800002,3.1737987568,10.31076636,7.42406162,1.97671612,,,
imu,221.510594,-1.0473655528,-9.532163020800002,3.1391058944,10.25095108,8.41101374,1.34117877,,,
imu,221.519044,-1.0084856208,-9.520199964800002,3.098431504000001,10.6397504,9.6521808,0.8177950699999998,,,
imu,221.527493,-0.9253423816,-9.522592576000001,3.049981127200001,10.90144225,10.70642511,0.07758098000000002,,,
imu,221.535943,-0.8140859608000002,-9.587193078400002,3.0099048896,10.90891916,11.30457791,-0.5878640099999999,,,
imu,221.544392,-0.6621551496,-9.572837411200002,2.9722212632,10.87153461,11.40177774,-1.20097063,,,
imu,221.552842,-0.5730303824,-9.578818939200001,2.9776046384,10.69956568,10.93820932,-1.44023175,,,
imu,221.561291,-0.5293652280000001,-9.626671163200001,2.94590254,10.42292001,9.81667282,-1.26078591,,,
imu,221.569741,-0.5377393672000002,-9.689477207200001,2.9500896096,9.95187468,8.56055194,-0.7822636699999999,,,
imu,221.578191,-0.5694414656000001,-9.7325442088,2.9482951512,9.49578317,7.34929252,-0.29626452,,,
imu,221.58664,-0.6184899952000001,-9.6703363176,2.898050316,8.822861269999999,6.38477113,0.18225772,,,
imu,221.59509,-0.6783052752000002,-9.597959828800002,2.859768536800001,8.20227774,5.659510859999999,0.5411494000000001,,,
imu,221.603539,-0.7638411256000001,-9.6290637744,2.8555814672,7.62655567,5.113696429999999,0.60844159,,,
imu,221.611989,-0.8410028368000001,-9.651793580800001,2.8190941464,7.18541798,5.05388115,0.3168421000000001,,,
imu,221.620438,-0.9361091320000001,-9.633250844,2.7861957424,6.99101832,5.40529592,-0.34860289,,,
imu,221.628888,-1.0342061912,-9.671532623200001,2.789186506400001,6.83400321,5.97354108,-1.09629389,,,
imu,221.637337,-1.112564208,-9.6918698184,2.7981587984,6.94615686,7.16984668,-1.83650798,,,
imu,221.645787,-1.1699868768,-9.6817012208,2.78141052,6.78166484,8.6054134,-2.48699915,,,
imu,221.654237,-1.2238206288,-9.654784344800001,2.7957661872,6.51249608,10.43725635,-2.91318302,,,
imu,221.662686,-1.2405689072,-9.6434194416,2.7927754232,6.27323496,12.53826806,-3.15244414,,,
imu,221.671136,-1.24116706,-9.6218859408,2.801747715200001,6.3031426,14.60189522,-3.62348947,,,
imu,221.679585,-1.2513356576,-9.5949690648,2.8089255488,6.44520389,16.56084564,-3.75807385,,,
imu,221.688035,-1.2495411992,-9.602146898400001,2.8274682856,6.63212664,18.57213443,-4.00481188,,,
imu,221.696484,-1.2226243232,-9.585398620000001,2.8184959936,6.4526808,20.44136193,-4.32631901,,,
imu,221.705033,-1.1915203776,-9.5740337168,2.81131816,6.34800406,22.14609741,-4.48333412,,,
imu,221.713582,-1.1340977088,-9.582407856000001,2.79636434,6.10126603,23.71624851,-4.715118329999999,,,
imu,221.722131,-1.0742824288,-9.582407856000001,2.779616061600001,5.87695873,25.18919978,-4.83474889,,,
imu,221.730679,-1.0150653016,-9.5698466472,2.7820086728,5.79471272,26.28082864,-5.15625602,,,
imu,221.739228,-0.9654186192,-9.557285438400001,2.7826068256,5.68255907,27.24535003,-5.33570186,,,
imu,221.747777,-0.9151737840000002,-9.556089132800002,2.799355104,5.5554516,27.99304103,-5.41794787,,,
imu,221.756326,-0.8643307960000001,-9.566257730400002,2.817299688,5.46572868,28.65848602,-5.64973208,,,
imu,221.764874,-0.8194693360000002,-9.576426328,2.8161033824,5.33862121,28.93513169,-5.918900839999999,,,
imu,221.773423,-0.771617112,-9.5985579816,2.833449813600001,5.22646756,29.23420809,-6.270315609999999,,,
imu,221.781972,-0.7070166096,-9.6775141512,2.866348217600001,5.0320679,29.42113084,-6.65163802,,,
imu,221.79052,-0.6430142600000001,-9.722375611200002,2.8573759256,4.64326858,29.47346921,-6.883422229999999,,,
imu,221.799069,-0.5766192992000001,-9.7403201952,2.8436184112,4.12736179,29.39870011,-6.793699309999999,,,
imu,221.807618,-0.5377393672000002,-9.7504887928,2.823281216,3.62640882,29.15196208,-6.65163802,,,
imu,221.816167,-0.4970649768000001,-9.743909112,2.8071310904,3.06564057,28.60614765,-6.74136094,,,
imu,221.824715,-0.4916816016,-9.702636568800001,2.7957661872,2.42262631,28.21734833,-6.576868919999999,,,
imu,221.833264,-0.4880926848000001,-9.648204664000001,2.7897846592,1.82447351,27.55938025,-6.53948437,,,
imu,221.841813,-0.5000557408,-9.590183842400002,2.7760271448,1.40576655,27.08833492,-6.621730379999999,,,
imu,221.850362,-0.5114206440000001,-9.5219944232,2.771241922400001,1.39081273,26.87150453,-6.397423079999999,,,
imu,221.85891,-0.5467116592000001,-9.483712644000002,2.802345868,1.48053565,26.66215105,-6.464715269999999,,,
imu,221.867459,-0.5407301312,-9.511227672800002,2.8304590496,1.56278166,26.43784375,-6.77874549,,,
imu,221.876008,-0.5293652280000001,-9.472347740800002,2.825075674400001,1.82447351,26.55747431,-7.10772953,,,
imu,221.884557,-0.5305615336,-9.460982837600001,2.8406276472,1.99644244,26.37802847,-7.339513739999999,,,
imu,221.893105,-0.5078317272000001,-9.4765348104,2.8699371344,2.08616536,26.24344409,-7.57129795,,,
imu,221.901654,-0.4952705184000001,-9.499264616800001,2.8783112736,2.27308811,26.03409061,-7.511482669999999,,,
imu,221.910378,-0.4785222400000001,-9.491488630400001,2.873526051200001,2.31047266,25.7275373,-7.0852988,,,
imu,221.919102,-0.4671573368000001,-9.478329268800001,2.8813020376,2.43010322,25.37612253,-6.51705364,,,
imu,221.927826,-0.4629702672000001,-9.471151435200001,2.8783112736,2.50487232,24.96489248,-5.79179337,,,
imu,221.93655,-0.4510072112,-9.455001309600002,2.8866854128,2.63197979,24.55366243,-5.14877911,,,
imu,221.945274,-0.4288755576000001,-9.430477044800002,2.8789094264,2.7889949,23.98541727,-4.5431494,,,
imu,221.953998,-0.4282774048000001,-9.440645642400002,2.8854891072,2.9385331,23.46951048,-4.08705789,,,
imu,221.962722,-0.43366078,-9.443038253600001,2.891470635200001,3.28994787,22.91621914,-3.76555076,,,
imu,221.971446,-0.4498109056,-9.479525574400002,2.9136022888,3.70117792,22.48255836,-3.36179762,,,
imu,221.98017,-0.4294737104000001,-9.520199964800002,2.94590254,3.86566994,22.14609741,-3.13749032,,,
imu,221.988894,-0.4324644744,-9.5489112992,2.963847124,3.88810067,21.89935938,-3.01785976,,,
imu,221.997619,-0.424688488,-9.609324732000001,3.012895653600001,3.77594702,21.83206719,-2.98795212,,,
imu,222.006343,-0.3876030144000001,-9.639830524800002,3.0099048896,3.28994787,21.5404677,-2.83841392,,,
imu,222.015067,-0.3864067088000001,-9.602146898400001,2.987773236,2.79647181,21.13671456,-2.72626027,,,
imu,222.023791,-0.3481249296000001,-9.5602762024,2.9692304992,1.92167334,20.72548451,-2.79355246,,,
imu,222.032515,-0.3397507904000001,-9.526779645600001,2.9500896096,1.35342818,20.21705463,-2.79355246,,,
imu,222.041239,-0.3164228312,-9.5082369088,2.935733942400001,0.9646288599999999,19.71610166,-2.98047521,,,
imu,222.049963,-0.3038616224,-9.474740352000001,2.924967192,0.77770611,19.23010251,-3.11505959,,,
imu,222.058687,-0.2930948720000001,-9.440645642400002,2.924369039200001,0.68050628,18.61699589,-3.3468438,,,
imu,222.067411,-0.2990764,-9.416719530400002,2.920181969600001,0.8524752099999999,18.00388927,-3.52628964,,,
imu,222.076135,-0.305057928,-9.373054376,2.9153967472,0.9945364999999999,17.4281672,-3.75807385,,,
imu,222.084859,-0.3379563320000001,-9.3592968616,2.9303505672,1.30856672,17.14404462,-3.93004278,,,
imu,221.28213,,,,,,,92.06669160000001,-37.09160760000001,127.2295568
imu,222.093583,-0.3337692624,-9.3754469872,2.9512859152,2.01887317,17.16647535,-3.84031986,,,
imu,222.102307,-0.3313766512,-9.4137287664,2.9692304992,2.5646876,17.09170625,-3.7954584,,,
imu,222.110796,-0.3271895816000001,-9.4412437952,2.9835861664,2.91610237,17.03189097,-3.78050458,,,
imu,222.119285,-0.3014690112,-9.459786532,2.9674360408,3.04320984,17.04684479,-3.68330475,,,
imu,222.127774,-0.305057928,-9.4454308648,2.963248971200001,3.28994787,17.04684479,-3.54124346,,,
imu,222.136263,-0.2847207328,-9.4286825864,2.9542766792,3.282470959999999,16.86739895,-3.36179762,,,
imu,222.144752,-0.2715613712,-9.4280844336,2.9303505672,3.36471697,16.72533766,-3.38422835,,,
imu,222.153241,-0.2554112456,-9.419112141600001,2.908218913600001,3.5366859,16.49355345,-3.26459779,,,
imu,222.16173,-0.2458408008,-9.4322715032,2.9345376368,3.62640882,16.0823234,-3.24216706,,,
imu,222.170219,-0.2368685088,-9.488497866400001,2.910013372,3.79837775,15.82810846,-3.09262886,,,
imu,222.178708,-0.2428500368,-9.5381445488,2.9022373856,3.925485220000001,15.43930914,-3.09262886,,,
imu,222.187197,-0.2296906752000001,-9.554892827200002,2.9064244552,3.88810067,15.06546364,-3.20478251,,,
imu,222.195686,-0.2219146888,-9.594370912,2.9213782752,3.88062376,14.78134106,-3.14496723,,,
imu,222.204175,-0.2380648144,-9.618297024,2.9034336912,3.925485220000001,14.54207994,-3.08515195,,,
imu,222.212664,-0.2141387024,-9.623082246400001,2.9165930528,3.88062376,14.19066517,-3.00290594,,,
imu,222.221153,-0.1985867296,-9.633250844,2.8848909544,3.77594702,14.1383268,-2.71130645,,,
imu,222.229642,-0.191408896,-9.618297024,2.8484036336,3.52173208,13.86915804,-2.44213769,,,
imu,222.238131,-0.1866236736,-9.5865949256,2.831655355200001,3.140409669999999,13.65980456,-2.1505382,,,
imu,222.24662,-0.1591086448,-9.5590798968,2.8190941464,2.99087147,13.36072816,-1.94118472,,,
imu,222.255109,-0.1423603664,-9.545322382400002,2.7939717288,3.140409669999999,13.21866687,-1.65706214,,,
imu,222.263598,-0.1309954632,-9.5148165896,2.7826068256,3.10302512,12.84482137,-1.70940051,,,
imu,222.272087,-0.1274065464,-9.485507102400002,2.773634533600001,2.95348692,12.51583733,-1.61220068,,,
imu,222.280576,-0.1214250184,-9.478927421600002,2.780812367200001,3.05816366,12.08217655,-1.79912343,,,
imu,222.289065,-0.128602852,-9.463973601600001,2.779616061600001,3.02077911,11.73076178,-1.82903107,,,
imu,222.297553,-0.128602852,-9.499264616800001,2.7532973384,3.43200916,11.64103886,-1.80660034,,,
imu,222.306042,-0.1447529776,-9.498666464000001,2.7467176576,3.91800831,11.43916229,-1.97856927,,,
imu,222.314511,-0.1489400472,-9.517807353600002,2.764064088800001,3.85071612,11.27467027,-2.19539966,,,
imu,222.32298,-0.1483418944,-9.550705757600001,2.754493644000001,4.21708471,11.23728572,-2.35241477,,,
imu,222.331448,-0.140565908,-9.574631869600001,2.742530588,4.2843769,11.10270134,-2.49447606,,,
imu,222.339917,-0.1519308112,-9.5865949256,2.7323619904,4.32176145,11.21485499,-2.55429134,,,
imu,222.348386,-0.1501363528,-9.5865949256,2.727576768,4.39653055,11.13260898,-2.78607555,,,
imu,222.356854,-0.1495382,-9.5949690648,2.712622948,4.31428454,11.25223954,-2.91318302,,,
imu,222.365323,-0.1543234224,-9.5907819952,2.696472822400001,4.2843769,11.18494735,-2.92065993,,,
imu,222.373791,-0.1561178808,-9.575828175200002,2.6845097664,4.10493106,11.02793224,-3.18235178,,,
imu,222.38226,-0.1656883256,-9.581809703200001,2.667163335200001,4.02268505,10.83353258,-3.43656672,,,
imu,222.390729,-0.1776513816,-9.593174606400002,2.6474242928,3.947915950000001,10.80362494,-3.52628964,,,
imu,222.399197,-0.1800439928,-9.5812115504,2.6270870976,3.95539286,10.85596331,-3.65339711,,,
imu,222.407666,-0.1878199792,-9.574631869600001,2.6193111112,4.05259269,10.75128657,-3.63844329,,,
imu,222.416135,-0.2021756464,-9.559678049600002,2.6187129584,4.20213089,10.74380966,-3.58610492,,,
imu,222.424603,-0.1926052016,-9.609324732000001,2.6193111112,4.38905364,10.71390202,-3.63096638,,,
imu,222.433072,-0.1908107432,-9.652989886400002,2.6127314304,4.52363802,10.56436382,-3.66087402,,,
imu,222.44154,-0.1842310624,-9.6535880392,2.6031609856,4.56849948,10.63165601,-3.75059694,,,
imu,222.450009,-0.1680809368,-9.647606511200001,2.610936972000001,4.50120729,10.55688691,-3.77302767,,,
imu,222.458478,-0.1507345056,-9.673925234400002,2.6234981808,4.26942308,10.59427146,-3.6459202,,,
imu,222.466946,-0.1441548248,-9.706225485600001,2.615124041600001,4.1348387,10.64660983,-3.11505959,,,
imu,222.475415,-0.131593616,-9.7074217912,2.6145258888,3.89557758,10.57184073,-2.53933752,,,
imu,222.483884,-0.1124527264,-9.723571916800001,2.6055535968,3.46939371,10.64660983,-2.01595382,,,
imu,222.492352,-0.1010878232,-9.7217774584,2.598973916,3.09554821,10.71390202,-1.29069355,,,
imu,222.500776,-0.09510629520000001,-9.711010708000002,2.588207165600001,2.863764,10.68399438,-0.73740221,,,
imu,222.509244,-0.08314323920000001,-9.6846919848,2.581029332,2.63197979,10.6989482,-0.5579563699999999,,,
imu,222.517708,-0.06160973840000001,-9.6709344704,2.5606921368,2.47496468,10.53445618,-0.5056179999999999,,,
imu,222.526171,-0.0753672528,-9.630260080000001,2.545140164,2.4899185,10.19799523,-0.49066418,,,
imu,222.534635,-0.101685976,-9.582407856000001,2.5523179976,2.57964142,9.9512572,-0.6925407499999998,,,
imu,222.543098,-0.1094619624,-9.5907819952,2.57205704,2.80394872,10.00359557,-0.6701100199999999,,,
imu,222.551562,-0.09690075360000001,-9.618297024,2.584020096,2.90114855,10.00359557,-0.7897405799999999,,,
imu,222.560025,-0.09749890640000002,-9.620689635200002,2.5965813048,3.18527113,10.07088776,-0.8794635,,,
imu,222.568489,-0.1130508792,-9.585398620000001,2.5894034712,3.39462461,10.15313377,-0.8719865899999999,,,
imu,222.576953,-0.116639796,-9.5776226336,2.599572068800001,3.39462461,10.24285669,-1.05890934,,,
imu,222.585416,-0.08433954480000001,-9.5907819952,2.6270870976,3.55911663,10.28024124,-1.29069355,,,
imu,222.59388,-0.07656355840000001,-9.5949690648,2.619909264,3.67127028,10.37744107,-1.50752394,,,
imu,222.602343,-0.06220789120000001,-9.585398620000001,2.620507416800001,3.65631646,9.98864175,-2.03838455,,,
imu,222.610807,-0.0514411408,-9.585996772800002,2.6270870976,3.5366859,9.71947299,-2.63653735,,,
imu,222.61927,-0.03110394560000001,-9.596165370400001,2.6264889448,3.4619168,9.300766029999998,-3.15992105,,,
imu,222.627734,-0.0203371952,-9.627269316000001,2.6420409176,3.37219388,8.87458216,-3.59358183,,,
imu,222.636197,-0.020935348,-9.669738164800002,2.6360593896,3.3123786,8.54559812,-3.56367419,,,
imu,222.644661,-0.0257205704,-9.690075360000002,2.6390501536,3.06564057,8.11193734,-3.53376655,,,
imu,222.653124,-0.0442633072,-9.685888290400001,2.6444335288,3.04320984,7.56612291,-3.28702852,,,
imu,222.661588,-0.0550300576,-9.672728928800002,2.6366575424,2.7889949,7.31190797,-3.07767504,,,
imu,222.670052,-0.0562263632,-9.673925234400002,2.6510132096,2.407672489999999,7.09507758,-2.77859864,,,
imu,222.678515,-0.0681894192,-9.635045302400002,2.6611818072,1.9665348,6.87077028,-2.44213769,,,
imu,222.686979,-0.06400234960000001,-9.593772759200002,2.657592890400001,1.49548947,6.76609354,-2.21783039,,,
imu,222.695442,-0.0723764888,-9.5393408544,2.6270870976,1.15155161,6.78104736,-1.78416961,,,
imu,222.703906,-0.08194693360000001,-9.4938812416,2.598973916,0.94967504,7.012831569999999,-1.31312428,,,
imu,222.712369,-0.07955432240000002,-9.470553282400001,2.585814554400001,0.91229049,7.1100314,-0.8794635,,,
imu,222.720834,-0.0783580168,-9.475936657600002,2.5696644288,1.04687487,7.25209269,-0.6102947399999998,,,
imu,222.729299,-0.07775986400000001,-9.4843107968,2.57205704,1.37585891,7.49883072,-0.5280487299999999,,,
imu,222.737764,-0.068787572,-9.505246144800001,2.5612902896,1.65998149,7.73061493,-0.4682334499999998,,,
imu,222.746228,-0.05981528000000001,-9.5393408544,2.5618884424,2.01139626,7.96239914,-0.4532796299999999,,,
imu,222.754693,-0.03349655680000001,-9.536350090400001,2.566075512,2.12354991,8.044645150000001,-0.6177716499999999,,,
imu,222.763158,-0.017944584,-9.560874355200001,2.5732533456,2.17588828,8.06707588,-0.79721749,,,
imu,222.771623,0.0113649032,-9.5740337168,2.5846182488,2.06373463,8.16427571,-0.77478676,,,
imu,222.780088,0.0275150288,-9.559678049600002,2.6061517496,1.69736604,8.119414249999998,-0.5953409199999999,,,
imu,222.788553,0.04845037680000001,-9.5842023144,2.620507416800001,1.20388998,8.10446043,-0.4158950799999999,,,
imu,222.797017,0.09091922560000001,-9.594370912,2.6193111112,0.85995212,8.20913717,0.07758098000000002,,,
imu,222.805482,0.1148453376,-9.583006008800002,2.6312741672,0.43376825,8.007260599999999,0.3691804699999999,,,
imu,222.813947,0.1357806856,-9.572837411200002,2.6043572912,0.20946095,8.03716824,0.8028412500000002,,,
imu,222.822412,0.1650901728,-9.5237888816,2.57205704,0.20198404,7.94744532,1.14677911,,,
imu,222.830877,0.185427368,-9.483712644000002,2.5547106088,0.46367589,7.73061493,1.29631731,,,
imu,222.839341,0.2189239248,-9.4729458936,2.5367660248,1.03192105,7.603507459999999,1.61782444,,,
imu,222.847806,0.2308869808,-9.468758824,2.536167872,1.45810492,7.506307629999999,1.75988573,,,
imu,222.856271,0.2548130928,-9.488497866400001,2.5283918856,1.80204278,7.41658471,2.15616196,,,
imu,222.864736,0.260196468,-9.534555632000002,2.541551247200001,1.98896553,7.37172325,2.44028454,,,
imu,222.873201,0.28412258,-9.575828175200002,2.545140164,2.09364227,7.58855364,2.70197639,,,
imu,222.881665,0.2859170384,-9.644017594400001,2.564879206400001,2.38524176,7.693230379999999,2.86646841,,,
imu,222.89013,0.2948893304,-9.697253193600002,2.554112456,2.42262631,7.7829533,2.79917622,,,
imu,222.898595,0.2865151912,-9.738525736800002,2.570860734400001,2.45253395,7.790430209999999,2.35056162,,,
imu,221.383723,,,,,,,97.3157876,-38.66633640000001,124.0800992
imu,221.485255,,,,,,,96.55894119999999,-38.47102120000001,126.9487912
imu,221.586848,,,,,,,96.6565988,-39.39876840000001,126.7290616
imu,221.688532,,,,,,,96.04623880000001,-40.09457880000002,127.2905928
imu,221.789942,,,,,,,94.3128164,-40.75376760000002,127.6446016
imu,221.891566,,,,,,,93.0920964,-40.02133560000001,127.0952776
imu,221.993067,,,,,,,90.50416999999999,-39.41097560000002,126.7900976
imu,222.09466,,,,,,,91.01687240000001,-39.56966920000002,126.1919448
imu,222.90706,0.3098431504,-9.796546558400001,2.597179457600001,2.42262631,7.812860939999999,1.46828624,,,
imu,222.915525,0.3307784984000001,-9.800135475200001,2.6211055696,2.02635008,7.745568749999999,0.44394957,,,
imu,222.924324,0.3391526376000001,-9.731946056000002,2.6043572912,1.5179202,7.73061493,-0.4233719899999999,,,
imu,222.933124,0.3487230824000001,-9.633250844,2.5888053184,0.7253677399999999,7.88015313,-0.8346020399999998,,,
imu,222.941924,0.3738455000000001,-9.5172092008,2.5654773592,0.13469185,8.022214420000001,-0.9243249599999999,,,
imu,222.950723,0.3887993200000001,-9.419112141600001,2.533177108,-0.30644584,8.0820297,-0.90937114,,,
imu,222.959523,0.3989679176000001,-9.373054376,2.4871193424,-0.35878421,8.31381391,-0.7224483899999998,,,
imu,222.968323,0.4342589328000001,-9.348530111200002,2.4350800488,-0.23915365,8.23904481,-0.57291019,,,
imu,222.977122,0.4384460024000001,-9.361689472800002,2.4159391592,0.43376825,8.32876773,-0.62524856,,,
imu,222.985922,0.4378478496000001,-9.423299211200002,2.4290985208,1.50296638,8.18670644,-1.02152479,,,
imu,222.994722,0.4498109056,-9.536350090400001,2.4685766056,2.32542648,8.022214420000001,-1.76173888,,,
imu,223.003522,0.4599795032,-9.614109954400002,2.494895328800001,2.45253395,7.745568749999999,-2.55429134,,,
imu,223.012321,0.4617739616000001,-9.673925234400002,2.539158636000001,2.07868845,7.461446169999999,-3.15992105,,,
imu,223.021121,0.4683536424000001,-9.708019944000002,2.557103220000001,1.75718132,7.296954149999999,-3.42908981,,,
imu,223.029921,0.4862982264000001,-9.679308609600001,2.560093984,1.2188438,7.21470814,-3.37675144,,,
imu,223.03872,0.5156077136000001,-9.596763523200002,2.506858384800001,0.57582954,7.1848005,-3.13749032,,,
imu,223.04752,0.5150095608,-9.477731116000001,2.4380708128,0.50853735,7.22966196,-2.59167589,,,
imu,223.05632,0.5114206440000001,-9.385615584800002,2.344758976,1.01696723,7.16984668,-1.94118472,,,
imu,223.065119,0.4827093096,-9.363483931200001,2.255036056,2.08616536,7.080123759999999,-1.56733922,,,
imu,223.073919,0.4587831976000001,-9.4005694048,2.2317080968,3.58154736,6.99040084,-1.67201596,,,
imu,223.082719,0.439642308,-9.5566872856,2.2873363072,4.90496043,6.87077028,-2.32250713,,,
imu,223.091518,0.4199032656,-9.7301515976,2.3172439472,5.82462036,6.69880135,-3.14496723,,,
imu,223.100318,0.4288755576000001,-9.865932283200001,2.3633017128,6.01902002,6.564216969999999,-4.10948862,,,
imu,223.109118,0.4061457512000001,-9.939505077600002,2.3908167416,5.35357503,6.564216969999999,-5.08148692,,,
imu,223.117917,0.3887993200000001,-9.969412717600003,2.3973964224,4.32923836,6.5866477,-5.53757843,,,
imu,223.126397,0.3941826952,-9.952664439200001,2.36270356,3.19274804,6.773570449999999,-5.53757843,,,
imu,223.134877,0.3971734592000001,-9.886269478400003,2.3022901272,2.16841137,6.99040084,-5.69459354,,,
imu,223.143358,0.4049494456000001,-9.788172419200002,2.231109944,1.30856672,7.06516994,-5.75440882,,,
imu,223.151838,0.4109309736,-9.682897526400001,2.18325772,0.97210577,6.92310865,-5.69459354,,,
imu,223.160318,0.415716196,-9.654784344800001,2.2083801376,0.97210577,6.5866477,-6.098346680000001,,,
imu,223.168798,0.4199032656,-9.669738164800002,2.249054528,0.79265993,6.033356359999999,-6.54696128,,,
imu,223.177278,0.4127254320000001,-9.6733270816,2.2795603208,0.56087572,5.57726485,-6.950714420000001,,,
imu,223.185758,0.3774344168000001,-9.6434194416,2.284943696,0.18703022,5.27071154,-6.883422229999999,,,
imu,223.194238,0.3702565832000001,-9.635643455200002,2.3022901272,-0.28401511,4.76975857,-6.75631476,,,
imu,223.202718,0.3684621248000001,-9.600352440000002,2.3226273224,-0.56066078,4.39591307,-6.838560769999999,,,
imu,223.211198,0.3624805968,-9.567454036,2.3232254752,-0.64290679,4.05197521,-6.50209982,,,
imu,223.219678,0.3559009160000001,-9.534555632000002,2.3082716552,-0.48589168,3.797760269999999,-6.098346680000001,,,
imu,223.228158,0.3451341656,-9.4962738528,2.3160476416,-0.08213854000000001,3.5958837,-5.82170101,,,
imu,223.236638,0.34393786,-9.465169907200002,2.307673502400001,0.56087572,2.98277708,-5.62730135,,,
imu,223.245118,0.3188154424,-9.4460290176,2.304084585600001,1.34595127,2.34723973,-5.784316459999999,,,
imu,223.253598,0.3014690112,-9.460384684800001,2.341768212,2.05625772,1.68927165,-5.97871612,,,
imu,223.262079,0.2799355104,-9.505844297600001,2.3668906296,2.64693361,0.9939190199999999,-6.509576729999999,,,
imu,223.270559,0.2314851336,-9.5865949256,2.447043104800001,3.11797894,0.3209971199999999,-7.055391159999999,,,
imu,223.279039,0.212344244,-9.727160833600001,2.4960916344,3.36471697,0.01444380999999995,-7.294652279999999,,,
imu,223.287519,0.1680809368,-9.821668976000002,2.548729080800001,3.12545585,-0.3294940500000001,-7.42175975,,,
imu,223.295999,0.13458438,-9.898830687200002,2.604955444,2.37776485,-0.45660152,-7.48905194,,,
imu,223.304479,0.09450814240000002,-9.967618259200002,2.6193111112,1.71231986,-0.4042631500000002,-7.46662121,,,
imu,223.312959,0.05443190480000001,-9.9688145648,2.6187129584,0.97958268,-0.3594016900000003,-7.294652279999999,,,
imu,223.321439,0.03289840400000001,-9.904214062400001,2.619909264,0.08235347999999998,-0.1425713000000002,-7.0852988,,,
imu,223.330116,0.0065796808,-9.822267128800002,2.6043572912,-0.48589168,0.1041667299999998,-6.920806779999999,,,
imu,223.338793,-0.0011963056,-9.7636481544,2.6043572912,-1.06909066,0.2462280199999998,-6.644161110000001,,,
imu,223.347471,0.004187069600000001,-9.678710456800001,2.6085443608,-1.67472037,0.7097964399999999,-6.16563887,,,
imu,223.356148,-0.0011963056,-9.590183842400002,2.6181148056,-2.39250373,1.02382666,-5.67216281,,,
imu,223.364825,0.0167482784,-9.544126076800001,2.6486205984,-2.98317962,1.50982581,-5.09644074,,,
imu,223.373502,0.02990764000000001,-9.501657228000001,2.6540039736,-3.50656332,2.10797861,-4.386134289999999,,,
imu,223.382179,0.0550300576,-9.456795768000001,2.6659670296,-3.95517792,2.59397776,-3.51881273,,,
imu,223.390856,0.08314323920000001,-9.422102905600001,2.6683596408,-3.7906859,3.13979219,-2.80850628,,,
imu,223.399534,0.1292010048,-9.374848834400002,2.64682614,-3.4168404,3.5211146,-2.41223005,,,
imu,223.408211,0.1591086448,-9.3126409432,2.6252926392,-2.6691494,3.75289881,-2.20287657,,,
imu,223.416888,0.1979885768,-9.288116678400002,2.6193111112,-1.57752054,3.85009864,-2.13558438,,,
imu,223.425565,0.2266999112,-9.271368400000002,2.5983757632,-0.32887657,3.98468302,-2.12810747,,,
imu,223.434242,0.2398592728,-9.2617979552,2.5612902896,1.12164397,3.78280645,-2.03090764,,,
imu,223.442919,0.287113344,-9.291107442400001,2.5373641776,2.66936434,3.86505246,-2.05333837,,,
imu,223.451597,0.3170209840000001,-9.318024318400001,2.508652843200001,4.04511578,3.60336061,-2.12063056,,,
imu,223.460274,0.3397507904000001,-9.356904250400001,2.4936990232,5.30123666,3.3715764,-2.21783039,,,
imu,223.468951,0.3630787496,-9.416121377600001,2.4841285784,6.34800406,2.96782326,-2.21035348,,,
imu,223.477628,0.3893974728000001,-9.443038253600001,2.485324884000001,7.05831051,2.55659321,-2.38979932,,,
imu,223.486305,0.4109309736,-9.489096019200002,2.4679784528,7.67889404,2.23508608,-2.2253073,,,
imu,223.494982,0.4252866408000001,-9.556089132800002,2.447043104800001,8.239662289999998,1.577118,-2.35241477,,,
imu,223.503659,0.4187069600000001,-9.581809703200001,2.4207243816,8.53126178,1.03130357,-2.26269185,,,
imu,223.512337,0.4234921824,-9.593174606400002,2.401583492,8.72566144,0.4256738599999998,-2.4496146,,,
imu,223.521014,0.4330626272,-9.632054538400002,2.3764610744,8.710707619999999,-0.1051867500000001,-2.57672207,,,
imu,223.529691,0.4318663216,-9.632054538400002,2.341768212,8.718184529999998,-0.71829337,-2.69635263,,,
imu,223.537947,0.3953790008,-9.630260080000001,2.3172439472,8.710707619999999,-1.39869218,-2.83093701,,,
imu,223.546204,0.3840140976,-9.636241608,2.2987012104,8.807907449999998,-1.81739914,-2.89075229,,,
imu,223.55446,0.3660695136000001,-9.652989886400002,2.2735787928,8.72566144,-2.28844447,-2.92813684,,,
imu,223.562716,0.3289840400000001,-9.696655040800001,2.253839750400001,8.57612324,-2.69967452,-3.04029049,,,
imu,223.570972,0.311039456,-9.7301515976,2.2418766944,8.35929285,-3.03613547,-3.15992105,,,
imu,223.579229,0.2733558296,-9.7534795568,2.22811918,7.98544735,-3.25296586,-3.31693616,,,
imu,223.587485,0.2416537312,-9.775611210400001,2.2317080968,7.52187893,-3.54456535,-3.43656672,,,
imu,223.595822,0.2290925224000001,-9.791761336000002,2.2179505824,7.0508336,-3.52961153,-3.56367419,,,
imu,223.604079,0.2087553272,-9.7923594888,2.2215394992,6.40781934,-3.58942681,-3.73564312,,,
imu,223.612335,0.1896144376,-9.8043225448,2.2305117912,5.49563632,-3.49222698,-3.96742733,,,
imu,223.620591,0.1776513816,-9.7959484056,2.2233339576,4.91991425,-3.20062749,-4.00481188,,,
imu,223.628847,0.1758569232,-9.792957641600001,2.246063764000001,4.19465398,-2.91650491,-3.98985806,,,
imu,223.637104,0.1896144376,-9.794752100000002,2.252045292,3.36471697,-2.55013632,-3.85527368,,,
imu,223.64536,0.2117460912,-9.7821908912,2.253839750400001,2.57964142,-2.2361061,-3.76555076,,,
imu,223.653616,0.2243073,-9.7570684736,2.2604194312,2.09364227,-1.90712206,-3.50385891,,,
imu,223.661873,0.2584020096,-9.759461084800002,2.2544379032,1.80951969,-1.54075347,-3.3468438,,,
imu,223.670129,0.287113344,-9.758862932000001,2.219146888,1.70484295,-1.29401544,-3.37675144,,,
imu,223.678385,0.3134320672,-9.742114653600002,2.210174596,1.73475059,-1.13700033,-3.27955161,,,
imu,223.686641,0.3271895816000001,-9.7492924872,2.2000059984,1.93662716,-1.00989286,-3.45152054,,,
imu,223.694898,0.34393786,-9.7540777096,2.1910337064,2.16841137,-1.02484668,-3.63096638,,,
imu,223.703154,0.3421434016,-9.7534795568,2.1886410952,2.46001086,-1.00989286,-3.8702275,,,
imu,223.71141,0.3307784984000001,-9.749890640000002,2.188042942400001,2.49739541,-1.12204651,-4.04219643,,,
imu,223.719667,0.331974804,-9.748096181600001,2.1940244704,2.55721069,-1.12952342,-4.34874974,,,
imu,222.196626,,,,,,,88.7707476,-38.69075080000002,126.4116744
imu,222.298219,,,,,,,90.1745756,-39.09358840000002,124.1167208
imu,222.399385,,,,,,,86.70773080000001,-38.86165160000002,126.448296
imu,222.500978,,,,,,,88.91723400000001,-39.70394840000002,123.4819464
imu,222.602632,,,,,,,86.17061399999999,-38.58088600000003,126.5215392
imu,222.704073,,,,,,,86.0607492,-38.32453480000002,126.2896024
imu,222.805635,,,,,,,85.77998360000001,-38.58088600000003,125.898972
imu,222.907198,,,,,,,85.27948839999999,-38.51985000000002,125.2764048
imu,223.727923,0.3212080536,-9.749890640000002,2.1778743448,2.69179507,-1.20429252,-4.715118329999999,,,
imu,223.736375,0.3241988176,-9.7427128064,2.1718928168,2.6394567,-1.18186179,-4.909517989999999,,,
imu,223.744827,0.31403022,-9.7331423616,2.1683039,2.50487232,-1.34635381,-5.29831731,,,
imu,223.753279,0.2883096496000001,-9.706225485600001,2.1569389968,2.29551884,-1.39121527,-5.49271697,,,
imu,223.761731,0.2757484408,-9.671532623200001,2.1491630104,2.10111918,-1.413646,-5.71702427,,,
imu,223.770183,0.2727576768,-9.648204664000001,2.1371999544,1.82447351,-1.570661110000001,-5.79179337,,,
imu,223.778635,0.2578038568000001,-9.642223136000002,2.135405496,1.70484295,-1.5631842,-5.71702427,,,
imu,223.787087,0.2578038568000001,-9.6248767048,2.1276295096,1.58521239,-1.66786094,-5.62730135,,,
imu,223.79554,0.2404574256,-9.614109954400002,2.1288258152,1.6674584,-1.77253768,-5.43290169,,,
imu,223.803992,0.2320832864,-9.624278552000002,2.1270313568,1.78708896,-1.80992223,-5.42542478,,,
imu,223.812444,0.2350740504,-9.6296619272,2.1240405928,1.80951969,-1.90712206,-5.216071299999999,,,
imu,223.820896,0.2266999112,-9.633250844,2.129423968,1.98896553,-1.86973751,-5.00671782,,,
imu,223.829348,0.2105497856,-9.656578803200002,2.1330128848,2.12354991,-2.019275710000001,-4.78988743,,,
imu,223.8378,0.1938015072,-9.686486443200002,2.1515556216,2.05625772,-1.94450661,-4.737549059999999,,,
imu,223.846252,0.1872218264,-9.699047652,2.1611260664,1.82447351,-1.89216824,-4.58801086,,,
imu,223.854704,0.1692772424,-9.699047652,2.1760798864,1.58521239,-1.88469133,-4.49081103,,,
imu,223.863156,0.1722680064,-9.708019944000002,2.1844540256,1.38333582,-1.84730678,-4.625395409999999,,,
imu,223.871608,0.1513326584,-9.7151977776,2.208978290400001,1.2188438,-1.712722400000001,-4.58801086,,,
imu,223.880061,0.1447529776,-9.735534972800002,2.225128416,0.9197674,-1.54823038,-4.68521069,,,
imu,223.888513,0.13458438,-9.751685098400001,2.2418766944,0.56835263,-1.54823038,-4.92447181,,,
imu,223.896965,0.1190324072,-9.767835224,2.249652680800001,0.28423005,-1.45850746,-5.11887147,,,
imu,223.905417,0.10467674,-9.789966877600001,2.2592231256,0.21693786,-1.25663089,-5.34317877,,,
imu,223.913869,0.101685976,-9.7570684736,2.2586249728,0.28423005,-1.286538530000001,-5.57496298,,,
imu,223.922321,0.0735727944,-9.727758986400001,2.2514471392,0.20198404,-1.16690797,-5.58243989,,,
imu,223.930773,0.0783580168,-9.7295534448,2.2448674584,0.43376825,-1.03232359,-5.39551714,,,
imu,223.93959,0.0747691,-9.717590388800001,2.231109944,0.7702292,-0.7108164600000002,-5.25345585,,,
imu,223.948407,0.08433954480000001,-9.702038416,2.2149598184,1.24875144,-0.45660152,-4.999240909999999,,,
imu,223.957224,0.07716171120000001,-9.672130776000001,2.2143616656,1.57025857,-0.2771556799999999,-5.05157928,,,
imu,223.966041,0.08254508640000002,-9.6499991224,2.210174596,1.75718132,-0.3220171400000003,-5.15625602,,,
imu,223.974858,0.080750628,-9.6260730104,2.2185487352,1.73475059,-0.2771556799999999,-5.350655679999999,,,
imu,223.983675,0.0741709472,-9.6117173432,2.2137635128,1.77961205,-0.3294940500000001,-5.260932759999999,,,
imu,223.992492,0.068787572,-9.596763523200002,2.2167542768,1.79456587,-0.23229422,-5.26840967,,,
imu,224.001309,0.05383375200000001,-9.597361676,2.2173524296,1.80204278,-0.1575251200000003,-5.13382529,,,
imu,224.010125,0.0550300576,-9.597959828800002,2.2185487352,1.72727368,-0.1126636599999999,-5.10391765,,,
imu,224.018942,0.0430670016,-9.595567217600001,2.2047912208,1.39828964,-0.1201405700000002,-5.02914855,,,
imu,224.027759,0.02871133440000001,-9.609324732000001,2.186248484,1.39828964,-0.09770984000000027,-4.8422258,,,
imu,224.036576,0.020935348,-9.6218859408,2.1958189288,1.60764312,0.01444380999999995,-4.737549059999999,,,
imu,224.045393,0.0113649032,-9.632054538400002,2.1748835808,1.7422275,0.1265974599999997,-4.66277996,,,
imu,224.05421,0.0161501256,-9.662560331200002,2.1778743448,1.93662716,0.1639820099999998,-4.670256869999999,,,
imu,224.063027,0.003588916800000001,-9.686486443200002,2.1856503312,2.10859609,0.1490281899999997,-4.67773378,,,
imu,224.071844,-0.0005981528000000001,-9.7151977776,2.1790706504,2.24318047,0.2686587499999997,-4.602964679999999,,,
imu,224.080661,0.0,-9.7337405144,2.191631859200001,2.34785721,0.29856639,-4.55062631,,,
imu,224.089478,0.004187069600000001,-9.749890640000002,2.1976133872,2.28056502,0.3658585799999998,-4.40108811,,,
imu,224.098295,0.0017944584,-9.7534795568,2.1874447896,2.17588828,0.4630584099999999,-4.408565019999999,,,
imu,224.107112,0.0005981528000000001,-9.7612555432,2.1814632616,2.21327283,0.7322271699999998,-4.102011709999999,,,
imu,224.115929,0.0017944584,-9.7702278352,2.1826595672,2.01139626,0.78456554,-3.84779677,,,
imu,224.124746,-0.0065796808,-9.785779808000001,2.188042942400001,1.86933497,0.9565344699999998,-3.84031986,,,
imu,224.133562,-0.008374139200000002,-9.800733628000001,2.178472497600001,1.63007385,1.30794924,-3.5711511,,,
imu,224.142043,0.004785222400000001,-9.802528086400002,2.1665094416,1.5179202,1.60702564,-3.35432071,,,
imu,224.150523,0.01495382,-9.785181655200002,2.144377788,1.33099745,1.77151766,-3.23469015,,,
imu,224.159003,0.0340947096,-9.749890640000002,2.1371999544,1.10669015,1.98087114,-3.22721324,,,
imu,224.167483,0.05383375200000001,-9.763050001600002,2.1425833296,1.03192105,2.10797861,-3.1973056,,,
imu,224.175963,0.0592171272,-9.766638918400002,2.1342091904,0.9048135799999999,2.14536316,-3.28702852,,,
imu,224.184443,0.07058203040000001,-9.7570684736,2.1216479816,0.80761375,2.14536316,-3.45152054,,,
imu,224.192923,0.09151737840000002,-9.727758986400001,2.1282276624,0.76275229,2.18274771,-3.50385891,,,
imu,224.201403,0.09390998960000001,-9.710412555200001,2.1258350512,0.56835263,2.08554788,-3.37675144,,,
imu,224.209883,0.09630260080000001,-9.6954587352,2.120451676000001,0.44872207,2.21265535,-3.13001341,,,
imu,224.218363,0.1100601152,-9.709814402400001,2.1437796352,0.26179932,2.18274771,-3.06272122,,,
imu,224.226843,0.1214250184,-9.701440263200002,2.1389944128,0.09730729999999999,2.21265535,-2.8982292,,,
imu,224.235323,0.137575144,-9.6942624296,2.1401907184,0.01506129,2.22760917,-2.86084465,,,
imu,224.243803,0.1333880744,-9.683495679200002,2.1479667048,-0.14195382,2.14536316,-2.8234601,,,
imu,224.252283,0.1447529776,-9.694860582400002,2.1611260664,-0.26906129,2.05564024,-2.8982292,,,
imu,224.260764,0.1327899216,-9.688280901600002,2.165313136,-0.46346095,1.9509635,-2.95804448,,,
imu,224.269244,0.1369769912,-9.671532623200001,2.171294664,-0.66533752,1.67431783,-3.24964397,,,
imu,224.277724,0.1327899216,-9.664952942400001,2.174285428,-0.6503837,1.49487199,-3.45152054,,,
imu,224.286204,0.1208268656,-9.6458120528,2.1814632616,-0.53823005,1.54721036,-3.47395127,,,
imu,224.294684,0.1262102408,-9.634447149600001,2.1814632616,-0.54570696,1.67431783,-3.45152054,,,
imu,224.303164,0.1082656568,-9.641026830400001,2.186248484,-0.47093786,1.6518871,-3.44404363,,,
imu,224.311644,0.09690075360000001,-9.634447149600001,2.1928281648,-0.36626112,1.58459491,-3.47395127,,,
imu,224.320124,0.092713684,-9.619493329600001,2.1940244704,-0.25410747,1.62197946,-3.44404363,,,
imu,224.328604,0.07596540560000001,-9.632054538400002,2.195220776,0.01506129,1.83880985,-3.29450543,,,
imu,224.337084,0.07596540560000001,-9.635045302400002,2.204193068,0.35152224,2.1005017,-3.05524431,,,
imu,224.345721,0.08852661440000001,-9.66016772,2.21316536,0.3889067899999999,2.18274771,-3.17487487,,,
imu,224.354357,0.09211553120000002,-9.675719692800001,2.21316536,0.49358353,2.42200883,-3.10010577,,,
imu,224.362994,0.09510629520000001,-9.699047652,2.228717332800001,0.38142988,2.48930102,-3.18235178,,,
imu,224.37163,0.10467674,-9.722973764,2.237091472,0.43376825,2.64631613,-3.1225365,,,
imu,224.380267,0.125612088,-9.7361331256,2.2508489864,0.34404533,2.59397776,-3.15244414,,,
imu,224.388903,0.122621324,-9.745105417600001,2.2544379032,-0.11204618,2.72108523,-3.15992105,,,
imu,224.39754,0.1244157824,-9.735534972800002,2.2658028064,-0.20924601,2.65379304,-3.04029049,,,
imu,224.406176,0.1214250184,-9.7295534448,2.249652680800001,-0.44850713,2.70613141,-3.07767504,,,
imu,223.00876,,,,,,,84.8522364,-38.27570600000001,125.6426208
imu,223.110323,,,,,,,85.04755159999999,-38.62971480000002,125.4350984
imu,223.211916,,,,,,,85.2672812,-39.11800280000002,124.4829368
imu,223.313631,,,,,,,84.1075972,-39.15462440000002,124.7637024
imu,223.41501,,,,,,,86.86642440000001,-40.02133560000001,122.6518568
imu,223.516756,,,,,,,84.6691284,-39.34993960000001,125.0810896
imu,223.618135,,,,,,,87.15939720000002,-40.14340760000002,122.908208
imu,223.719972,,,,,,,84.76678600000001,-40.19223640000003,124.5439728
imu,224.414812,0.1327899216,-9.721179305600002,2.2436711528,-0.64290679,2.73603905,-3.08515195,,,
imu,224.423449,0.1274065464,-9.676317845600002,2.2436711528,-0.7251528,2.79585433,-3.07019813,,,
imu,224.432085,0.1280046992,-9.669140012000002,2.2484563752,-0.79244499,2.86314652,-2.98047521,,,
imu,224.440722,0.1441548248,-9.667943706400001,2.2466619168,-0.71767589,2.9977309,-2.91318302,,,
imu,224.449358,0.1579123392,-9.641026830400001,2.2418766944,-0.80739881,2.95286944,-2.92065993,,,
imu,224.457995,0.1453511304,-9.623680399200001,2.2478582224,-0.874691,2.84071579,-3.08515195,,,
imu,224.466631,0.1638938672,-9.632054538400002,2.2586249728,-0.73262971,2.87810034,-3.05524431,,,
imu,224.475268,0.1423603664,-9.638634219200002,2.2544379032,-0.77749117,2.78090051,-3.10010577,,,
imu,224.483904,0.155519728,-9.6505972752,2.2658028064,-0.77749117,2.79585433,-3.07019813,,,
imu,224.492541,0.1477437416,-9.654186192000001,2.2574286672,-0.66533752,2.95286944,-3.11505959,,,
imu,224.501177,0.1537252696,-9.6637566368,2.2693917232,-0.89712173,2.8481927,-3.27955161,,,
imu,224.509814,0.1447529776,-9.655382497600002,2.25802682,-0.92702937,2.81080815,-3.29450543,,,
imu,224.51845,0.1423603664,-9.651793580800001,2.2616157368,-0.71019898,3.03511545,-3.30945925,,,
imu,224.527087,0.155519728,-9.673925234400002,2.2604194312,-0.71019898,2.97530017,-3.50385891,,,
imu,224.535723,0.1471455888,-9.6703363176,2.263410195200001,-0.5681376899999999,3.16222292,-3.51881273,,,
imu,224.54436,0.152528964,-9.673925234400002,2.2741769456,-0.55318387,3.30428421,-3.5711511,,,
imu,224.552658,0.1543234224,-9.669738164800002,2.2658028064,-0.61299915,3.34914567,-3.83284295,,,
imu,224.560956,0.1668846312,-9.66016772,2.281952932,-0.74758353,3.31176112,-3.92256587,,,
imu,224.569254,0.176455076,-9.659569567200002,2.2825510848,-0.67281443,3.09493073,-4.0945348,,,
imu,224.577553,0.1836329096,-9.651793580800001,2.275971404,-0.68029134,2.94539253,-4.057150249999999,,,
imu,224.585851,0.1776513816,-9.631456385600002,2.2771677096,-0.7401066199999999,2.7734236,-4.146873169999999,,,
imu,224.594149,0.1758569232,-9.6290637744,2.2825510848,-0.54570696,2.66126995,-4.11696553,,,
imu,224.602447,0.1662864784,-9.6248767048,2.2891307656,-0.38869185,2.72108523,-4.00481188,,,
imu,224.610745,0.1632957144,-9.616502565600001,2.2843455432,-0.23915365,2.60145467,-3.97490424,,,
imu,224.619044,0.1567160336,-9.6117173432,2.284943696,-0.02980017,2.37714737,-4.04219643,,,
imu,224.627342,0.1202287128,-9.602146898400001,2.2813547792,0.02253820000000001,2.31733209,-4.10948862,,,
imu,224.63564,0.1052748928,-9.627867468800002,2.2837473904,0.2468455,2.19770153,-4.10948862,,,
imu,224.643938,0.113649032,-9.634447149600001,2.2795603208,0.53096808,2.324809,-4.124442439999999,,,
imu,224.652237,0.10467674,-9.644615747200001,2.269989876,0.65807555,2.29490136,-4.23659609,,,
imu,224.660535,0.1022841288,-9.656578803200002,2.280756626400001,0.9571519499999999,2.36219355,-4.169303899999999,,,
imu,224.668833,0.1088638096,-9.673925234400002,2.2747750984,0.9646288599999999,2.40705501,-4.20668845,,,
imu,224.677131,0.1142471848,-9.689477207200001,2.2795603208,0.8823828499999999,2.48182411,-4.07210407,,,
imu,224.685398,0.1124527264,-9.6912716656,2.2765695568,0.85995212,2.65379304,-3.91508896,,,
imu,224.693696,0.1232194768,-9.7056273328,2.2771677096,0.70293701,2.63883922,-3.81041222,,,
imu,224.701995,0.1399677552,-9.714599624800002,2.275971404,0.50853735,2.59397776,-3.75059694,,,
imu,224.710293,0.1429585192,-9.7265626808,2.2873363072,0.3216146,2.54163939,-3.92256587,,,
imu,224.718591,0.1597067976,-9.731946056000002,2.2975049048,-0.01484635000000001,2.51173175,-3.90013514,,,
imu,224.726889,0.158510492,-9.728955292000002,2.3070753496,-0.59056842,2.4743472,-3.72816621,,,
imu,224.735188,0.152528964,-9.736731278400002,2.3172439472,-0.8672140899999999,2.1005017,-3.90013514,,,
imu,224.743486,0.1531271168,-9.711608860800002,2.305879044,-0.94198319,2.27247063,-3.84031986,,,
imu,224.751976,0.1429585192,-9.669738164800002,2.3064771968,-1.0989983,2.11545552,-3.8702275,,,
imu,224.760466,0.137575144,-9.661364025600001,2.299897516,-1.08404448,2.07059406,-3.63096638,,,
imu,224.768957,0.1297991576,-9.648204664000001,2.2855418488,-0.81487572,2.09302479,-3.42908981,,,
imu,224.777447,0.1268083936,-9.657775108800001,2.275971404,-0.47841477,2.19770153,-3.21973633,,,
imu,224.785937,0.137575144,-9.663158484000002,2.2747750984,-0.14195382,2.16779389,-3.20478251,,,
imu,224.794427,0.13458438,-9.6428212888,2.2586249728,0.01506129,2.13040934,-3.21225942,,,
imu,224.802918,0.1411640608,-9.612913648800001,2.2556342088,0.3216146,2.10797861,-3.28702852,,,
imu,224.811408,0.1399677552,-9.606333968000001,2.263410195200001,0.47862971,1.94348659,-3.38422835,,,
imu,224.819898,0.146547436,-9.602745051200001,2.261017584,0.51601426,1.99582496,-3.45899745,,,
imu,224.828388,0.1411640608,-9.593174606400002,2.2658028064,0.65807555,2.13788625,-3.52628964,,,
imu,224.836879,0.143556672,-9.625474857600002,2.2568305144,0.64312173,2.11545552,-3.56367419,,,
imu,224.845369,0.1417622136,-9.666149248000002,2.2562323616,0.68798319,2.08554788,-3.43656672,,,
imu,224.853859,0.1662864784,-9.679308609600001,2.264008348,0.50853735,2.19770153,-3.44404363,,,
imu,224.862349,0.158510492,-9.669738164800002,2.2753732512,0.28423005,2.1005017,-3.50385891,,,
imu,224.87084,0.170473548,-9.6745233872,2.2711861816,0.19450713,2.16031698,-3.496382,,,
imu,224.87933,0.1812402984,-9.6775141512,2.293915988,0.18703022,2.01825569,-3.56367419,,,
imu,224.88782,0.167482784,-9.693664276800002,2.2801584736,0.02253820000000001,1.91357895,-3.69078166,,,
imu,224.89631,0.161501256,-9.702038416,2.278962168,-0.11952309,1.83880985,-3.78798149,,,
imu,224.904801,0.1668846312,-9.694860582400002,2.2987012104,-0.18681528,1.73413311,-3.84031986,,,
imu,224.913291,0.1632957144,-9.684093832000002,2.305879044,-0.38121494,1.66684092,-3.99733497,,,
imu,224.921781,0.1537252696,-9.678112304,2.3244217808,-0.44850713,1.64441019,-4.08705789,,,
imu,224.930271,0.1441548248,-9.669738164800002,2.3315996144,-0.56066078,1.44253362,-4.102011709999999,,,
imu,224.938762,0.13458438,-9.661364025600001,2.3501423512,-0.60552224,1.23318014,-4.08705789,,,
imu,224.947252,0.1357806856,-9.66016772,2.3561238792,-0.56066078,1.31542615,-3.89265823,,,
imu,224.956036,0.1333880744,-9.661364025600001,2.3758629216,-0.66533752,1.37524143,-3.74312003,,,
imu,224.964819,0.1399677552,-9.660765872800003,2.383638908,-0.70272207,1.41262598,-3.63844329,,,
imu,224.973603,0.13458438,-9.6458120528,2.3854333664,-0.67281443,1.43505671,-3.59358183,,,
imu,224.982387,0.1369769912,-9.613511801600001,2.379451838400001,-0.54570696,1.51730272,-3.44404363,,,
imu,224.991171,0.1369769912,-9.6117173432,2.398592728,-0.43355331,1.53225654,-3.28702852,,,
imu,224.999954,0.1327899216,-9.6428212888,2.4153410064,-0.41112258,1.51730272,-3.42908981,,,
imu,225.008738,0.131593616,-9.669140012000002,2.4057705616,-0.36626112,1.53973345,-3.60105874,,,
imu,225.017522,0.1280046992,-9.646410205600002,2.4009853392,-0.38869185,1.32290306,-3.95995042,,,
imu,225.026306,0.1244157824,-9.618297024,2.4159391592,-0.29896893,1.21822632,-4.02724261,,,
imu,225.035089,0.1028822816,-9.619493329600001,2.4213225344,-0.4260764,1.36776452,-4.079580979999999,,,
imu,225.043873,0.1094619624,-9.633250844,2.4392671184,-0.48589168,1.43505671,-3.71321239,,,
imu,225.052657,0.1052748928,-9.654186192000001,2.4416597296,-0.5307531400000001,1.4275798,-3.45152054,,,
imu,225.061441,0.110658268,-9.657775108800001,2.4219206872,-0.5008455,1.58459491,-3.33936689,,,
imu,225.070224,0.1208268656,-9.658373261600001,2.431491132,-0.71019898,1.67431783,-3.33936689,,,
imu,225.079008,0.128602852,-9.636241608,2.4308929792,-0.82982954,1.84628676,-3.41413599,,,
imu,225.087792,0.1321917688,-9.6218859408,2.425509604,-0.8522602699999999,1.84628676,-3.43656672,,,
imu,225.096576,0.1274065464,-9.597959828800002,2.4183317704,-0.94198319,1.90610204,-3.60105874,,,
imu,225.105359,0.125612088,-9.5842023144,2.4213225344,-0.92702937,1.92853277,-3.78798149,,,
imu,225.114143,0.1172379488,-9.571042952800001,2.401583492,-0.78496808,1.86871749,-3.89265823,,,
imu,225.122927,0.1232194768,-9.5602762024,2.4003871864,-0.40364567,2.05564024,-3.81788913,,,
imu,225.131711,0.1274065464,-9.559678049600002,2.4003871864,-0.11204618,2.10797861,-3.7206893,,,
imu,225.140494,0.1244157824,-9.567454036,2.3979945752,0.12721494,2.09302479,-3.66087402,,,
imu,225.149278,0.1441548248,-9.591380148,2.3950038112,0.31413769,2.18274771,-3.48142818,,,
imu,225.157756,0.1513326584,-9.596763523200002,2.396798269600001,0.6281679099999999,2.15284007,-3.43656672,,,
imu,225.166233,0.1650901728,-9.616502565600001,2.398592728,0.78518302,2.19022462,-3.31693616,,,
imu,225.174711,0.1698753952,-9.6159044128,2.3991908808,0.78518302,2.22760917,-3.21225942,,,
imu,225.183188,0.1609031032,-9.627867468800002,2.3973964224,0.82256757,2.13040934,-3.3468438,,,
imu,225.191666,0.1603049504,-9.634447149600001,2.4033779504,0.77770611,2.1005017,-3.54872037,,,
imu,225.200143,0.16449202,-9.640428677600001,2.404574256,0.70293701,1.99582496,-3.65339711,,,
imu,225.208621,0.1680809368,-9.6505972752,2.4027797976,0.68050628,2.00330187,-3.67582784,,,
imu,225.217098,0.1722680064,-9.6458120528,2.4009853392,0.88985976,1.93600968,-3.76555076,,,
imu,225.225576,0.1549215752,-9.638634219200002,2.3908167416,0.74779847,1.83133294,-3.87770441,,,
imu,223.821216,,,,,,,85.0963804,-39.8260204,124.86136
imu,223.922809,,,,,,,85.4625964,-40.27768680000001,125.4228912
imu,224.024341,,,,,,,85.3283172,-40.48520920000001,125.0078464
imu,224.125904,,,,,,,85.4259748,-40.22885800000002,125.349648
imu,224.228382,,,,,,,85.9508844,-40.13120040000003,124.3486576
imu,224.329029,,,,,,,85.6334972,-40.49741640000002,124.86136
imu,224.43285,,,,,,,87.7087212,-40.96129000000002,122.8227576
imu,224.532184,,,,,,,85.04755159999999,-39.81381320000001,125.8135216
imu,225.234053,0.1471455888,-9.635643455200002,2.3854333664,0.5982602699999999,1.74161002,-3.98238115,,,
imu,225.242531,0.1369769912,-9.630260080000001,2.3854333664,0.74779847,1.68179474,-4.0197657,,,
imu,225.251008,0.1202287128,-9.625474857600002,2.3818444496,0.85995212,1.6518871,-4.057150249999999,,,
imu,225.259486,0.1238176296,-9.617698871200002,2.37765738,1.04687487,1.71170238,-4.08705789,,,
imu,225.267964,0.1148453376,-9.6159044128,2.3752647688,1.09173633,1.71170238,-4.28145755,,,
imu,225.276441,0.1094619624,-9.606333968000001,2.3884241304,1.09173633,1.71170238,-4.169303899999999,,,
imu,225.284919,0.0933118368,-9.620091482400001,2.3872278248,1.01696723,1.74908693,-4.13191935,,,
imu,225.293396,0.1004896704,-9.627269316000001,2.3812462968,1.09921324,1.88367131,-4.08705789,,,
imu,225.301874,0.1004896704,-9.632054538400002,2.3878259776,0.97958268,1.98834805,-4.13191935,,,
imu,225.310351,0.09690075360000001,-9.634447149600001,2.4009853392,0.9870595899999999,2.1005017,-4.11696553,,,
imu,225.318829,0.1040785872,-9.633250844,2.3950038112,0.9272443100000001,2.15284007,-3.97490424,,,
imu,225.327306,0.101685976,-9.644017594400001,2.3997890336,0.8524752099999999,2.04816333,-3.93004278,,,
imu,225.335784,0.1034804344,-9.6224840936,2.3920130472,0.70293701,2.0257326,-3.98985806,,,
imu,225.344261,0.09749890640000002,-9.623082246400001,2.3854333664,0.80761375,2.14536316,-3.83284295,,,
imu,225.352739,0.113649032,-9.6159044128,2.3950038112,0.77770611,2.21265535,-3.69825857,,,
imu,225.361202,0.113649032,-9.630858232800001,2.3944056584,0.91229049,2.15284007,-3.59358183,,,
imu,225.369666,0.1094619624,-9.635045302400002,2.3914148944,0.97958268,2.13040934,-3.55619728,,,
imu,225.378129,0.116639796,-9.640428677600001,2.3842370608,0.80013684,1.91357895,-3.52628964,,,
imu,225.386593,0.1142471848,-9.633848996800001,2.4009853392,0.80013684,1.7266562,-3.53376655,,,
imu,225.395057,0.1028822816,-9.642223136000002,2.4039761032,1.03192105,1.67431783,-3.33936689,,,
imu,225.40352,0.107667504,-9.6494009696,2.3902185888,0.9945364999999999,1.60702564,-3.31693616,,,
imu,225.411984,0.09989151760000002,-9.646410205600002,2.3842370608,0.97958268,1.56216418,-3.21973633,,,
imu,225.420447,0.0980970592,-9.642223136000002,2.398592728,1.00949032,1.46496435,-3.14496723,,,
imu,225.428911,0.1052748928,-9.663158484000002,2.371675852,1.13659779,1.17336486,-2.9729983,,,
imu,225.437374,0.0861340032,-9.657176956,2.3734703104,1.32352054,1.2780416,-2.748691,,,
imu,225.445838,0.09690075360000001,-9.654784344800001,2.371675852,1.34595127,1.41262598,-2.54681443,,,
imu,225.454301,0.1058730456,-9.669738164800002,2.3603109488,1.45810492,1.44253362,-2.48699915,,,
imu,225.462765,0.1232194768,-9.671532623200001,2.3561238792,1.56278166,1.68927165,-2.39727623,,,
imu,225.471228,0.137575144,-9.682897526400001,2.3579183376,1.54035093,1.89114822,-2.11315365,,,
imu,225.479692,0.128602852,-9.690673512800002,2.3573201848,1.49548947,2.00330187,-2.3000764,,,
imu,225.488156,0.1597067976,-9.702038416,2.3549275736,1.18893616,2.08554788,-2.53186061,,,
imu,225.496619,0.1668846312,-9.700243957600001,2.3633017128,0.97210577,2.14536316,-2.53186061,,,
imu,225.505083,0.1902125904,-9.704431027200002,2.365694324000001,0.73284465,2.18274771,-2.83841392,,,
imu,225.513546,0.2021756464,-9.6918698184,2.365694324000001,0.60573718,2.30985518,-2.86832156,,,
imu,225.52201,0.2045682576000001,-9.673925234400002,2.362105407200001,0.4711528,2.44443956,-3.09262886,,,
imu,225.530473,0.2296906752000001,-9.667345553600002,2.3525349624,0.26179932,2.29490136,-3.31693616,,,
imu,225.538937,0.2266999112,-9.657775108800001,2.3603109488,0.18703022,2.24256299,-3.63844329,,,
imu,225.5474,0.2320832864,-9.6470083584,2.3513386568,0.29918387,2.13788625,-3.66087402,,,
imu,225.555864,0.2380648144,-9.635045302400002,2.3513386568,0.22441477,2.04068642,-3.90013514,,,
imu,225.564504,0.2464389536,-9.630858232800001,2.3561238792,0.14964567,1.8014253,-4.16182699,,,
imu,225.573144,0.242251884,-9.619493329600001,2.3543294208,0.18703022,1.52477963,-4.363703559999999,,,
imu,225.581785,0.236270356,-9.631456385600002,2.3441608232,0.08983038999999998,1.28551851,-4.19173463,,,
imu,225.590425,0.2255036056,-9.6428212888,2.3549275736,0.11226112,1.14345722,-4.02724261,,,
imu,225.599065,0.212344244,-9.6535880392,2.3764610744,0.14216876,0.7920424499999998,-4.11696553,,,
imu,225.607706,0.2021756464,-9.672130776000001,2.3752647688,0.11973803,0.7097964399999999,-4.02724261,,,
imu,225.616346,0.1758569232,-9.688280901600002,2.396798269600001,-0.08213854000000001,0.5303505999999998,-4.0945348,,,
imu,225.624986,0.1387714496,-9.693664276800002,2.410555784,-0.33635348,0.2537049300000001,-4.10948862,,,
imu,225.633626,0.1208268656,-9.680504915200002,2.416537312,-0.63542988,0.2387511099999999,-3.95247351,,,
imu,225.642267,0.1070693512,-9.652989886400002,2.4249114512,-0.80739881,0.2462280199999998,-3.84779677,,,
imu,225.650907,0.092713684,-9.633848996800001,2.4177336176,-0.874691,0.4331507699999997,-3.65339711,,,
imu,225.659547,0.07118018320000001,-9.641624983200002,2.425509604,-0.79244499,0.7397040799999997,-3.15992105,,,
imu,225.668188,0.06579680800000001,-9.651793580800001,2.4117520896,-0.73262971,1.10607267,-2.77859864,,,
imu,225.676828,0.080750628,-9.6290637744,2.4033779504,-0.38869185,1.62945637,-2.60662971,,,
imu,225.685468,0.09510629520000001,-9.6159044128,2.410555784,-0.21672292,1.92853277,-2.83841392,,,
imu,225.694108,0.09869521200000002,-9.6051376624,2.40756502,0.03749201999999999,2.12293243,-3.07019813,,,
imu,225.702749,0.1148453376,-9.588987536800001,2.3979945752,0.26927623,2.31733209,-3.30945925,,,
imu,225.711389,0.1244157824,-9.5800152448,2.4051724088,0.30666078,2.49677793,-3.55619728,,,
imu,225.720029,0.1441548248,-9.582407856000001,2.4171354648,0.44124516,2.56407012,-3.71321239,,,
imu,225.72867,0.146547436,-9.588987536800001,2.4123502424,0.27675314,2.59397776,-3.84779677,,,
imu,225.73731,0.1650901728,-9.5842023144,2.4147428536,0.46367589,2.80333124,-3.70573548,,,
imu,225.74595,0.185427368,-9.593174606400002,2.4249114512,0.5010604399999999,2.84071579,-3.51133582,,,
imu,225.75459,0.1985867296,-9.6009505928,2.4207243816,0.33656842,2.6986545,-3.48890509,,,
imu,225.763231,0.2075590216,-9.619493329600001,2.428500368,0.32909151,2.53416248,-3.45899745,,,
imu,225.771518,0.2165313136,-9.630858232800001,2.4219206872,0.20198404,2.46687029,-3.51133582,,,
imu,225.779746,0.2069608688,-9.635643455200002,2.423715145600001,0.07487657,2.1752708,-3.62348947,,,
imu,225.788032,0.2021756464,-9.655980650400002,2.4338837432,0.14216876,1.97339423,-3.57862801,,,
imu,225.796319,0.1985867296,-9.665551095200001,2.4302948264,0.34404533,1.8014253,-3.54124346,,,
imu,225.804606,0.2009793408,-9.662560331200002,2.4308929792,0.34404533,1.577118,-3.81041222,,,
imu,225.812893,0.182436604,-9.6703363176,2.4338837432,0.3739529699999999,1.42010289,-4.012288789999999,,,
imu,225.82118,0.1836329096,-9.672728928800002,2.4386689656,0.29170696,1.2032725,-4.23659609,,,
imu,225.829466,0.1680809368,-9.673925234400002,2.4488375632,0.28423005,1.13598031,-4.25902682,,,
imu,225.837753,0.1477437416,-9.6745233872,2.45242648,0.13469185,0.7696117199999999,-4.318842099999999,,,
imu,225.84604,0.1387714496,-9.661962178400001,2.4572117024,0.10478421,0.7770886299999997,-4.26650373,,,
imu,225.854327,0.1339862272,-9.669140012000002,2.4572117024,-0.03727708,0.76213481,-4.22911918,,,
imu,225.862614,0.1112564208,-9.660765872800003,2.458408008,-0.10456927,0.8817653699999997,-4.04219643,,,
imu,225.8709,0.107667504,-9.659569567200002,2.4536227856,-0.06718472,0.7920424499999998,-4.08705789,,,
imu,225.879187,0.09749890640000002,-9.6458120528,2.4422578824,-0.02980017,0.9640113799999996,-3.98238115,,,
imu,225.887474,0.07775986400000001,-9.61530626,2.45242648,-0.11204618,1.08364194,-4.102011709999999,,,
imu,225.895761,0.07118018320000001,-9.6326526912,2.4542209384,-0.05970781,1.19579559,-4.18425772,,,
imu,225.904047,0.06101158560000001,-9.646410205600002,2.460202466400001,-0.01484635000000001,1.3528107,-4.28893446,,,
imu,225.912334,0.05203929360000001,-9.6326526912,2.4530246328,0.03749201999999999,1.38271834,-4.26650373,,,
imu,225.920621,0.04127254320000001,-9.609922884800001,2.4685766056,-0.007369440000000005,1.63693328,-4.386134289999999,,,
imu,225.928908,0.03349655680000001,-9.602745051200001,2.4566135496,-0.127,2.00330187,-4.15435008,,,
imu,225.937195,0.04845037680000001,-9.620091482400001,2.4619969248,-0.26906129,2.13788625,-3.93004278,,,
imu,225.945481,0.04486146000000001,-9.613511801600001,2.464389536000001,-0.28401511,2.67622377,-3.63096638,,,
imu,225.953768,0.0532355992,-9.616502565600001,2.473959980800001,-0.32887657,3.03511545,-3.55619728,,,
imu,225.962055,0.0747691,-9.612315496,2.461398772,-0.18681528,3.34166876,-3.53376655,,,
imu,225.970578,0.09989151760000002,-9.606932120800002,2.458408008,-0.03727708,3.49868387,-3.55619728,,,
imu,225.979102,0.09510629520000001,-9.614708107200002,2.4560153968,0.11226112,3.5211146,-3.84779677,,,
imu,225.987625,0.1190324072,-9.594370912,2.4566135496,0.23936859,3.60336061,-4.08705789,,,
imu,225.996148,0.1339862272,-9.588987536800001,2.455417244,0.15712258,3.58092988,-4.32631901,,,
imu,226.004672,0.1387714496,-9.564463272000001,2.449435716,0.41881443,3.64822207,-4.34874974,,,
imu,226.013195,0.1501363528,-9.567454036,2.446444952,0.4861066199999999,3.5958837,-4.42351884,,,
imu,226.021718,0.1609031032,-9.575828175200002,2.447043104800001,0.55339881,3.56597606,-4.26650373,,,
imu,226.030241,0.1537252696,-9.5812115504,2.4518283272,0.71789083,3.36409949,-3.88518132,,,
imu,226.038765,0.170473548,-9.591380148,2.449435716,0.85995212,3.21456129,-3.76555076,,,
imu,224.633747,,,,,,,87.8307932,-40.77818200000001,122.2490192
imu,224.735401,,,,,,,85.438182,-39.862642,124.8369456
imu,224.836841,,,,,,,85.133002,-39.61849800000002,123.8603696
imu,224.938709,,,,,,,84.99872280000001,-39.64291240000002,124.7881168
imu,225.039966,,,,,,,85.194038,-39.91147080000002,125.6059992
imu,225.141559,,,,,,,85.0353444,-39.74057000000002,125.9233864
imu,225.243061,,,,,,,85.35273160000001,-39.74057000000002,125.6304136
imu,225.344654,,,,,,,85.2672812,-39.78939880000001,125.044468
imu,226.047288,0.1710717008,-9.612913648800001,2.462595077600001,0.77770611,3.10240764,-3.45899745,,,
imu,226.055811,0.176455076,-9.627269316000001,2.4679784528,0.58330645,2.88557725,-3.33188998,,,
imu,226.064335,0.167482784,-9.6326526912,2.4631932304,0.58330645,2.80333124,-3.18982869,,,
imu,226.072858,0.1579123392,-9.644017594400001,2.45242648,0.56087572,2.63136231,-3.1225365,,,
imu,226.081381,0.1459492832,-9.648802816800002,2.4530246328,0.41881443,2.45191647,-3.1225365,,,
imu,226.089905,0.146547436,-9.630260080000001,2.4560153968,0.31413769,2.39210119,-3.21225942,,,
imu,226.098428,0.1387714496,-9.6260730104,2.45242648,0.1720764,2.27247063,-3.18235178,,,
imu,226.106951,0.1399677552,-9.617100718400001,2.450632021600001,0.1720764,2.19770153,-3.2720747,,,
imu,226.115475,0.1238176296,-9.6260730104,2.4566135496,0.27675314,2.24256299,-3.24216706,,,
imu,226.123998,0.110658268,-9.6290637744,2.4542209384,0.28423005,2.22013226,-3.17487487,,,
imu,226.132521,0.1202287128,-9.636839760800001,2.4608006192,0.35899915,2.22013226,-3.14496723,,,
imu,226.141044,0.1238176296,-9.637437913600001,2.4608006192,0.18703022,2.324809,-3.11505959,,,
imu,226.149568,0.1363788384,-9.630260080000001,2.4661839944,0.20946095,2.54163939,-3.03281358,,,
imu,226.158091,0.140565908,-9.630260080000001,2.4619969248,0.15712258,2.52668557,-2.9729983,,,
imu,226.166614,0.152528964,-9.630858232800001,2.4667821472,0.26927623,2.50425484,-2.77859864,,,
imu,226.175372,0.1609031032,-9.633250844,2.4637913832,0.21693786,2.48930102,-2.77859864,,,
imu,226.184129,0.1662864784,-9.6290637744,2.4572117024,0.27675314,2.48182411,-2.61410662,,,
imu,226.192886,0.1818384512,-9.630858232800001,2.470371064,0.33656842,2.3995781,-2.55429134,,,
imu,226.201643,0.188418132,-9.625474857600002,2.470371064,0.11226112,2.27994754,-2.53186061,,,
imu,226.2104,0.1836329096,-9.627867468800002,2.4578098552,0.1720764,2.22013226,-2.42718387,,,
imu,226.219158,0.1896144376,-9.634447149600001,2.4578098552,0.17955331,2.04816333,-2.51690679,,,
imu,226.227915,0.1938015072,-9.638634219200002,2.4542209384,0.21693786,2.01825569,-2.54681443,,,
imu,226.236672,0.19439966,-9.633848996800001,2.470371064,0.27675314,1.99582496,-2.59167589,,,
imu,226.245429,0.1908107432,-9.638036066400002,2.4769507448,0.1720764,2.10797861,-2.59167589,,,
imu,226.254187,0.1908107432,-9.646410205600002,2.471567369600001,0.11973803,2.06311715,-2.56924516,,,
imu,226.262944,0.200381188,-9.6523917336,2.4619969248,0.09730729999999999,1.85376367,-2.78607555,,,
imu,226.271701,0.2057645632,-9.652989886400002,2.4608006192,0.17955331,1.92105586,-2.84589083,,,
imu,225.446173,,,,,,,85.071966,-39.83822760000002,125.7769
imu,225.547705,,,,,,,87.8307932,-40.65611000000003,123.457532
imu,225.649298,,,,,,,84.98651559999999,-39.48421880000001,125.9478008
imu,225.752355,,,,,,,87.58664920000001,-40.55845240000002,122.541992
imu,225.852453,,,,,,,85.6579116,-39.21566040000002,125.6059992
imu,225.954077,,,,,,,85.3893532,-39.37435400000003,123.0791088
imu,226.055517,,,,,,,84.7423716,-39.19124600000001,125.593792
imu,226.158575,,,,,,,84.9132724,-39.11800280000002,124.922396
imu,226.258642,,,,,,,85.0841732,-38.58088600000003,125.2519904
