Type,Timestamp,Data Accelerometer X,Data Accelerometer Y,Data Accelerometer Z,Data Gyroscope X,Data Gyroscope Y,Data Gyroscope Z,Data Magnetometer X,Data Magnetometer Y,Data Magnetometer Z
imu,185.988323,-0.3020671640000001,-9.637437913600001,2.4027797976,1.85438115,0.86681155,-4.42351884,,,
imu,185.996788,-0.311039456,-9.651195428000001,2.3997890336,1.71979677,0.8369039099999998,-4.47585721,,,
imu,186.005253,-0.2990764,-9.647606511200001,2.3979945752,1.53287402,0.8144731799999998,-4.41604193,,,
imu,186.013718,-0.3236006648,-9.666149248000002,2.398592728,1.4431511,0.8219500899999996,-4.244073,,,
imu,186.022182,-0.3451341656,-9.672728928800002,2.3991908808,1.18145925,0.86681155,-4.19921154,,,
imu,186.030647,-0.3511156936,-9.676915998400002,2.4051724088,0.9571519499999999,0.7920424499999998,-3.99733497,,,
imu,186.039108,-0.3738455000000001,-9.6954587352,2.409957631200001,0.8973366700000001,0.9191499199999997,-3.93004278,,,
imu,186.047569,-0.3864067088000001,-9.686486443200002,2.4177336176,0.7253677399999999,1.0537343,-3.91508896,,,
imu,186.05603,-0.3941826952,-9.6745233872,2.4153410064,0.45619898,1.26308778,-3.86275059,,,
imu,186.064491,-0.391790084,-9.6703363176,2.4171354648,0.3216146,1.41262598,-3.86275059,,,
imu,186.072952,-0.3887993200000001,-9.632054538400002,2.4153410064,0.44124516,1.88367131,-3.89265823,,,
imu,186.081413,-0.3744436528,-9.61530626,2.428500368,0.14964567,2.01825569,-4.11696553,,,
imu,186.089874,-0.3564990688,-9.625474857600002,2.4171354648,0.32909151,2.30985518,-4.0197657,,,
imu,186.098335,-0.323002512,-9.608128426400002,2.414144700800001,0.19450713,2.54163939,-4.057150249999999,,,
imu,186.106796,-0.3062542336,-9.605735815200001,2.419528076,0.26927623,2.57902394,-4.04219643,,,
imu,186.115257,-0.2781410520000001,-9.5985579816,2.431491132,0.44872207,2.40705501,-3.98985806,,,
imu,186.123718,-0.260196468,-9.620091482400001,2.434481896,0.3889067899999999,2.4743472,-3.96742733,,,
imu,186.132179,-0.2613927736,-9.630858232800001,2.4476412576,0.50853735,2.21265535,-3.84779677,,,
imu,186.14064,-0.2542149400000001,-9.630858232800001,2.449435716,0.47862971,1.88367131,-3.98985806,,,
imu,186.149101,-0.272159524,-9.631456385600002,2.455417244,0.41133752,1.6518871,-3.97490424,,,
imu,186.157562,-0.2924967192,-9.618895176800002,2.454819091200001,0.40386061,1.47991817,-3.91508896,,,
imu,186.166023,-0.3206099008000001,-9.619493329600001,2.4560153968,0.34404533,1.29299542,-3.86275059,,,
imu,186.174484,-0.340947096,-9.627269316000001,2.464389536000001,0.27675314,1.18831868,-3.9449966,,,
imu,186.182945,-0.3612842912,-9.6117173432,2.4649876888,0.35152224,1.32290306,-3.78050458,,,
imu,186.191406,-0.3636769024000001,-9.599754287200001,2.4637913832,0.43376825,1.48739508,-3.69825857,,,
imu,186.199867,-0.3642750552,-9.584800467200001,2.4608006192,0.3889067899999999,1.51730272,-3.70573548,,,
imu,186.208328,-0.3487230824000001,-9.592576453600001,2.454819091200001,0.52349117,1.54721036,-3.7954584,,,
imu,186.216789,-0.3421434016,-9.613511801600001,2.460202466400001,0.67302937,1.64441019,-3.9449966,,,
imu,186.22525,-0.3259932760000001,-9.613511801600001,2.4787452032,0.74779847,1.83133294,-3.85527368,,,
imu,186.233711,-0.3283858872000001,-9.618297024,2.476352592,0.8524752099999999,1.8014253,-3.78050458,,,
imu,186.242175,-0.3253951232,-9.6290637744,2.483530425600001,0.79265993,1.60702564,-3.92256587,,,
imu,186.250638,-0.3271895816000001,-9.624278552000002,2.4817359672,0.7702292,1.54721036,-3.99733497,,,
imu,186.259102,-0.3218062064,-9.6159044128,2.483530425600001,0.70293701,1.62197946,-3.80293531,,,
imu,186.267565,-0.3152265256,-9.5949690648,2.488315648,0.79265993,1.60702564,-3.75807385,,,
imu,186.276029,-0.2978800944000001,-9.574631869600001,2.5014750096,0.6281679099999999,1.44253362,-3.87770441,,,
imu,186.284492,-0.3056560808,-9.596165370400001,2.5074565376,0.55339881,1.27056469,-4.04967334,,,
imu,186.292956,-0.3158246784000001,-9.619493329600001,2.508652843200001,0.79265993,1.24065705,-3.96742733,,,
imu,186.30142,-0.3295821928000001,-9.633250844,2.5080546904,0.76275229,1.2032725,-3.92256587,,,
imu,186.309883,-0.3433397072,-9.632054538400002,2.5026713152,0.85995212,0.9565344699999998,-4.19173463,,,
imu,186.318347,-0.361882444,-9.577024480800002,2.4775488976,1.11416706,0.8742884599999998,-4.408565019999999,,,
imu,186.32681,-0.3714528888,-9.5004609224,2.4637913832,1.1440747,0.9565344699999998,-4.17678081,,,
imu,186.335274,-0.3756399584,-9.4669643656,2.4512301744,1.64502767,1.03878048,-3.57862801,,,
imu,186.343737,-0.3804251808,-9.4908904776,2.440463424,1.80951969,1.21074941,-3.41413599,,,
imu,186.352108,-0.3744436528,-9.537546396000002,2.4422578824,2.2656112,1.33785688,-3.22721324,,,
imu,186.360571,-0.3666676664,-9.587193078400002,2.446444952,2.60207215,1.43505671,-3.07019813,,,
imu,186.369035,-0.3469286240000001,-9.612913648800001,2.4392671184,2.98339456,1.69674856,-2.94309066,,,
imu,186.377498,-0.3241988176,-9.620689635200002,2.443454188,2.87124091,1.76404075,-3.21225942,,,
imu,186.385962,-0.3122357616,-9.6326526912,2.4356782016,2.84881018,1.97339423,-3.42908981,,,
imu,186.394425,-0.2966837888,-9.655382497600002,2.4332855904,2.90862546,2.05564024,-3.73564312,,,
imu,186.402889,-0.2954874832,-9.663158484000002,2.4320892848,2.74413344,2.22760917,-3.89265823,,,
imu,186.411352,-0.2859170384,-9.667345553600002,2.4219206872,2.60954906,2.2500399,-4.124442439999999,,,
imu,186.419816,-0.2805336632,-9.675121540000001,2.4219206872,2.27308811,2.2500399,-4.3936112,,,
imu,186.428279,-0.2685706072,-9.682299373600001,2.4123502424,2.10859609,2.30985518,-4.53567249,,,
imu,186.436743,-0.2625890792,-9.683495679200002,2.414144700800001,1.85438115,2.29490136,-4.50576485,,,
imu,186.44558,-0.2847207328,-9.6709344704,2.4171354648,1.45810492,2.03320951,-4.64034923,,,
imu,186.454417,-0.2972819416,-9.6733270816,2.404574256,1.45062801,1.89114822,-4.49081103,,,
imu,186.463253,-0.3074505392,-9.682299373600001,2.420126228800001,1.30856672,1.79394839,-4.33379592,,,
imu,186.47209,-0.3337692624,-9.680504915200002,2.4123502424,1.11416706,1.63693328,-4.46090339,,,
imu,186.480927,-0.3481249296000001,-9.681103068,2.414144700800001,0.9048135799999999,1.42010289,-4.6179185,,,
imu,186.489764,-0.3582935272000001,-9.6709344704,2.4261077568,0.7552753799999999,1.4275798,-4.53567249,,,
imu,186.498601,-0.3672658192000001,-9.644017594400001,2.4261077568,0.82256757,1.45001053,-4.37118047,,,
imu,186.507438,-0.3792288752000001,-9.630260080000001,2.4213225344,0.76275229,1.49487199,-4.30388828,,,
imu,186.516274,-0.3780325696000001,-9.6039413568,2.414144700800001,0.65059864,1.53225654,-4.16182699,,,
imu,186.525111,-0.3852104032000001,-9.569248494400002,2.4117520896,0.60573718,1.71917929,-4.06462716,,,
imu,186.533948,-0.3840140976,-9.572239258400002,2.4159391592,0.6954601,1.88367131,-4.079580979999999,,,
imu,186.542785,-0.382817792,-9.596763523200002,2.4279022152,1.03939796,1.86871749,-4.21416536,,,
imu,186.551622,-0.3870048616000001,-9.613511801600001,2.429696673600001,1.27118217,2.08554788,-4.19921154,,,
imu,186.560459,-0.3780325696000001,-9.602146898400001,2.4279022152,1.36090509,1.97339423,-4.33379592,,,
imu,186.569295,-0.3810233336,-9.6051376624,2.4458467992,1.46558183,2.13040934,-4.43847266,,,
imu,186.578132,-0.3893974728000001,-9.620091482400001,2.440463424,1.51044329,2.13040934,-4.52071867,,,
imu,186.586969,-0.3941826952,-9.634447149600001,2.4428560352,1.37585891,2.20517844,-4.47585721,,,
imu,186.595806,-0.3899956256000001,-9.633848996800001,2.4416597296,1.35342818,2.22013226,-4.13939626,,,
imu,186.604643,-0.3887993200000001,-9.630858232800001,2.4500338688,1.32352054,2.27247063,-3.98985806,,,
imu,186.61348,-0.3971734592000001,-9.630260080000001,2.447043104800001,1.30108981,2.1752708,-3.87770441,,,
imu,186.622316,-0.4199032656,-9.665551095200001,2.431491132,1.2936129,2.16031698,-3.67582784,,,
imu,186.631153,-0.4258847936,-9.676317845600002,2.4117520896,1.36090509,2.38462428,-3.50385891,,,
imu,186.63999,-0.4240903352000001,-9.672728928800002,2.4129483952,1.16650543,2.66126995,-3.60105874,,,
imu,186.648448,-0.4342589328000001,-9.651195428000001,2.4081631728,1.07678251,2.93791562,-3.72816621,,,
imu,186.656907,-0.4318663216,-9.654784344800001,2.3938075056,1.2936129,3.26689966,-3.9449966,,,
imu,186.665365,-0.4199032656,-9.657775108800001,2.3842370608,1.06182869,3.50616078,-4.012288789999999,,,
imu,186.673824,-0.4061457512000001,-9.655382497600002,2.3908167416,0.97210577,3.76037572,-4.13191935,,,
imu,186.682282,-0.4037531400000001,-9.651195428000001,2.3848352136,0.91229049,3.99963684,-4.17678081,,,
imu,186.690741,-0.3899956256000001,-9.6434194416,2.3997890336,0.68798319,4.08935976,-4.19921154,,,
imu,186.699199,-0.3654713608,-9.641624983200002,2.3854333664,0.7104139199999999,4.1192674,-4.08705789,,,
imu,186.707658,-0.3517138464,-9.646410205600002,2.3973964224,0.52349117,4.15665195,-3.9449966,,,
imu,186.716116,-0.3265914288,-9.636839760800001,2.3997890336,0.38142988,4.05197521,-3.86275059,,,
imu,186.724575,-0.3086468448,-9.636839760800001,2.4021816448,0.26927623,3.83514482,-3.7206893,,,
imu,186.733033,-0.2948893304,-9.6326526912,2.4159391592,0.35899915,3.55849915,-3.496382,,,
imu,186.741491,-0.2745521352,-9.633250844,2.413546548,0.41133752,3.40148404,-3.38422835,,,
imu,186.74995,-0.2643835376,-9.635045302400002,2.4129483952,0.3963837,3.16222292,-3.2720747,,,
imu,186.758408,-0.2637853848,-9.634447149600001,2.419528076,0.4711528,2.87062343,-3.05524431,,,
imu,186.766867,-0.2536167872,-9.632054538400002,2.4177336176,0.47862971,2.54163939,-3.17487487,,,
imu,186.775325,-0.2691687600000001,-9.6290637744,2.4147428536,0.42629134,2.16779389,-3.24216706,,,
imu,186.783784,-0.2679724544000001,-9.632054538400002,2.4243132984,0.45619898,1.94348659,-3.3468438,,,
imu,186.792242,-0.2823281216,-9.6458120528,2.4279022152,0.51601426,1.83133294,-3.48890509,,,
imu,186.800701,-0.2805336632,-9.633848996800001,2.4326874376,0.34404533,1.68179474,-3.54872037,,,
imu,186.809159,-0.2883096496000001,-9.6284656216,2.4386689656,0.3889067899999999,1.66684092,-3.46647436,,,
imu,186.817618,-0.3038616224,-9.624278552000002,2.449435716,0.46367589,1.47244126,-3.48890509,,,
imu,186.826076,-0.3056560808,-9.627269316000001,2.45242648,0.42629134,1.30794924,-3.44404363,,,
imu,186.834534,-0.323002512,-9.6224840936,2.45242648,0.35152224,1.14345722,-3.496382,,,
imu,186.842993,-0.3367600264,-9.627269316000001,2.454819091200001,0.29918387,1.04625739,-3.41413599,,,
imu,186.851456,-0.3505175408000001,-9.614109954400002,2.461398772,0.34404533,1.11354958,-3.36179762,,,
imu,186.85992,-0.35889168,-9.612315496,2.4590061608,0.3739529699999999,1.10607267,-3.40665908,,,
imu,186.868384,-0.3738455000000001,-9.585398620000001,2.447043104800001,0.41881443,1.19579559,-3.4216129,,,
imu,186.876847,-0.3840140976,-9.571641105600001,2.4380708128,0.58330645,1.32290306,-3.44404363,,,
imu,186.885311,-0.391790084,-9.553696521600001,2.4380708128,0.9048135799999999,1.56964109,-3.14496723,,,
imu,186.893774,-0.385808556,-9.558481744000002,2.4267059096,0.94219813,1.71170238,-3.18235178,,,
imu,186.902238,-0.3852104032000001,-9.580613397600002,2.4267059096,1.26370526,2.03320951,-3.10010577,,,
imu,186.910701,-0.3786307224000001,-9.588987536800001,2.4392671184,1.28613599,2.30237827,-3.07767504,,,
imu,186.919165,-0.3517138464,-9.606932120800002,2.4398652712,1.46558183,2.48182411,-3.11505959,,,
imu,186.927628,-0.3325729568,-9.6326526912,2.441061576800001,1.48801256,2.74351596,-3.24964397,,,
imu,186.936092,-0.3170209840000001,-9.638634219200002,2.4500338688,1.43567419,2.66126995,-3.59358183,,,
imu,186.944555,-0.2924967192,-9.667943706400001,2.4530246328,1.34595127,2.76594669,-3.81041222,,,
imu,186.953019,-0.2607946208,-9.6667474008,2.4512301744,1.30856672,2.93043871,-3.90013514,,,
imu,186.961483,-0.2530186344000001,-9.6248767048,2.429696673600001,1.24127453,2.81828506,-3.91508896,,,
imu,186.969946,-0.2261017584,-9.599156134400001,2.450632021600001,1.01696723,2.61640849,-3.92256587,,,
imu,186.97841,-0.2249054528,-9.614109954400002,2.4572117024,0.9571519499999999,2.324809,-4.11696553,,,
imu,186.986873,-0.2398592728,-9.655382497600002,2.4578098552,1.03192105,1.88367131,-4.27398064,,,
imu,186.995337,-0.2518223288000001,-9.6709344704,2.4865211896,1.15155161,1.36028761,-4.23659609,,,
imu,187.0038,-0.2673743016,-9.696056888000001,2.499082398400001,1.11416706,0.84438082,-4.53567249,,,
imu,187.012264,-0.3086468448,-9.671532623200001,2.473361828,1.0693056,0.5901658799999998,-4.8422258,,,
imu,187.020727,-0.370854736,-9.594370912,2.4566135496,0.94967504,0.3434278499999999,-4.58053395,,,
imu,187.029191,-0.400762376,-9.541733465600002,2.4488375632,1.04687487,0.29856639,-3.71321239,,,
imu,187.037654,-0.4300718632,-9.575230022400001,2.4500338688,1.08425942,0.3808123999999999,-3.21973633,,,
imu,187.046118,-0.4522035168,-9.612315496,2.419528076,1.34595127,0.7322271699999998,-3.06272122,,,
imu,187.054584,-0.4605776560000001,-9.616502565600001,2.4093594784,1.55530475,1.15093413,-3.05524431,,,
imu,187.06305,-0.4390441552000001,-9.617100718400001,2.4183317704,1.72727368,1.6518871,-2.8982292,,,
imu,187.071516,-0.4258847936,-9.616502565600001,2.406368714400001,1.68241222,2.14536316,-3.18235178,,,
imu,187.079982,-0.3935845424,-9.636241608,2.4039761032,1.69736604,2.57902394,-3.45152054,,,
imu,187.088448,-0.3582935272000001,-9.662560331200002,2.4111539368,1.63007385,3.07997691,-3.69825857,,,
imu,187.096914,-0.3391526376000001,-9.658373261600001,2.4021816448,1.43567419,3.31923803,-4.034719519999999,,,
imu,187.105381,-0.3182172896000001,-9.636241608,2.4051724088,1.27865908,3.42391477,-4.32631901,,,
imu,187.113847,-0.2996745528,-9.634447149600001,2.40756502,1.13659779,3.5211146,-4.386134289999999,,,
imu,187.122313,-0.2703650656,-9.633250844,2.410555784,1.27865908,3.47625314,-4.31136519,,,
imu,187.130779,-0.2500278704,-9.626671163200001,2.409957631200001,1.15155161,3.12483837,-4.21416536,,,
imu,187.139245,-0.257205704,-9.612913648800001,2.4219206872,1.09173633,2.63883922,-4.079580979999999,,,
imu,187.147711,-0.2655798432,-9.617698871200002,2.4183317704,0.94219813,2.21265535,-3.9449966,,,
imu,187.156177,-0.2948893304,-9.647606511200001,2.416537312,0.81509066,1.78647148,-3.73564312,,,
imu,187.164643,-0.3188154424,-9.6523917336,2.4219206872,0.97210577,1.58459491,-3.41413599,,,
imu,187.173109,-0.3499193880000001,-9.661962178400001,2.4458467992,0.8973366700000001,1.21074941,-3.36927453,,,
imu,187.181575,-0.3750418056000001,-9.688879054400001,2.4530246328,0.53844499,1.07616503,-3.39918217,,,
imu,187.190041,-0.3959771536000001,-9.678112304,2.4530246328,0.4861066199999999,1.15841104,-3.23469015,,,
imu,187.198507,-0.4175106544000001,-9.663158484000002,2.4596043136,0.38142988,1.13598031,-3.20478251,,,
imu,187.206974,-0.4133235848,-9.637437913600001,2.4476412576,0.29918387,1.40514907,-3.24216706,,,
imu,187.21544,-0.4079402096,-9.614708107200002,2.447043104800001,0.53844499,1.74908693,-3.17487487,,,
imu,187.223906,-0.3923882368,-9.596763523200002,2.4572117024,0.51601426,2.1005017,-3.18982869,,,
imu,187.232372,-0.3726491944000001,-9.612315496,2.4775488976,0.60573718,2.37714737,-3.25712088,,,
imu,187.240838,-0.3666676664,-9.631456385600002,2.4578098552,0.66555246,2.59397776,-3.42908981,,,
imu,187.249304,-0.3403489432000001,-9.6087265792,2.454819091200001,0.6954601,2.75846978,-3.61601256,,,
imu,187.257827,-0.3355637208,-9.578220786400001,2.4518283272,0.78518302,2.89305416,-3.85527368,,,
imu,187.266351,-0.3152265256,-9.5800152448,2.447043104800001,0.9048135799999999,3.01268472,-3.71321239,,,
imu,187.274874,-0.3086468448,-9.583604161600002,2.4332855904,1.04687487,2.95286944,-3.55619728,,,
imu,187.283397,-0.2907022608000001,-9.593772759200002,2.4332855904,1.11416706,2.81080815,-3.43656672,,,
imu,187.29192,-0.2936930248,-9.6117173432,2.4302948264,1.15902852,2.87810034,-3.32441307,,,
imu,187.300444,-0.2865151912,-9.639830524800002,2.4350800488,1.23379762,2.71360832,-3.30198234,,,
imu,187.308967,-0.2924967192,-9.6505972752,2.4308929792,1.31604363,2.66874686,-3.30198234,,,
imu,187.31749,-0.3098431504,-9.667943706400001,2.4332855904,1.25622835,2.51920866,-3.1973056,,,
imu,187.326014,-0.3104413032000001,-9.665551095200001,2.420126228800001,1.22632071,2.4743472,-3.24216706,,,
imu,187.334537,-0.3134320672,-9.6434194416,2.4153410064,1.09173633,2.45939338,-3.28702852,,,
imu,187.34306,-0.3086468448,-9.642223136000002,2.4009853392,1.05435178,2.39210119,-3.36927453,,,
imu,187.351584,-0.3044597752,-9.638036066400002,2.3944056584,1.11416706,2.36219355,-3.45152054,,,
imu,187.360107,-0.3116376088,-9.641026830400001,2.404574256,1.21136689,2.50425484,-3.35432071,,,
imu,187.36863,-0.3158246784000001,-9.644017594400001,2.3997890336,1.03939796,2.54163939,-3.42908981,,,
imu,187.377154,-0.3068523864000001,-9.642223136000002,2.3991908808,0.9347212199999999,2.49677793,-3.39170526,,,
imu,187.385677,-0.296085636,-9.6458120528,2.40756502,0.9197674,2.20517844,-3.28702852,,,
imu,187.3942,-0.2930948720000001,-9.6458120528,2.4219206872,0.70293701,2.18274771,-3.09262886,,,
imu,187.402723,-0.3020671640000001,-9.646410205600002,2.4207243816,0.60573718,2.07059406,-3.16739796,,,
imu,187.411247,-0.3032634696000001,-9.646410205600002,2.4320892848,0.6281679099999999,1.86124058,-3.05524431,,,
imu,187.41977,-0.3212080536,-9.641624983200002,2.4290985208,0.5010604399999999,1.7266562,-2.98795212,,,
imu,187.428293,-0.3236006648,-9.635643455200002,2.4320892848,0.3739529699999999,1.6518871,-2.98047521,,,
imu,187.436817,-0.3176191368,-9.641624983200002,2.440463424,0.28423005,1.81637912,-2.79355246,,,
imu,186.022809,,,,,,,266.8249668,-178.7927852,-338.3164296
imu,186.124341,,,,,,,266.6540660000001,-178.780578,-338.3164296
imu,186.225934,,,,,,,269.5960012,-179.0125148,-338.3164296
imu,186.327435,,,,,,,266.3855076,-178.8538212,-338.3164296
imu,186.429028,,,,,,,269.1199204,-179.7815684,-338.3164296
imu,186.530591,,,,,,,266.5930300000001,-179.329902,-338.3164296
imu,186.632337,,,,,,,267.7038852000001,-180.184406,-338.3164296
imu,186.733746,,,,,,,266.3000572,-178.6951276,-338.3164296
imu,187.445459,-0.3134320672,-9.6505972752,2.4512301744,0.4861066199999999,2.04068642,-2.80850628,,,
imu,187.453983,-0.3134320672,-9.651793580800001,2.4386689656,0.33656842,2.12293243,-3.03281358,,,
imu,187.462814,-0.3128339144,-9.641624983200002,2.4500338688,0.30666078,2.26499372,-3.02533667,,,
imu,187.471646,-0.3038616224,-9.651195428000001,2.4512301744,0.32909151,2.34723973,-3.14496723,,,
imu,187.480477,-0.287113344,-9.6505972752,2.4500338688,0.27675314,2.48182411,-3.20478251,,,
imu,187.489309,-0.2895059552,-9.633848996800001,2.4458467992,0.44872207,2.55659321,-3.24964397,,,
imu,187.49814,-0.2697669128,-9.627269316000001,2.4560153968,0.32909151,2.5491163,-3.39170526,,,
imu,187.506972,-0.2655798432,-9.6284656216,2.4536227856,0.20946095,2.51173175,-3.47395127,,,
imu,187.515803,-0.2613927736,-9.6290637744,2.4542209384,0.08983038999999998,2.5491163,-3.60105874,,,
imu,187.524635,-0.2673743016,-9.6284656216,2.4637913832,0.01506129,2.36219355,-3.66087402,,,
imu,187.533466,-0.2685706072,-9.618895176800002,2.4667821472,-0.08213854000000001,2.28742445,-3.58610492,,,
imu,187.542298,-0.2823281216,-9.6117173432,2.4685766056,-0.21672292,2.19022462,-3.45152054,,,
imu,187.551129,-0.2787392048,-9.6075302736,2.4751562864,-0.08213854000000001,2.21265535,-3.17487487,,,
imu,187.559961,-0.2757484408,-9.603343204000002,2.473959980800001,0.0001074699999999984,2.29490136,-3.18235178,,,
imu,187.568792,-0.2733558296,-9.571042952800001,2.4745581336,0.07487657,2.29490136,-3.09262886,,,
imu,187.577624,-0.2613927736,-9.591380148,2.4596043136,0.3739529699999999,2.25751681,-3.18235178,,,
imu,187.586455,-0.2769447464000001,-9.6039413568,2.4578098552,0.53096808,2.09302479,-3.33936689,,,
imu,187.595287,-0.2859170384,-9.6075302736,2.471567369600001,0.53844499,2.05564024,-3.47395127,,,
imu,187.604119,-0.2877114968,-9.623680399200001,2.4931008704,0.63564482,2.04068642,-3.58610492,,,
imu,187.61295,-0.3092449976000001,-9.663158484000002,2.4907082592,0.63564482,2.13040934,-3.86275059,,,
imu,187.621782,-0.3134320672,-9.661364025600001,2.4709692168,0.66555246,2.35471664,-3.93004278,,,
imu,187.630613,-0.3104413032000001,-9.637437913600001,2.487717495200001,0.47862971,2.42948574,-4.012288789999999,,,
imu,187.639445,-0.3056560808,-9.609922884800001,2.4901101064,0.40386061,2.5491163,-3.7954584,,,
imu,187.648276,-0.2978800944000001,-9.573435564,2.4841285784,-0.03727708,2.57902394,-3.72816621,,,
imu,187.657108,-0.2781410520000001,-9.576426328,2.503269468,-0.09709236,2.59397776,-3.65339711,,,
imu,187.665612,-0.2954874832,-9.592576453600001,2.509250996,-0.0522309,2.60893158,-3.78050458,,,
imu,187.674116,-0.3182172896000001,-9.630260080000001,2.545140164,0.0001074699999999984,2.54163939,-3.92256587,,,
imu,187.68262,-0.311039456,-9.672728928800002,2.5499253864,-0.05970781,2.27994754,-4.07210407,,,
imu,187.691125,-0.3415452488,-9.684093832000002,2.527793732800001,0.02253820000000001,2.08554788,-4.341272829999999,,,
imu,187.699629,-0.3487230824000001,-9.630858232800001,2.5020731624,0.20946095,2.08554788,-4.23659609,,,
imu,187.708133,-0.3624805968,-9.5632669664,2.4925027176,0.31413769,2.20517844,-3.53376655,,,
imu,187.716637,-0.3505175408000001,-9.547116840800001,2.4889138008,0.45619898,2.25751681,-2.76364482,,,
imu,187.725142,-0.340947096,-9.572239258400002,2.483530425600001,0.68798319,2.2500399,-2.40475314,,,
imu,187.733646,-0.3397507904000001,-9.576426328,2.4691747584,0.8749059399999999,2.46687029,-2.19539966,,,
imu,187.74215,-0.3152265256,-9.562668813600002,2.4566135496,1.09921324,2.56407012,-2.03838455,,,
imu,187.750654,-0.2757484408,-9.5501076048,2.4572117024,1.33099745,2.74351596,-2.11315365,,,
imu,187.759158,-0.2518223288000001,-9.544126076800001,2.45242648,1.45062801,2.93043871,-2.53933752,,,
imu,187.767663,-0.2255036056,-9.554294674400001,2.4566135496,1.6674584,3.10988455,-3.03281358,,,
imu,187.776167,-0.2135405496,-9.562668813600002,2.4530246328,1.63755076,3.19960747,-3.33936689,,,
imu,187.784671,-0.1908107432,-9.5638651192,2.4542209384,1.62259694,3.13979219,-3.69825857,,,
imu,187.793175,-0.1806421456,-9.5877912312,2.4637913832,1.73475059,2.97530017,-3.9449966,,,
imu,187.80168,-0.1920070488,-9.617100718400001,2.4655858416,1.68988913,2.75846978,-4.23659609,,,
imu,187.810184,-0.1967922712,-9.6505972752,2.4817359672,1.58521239,2.59397776,-4.02724261,,,
imu,187.818688,-0.2075590216,-9.679308609600001,2.4769507448,1.42072037,2.31733209,-3.99733497,,,
imu,187.827192,-0.2225128416,-9.709216249600003,2.4901101064,1.27118217,1.95844041,-3.95247351,,,
imu,187.835697,-0.2374666616,-9.727758986400001,2.5158306768,1.09173633,1.71917929,-3.7206893,,,
imu,187.844201,-0.2494297176,-9.7217774584,2.5146343712,0.8524752099999999,1.68927165,-3.36179762,,,
imu,187.852705,-0.248233412,-9.7056273328,2.5188214408,0.56087572,1.53225654,-3.32441307,,,
imu,187.861209,-0.2518223288000001,-9.6876827488,2.4960916344,0.2468455,1.41262598,-3.27955161,,,
imu,187.869613,-0.2488315648,-9.6499991224,2.4931008704,0.22441477,1.47991817,-3.13001341,,,
imu,187.878017,-0.2470371064,-9.6290637744,2.483530425600001,0.26927623,1.56964109,-3.15244414,,,
imu,187.886421,-0.2518223288000001,-9.600352440000002,2.469772911200001,0.26179932,1.62197946,-3.28702852,,,
imu,187.894824,-0.2410555784,-9.557285438400001,2.471567369600001,0.36647606,1.76404075,-3.45899745,,,
imu,187.903228,-0.2386629672,-9.533957479200001,2.4769507448,0.620691,1.70422547,-3.52628964,,,
imu,187.911632,-0.2374666616,-9.561472508000001,2.483530425600001,0.66555246,1.7266562,-3.58610492,,,
imu,187.920036,-0.242251884,-9.593772759200002,2.4925027176,0.83004448,1.82385603,-3.68330475,,,
imu,187.928439,-0.2243073,-9.5842023144,2.4936990232,0.8449983,1.77151766,-3.86275059,,,
imu,187.936843,-0.2255036056,-9.579417092000002,2.4966897872,0.68798319,1.54721036,-3.99733497,,,
imu,187.945247,-0.2266999112,-9.5865949256,2.494297176,0.70293701,1.46496435,-4.034719519999999,,,
imu,187.953651,-0.2308869808,-9.6015487456,2.494895328800001,0.8375213899999999,1.56216418,-3.7206893,,,
imu,187.962055,-0.2225128416,-9.6284656216,2.4960916344,0.85995212,1.39019525,-3.45899745,,,
imu,187.970458,-0.2147368552,-9.6428212888,2.5008768568,1.02444414,1.47244126,-3.07767504,,,
imu,187.978862,-0.2159331608,-9.654784344800001,2.4966897872,0.7552753799999999,1.30794924,-3.10758268,,,
imu,187.987266,-0.2237091472,-9.635643455200002,2.4936990232,0.7702292,1.25561087,-3.30198234,,,
imu,187.99567,-0.2296906752000001,-9.633250844,2.4936990232,0.68798319,1.03878048,-3.40665908,,,
imu,188.004073,-0.2428500368,-9.612315496,2.488315648,0.65059864,1.07616503,-3.51881273,,,
imu,188.012477,-0.2524204816,-9.602745051200001,2.479343356,0.6954601,1.0537343,-3.72816621,,,
imu,188.020881,-0.2542149400000001,-9.588389384000001,2.4787452032,0.81509066,1.23318014,-3.81041222,,,
imu,188.029285,-0.2590001624000001,-9.588389384000001,2.494895328800001,0.8823828499999999,1.36776452,-3.98238115,,,
imu,188.037689,-0.2440463424,-9.591380148,2.4931008704,0.8674290299999999,1.2780416,-4.057150249999999,,,
imu,188.046092,-0.2404574256,-9.589585689600002,2.4960916344,1.0693056,1.32290306,-4.102011709999999,,,
imu,188.054496,-0.2308869808,-9.577024480800002,2.500278704,1.11416706,1.21074941,-4.17678081,,,
imu,188.0629,-0.2261017584,-9.583604161600002,2.4931008704,1.15902852,1.07616503,-4.08705789,,,
imu,188.071321,-0.2171294664,-9.592576453600001,2.5038676208,1.23379762,1.01634975,-4.057150249999999,,,
imu,188.079743,-0.2141387024,-9.587193078400002,2.4996805512,1.2936129,0.7172733499999997,-4.02724261,,,
imu,188.088165,-0.2129423968,-9.597959828800002,2.5104473016,1.25622835,0.50044296,-3.89265823,,,
imu,188.096586,-0.2314851336,-9.609922884800001,2.4936990232,1.39081273,0.4107200399999997,-3.7206893,,,
imu,188.105008,-0.2380648144,-9.6009505928,2.4984842456,1.45810492,0.2387511099999999,-3.77302767,,,
imu,188.113429,-0.2296906752000001,-9.602745051200001,2.5146343712,1.42819728,0.1415512799999998,-3.83284295,,,
imu,188.121851,-0.2488315648,-9.633250844,2.494297176,1.43567419,0.1864127399999997,-3.86275059,,,
imu,188.130273,-0.2548130928,-9.657176956,2.487717495200001,1.16650543,0.1041667299999998,-4.0197657,,,
imu,188.138694,-0.2709632184,-9.651195428000001,2.5014750096,1.15902852,0.11164364,-4.00481188,,,
imu,188.147116,-0.2793373576,-9.632054538400002,2.506858384800001,1.09173633,0.0368745399999999,-4.06462716,,,
imu,188.155537,-0.2853188856,-9.6218859408,2.4966897872,0.97210577,0.09668981999999993,-4.169303899999999,,,
imu,188.163959,-0.2990764,-9.6075302736,2.4817359672,0.88985976,0.13407437,-4.43847266,,,
imu,188.17238,-0.3116376088,-9.614708107200002,2.4919045648,0.9646288599999999,0.3658585799999998,-4.26650373,,,
imu,188.180802,-0.3134320672,-9.61530626,2.4907082592,1.00201341,0.58268897,-4.102011709999999,,,
imu,188.189224,-0.3026653168,-9.609922884800001,2.4925027176,0.8973366700000001,0.78456554,-4.20668845,,,
imu,188.197645,-0.3086468448,-9.618895176800002,2.4859230368,0.9347212199999999,0.7546578999999998,-4.23659609,,,
imu,188.206067,-0.296085636,-9.619493329600001,2.485324884000001,0.94967504,0.80699627,-4.27398064,,,
imu,188.214488,-0.2817299688000001,-9.597959828800002,2.4805396616,1.03939796,0.7770886299999997,-4.19921154,,,
imu,188.22291,-0.2865151912,-9.595567217600001,2.4901101064,1.03939796,0.7696117199999999,-4.19173463,,,
imu,188.231331,-0.2853188856,-9.591380148,2.473959980800001,1.11416706,0.70231953,-4.13191935,,,
imu,188.239753,-0.3026653168,-9.6009505928,2.4817359672,1.24875144,0.6499811599999998,-4.08705789,,,
imu,188.248175,-0.2990764,-9.6039413568,2.4757544392,1.12912088,0.6275504299999999,-4.07210407,,,
imu,188.256596,-0.2954874832,-9.6009505928,2.4781470504,1.15902852,0.62007352,-4.02724261,,,
imu,186.835278,,,,,,,266.0314988,-179.0369292,-338.3164296
imu,186.936841,,,,,,,266.28785,-178.8660284,-338.3164296
imu,187.038464,,,,,,,266.3000572,-178.7927852,-338.3164296
imu,187.139996,,,,,,,265.7873548000001,-178.7439564,-338.3164296
imu,187.24162,,,,,,,268.42411,-178.9758932,-338.3164296
imu,187.343121,,,,,,,265.67749,-178.6462988,-338.3164296
imu,187.444653,,,,,,,268.2532092,-179.7083252,-338.3164296
imu,187.546246,,,,,,,266.3366788,-178.4509836,-338.3164296
imu,188.265018,-0.3080486920000001,-9.606932120800002,2.476352592,1.27865908,0.6275504299999999,-4.012288789999999,,,
imu,188.273583,-0.3128339144,-9.610521037600002,2.4649876888,1.39828964,0.6948426199999997,-4.057150249999999,,,
imu,188.282148,-0.3271895816000001,-9.61530626,2.4757544392,1.39828964,0.8518577299999999,-4.08705789,,,
imu,188.290714,-0.3337692624,-9.617698871200002,2.4590061608,1.55530475,0.8294269999999999,-4.20668845,,,
imu,188.299279,-0.3301803456000001,-9.630858232800001,2.462595077600001,1.65250458,1.00887284,-4.386134289999999,,,
imu,188.307844,-0.3361618736,-9.627867468800002,2.4572117024,1.65998149,1.18084177,-4.42351884,,,
imu,188.316409,-0.3391526376000001,-9.596763523200002,2.45242648,1.58521239,1.30794924,-4.37865738,,,
imu,188.324975,-0.3331711096,-9.584800467200001,2.4751562864,1.51044329,1.24065705,-4.52071867,,,
imu,188.33354,-0.3397507904000001,-9.6284656216,2.479343356,1.51044329,1.3528107,-4.386134289999999,,,
imu,188.342105,-0.3445360128,-9.680504915200002,2.4847267312,1.53287402,1.29299542,-4.453426479999999,,,
imu,188.35067,-0.3469286240000001,-9.706823638400001,2.509250996,1.26370526,1.12102649,-4.50576485,,,
imu,188.359236,-0.3606861384,-9.7301515976,2.509250996,1.00201341,0.9191499199999997,-4.68521069,,,
imu,188.367801,-0.3762381112000001,-9.708019944000002,2.4841285784,0.8749059399999999,0.6873657099999999,-4.78988743,,,
imu,188.376366,-0.3965753064,-9.636241608,2.4667821472,0.7253677399999999,0.5901658799999998,-4.44594957,,,
imu,188.384932,-0.4085383624000001,-9.572837411200002,2.460202466400001,0.47862971,0.5976427899999996,-3.73564312,,,
imu,188.393497,-0.4366515440000001,-9.5812115504,2.4578098552,0.40386061,0.7397040799999997,-2.98795212,,,
imu,188.402062,-0.4539979752000001,-9.5865949256,2.4572117024,0.55339881,0.9640113799999996,-2.5243837,,,
imu,188.410627,-0.4605776560000001,-9.595567217600001,2.4542209384,0.55339881,1.30047233,-2.17296893,,,
imu,188.419193,-0.4390441552000001,-9.575230022400001,2.4560153968,0.80761375,1.80890221,-1.97109236,,,
imu,188.427758,-0.3965753064,-9.575828175200002,2.462595077600001,0.97958268,2.31733209,-2.12810747,,,
imu,188.436323,-0.3576953744,-9.576426328,2.4649876888,1.09921324,2.94539253,-2.41223005,,,
imu,188.444888,-0.323002512,-9.5740337168,2.4560153968,1.30108981,3.36409949,-2.73373718,,,
imu,188.453454,-0.2781410520000001,-9.575230022400001,2.462595077600001,1.4431511,3.76037572,-2.94309066,,,
imu,188.462019,-0.2296906752000001,-9.593174606400002,2.473361828,1.47305874,3.98468302,-3.38422835,,,
imu,188.470584,-0.1908107432,-9.604539509600002,2.4829322728,1.55530475,4.05945212,-3.65339711,,,
imu,188.479298,-0.1591086448,-9.617698871200002,2.4781470504,1.5179202,3.79028336,-3.87770441,,,
imu,188.488011,-0.1292010048,-9.632054538400002,2.481137814400001,1.41324346,3.41643786,-4.102011709999999,,,
imu,188.496725,-0.116639796,-9.634447149600001,2.4787452032,1.24127453,3.16222292,-4.146873169999999,,,
imu,188.505438,-0.1274065464,-9.645213900000002,2.4966897872,1.06182869,2.66874686,-4.15435008,,,
imu,188.514151,-0.1417622136,-9.646410205600002,2.4931008704,0.9048135799999999,2.16779389,-4.146873169999999,,,
imu,188.522865,-0.1800439928,-9.652989886400002,2.5038676208,0.70293701,1.67431783,-4.11696553,,,
imu,188.531578,-0.2284943696,-9.641026830400001,2.5074565376,0.6132140899999999,1.34533379,-4.13191935,,,
imu,188.540224,-0.2619909264,-9.6284656216,2.5014750096,0.66555246,1.33037997,-3.99733497,,,
imu,188.548938,-0.2805336632,-9.609922884800001,2.497287940000001,0.6281679099999999,1.25561087,-4.08705789,,,
imu,188.557651,-0.2990764,-9.6087265792,2.504465773600001,0.6132140899999999,1.23318014,-4.23659609,,,
imu,188.566365,-0.3146283728000001,-9.614109954400002,2.497287940000001,0.71789083,1.36776452,-4.26650373,,,
imu,188.575078,-0.3080486920000001,-9.584800467200001,2.4805396616,0.77770611,1.5023489,-4.31136519,,,
imu,188.583792,-0.3008708584000001,-9.582407856000001,2.4960916344,0.88985976,1.61450255,-4.430995749999999,,,
imu,188.592505,-0.2913004136,-9.603343204000002,2.506260232,1.18145925,1.69674856,-4.42351884,,,
imu,188.601218,-0.2942911776,-9.630858232800001,2.494895328800001,1.18893616,1.68179474,-4.55062631,,,
imu,188.609932,-0.3062542336,-9.612913648800001,2.4925027176,1.09173633,1.56964109,-4.67773378,,,
imu,188.618645,-0.3056560808,-9.569248494400002,2.4859230368,1.1440747,1.52477963,-4.65530305,,,
imu,188.627359,-0.3265914288,-9.5638651192,2.479343356,1.12912088,1.39019525,-4.625395409999999,,,
imu,188.636072,-0.3487230824000001,-9.558481744000002,2.4757544392,1.35342818,1.41262598,-4.43847266,,,
imu,188.644786,-0.3684621248000001,-9.5429297712,2.473361828,1.43567419,1.36028761,-4.28145755,,,
imu,188.653499,-0.3882011672000001,-9.594370912,2.4536227856,1.54782784,1.48739508,-4.02724261,,,
imu,188.662212,-0.3911919312,-9.632054538400002,2.4518283272,1.68988913,1.65936401,-3.91508896,,,
imu,188.670926,-0.3911919312,-9.624278552000002,2.4530246328,1.68988913,1.77899457,-3.81041222,,,
imu,188.6794,-0.382817792,-9.623680399200001,2.460202466400001,1.63755076,1.91357895,-3.72816621,,,
imu,188.687873,-0.3726491944000001,-9.6505972752,2.4631932304,1.56278166,1.85376367,-3.72816621,,,
imu,188.696347,-0.3714528888,-9.684093832000002,2.4578098552,1.37585891,1.89114822,-3.91508896,,,
imu,188.704821,-0.3798270280000001,-9.682299373600001,2.455417244,1.368382,2.04816333,-3.61601256,,,
imu,188.713294,-0.3642750552,-9.6745233872,2.464389536000001,1.17398234,1.96591732,-3.47395127,,,
imu,188.721768,-0.3762381112000001,-9.665551095200001,2.4560153968,0.88985976,2.00330187,-3.37675144,,,
imu,188.730242,-0.3893974728000001,-9.658971414400002,2.4631932304,0.9347212199999999,2.08554788,-3.26459779,,,
imu,188.738716,-0.3876030144000001,-9.633250844,2.460202466400001,0.8524752099999999,2.21265535,-3.07767504,,,
imu,188.747189,-0.382817792,-9.618297024,2.458408008,0.65807555,2.13040934,-3.14496723,,,
imu,188.755663,-0.3744436528,-9.597361676,2.4566135496,0.7253677399999999,2.15284007,-3.01038285,,,
imu,188.764137,-0.3780325696000001,-9.595567217600001,2.4661839944,0.83004448,2.22760917,-2.80102937,,,
imu,188.77261,-0.385808556,-9.584800467200001,2.4566135496,0.9048135799999999,2.40705501,-2.65149117,,,
imu,188.781084,-0.385808556,-9.589585689600002,2.471567369600001,0.9197674,2.30237827,-2.54681443,,,
imu,188.789558,-0.361882444,-9.579417092000002,2.4769507448,1.02444414,2.51920866,-2.35241477,,,
imu,188.798032,-0.3576953744,-9.566257730400002,2.4757544392,1.16650543,2.90053107,-2.21035348,,,
imu,188.806505,-0.3379563320000001,-9.571641105600001,2.4769507448,1.25622835,3.05006927,-2.35241477,,,
imu,188.814979,-0.3068523864000001,-9.575230022400001,2.4817359672,1.43567419,3.16969983,-2.27764567,,,
imu,188.823453,-0.2948893304,-9.578220786400001,2.4901101064,1.6674584,3.32671494,-2.41970696,,,
imu,188.831926,-0.2924967192,-9.573435564,2.497287940000001,1.82447351,3.53606842,-2.74121409,,,
imu,188.8404,-0.3032634696000001,-9.573435564,2.503269468,1.83942733,3.62579134,-2.87579847,,,
imu,188.848874,-0.2883096496000001,-9.555490980000002,2.522410357600001,1.98896553,4.00711375,-2.96552139,,,
imu,188.857348,-0.3134320672,-9.5327611736,2.5307844968,2.39271867,4.32114397,-2.98047521,,,
imu,188.865821,-0.3493212352000001,-9.5148165896,2.5409530944,2.5646876,4.672558739999999,-3.07767504,,,
imu,188.874295,-0.3870048616000001,-9.460384684800001,2.5594958312,2.863764,5.09874261,-3.23469015,,,
imu,188.882766,-0.4539979752000001,-9.425691822400001,2.597179457600001,3.41705534,5.7641876,-3.31693616,,,
imu,188.891237,-0.5168040192000001,-9.4041583216,2.5953849992,3.88062376,6.64646298,-3.496382,,,
imu,188.899708,-0.5784137576,-9.3545116392,2.6031609856,4.61336094,7.790430209999999,-3.81041222,,,
imu,188.90818,-0.6406216488000002,-9.261199802400002,2.6043572912,5.42834413,9.29328912,-4.58053395,,,
imu,188.916651,-0.7153907488000001,-9.194206688800001,2.6264889448,6.69941883,10.95316314,-5.27588658,,,
imu,188.925122,-0.8804809216,-9.1918140776,2.6396483064,8.0228319,13.10651322,-5.9637623,,,
imu,188.933593,-1.0461692472,-9.186430702400001,2.6402464592,9.421014069999998,15.783247,-6.51705364,,,
imu,188.942064,-1.0294209688,-9.171476882400002,2.6306760144,10.80424242,19.13290268,-7.257267730000001,,,
imu,187.647691,,,,,,,268.4485244,-179.5618388,-338.3164296
imu,187.749284,,,,,,,266.2146068,-178.3899476,-338.3164296
imu,187.850939,,,,,,,266.4343364000001,-178.5608484,-338.3164296
imu,187.952379,,,,,,,266.0925348,-177.98711,-338.3164296
imu,188.054002,,,,,,,265.8239764,-178.3777404,-338.3164296
imu,188.155534,,,,,,,266.4587508,-178.0237316,-338.3164296
imu,188.257066,,,,,,,266.104742,-178.6218844000001,-338.3164296
imu,188.35869,,,,,,,267.8503716,-178.6462988,-338.3164296
imu,188.950536,-1.1478552232,-9.1672898128,2.634264931200001,12.15008622,22.87883459,-8.44609642,,,
imu,188.959007,-1.082656568,-9.173869493600002,2.6103388192,13.77257569,26.46775139,-9.68726348,,,
imu,188.967478,-1.0037003984,-9.231890315200001,2.5714588872,15.28291151,30.04171437,-10.00877061,,,
imu,188.975949,-0.8368157672000002,-9.309052026400002,2.5505235392,16.50164784,33.15958584,-10.24055482,,,
imu,188.98442,-0.6645477608,-9.402363863200002,2.5146343712,17.40635395,35.45499720999999,-11.00319964,,,
imu,188.992891,-0.5479079648000001,-9.460982837600001,2.4727636752,18.20638332,37.39899381,-11.78827519,,,
imu,189.001363,-0.4928779072000001,-9.526181492800001,2.4243132984,18.61761337,38.5130534,-12.34156653,,,
imu,189.009834,-0.4079402096,-9.564463272000001,2.3740684632,19.0138896,39.53739006999999,-11.81818283,,,
imu,189.018305,-0.3188154424,-9.591978300800001,2.3393756008,19.20828926,40.29255798,-11.22003003,,,
imu,189.026776,-0.2554112456,-9.6284656216,2.2717843344,19.34287364,40.74864949,-11.20507621,,,
imu,189.035247,-0.2458408008,-9.630858232800001,2.2155579712,19.6120424,40.82341859,-11.57892171,,,
imu,189.043718,-0.2261017584,-9.641026830400001,2.1575371496,19.91859571,40.73369567,-11.96024412,,,
imu,189.05219,-0.200381188,-9.630260080000001,2.0971237168,20.40459486,40.57668056,-12.3939049,,,
imu,189.060661,-0.1022841288,-9.602146898400001,2.0229527696,20.92797856,40.24021961,-13.05187298,,,
imu,189.069132,0.023926112,-9.602745051200001,1.9505762808,21.1821935,39.54486697999999,-13.6649796,,,
imu,189.077603,0.0681894192,-9.630858232800001,1.875209028,21.12985513,38.2887461,-14.08368656,,,
imu,189.086062,0.1130508792,-9.720581152800001,1.8195808176,21.37659316,36.84570247,-13.89676381,,,
imu,189.09452,0.1459492832,-9.806715156000001,1.7501950928,21.24948569,35.08862861999999,-13.26122646,,,
imu,189.102978,0.2356722032,-9.882680561600003,1.6736315344,20.8831171,33.13715511,-12.62568911,,,
imu,189.111437,0.3559009160000001,-9.967618259200002,1.6215922408,20.29991812,30.75949773,-12.10230541,,,
imu,189.119895,0.3786307224000001,-10.042985512,1.5809178504,19.44755038,27.88836429,-11.84061356,,,
imu,189.128354,0.3732473472,-10.0890432776,1.5228970288,18.40825989,24.69572372,-11.63873699,,,
imu,189.136812,0.3170209840000001,-10.1189509176,1.4810263328,17.24933884,21.70495972,-10.90599981,,,
imu,189.145271,0.2308869808,-10.1231379872,1.453511304,15.82872594,18.79644173,-10.04615516,,,
imu,189.153729,0.1716698536,-10.1303158208,1.4110424552,14.52026669,16.40383053,-9.35080253,,,
imu,189.162188,0.116639796,-10.1410825712,1.3721625232,13.01740778,14.34768028,-8.79003428,,,
imu,189.170646,0.0550300576,-10.1650086832,1.342853036,11.47716432,12.1195611,-8.29655822,,,
imu,189.179105,0.007775986400000001,-10.1524474744,1.3087583264,10.13132052,10.25781051,-8.019912549999999,,,
imu,189.187563,-0.03648732080000001,-10.1273250568,1.2926082008,8.89763037,8.70261323,-7.72831306,,,
imu,189.196021,-0.0382817792,-10.0932303472,1.2704765472,7.7985246,7.00535466,-7.39185211,,,
imu,189.20448,-0.0257205704,-10.0507614984,1.2746636168,6.95363377,5.375388279999999,-7.21988318,,,
imu,189.212938,-0.003588916800000001,-10.0148723304,1.2686820888,5.98911238,3.64822207,-7.09277571,,,
imu,189.221397,0.0113649032,-9.983170232,1.2603079496,5.34609812,1.77151766,-6.681545659999999,,,
imu,189.229855,0.04127254320000001,-9.9466829112,1.2662894776,4.81523751,-0.3070633200000001,-6.075915950000001,,,
imu,189.238314,0.0382817792,-9.899428840000002,1.2794488392,4.232038530000001,-2.56509014,-5.41047096,,,
imu,189.246772,0.04486146000000001,-9.852174768800001,1.2692802416,4.08250033,-4.80816314,-4.647826139999999,,,
imu,189.255231,0.04127254320000001,-9.835426490400001,1.2615042552,4.01520814,-7.16338979,-3.66835093,,,
imu,189.263689,0.06041343280000001,-9.837220948800002,1.265093172,3.8357623,-9.406462789999999,-2.92813684,,,
imu,189.272148,0.08792846160000001,-9.8719138112,1.295000812,3.6862241,-11.70935107,-2.1505382,,,
imu,189.280606,0.1022841288,-9.905410368000002,1.31593616,3.33480933,-14.15430064,-1.91127708,,,
imu,189.289087,0.1417622136,-9.961038578400002,1.339862272,3.05816366,-16.6665424,-1.57481613,,,
imu,189.297569,0.2266999112,-9.994535135200001,1.3500308696,2.42262631,-19.44047601,-1.08134007,,,
imu,189.30605,0.3337692624,-10.0142741776,1.3554142448,1.8169966,-22.31160945,-0.37851053,,,
imu,189.314531,0.4252866408000001,-10.007096344,1.3494327168,0.88985976,-25.64631131,0.36170356,,,
imu,189.323013,0.4779240872000001,-9.976590551200001,1.33088998,0.27675314,-29.4520585,1.01967164,,,
imu,189.331494,0.4528016696000001,-9.947879216800002,1.3290955216,-0.26906129,-33.36995934,1.93185466,,,
imu,189.339975,0.3864067088000001,-9.905410368000002,1.3027767984,-0.8522602699999999,-37.302814,3.09825262,,,
imu,189.348457,0.311039456,-9.8946436176,1.2967952704,-1.11395212,-40.83939243,4.21978912,,,
imu,189.356938,0.1985867296,-9.879091644800003,1.3027767984,-1.30835178,-43.89744862,4.997387760000001,,,
imu,189.365419,0.113649032,-9.876100880800003,1.30098234,-1.55508981,-46.70876678,5.70769421,,,
imu,189.373901,0.0065796808,-9.900625145600001,1.3141417016,-1.7719202,-49.02660888,6.305847010000001,,,
imu,189.382382,-0.09989151760000002,-9.926345716,1.3147398544,-2.19810407,-50.91826711,6.2983701,,,
imu,189.390863,-0.1896144376,-9.9167752712,1.33088998,-2.46727283,-52.23420327,5.94695533,,,
imu,189.399345,-0.2907022608000001,-9.9048122152,1.3500308696,-2.94579507,-53.12395556,5.34880253,,,
imu,189.407826,-0.3810233336,-9.879689797600001,1.354816092,-3.28225602,-53.64733926,4.87028029,,,
imu,189.416308,-0.439642308,-9.861147060800002,1.3566105504,-3.61124006,-53.77444673,4.52634243,,,
imu,189.424789,-0.5933675776,-9.839015407200002,1.3679754536,-3.92527028,-53.46789342,3.95062036,,,
imu,189.43327,-0.7847764736,-9.828248656800001,1.393696024,-4.08228539,-52.71272551,3.39732902,,,
imu,189.441752,-0.9839613560000001,-9.8270523512,1.39070526,-4.26173123,-51.06780531,2.79169931,,,
imu,189.450233,-1.1269198752,-9.801929933600002,1.4014720104,-4.463607799999999,-48.60790192,2.50757673,,,
imu,189.458714,-1.2465504352,-9.7474980288,1.432575956,-4.48603853,-45.34049225,1.90942393,,,
imu,189.467196,-1.306963868,-9.745703570400002,1.4582965264,-4.231823589999999,-41.54969888,1.02714855,,,
imu,189.475677,-1.2955989648,-9.7361331256,1.4929893888,-4.0897623,-37.7514286,-0.2065416,,,
imu,189.484158,-1.2465504352,-9.720581152800001,1.5300748624,-3.865455,-33.80362012,-1.27573973,,,
imu,189.492958,-1.1681924184,-9.742114653600002,1.558188044,-3.69348607,-30.13993422,-2.15801511,,,
imu,189.501758,-1.064711984,-9.748096181600001,1.5809178504,-3.66357843,-26.84261691,-3.07767504,,,
imu,189.510557,-0.9737927584000001,-9.76484446,1.6114236432,-3.61124006,-23.93409892,-3.31693616,,,
imu,189.519357,-0.8882569080000001,-9.7612555432,1.6203959352,-3.69348607,-21.49662626,-3.18235178,,,
imu,189.528157,-0.8392083784000002,-9.755274015200001,1.6323589912,-3.98508556,-19.41056837,-2.92813684,,,
imu,189.536956,-0.8284416280000001,-9.745703570400002,1.6371442136,-3.97760865,-17.6385407,-2.76364482,,,
imu,189.545756,-0.8918458248000001,-9.744507264800001,1.6532943392,-3.88788573,-16.05343578,-2.54681443,,,
imu,189.554556,-0.9385017432000002,-9.735534972800002,1.67482784,-3.73834753,-14.10196227,-2.38979932,,,
imu,189.563355,-0.9719983000000001,-9.724170069600001,1.710717008,-3.66357843,-11.88132,-2.54681443,,,
imu,189.572155,-0.9851576616000001,-9.7056273328,1.7364375784,-3.65610152,-9.428893519999999,-2.77112173,,,
imu,189.580955,-0.9636241608000001,-9.7008421104,1.7501950928,-3.61124006,-6.961513220000001,-3.24964397,,,
imu,189.589754,-0.8607418792,-9.693664276800002,1.7537840096,-3.31216366,-4.56890202,-3.92256587,,,
imu,189.598554,-0.7602522088000001,-9.685888290400001,1.7747193576,-3.16262546,-2.52022868,-4.5431494,,,
imu,189.607354,-0.6723237472000001,-9.672130776000001,1.7747193576,-3.14767164,-1.07718505,-4.96185636,,,
imu,189.616153,-0.6059287864000001,-9.6817012208,1.7818971912,-2.95327198,-0.05284837999999992,-5.29831731,,,
imu,189.624953,-0.5497024232000001,-9.711608860800002,1.785486108,-2.8186876,0.7322271699999998,-5.15625602,,,
imu,189.633728,-0.535346756,-9.715795930400002,1.7932620944,-2.66167249,1.37524143,-4.85717962,,,
imu,189.642528,-0.5150095608,-9.731946056000002,1.797449164,-2.40745755,1.92105586,-4.51324176,,,
imu,189.651328,-0.5072335744,-9.730749750400001,1.8165900536,-2.46727283,2.18274771,-4.55810322,,,
imu,189.660127,-0.5323559920000001,-9.752881404000002,1.8339364848,-2.33268845,2.53416248,-4.35622665,,,
imu,189.668927,-0.5670488544000001,-9.797742864000002,1.8441050824,-2.36259609,2.82576197,-4.3936112,,,
imu,189.677727,-0.5718340768000001,-9.7989391696,1.8309457208,-2.57194957,3.31176112,-4.49828794,,,
imu,189.686526,-0.5640580904000001,-9.791761336000002,1.8399180128,-2.67662631,3.78280645,-4.44594957,,,
imu,189.694999,-0.5425245896,-9.773218599200002,1.8494884576,-2.8934567,4.16412886,-4.52819558,,,
imu,189.703471,-0.5138132552000001,-9.738525736800002,1.8345346376,-3.14767164,4.7921893,-4.72259524,,,
imu,189.711944,-0.4779240872000001,-9.697851346400002,1.8417124712,-3.42431731,5.09874261,-4.79736434,,,
imu,189.720416,-0.4312681688,-9.715795930400002,1.8375254016,-3.59628624,5.09874261,-4.98428709,,,
imu,189.728889,-0.4276792520000001,-9.734936820000001,1.8536755272,-3.7159168,5.03145042,-5.10391765,,,
imu,189.737361,-0.4324644744,-9.789368724800001,1.8877702368,-3.58133242,4.784712389999999,-5.20111748,,,
imu,189.745834,-0.4360533912000001,-9.8234634344,1.896144376,-3.31216366,4.51554363,-5.35813259,,,
imu,189.754306,-0.4665591840000001,-9.803126239200001,1.8805924032,-3.29720984,4.20899032,-5.567486069999999,,,
imu,189.762778,-0.4874945320000001,-9.721179305600002,1.8668348888,-3.17010237,4.2688056,-5.34317877,,,
imu,188.460191,,,,,,,266.0314988,-178.414362,-338.3164296
imu,188.561754,,,,,,,268.363074,-179.4885956,-338.3164296
imu,188.663347,,,,,,,266.5197868,-178.29229,-338.3164296
imu,188.764879,,,,,,,268.4973532,-179.6472892,-338.3164296
imu,188.866441,,,,,,,266.3122644000001,-178.8049924,-338.3164296
imu,188.968034,,,,,,,266.1169492,-178.9270644,-338.3164296
imu,189.06978,,,,,,,268.8025332,-176.4734172,-338.3164296
imu,189.172899,,,,,,,267.4841556000001,-175.0451748,-338.3164296
imu,189.771251,-0.5281689224000001,-9.658971414400002,1.875209028,-2.98317962,4.32862088,-4.89456417,,,
imu,189.779723,-0.5772174520000001,-9.644615747200001,1.8674330416,-2.79625687,4.62022037,-4.453426479999999,,,
imu,189.788196,-0.6154992312,-9.648802816800002,1.8500866104,-2.53456502,5.03145042,-3.98238115,,,
imu,189.796668,-0.6244715232,-9.638036066400002,1.8554699856,-2.19062716,5.569787939999999,-3.95247351,,,
imu,189.805141,-0.5987509528,-9.627867468800002,1.8596570552,-1.9214584,6.30252512,-3.91508896,,,
imu,189.813613,-0.5879842024,-9.608128426400002,1.8638441248,-1.81678166,7.012831569999999,-4.08705789,,,
imu,189.822085,-0.5526931872,-9.604539509600002,1.8686293472,-1.61490509,7.52126145,-4.34874974,,,
imu,189.830558,-0.517402172,-9.631456385600002,1.8829850144,-1.28592105,8.11193734,-4.29641137,,,
imu,189.83903,-0.4845037680000001,-9.672728928800002,1.9099018904,-1.2485365,8.612890310000001,-4.22164227,,,
imu,189.847503,-0.4444275304,-9.710412555200001,1.9404076832,-1.26349032,8.8297207,-4.341272829999999,,,
imu,189.855975,-0.4091365152000001,-9.734338667200001,1.9481836696,-1.35321324,8.97178199,-4.48333412,,,
imu,189.864448,-0.3929863896,-9.7492924872,1.9601467256,-1.38312088,8.97178199,-4.48333412,,,
imu,189.87292,-0.391790084,-9.7540777096,1.9607448784,-1.54013599,8.91944362,-4.625395409999999,,,
imu,189.881393,-0.3822196392,-9.752881404000002,1.9792876152,-1.59995127,8.77738233,-4.670256869999999,,,
imu,189.889865,-0.3684621248000001,-9.7474980288,1.9840728376,-1.57752054,8.80728997,-4.59548777,,,
imu,189.898329,-0.3421434016,-9.740918348000001,1.9984285048,-1.72705874,8.7549516,-4.341272829999999,,,
imu,189.906792,-0.320011748,-9.727758986400001,1.9930451296,-1.80182784,8.49325975,-4.49081103,,,
imu,189.915256,-0.323002512,-9.7151977776,1.9954377408,-1.68967419,8.05959897,-4.6179185,,,
imu,189.923719,-0.2996745528,-9.708019944000002,1.9936432824,-1.65228964,7.670799649999999,-4.3936112,,,
imu,189.932183,-0.2966837888,-9.696056888000001,2.006802644,-1.55508981,7.296954149999999,-4.21416536,,,
imu,189.940646,-0.3080486920000001,-9.696056888000001,2.0091952552,-1.52518217,6.93806247,-4.13939626,,,
imu,189.94911,-0.3517138464,-9.676317845600002,1.98885806,-1.33078251,6.706278259999999,-3.84031986,,,
imu,189.957573,-0.3965753064,-9.638036066400002,1.991848824,-1.30835178,6.51935551,-3.77302767,,,
imu,189.966037,-0.4330626272,-9.648204664000001,2.0109897136,-1.44293616,6.42963259,-3.87770441,,,
imu,189.9745,-0.4845037680000001,-9.683495679200002,2.0265416864,-1.37564397,6.489447869999999,-4.341272829999999,,,
imu,189.982964,-0.5132151024,-9.713403319200001,2.0211583112,-1.18872122,6.82590882,-4.55062631,,,
imu,189.991428,-0.5221873944000001,-9.702636568800001,2.0319250616,-1.3233056,7.08760067,-4.82727198,,,
imu,189.999891,-0.5215892416000001,-9.655382497600002,2.0271398392,-1.38312088,7.45396926,-4.9169949,,,
imu,190.008355,-0.5180003248000001,-9.6709344704,2.000821116,-1.09152139,7.73809184,-4.692687599999999,,,
imu,190.016818,-0.4928779072000001,-9.686486443200002,1.9930451296,-0.82235263,8.05959897,-4.42351884,,,
imu,190.025282,-0.4462219888000001,-9.665551095200001,1.9936432824,-0.52327623,8.08950661,-4.18425772,,,
imu,190.033745,-0.3941826952,-9.6494009696,2.006802644,-0.38121494,8.05959897,-3.93751969,,,
imu,190.042209,-0.3385544848000001,-9.634447149600001,1.994839588,-0.02980017,7.92501459,-3.69078166,,,
imu,190.050672,-0.3032634696000001,-9.630260080000001,1.9936432824,0.22441477,7.39415398,-3.46647436,,,
imu,190.059136,-0.2619909264,-9.609922884800001,1.9930451296,0.5459219,6.72123208,-3.39170526,,,
imu,190.067599,-0.2524204816,-9.602745051200001,2.0050081856,0.76275229,6.13055619,-3.13001341,,,
imu,190.076063,-0.2374666616,-9.6015487456,1.985867296,1.31604363,5.58474176,-2.88327538,,,
imu,190.084526,-0.2398592728,-9.614109954400002,2.0002229632,1.54782784,4.7921893,-2.87579847,,,
imu,190.09299,-0.2344758976,-9.633848996800001,1.9990266576,1.90671952,4.32862088,-2.85336774,,,
imu,190.101465,-0.227298064,-9.6523917336,2.012784172,2.07121154,3.81271409,-3.03281358,,,
imu,190.10994,-0.233279592,-9.666149248000002,2.0181675472,2.19831901,3.36409949,-3.1973056,,,
imu,190.118415,-0.2440463424,-9.689477207200001,2.027737992,2.37776485,2.78090051,-3.55619728,,,
imu,190.12689,-0.2613927736,-9.697851346400002,2.0259435336,2.407672489999999,2.3995781,-3.73564312,,,
imu,190.135365,-0.2733558296,-9.7074217912,2.0193638528,2.2656112,2.04068642,-3.84031986,,,
imu,190.14384,-0.2907022608000001,-9.710412555200001,2.0259435336,2.28056502,1.7266562,-3.83284295,,,
imu,190.152315,-0.3128339144,-9.7074217912,2.0235509224,2.38524176,1.44253362,-3.97490424,,,
imu,190.16079,-0.3158246784000001,-9.7193848472,2.0289342976,2.28056502,1.14345722,-4.13191935,,,
imu,190.169265,-0.3523119992,-9.7295534448,2.0289342976,2.1908421,0.9640113799999996,-4.21416536,,,
imu,190.17774,-0.3816214864,-9.746301723200002,2.039701048,2.13850373,0.78456554,-4.169303899999999,,,
imu,190.186215,-0.3989679176000001,-9.748096181600001,2.0355139784,2.27308811,0.8593346399999997,-4.146873169999999,,,
imu,190.19469,-0.4079402096,-9.746899876,2.0193638528,2.02635008,0.9415806499999997,-4.17678081,,,
imu,190.203165,-0.4199032656,-9.738525736800002,2.027737992,1.9665348,1.06868812,-4.10948862,,,
imu,190.21164,-0.4181088072000001,-9.7283571392,2.0229527696,1.80204278,1.25561087,-4.04967334,,,
imu,190.220115,-0.415716196,-9.7217774584,2.0133823248,1.77213514,1.28551851,-3.98985806,,,
imu,190.22859,-0.4222958768,-9.722973764,2.024747228,1.65250458,1.2780416,-4.06462716,,,
imu,190.237065,-0.4234921824,-9.727160833600001,2.0223546168,1.46558183,1.29299542,-4.124442439999999,,,
imu,190.24554,-0.4079402096,-9.713403319200001,2.0223546168,1.40576655,1.39767216,-3.93751969,,,
imu,190.254015,-0.415716196,-9.706225485600001,2.012784172,1.37585891,1.4275798,-3.96742733,,,
imu,190.26249,-0.4300718632,-9.700243957600001,2.0121860192,1.22632071,1.5023489,-3.82536604,,,
imu,190.270965,-0.4414367664,-9.6942624296,2.000821116,1.16650543,1.50982581,-3.68330475,,,
imu,190.27944,-0.4510072112,-9.6912716656,1.985867296,1.16650543,1.61450255,-3.61601256,,,
imu,190.287915,-0.4510072112,-9.6876827488,1.979885768,1.30856672,1.74908693,-3.6459202,,,
imu,190.29639,-0.4522035168,-9.6912716656,1.9655301008,1.39081273,1.8761944,-3.76555076,,,
imu,190.305199,-0.451605364,-9.699645804800001,1.9541651976,1.4431511,1.93600968,-3.90013514,,,
imu,190.314008,-0.4599795032,-9.710412555200001,1.9392113776,1.48053565,2.24256299,-3.73564312,,,
imu,190.322817,-0.4665591840000001,-9.721179305600002,1.955959656,1.42819728,2.48930102,-3.85527368,,,
imu,190.331626,-0.4749333232000001,-9.7265626808,1.949978128,1.45810492,2.60893158,-3.82536604,,,
imu,190.340435,-0.4647647256,-9.755274015200001,1.9595485728,1.45062801,2.71360832,-3.57862801,,,
imu,190.349243,-0.4474182944000001,-9.782789044000001,1.9553615032,1.39081273,2.90053107,-3.60105874,,,
imu,190.358052,-0.4390441552000001,-9.7845835024,1.976895004,1.2188438,3.00520781,-3.6459202,,,
imu,190.366861,-0.4210995712,-9.767835224,1.9667264064,1.03192105,3.05006927,-3.7954584,,,
imu,190.37567,-0.4145198904,-9.7504887928,1.9685208648,0.9272443100000001,3.0725,-3.78798149,,,
imu,190.384479,-0.4019586816,-9.7217774584,1.9541651976,0.65807555,2.96034635,-3.83284295,,,
imu,190.393288,-0.4145198904,-9.702636568800001,1.9715116288,0.66555246,2.9977309,-3.63096638,,,
imu,190.402097,-0.4258847936,-9.720581152800001,1.9721097816,0.5010604399999999,2.8481927,-3.78050458,,,
imu,190.410906,-0.4510072112,-9.740918348000001,1.9762968512,0.6281679099999999,2.85566961,-4.012288789999999,,,
imu,190.419715,-0.4438293776000001,-9.760059237600002,2.0109897136,0.5982602699999999,2.9229618,-3.87770441,,,
imu,190.428524,-0.4420349192,-9.7953502528,1.9942414352,0.4711528,2.83323888,-3.96742733,,,
imu,190.437333,-0.454596128,-9.7534795568,1.9697171704,0.4861066199999999,2.78837742,-4.0197657,,,
imu,190.446142,-0.4522035168,-9.671532623200001,1.9535670448,0.53096808,2.94539253,-3.69825857,,,
imu,190.454951,-0.4492127528000001,-9.644615747200001,1.9583522672,0.77770611,3.16969983,-3.1225365,,,
imu,190.46376,-0.4342589328000001,-9.6667474008,1.9338280024,0.8449983,3.32671494,-2.80850628,,,
imu,190.472569,-0.4300718632,-9.676915998400002,1.9392113776,1.09921324,3.40896095,-2.65149117,,,
imu,190.481378,-0.4234921824,-9.66016772,1.9356224608,1.26370526,3.53606842,-2.77112173,,,
imu,190.490187,-0.4163143488000001,-9.661962178400001,1.935024308,1.35342818,3.55102224,-3.01038285,,,
imu,190.498996,-0.4061457512000001,-9.660765872800003,1.9416039888,1.43567419,3.65569898,-3.37675144,,,
imu,190.507583,-0.3977716120000001,-9.694860582400002,1.949978128,1.58521239,3.88000628,-3.5711511,,,
imu,190.51617,-0.3905937784,-9.721179305600002,1.9625393368,1.68241222,3.93982156,-3.76555076,,,
imu,190.524757,-0.3798270280000001,-9.7504887928,1.979885768,1.55530475,3.85009864,-3.88518132,,,
imu,190.533343,-0.3600879856,-9.783985349600002,1.9954377408,1.33099745,3.69308353,-3.81788913,,,
imu,190.54193,-0.3367600264,-9.789966877600001,1.9972321992,1.07678251,3.3715764,-3.73564312,,,
imu,190.550517,-0.3415452488,-9.794153947200002,2.0014192688,0.74779847,2.99025399,-3.51133582,,,
imu,190.559104,-0.3415452488,-9.7911631832,1.9936432824,0.40386061,2.56407012,-3.23469015,,,
imu,190.567691,-0.3726491944000001,-9.776209363200001,1.9966340464,0.32909151,1.98834805,-2.92813684,,,
imu,190.576278,-0.3923882368,-9.745703570400002,1.9912506712,0.20946095,1.31542615,-2.56924516,,,
imu,190.584865,-0.4199032656,-9.711010708000002,1.9894562128,0.13469185,0.8892422799999999,-2.21783039,,,
imu,189.272776,,,,,,,267.1301468,-175.6555348,-338.3164296
imu,189.374308,,,,,,,266.6784804,-175.4358052,-338.3164296
imu,189.475901,,,,,,,267.3376692,-178.536434,-338.3164296
imu,189.577433,,,,,,,268.485146,-180.1966132,-338.3164296
imu,189.678996,,,,,,,271.0852796,-181.3196756,-338.3164296
imu,189.780558,,,,,,,268.7659116,-179.6472892,-338.3164296
imu,189.882151,,,,,,,268.2165876,-179.451974,-338.3164296
imu,189.983683,,,,,,,267.7771284,-179.4763884,-338.3164296
imu,190.593452,-0.454596128,-9.683495679200002,1.9667264064,0.03001510999999998,0.5453044199999999,-1.89632326,,,
imu,190.602039,-0.4898871432,-9.673925234400002,1.9715116288,0.13469185,0.4555814999999996,-1.58229304,,,
imu,190.610625,-0.4731388648000001,-9.678112304,1.9715116288,0.31413769,0.62007352,-1.29817046,,,
imu,190.619212,-0.4504090584,-9.706225485600001,1.9792876152,0.29170696,0.64250425,-1.21592445,,,
imu,190.627799,-0.4103328208,-9.7325442088,1.9780913096,0.3963837,0.9939190199999999,-1.02152479,,,
imu,190.636386,-0.3864067088000001,-9.7492924872,1.9721097816,0.3963837,1.15093413,-0.9841402399999999,,,
imu,190.644973,-0.3624805968,-9.706225485600001,1.952968892,0.53096808,1.15093413,-0.7822636699999999,,,
imu,190.65356,-0.3397507904000001,-9.6637566368,1.9451929056,0.6281679099999999,1.21074941,-0.5280487299999999,,,
imu,190.662147,-0.3289840400000001,-9.651793580800001,1.9523707392,0.68798319,1.30047233,-0.5579563699999999,,,
imu,190.670734,-0.3445360128,-9.6499991224,1.9386132248,0.9272443100000001,1.21822632,-0.8121713099999999,,,
imu,190.67932,-0.3594898328000001,-9.618895176800002,1.938015072,1.31604363,1.25561087,-0.91684805,,,
imu,190.687907,-0.3642750552,-9.599754287200001,1.9631374896,1.28613599,1.18831868,-0.99161715,,,
imu,190.696494,-0.3451341656,-9.611119190400002,1.952968892,1.75718132,1.3528107,-0.7299252999999999,,,
imu,190.705081,-0.3277877344,-9.614109954400002,1.9541651976,2.03382699,1.48739508,-0.5280487299999999,,,
imu,190.713451,-0.2924967192,-9.578220786400001,1.9416039888,2.35533412,1.42010289,-0.37851053,,,
imu,190.72182,-0.242251884,-9.591978300800001,1.9685208648,2.90114855,1.26308778,-0.09438795,,,
imu,190.730264,-0.1878199792,-9.597361676,1.9613430312,3.52173208,0.9191499199999997,0.04767334000000023,,,
imu,190.738633,-0.1698753952,-9.608128426400002,1.967922712,4.2096078,0.3135202100000001,-0.004665029999999959,,,
imu,190.747003,-0.1268083936,-9.655980650400002,1.9900543656,4.5834533,-0.4865091600000002,0.07010407000000018,,,
imu,190.755372,-0.0813487808,-9.7163940832,2.0175693944,4.79280678,-1.29401544,0.2495499100000003,,,
imu,190.763741,-0.0663949608,-9.756470320800002,2.0265416864,4.92739116,-2.49779795,0.21964227,,,
imu,190.772111,-0.09690075360000001,-9.793555794400001,2.0355139784,4.78532987,-3.96327231,0.15982699,,,
imu,190.78048,-0.1321917688,-9.7959484056,2.0229527696,4.48625347,-5.032470440000001,0.3392728300000001,,,
imu,190.78885,-0.1926052016,-9.7612555432,2.0103915608,3.9853005,-5.84745363,0.8028412500000002,,,
imu,190.797219,-0.2607946208,-9.709814402400001,1.9762968512,3.55911663,-6.370837330000001,1.28136349,,,
imu,190.805589,-0.334965568,-9.656578803200002,1.9457910584,3.11050203,-6.610098450000001,1.64025517,,,
imu,190.813958,-0.3816214864,-9.651793580800001,1.9302390856,2.9385331,-6.370837330000001,1.9617623,,,
imu,190.822328,-0.3935845424,-9.699645804800001,1.9206686408,3.05068675,-5.690438520000001,2.24588488,,,
imu,190.830697,-0.3696584304000001,-9.7403201952,1.8943499176,3.37967079,-4.7782555,2.62720729,,,
imu,190.839066,-0.3026653168,-9.745703570400002,1.8847794728,3.67127028,-3.88850321,2.50757673,,,
imu,190.847436,-0.2787392048,-9.711608860800002,1.8955462232,3.90305449,-3.05108929,1.85708556,,,
imu,190.855805,-0.2607946208,-9.671532623200001,1.9027240568,4.29933072,-2.5351825,1.01219473,,,
imu,190.864175,-0.2410555784,-9.666149248000002,1.8817887088,4.59840712,-2.15386009,0.10001171,,,
imu,190.872544,-0.2368685088,-9.678112304,1.8859757784,4.74794532,-2.03422953,-1.14115535,,,
imu,190.880914,-0.2464389536,-9.692467971200001,1.9087055848,4.92739116,-2.02675262,-2.27016876,,,
imu,190.889283,-0.2727576768,-9.702636568800001,1.9212667936,5.06945245,-2.09404481,-3.10758268,,,
imu,190.897653,-0.305057928,-9.678710456800001,1.9284446272,5.24142138,-2.303398290000001,-3.37675144,,,
imu,190.906022,-0.3206099008000001,-9.6703363176,1.9224630992,5.39095958,-2.45293649,-3.2720747,,,
imu,190.9145,-0.3576953744,-9.669738164800002,1.9332298496,5.67508216,-2.42302885,-2.80850628,,,
imu,190.922977,-0.3493212352000001,-9.684093832000002,1.9284446272,5.87695873,-2.66228997,-2.02343073,,,
imu,190.931455,-0.3541064576,-9.697851346400002,1.9122945016,5.75732817,-2.90155109,-0.9617095099999999,,,
imu,190.939932,-0.3265914288,-9.717590388800001,1.8997332928,5.45825177,-2.9837971,0.0626271599999999,,,
imu,190.94841,-0.3032634696000001,-9.736731278400002,1.878199792,5.2563752,-3.10342766,1.01967164,,,
imu,190.956887,-0.2859170384,-9.7265626808,1.8458995408,4.98720644,-3.32773496,1.85708556,,,
imu,190.965365,-0.2685706072,-9.690075360000002,1.8207771232,4.63579167,-3.5071808,2.67954566,,,
imu,190.973842,-0.257205704,-9.6709344704,1.7902713304,4.41148437,-3.70905737,3.51695958,,,
imu,190.98232,-0.2494297176,-9.658373261600001,1.7807008856,4.44139201,-3.58942681,4.15249693,,,
imu,190.085246,,,,,,,267.6428492000001,-178.8904428,-338.3164296
imu,190.186869,,,,,,,267.264426,-179.1834156,-338.3164296
imu,190.288523,,,,,,,267.691678,-179.2444516,-338.3164296
imu,190.389964,,,,,,,267.996858,-179.7815684,-338.3164296
imu,190.491587,,,,,,,267.9846508,-179.3176948,-338.3164296
imu,190.593119,,,,,,,266.9226244,-178.9270644,-338.3164296
imu,190.694621,,,,,,,269.6692444,-179.4275596,-338.3164296
imu,190.796153,,,,,,,267.5573988,-178.6462988,-338.3164296
imu,190.897642,,,,,,,270.2185684,-179.8426044,-338.3164296
