Type,Timestamp,Data Accelerometer X,Data Accelerometer Y,Data Accelerometer Z,Data Gyroscope X,Data Gyroscope Y,Data Gyroscope Z,Data Magnetometer X,Data Magnetometer Y,Data Magnetometer Z
imu,48.13431,-0.5042428104000001,-9.6470083584,1.6820056736,-2.04856587,-9.33169369,-6.098346680000001,,,
imu,48.14278,-0.55329134,-9.6075302736,1.6981557992,-1.71958183,-8.7410178,-6.270315609999999,,,
imu,48.15125,-0.6107140088,-9.587193078400002,1.7172966888,-1.48032071,-7.963419159999999,-6.49462291,,,
imu,48.15972,-0.6196863008000001,-9.5842023144,1.7202874528,-1.11395212,-6.804498110000001,-6.644161110000001,,,
imu,48.16819,-0.6017417168000001,-9.575230022400001,1.73464312,-0.67281443,-5.735299980000001,-6.89089914,,,
imu,48.17666,-0.5814045216000001,-9.599754287200001,1.752587704,-0.43355331,-4.98013207,-7.19745245,,,
imu,48.18513,-0.535346756,-9.647606511200001,1.7669433712,-0.22419983,-4.29225635,-7.57129795,,,
imu,48.1936,-0.517402172,-9.682299373600001,1.7783082744,0.0001074699999999984,-3.76887265,-7.870374350000001,,,
imu,48.20207,-0.4964668240000001,-9.699645804800001,1.7890750248,0.22441477,-3.49222698,-7.952620359999999,,,
imu,48.210539,-0.5030465048,-9.708019944000002,1.797449164,0.31413769,-3.09595075,-7.81055907,,,
imu,48.219352,-0.5078317272000001,-9.710412555200001,1.800439928,0.5459219,-2.84173581,-7.43671357,,,
imu,48.228165,-0.5197947832,-9.723571916800001,1.7968510112,0.76275229,-2.79687435,-7.010529699999999,,,
imu,48.236978,-0.5245800056000001,-9.7122070136,1.7908694832,0.9571519499999999,-2.6847207,-6.659114929999999,,,
imu,48.245791,-0.5401319784,-9.709814402400001,1.7902713304,1.03939796,-2.65481306,-6.4123769,,,
imu,48.254604,-0.5520950344000001,-9.725964528,1.8022343864,1.45810492,-2.49032104,-6.008623759999999,,,
imu,48.263417,-0.5891805080000001,-9.745105417600001,1.8147955952,1.86185806,-2.49032104,-5.79927028,,,
imu,48.27223,-0.6059287864000001,-9.76484446,1.8261604984,2.18336519,-2.28096756,-5.37308641,,,
imu,48.281043,-0.6400234960000001,-9.797742864000002,1.8345346376,2.25813429,-2.161337000000001,-5.16373293,,,
imu,48.289856,-0.6430142600000001,-9.796546558400001,1.8441050824,2.14598064,-1.78001459,-5.29831731,,,
imu,48.298669,-0.6400234960000001,-9.792957641600001,1.827356804,1.95158098,-1.21924634,-5.216071299999999,,,
imu,48.307482,-0.6172936896000001,-9.779798280000001,1.791467636,1.75718132,-0.7332471900000002,-5.39551714,,,
imu,48.316295,-0.5963583416000001,-9.751685098400001,1.7699341352,1.33099745,-0.3668786000000002,-5.5151477,,,
imu,48.325108,-0.5760211464000001,-9.734338667200001,1.7382320368,1.01696723,-0.05284837999999992,-5.47028624,,,
imu,48.333921,-0.5491042704000001,-9.708019944000002,1.7244745224,0.63564482,0.3209971199999999,-5.39551714,,,
imu,48.342734,-0.5425245896,-9.689477207200001,1.7161003832,0.5982602699999999,0.4331507699999997,-5.16373293,,,
imu,48.351547,-0.5335522976000001,-9.709216249600003,1.7143059248,0.59078336,0.58268897,-4.70016451,,,
imu,48.36036,-0.5257763112000001,-9.685888290400001,1.7101188552,0.5982602699999999,0.6873657099999999,-4.26650373,,,
imu,48.369173,-0.5467116592000001,-9.6918698184,1.710717008,0.91229049,0.8219500899999996,-3.86275059,,,
imu,48.377985,-0.5592728680000001,-9.714001472000001,1.6909779656,1.03939796,0.9191499199999997,-3.67582784,,,
imu,48.386798,-0.5431227424,-9.730749750400001,1.6736315344,1.13659779,1.24813396,-3.56367419,,,
imu,48.395611,-0.5185984776000001,-9.727160833600001,1.662864784,1.36090509,1.71170238,-3.50385891,,,
imu,48.404424,-0.4767277816000001,-9.743310959200002,1.6467146584,1.39081273,2.15284007,-3.61601256,,,
imu,48.413237,-0.4563905864000001,-9.773816752000002,1.6305645328,1.19641307,2.27994754,-3.95995042,,,
imu,48.421717,-0.4342589328000001,-9.787574266400002,1.5886938368,1.07678251,2.33228591,-4.29641137,,,
imu,48.430197,-0.4312681688,-9.789966877600001,1.594077212,1.18893616,2.51920866,-4.19921154,,,
imu,48.438677,-0.4240903352000001,-9.803724392000001,1.5922827536,1.10669015,2.6238854,-4.26650373,,,
imu,48.447158,-0.424688488,-9.820472670400001,1.5946753648,1.17398234,2.75099287,-4.42351884,,,
imu,48.455638,-0.4444275304,-9.812098531200002,1.5982642816,1.23379762,2.99025399,-4.715118329999999,,,
imu,48.464118,-0.4611758088,-9.8228652816,1.6144144072,1.12912088,3.16969983,-5.05905619,,,
imu,48.472598,-0.4617739616000001,-9.7995373224,1.597067976,1.1440747,3.37905331,-5.32074804,,,
imu,48.481078,-0.4611758088,-9.766040765600001,1.620994088,1.2188438,3.51363769,-5.59739371,,,
imu,48.489558,-0.4653628784000001,-9.745105417600001,1.6281719216,0.97958268,3.40148404,-6.135731229999999,,,
imu,48.498038,-0.4892889904,-9.743310959200002,1.6281719216,1.07678251,3.55849915,-6.2628387,,,
imu,48.506518,-0.490485296,-9.748694334400001,1.6485091168,1.0693056,3.65569898,-6.21797724,,,
imu,48.514998,-0.4851019208000001,-9.776807516000002,1.6437238944,1.08425942,3.75289881,-5.91142393,,,
imu,48.523478,-0.4898871432,-9.788770572,1.6592758672,1.06182869,3.72299117,-5.73197809,,,
imu,48.531958,-0.4982612824000001,-9.800733628000001,1.6730333816,1.03939796,3.61083752,-5.567486069999999,,,
imu,48.540438,-0.5042428104000001,-9.801929933600002,1.6772204512,0.94967504,3.40896095,-5.238502029999999,,,
imu,48.548918,-0.4898871432,-9.790565030400002,1.6891835072,0.70293701,3.18465365,-4.98428709,,,
imu,48.557398,-0.4845037680000001,-9.779200127200001,1.7053336328,0.53844499,3.09493073,-4.67773378,,,
imu,48.565879,-0.4785222400000001,-9.7821908912,1.7250726752,0.28423005,2.96782326,-4.49081103,,,
imu,48.574359,-0.4928779072000001,-9.7714241408,1.7280634392,0.11973803,2.78837742,-4.34874974,,,
imu,48.582839,-0.4880926848000001,-9.7361331256,1.7364375784,0.05244583999999999,2.63136231,-3.99733497,,,
imu,48.591319,-0.4677554896000001,-9.7008421104,1.7543821624,-0.08961545,2.33976282,-3.78050458,,,
imu,48.599799,-0.4593813504000001,-9.6745233872,1.7711304408,-0.06718472,2.27994754,-3.78050458,,,
imu,48.608279,-0.4575868920000001,-9.638036066400002,1.7902713304,0.007584380000000002,2.13040934,-3.91508896,,,
imu,48.616759,-0.4528016696000001,-9.609922884800001,1.800439928,0.18703022,1.71170238,-3.99733497,,,
imu,48.625214,-0.439642308,-9.6075302736,1.8219734288,0.22441477,1.36028761,-4.19173463,,,
imu,48.633668,-0.3959771536000001,-9.6087265792,1.827356804,0.23936859,0.9640113799999996,-4.28145755,,,
imu,48.642123,-0.3726491944000001,-9.6159044128,1.8441050824,0.51601426,0.41819695,-4.363703559999999,,,
imu,48.650578,-0.3696584304000001,-9.614708107200002,1.8435069296,0.80013684,-0.06780220000000003,-4.43847266,,,
imu,48.659032,-0.376836264,-9.624278552000002,1.8470958464,1.02444414,-0.8379239300000001,-4.318842099999999,,,
imu,48.667487,-0.376836264,-9.6260730104,1.8411143184,1.26370526,-1.51832274,-4.00481188,,,
imu,48.675941,-0.3959771536000001,-9.627269316000001,1.8488903048,1.47305874,-2.05666026,-3.81041222,,,
imu,48.684396,-0.3923882368,-9.617100718400001,1.8500866104,1.83195042,-2.64733615,-3.60105874,,,
imu,48.692736,-0.3541064576,-9.608128426400002,1.8614515136,2.03382699,-3.23053513,-3.51133582,,,
imu,48.701191,-0.3343674152,-9.630858232800001,1.863245972,2.24318047,-3.94084158,-3.50385891,,,
imu,48.709645,-0.3481249296000001,-9.651793580800001,1.8823868616,2.49739541,-4.987608979999999,-3.41413599,,,
imu,48.7181,-0.3696584304000001,-9.644615747200001,1.8799942504,2.64693361,-6.041853290000001,-3.25712088,,,
imu,48.726555,-0.3750418056000001,-9.620689635200002,1.8799942504,3.02825602,-6.894221030000001,-2.80850628,,,
imu,48.735009,-0.3798270280000001,-9.623082246400001,1.875209028,3.3123786,-7.82135787,-2.45709151,,,
imu,48.743464,-0.3834159448,-9.6051376624,1.863245972,3.73856247,-8.94289437,-2.2253073,,,
imu,48.751918,-0.4109309736,-9.599754287200001,1.8865739312,4.33671527,-9.98218486,-1.99352309,,,
imu,48.760373,-0.4665591840000001,-9.641026830400001,1.890162848,4.9572988,-10.99156771,-1.93370781,,,
imu,48.768828,-0.5425245896,-9.6637566368,1.8590589024,5.44329795,-11.91122764,-1.86641562,,,
imu,48.777282,-0.6149010784000001,-9.614708107200002,1.8141974424,6.0040662,-12.50190353,-1.29817046,,,
imu,48.785737,-0.6483976352,-9.550705757600001,1.7986454696,6.31809642,-12.73368774,-0.62524856,,,
imu,48.794192,-0.6388271904000001,-9.5459205352,1.8106085256,6.72932647,-12.68882628,0.1299193500000002,,,
imu,48.802646,-0.6256678288,-9.635643455200002,1.788476872,7.13307961,-12.64396482,0.8402258000000002,,,
imu,48.811101,-0.6125084672000001,-9.706823638400001,1.7310542032,7.43215601,-12.74116465,1.16173293,,,
imu,48.819556,-0.6017417168000001,-9.721179305600002,1.6939687296,7.34991,-12.83836448,1.3636095,,,
imu,48.828022,-0.6358364264000002,-9.727758986400001,1.6634629368,7.40972528,-12.77107229,1.69259354,,,
imu,48.836488,-0.6884738728,-9.725366375200002,1.650901728,7.48449438,-12.62153409,2.1113005,,,
imu,48.844954,-0.7339334856000002,-9.7193848472,1.6072365736,7.60412494,-11.82150472,2.43280763,,,
imu,48.85342,-0.7925524600000001,-9.7074217912,1.5707492528,7.54430966,-10.72239895,2.45523836,,,
imu,48.861886,-0.7775986400000001,-9.690673512800002,1.546224988,7.58169421,-9.31673987,2.20850033,,,
imu,48.870352,-0.7781967928000002,-9.6745233872,1.5306730152,7.61160185,-7.828834779999999,1.82717792,,,
imu,48.878818,-0.7829820152,-9.708019944000002,1.5199062648,7.77609387,-6.44560643,1.02714855,,,
imu,48.887284,-0.8158804192000001,-9.762451848800001,1.5199062648,7.79104769,-4.98013207,0.2944113700000002,,,
imu,48.89575,-0.8421991424,-9.860548908000002,1.52528964,7.69384786,-3.26044277,-0.2514030599999999,,,
imu,48.904216,-0.8762938520000002,-9.934719855200001,1.5414397656,7.19289489,-1.428599820000001,-0.5878640099999999,,,
imu,48.912683,-0.8870606024000001,-10.00410558,1.51033582,6.5274499,0.6574580699999997,-0.96918642,,,
imu,48.921149,-0.8517695872000001,-10.0118815664,1.4947838472,5.76480508,2.8481927,-1.29817046,,,
imu,48.929615,-0.804515516,-9.979581315200003,1.4720540408,4.84514515,4.76975857,-1.7019236,,,
imu,48.938081,-0.744700236,-9.995133288000002,1.432575956,3.947915950000001,6.467017139999999,-2.06081528,,,
imu,48.946547,-0.6591643856000001,-9.975992398400003,1.4152295248,3.140409669999999,8.03716824,-2.43466078,,,
imu,48.955013,-0.5239818528000001,-9.956253356,1.4200147472,2.42262631,9.121320189999999,-2.77112173,,,
imu,48.963479,-0.4115291264,-9.934719855200001,1.4008738576,1.8917657,9.74190372,-2.95056757,,,
imu,48.971945,-0.3086468448,-9.863539672000002,1.4008738576,1.39081273,10.04845703,-2.90570611,,,
imu,48.980411,-0.2350740504,-9.803724392000001,1.4044627744,1.22632071,9.824149729999998,-2.77859864,,,
imu,48.988877,-0.1770532288,-9.7845835024,1.4224073584,0.8823828499999999,9.29328912,-2.61410662,,,
imu,48.997343,-0.1381732968,-9.749890640000002,1.4283888864,0.9571519499999999,8.76242851,-2.1505382,,,
imu,49.005809,-0.1208268656,-9.714599624800002,1.4242018168,1.42072037,8.007260599999999,-1.82903107,,,
imu,49.014276,-0.1238176296,-9.709216249600003,1.4313796504,1.65998149,7.28947724,-1.81407725,,,
imu,49.022742,-0.146547436,-9.7008421104,1.4194165944,2.08616536,6.579170789999999,-1.98604618,,,
imu,49.031213,-0.17944584,-9.699645804800001,1.3978830936,2.20579592,5.78661833,-2.1505382,,,
imu,49.039684,-0.2171294664,-9.682897526400001,1.3763495928,2.4151494,5.38286519,-2.10567674,,,
imu,49.048155,-0.2404574256,-9.6709344704,1.3542179392,2.84881018,5.19594244,-2.09819983,,,
imu,49.056626,-0.2637853848,-9.668541859200001,1.3500308696,3.282470959999999,4.9417275,-2.01595382,,,
imu,49.065097,-0.275150288,-9.666149248000002,1.3374696608,3.63388573,4.70246638,-2.17296893,,,
imu,49.073569,-0.2930948720000001,-9.683495679200002,1.3320862856,4.01520814,4.68751256,-2.33746095,,,
imu,49.08204,-0.2865151912,-9.7325442088,1.3422548832,4.17222325,4.77723548,-2.42718387,,,
imu,49.090511,-0.2889078024000001,-9.7995373224,1.3440493416,4.232038530000001,4.79966621,-2.66644499,,,
imu,48.202091,,,,,,,266.1169492,-184.9085924,-338.3164296
imu,48.303684,,,,,,,269.64483,-185.0917004,-338.3164296
imu,48.405247,,,,,,,267.4353268,-183.7000796,-338.3164296
imu,48.506809,,,,,,,267.8992004,-183.4437284,-338.3164296
imu,49.098982,-0.2859170384,-9.831239420800001,1.3261047576,4.27689999,4.87443531,-2.77112173,,,
imu,49.107453,-0.2781410520000001,-9.863539672000002,1.324908452,3.95539286,4.8669584,-3.18235178,,,
imu,49.115924,-0.2757484408,-9.896438076,1.3267029104,3.72360865,4.8669584,-3.57862801,,,
imu,49.124396,-0.2775428992,-9.929336480000002,1.3261047576,3.44696298,4.70994329,-3.90013514,,,
imu,49.132867,-0.2727576768,-9.934121702400002,1.3093564792,2.85628709,4.73237402,-4.18425772,,,
imu,49.141338,-0.2936930248,-9.942495841600001,1.3231139936,2.37776485,4.6426511,-4.386134289999999,,,
imu,49.149809,-0.3194135952000001,-9.937710619200002,1.3332825912,1.93662716,4.54545127,-4.4683803,,,
imu,49.15828,-0.3283858872000001,-9.903615909600001,1.339862272,1.42072037,4.33609779,-4.56558013,,,
imu,49.166752,-0.3600879856,-9.8982325344,1.3482364112,0.80761375,4.17908268,-4.52819558,,,
imu,49.175223,-0.3744436528,-9.867726741600002,1.3476382584,0.51601426,4.29871324,-4.42351884,,,
imu,49.183694,-0.3798270280000001,-9.828846809600002,1.3542179392,0.29170696,4.46320526,-4.41604193,,,
imu,49.192165,-0.3887993200000001,-9.803724392000001,1.3530216336,0.17955331,4.68003565,-4.40108811,,,
imu,49.200636,-0.3798270280000001,-9.769629682400002,1.366779148,0.06739966,4.82957385,-4.50576485,,,
imu,49.209107,-0.3570972216000001,-9.767237071200002,1.3715643704,0.2468455,4.90434295,-4.57305704,,,
imu,49.217579,-0.3582935272000001,-9.749890640000002,1.3691717592,0.3963837,5.12865025,-4.453426479999999,,,
imu,49.22605,-0.3403489432000001,-9.7265626808,1.3619939256,0.45619898,5.068834969999999,-4.44594957,,,
imu,49.234906,-0.3188154424,-9.714001472000001,1.3619939256,0.58330645,4.93425059,-4.40108811,,,
imu,49.243763,-0.3068523864000001,-9.7217774584,1.3596013144,0.80013684,4.85948149,-4.44594957,,,
imu,49.25262,-0.2859170384,-9.722375611200002,1.3703680648,1.12164397,4.694989469999999,-4.37118047,,,
imu,49.261477,-0.2709632184,-9.7576666264,1.3775458984,1.40576655,4.58283582,-4.124442439999999,,,
imu,49.270333,-0.2775428992,-9.800135475200001,1.3984812464,1.48801256,4.22394414,-4.10948862,,,
imu,49.27919,-0.263187232,-9.8264541984,1.393696024,1.56278166,3.93234465,-3.98985806,,,
imu,49.288047,-0.2560093984,-9.8497821576,1.3781440512,1.43567419,3.63326825,-3.81041222,,,
imu,49.296904,-0.2637853848,-9.862343366400001,1.384723732,1.1440747,3.25942275,-3.93751969,,,
imu,49.30576,-0.272159524,-9.8617452136,1.3865181904,0.7403215599999999,2.91548489,-4.13191935,,,
imu,49.314617,-0.3152265256,-9.860548908000002,1.3793403568,0.56087572,2.60893158,-4.15435008,,,
imu,49.323474,-0.3313766512,-9.855763685600001,1.3895089544,0.31413769,2.44443956,-4.034719519999999,,,
imu,49.33233,-0.3391526376000001,-9.850380310400002,1.3865181904,0.06739966,2.45191647,-3.90761205,,,
imu,49.341187,-0.3445360128,-9.830641268,1.3829292736,-0.11204618,2.49677793,-3.97490424,,,
imu,49.350044,-0.3433397072,-9.839015407200002,1.3823311208,-0.44103022,2.37714737,-4.146873169999999,,,
imu,49.358901,-0.3457323184,-9.8228652816,1.3960886352,-0.71019898,2.5491163,-4.27398064,,,
imu,49.367757,-0.3307784984000001,-9.821668976000002,1.4050609272,-0.68776825,2.49677793,-4.19173463,,,
imu,49.376614,-0.311039456,-9.828846809600002,1.3930978712,-0.98684465,2.48182411,-4.25154991,,,
imu,49.385471,-0.2829262744000001,-9.8198745176,1.3972849408,-1.35321324,2.3995781,-4.47585721,,,
imu,49.394328,-0.2590001624000001,-9.803126239200001,1.393696024,-1.49527453,2.23508608,-4.65530305,,,
imu,49.403184,-0.257205704,-9.783985349600002,1.4092479968,-1.56256672,1.97339423,-4.74502597,,,
imu,49.412041,-0.275150288,-9.7534795568,1.4050609272,-1.39059779,1.78647148,-4.625395409999999,,,
imu,49.420898,-0.2865151912,-9.714599624800002,1.4128369136,-1.57752054,1.5023489,-4.8422258,,,
imu,49.429755,-0.2865151912,-9.706225485600001,1.4319778032,-1.52518217,1.26308778,-4.991764,,,
imu,49.43819,-0.3080486920000001,-9.725366375200002,1.4283888864,-1.45041307,1.12102649,-5.23102512,,,
imu,49.446626,-0.3218062064,-9.745105417600001,1.4559039152,-1.18124431,0.9640113799999996,-5.2908404,,,
imu,49.455061,-0.3301803456000001,-9.7911631832,1.483418944,-1.06161375,0.6574580699999997,-5.57496298,,,
imu,49.463497,-0.3570972216000001,-9.8043225448,1.4732503464,-0.7999219,0.3434278499999999,-6.01610067,,,
imu,49.471932,-0.3911919312,-9.772620446400001,1.4642780544,-0.5307531400000001,0.4331507699999997,-5.76936264,,,
imu,49.480368,-0.3929863896,-9.7008421104,1.4547076096,-0.45598404,0.2537049300000001,-5.283363489999999,,,
imu,49.488804,-0.4079402096,-9.694860582400002,1.459492832,-0.29149202,0.19388965,-4.7674567,,,
imu,49.497239,-0.4318663216,-9.742114653600002,1.4666706656,-0.04475399000000001,0.3284740299999998,-4.33379592,,,
imu,49.505675,-0.4408386136,-9.767835224,1.4666706656,0.29170696,0.2910894799999997,-4.034719519999999,,,
imu,49.51411,-0.439642308,-9.7786019744,1.4612872904,0.3216146,0.3135202100000001,-3.70573548,,,
imu,49.522546,-0.4420349192,-9.758862932000001,1.4541094568,0.25432241,0.5527813299999997,-3.57862801,,,
imu,49.530981,-0.4342589328000001,-9.723571916800001,1.4553057624,0.3216146,0.6873657099999999,-3.48890509,,,
imu,49.539417,-0.4348570856000001,-9.6918698184,1.4642780544,0.51601426,1.01634975,-3.4216129,,,
imu,49.547852,-0.4318663216,-9.690673512800002,1.468465124,0.53844499,1.07616503,-3.51133582,,,
imu,49.556288,-0.4348570856000001,-9.70502918,1.471455888,0.65059864,1.5023489,-3.54124346,,,
imu,49.564724,-0.4264829464000001,-9.703832874400002,1.4965783056,0.76275229,1.91357895,-3.85527368,,,
imu,49.573159,-0.4163143488000001,-9.6918698184,1.5079432088,0.8524752099999999,2.20517844,-4.29641137,,,
imu,49.581595,-0.406743904,-9.709814402400001,1.5115321256,0.9272443100000001,2.37714737,-4.61044159,,,
imu,49.59003,-0.3792288752000001,-9.730749750400001,1.5199062648,1.05435178,2.57902394,-4.887087259999999,,,
imu,49.598466,-0.3385544848000001,-9.755872168000002,1.5270840984,1.11416706,2.81080815,-5.11887147,,,
imu,49.606901,-0.3206099008000001,-9.766638918400002,1.5294767096,1.0693056,2.57902394,-5.47028624,,,
imu,49.615337,-0.3056560808,-9.777405668800002,1.5324674736,0.9945364999999999,2.38462428,-5.57496298,,,
imu,49.623773,-0.272159524,-9.7815927384,1.5336637792,1.09921324,1.91357895,-5.42542478,,,
imu,49.632208,-0.2398592728,-9.800733628000001,1.55519728,1.13659779,1.38271834,-5.26840967,,,
imu,49.640664,-0.2278962168,-9.810902225600001,1.5557954328,1.1440747,0.7322271699999998,-5.22354821,,,
imu,49.64912,-0.2338777448,-9.8043225448,1.5575898912,0.9571519499999999,-0.2023865800000002,-5.12634838,,,
imu,49.657576,-0.2548130928,-9.797742864000002,1.5557954328,0.7552753799999999,-1.06970814,-4.80484125,,,
imu,49.666032,-0.2948893304,-9.768433376800001,1.5534028216,0.8749059399999999,-1.74263004,-4.34874974,,,
imu,49.674488,-0.3367600264,-9.746899876,1.5510102104,0.8449983,-2.26601374,-4.0945348,,,
imu,49.682944,-0.3798270280000001,-9.7151977776,1.5635714192,0.76275229,-2.71462834,-4.0945348,,,
imu,49.6914,-0.406743904,-9.708019944000002,1.546224988,0.78518302,-2.91650491,-4.318842099999999,,,
imu,49.699855,-0.4390441552000001,-9.6984494992,1.5366545432,1.10669015,-2.92398182,-4.63287232,,,
imu,49.708311,-0.4671573368000001,-9.667345553600002,1.531271168,1.47305874,-2.89407418,-4.931948719999999,,,
imu,49.716767,-0.4629702672000001,-9.632054538400002,1.5330656264,1.67493531,-2.78192053,-5.18616366,,,
imu,49.725223,-0.4551942808000001,-9.633250844,1.5288785568,2.01139626,-2.6099516,-5.22354821,,,
imu,49.733679,-0.4432312248,-9.6703363176,1.5199062648,2.3403803,-2.52022868,-5.24597894,,,
imu,49.742135,-0.4282774048000001,-9.702038416,1.5151210424,2.83385636,-2.42302885,-5.12634838,,,
imu,49.750591,-0.415716196,-9.718188541600002,1.5097376672,3.0880713,-2.52770559,-4.9169949,,,
imu,49.759047,-0.3750418056000001,-9.7361331256,1.504354292,2.90114855,-2.78192053,-4.90204108,,,
imu,49.767503,-0.3570972216000001,-9.755872168000002,1.4989709168,3.11797894,-2.90155109,-4.79736434,,,
imu,49.775959,-0.3475267768,-9.769031529600001,1.471455888,3.17779422,-3.34268878,-4.74502597,,,
imu,49.784331,-0.3469286240000001,-9.76484446,1.46547436,3.12545585,-3.76139574,-4.66277996,,,
imu,49.792787,-0.3505175408000001,-9.759461084800002,1.46547436,3.14788658,-3.94084158,-4.37865738,,,
imu,49.801243,-0.3451341656,-9.770825988000002,1.4666706656,3.25256332,-4.21748725,-4.34874974,,,
imu,49.809699,-0.3325729568,-9.794153947200002,1.4529131512,3.08059439,-4.59133275,-4.43847266,,,
imu,49.818155,-0.3295821928000001,-9.797742864000002,1.4571002208,3.00582529,-4.942747519999999,-4.42351884,,,
imu,49.826611,-0.3152265256,-9.789966877600001,1.4487260816,2.93105619,-5.32406993,-4.56558013,,,
imu,49.835067,-0.340947096,-9.802528086400002,1.4451371648,2.88619473,-5.839976719999999,-4.737549059999999,,,
imu,49.8436,-0.3570972216000001,-9.8043225448,1.4439408592,2.65441052,-6.35588351,-4.78241052,,,
imu,49.852134,-0.3893974728000001,-9.815089295200002,1.4409500952,2.44505704,-6.692344459999999,-4.70764142,,,
imu,49.860667,-0.430670016,-9.810902225600001,1.432575956,2.32542648,-6.90169794,-4.70764142,,,
imu,49.869201,-0.4318663216,-9.813892989600001,1.4194165944,2.20579592,-7.00637468,-4.670256869999999,,,
imu,49.877734,-0.4133235848,-9.807313308800001,1.402668316,2.07868845,-7.111051420000001,-4.692687599999999,,,
imu,49.886268,-0.3840140976,-9.8049206976,1.3954904824,1.86933497,-7.395174000000001,-4.70016451,,,
imu,49.894801,-0.3475267768,-9.810304072800001,1.4050609272,1.65250458,-7.95594225,-4.78241052,,,
imu,49.903335,-0.3343674152,-9.8043225448,1.3913034128,1.68241222,-8.42698758,-4.77493361,,,
imu,49.911868,-0.3098431504,-9.803126239200001,1.3829292736,1.54035093,-9.15972476,-4.49081103,,,
imu,48.608555,,,,,,,268.5095604,-182.8821972,-338.3164296
imu,48.709904,,,,,,,268.5705964,-183.0164764,-338.3164296
imu,48.811497,,,,,,,269.3274428,-183.419314,-338.3164296
imu,48.913029,,,,,,,269.6570372,-185.1161148,-338.3164296
imu,49.014683,,,,,,,268.1067228000001,-185.9462044,-338.3164296
imu,49.116123,,,,,,,267.9602364,-186.410078,-338.3164296
imu,49.218021,,,,,,,268.2532092,-186.5199428,-338.3164296
imu,49.319279,,,,,,,270.2918116,-187.3500324,-338.3164296
imu,49.920402,-0.3038616224,-9.783387196800001,1.3799385096,1.50296638,-9.82516975,-4.21416536,,,
imu,49.928935,-0.3911919312,-9.7815927384,1.393696024,1.54782784,-10.67006058,-4.21416536,,,
imu,49.937468,-0.4851019208000001,-9.7786019744,1.3948923296,1.5926893,-11.25325956,-4.08705789,,,
imu,49.946002,-0.5622636320000001,-9.743310959200002,1.396686788,1.8169966,-11.24578265,-3.8702275,,,
imu,49.954535,-0.6154992312,-9.721179305600002,1.4104443024,1.98148862,-10.78969114,-3.88518132,,,
imu,49.963069,-0.6334438152,-9.7337405144,1.4206129,2.03382699,-10.35603036,-4.41604193,,,
imu,49.971602,-0.6747163584000001,-9.749890640000002,1.4242018168,2.12354991,-9.9373234,-4.931948719999999,,,
imu,49.980136,-0.7010350816000002,-9.786377960800001,1.4068553856,2.03382699,-9.36907824,-5.48524006,,,
imu,49.988669,-0.7189796656000002,-9.805518850400002,1.3913034128,2.1908421,-8.68867943,-5.76936264,,,
imu,49.997203,-0.7255593464000001,-9.824659740000001,1.3739569816,2.02635008,-7.791450230000001,-5.851608649999999,,,
imu,50.005736,-0.726755652,-9.825257892800002,1.3566105504,2.03382699,-7.00637468,-5.806747189999999,,,
imu,50.01427,-0.7147925960000001,-9.8198745176,1.3560123976,1.80951969,-6.348406600000001,-5.74693191,,,
imu,50.022803,-0.7357279440000001,-9.8049206976,1.3512271752,1.7422275,-5.750253799999999,-5.82170101,,,
imu,50.031337,-0.7674300424000001,-9.803126239200001,1.3416567304,1.55530475,-5.11471645,-5.6646859,,,
imu,50.03987,-0.7662337368000001,-9.802528086400002,1.3566105504,1.69736604,-4.29225635,-5.25345585,,,
imu,50.048265,-0.7734115704000001,-9.809107767200002,1.3494327168,1.54035093,-3.5071808,-5.05157928,,,
imu,50.05666,-0.7698226536000001,-9.824659740000001,1.3458438,1.41324346,-2.63985924,-5.03662546,,,
imu,50.065055,-0.7542706808000001,-9.837220948800002,1.3434511888,1.30108981,-1.83235296,-5.03662546,,,
imu,50.07345,-0.7435039304000001,-9.819276364800002,1.3380678136,1.18145925,-1.00241595,-5.17120984,,,
imu,50.081845,-0.7399150136000001,-9.800733628000001,1.3446474944,0.9646288599999999,-0.4640784300000003,-5.2908404,,,
imu,50.090239,-0.7357279440000001,-9.7845835024,1.3500308696,0.79265993,0.1191205499999999,-5.2908404,,,
imu,50.098634,-0.7464946944,-9.764246307200002,1.3524234808,0.6132140899999999,0.70231953,-5.20111748,,,
imu,50.107029,-0.7297464160000001,-9.768433376800001,1.363788384,0.3963837,1.39767216,-5.03662546,,,
imu,50.115424,-0.726755652,-9.801929933600002,1.354816092,0.32909151,1.92853277,-5.11139456,,,
imu,50.123819,-0.7058203040000001,-9.8228652816,1.3721625232,0.23189168,2.27994754,-5.4403786,,,
imu,50.132214,-0.6920627896000001,-9.841408018400001,1.3793403568,0.20198404,2.56407012,-5.79179337,,,
imu,50.140609,-0.6705292888000001,-9.892251006400002,1.351825328,0.05992275,2.76594669,-6.24040797,,,
imu,50.149004,-0.6531828576,-9.8749045752,1.3290955216,0.18703022,2.96782326,-6.24040797,,,
imu,50.157399,-0.6382290376000002,-9.8079114616,1.3380678136,-0.10456927,3.0725,-6.15068505,,,
imu,50.165793,-0.6089195504,-9.7786019744,1.348834564,-0.2765382,3.20708438,-5.67963972,,,
imu,50.174188,-0.6035361752000001,-9.7923594888,1.336871508,-0.28401511,3.25194584,-5.29831731,,,
imu,50.182583,-0.58319898,-9.800135475200001,1.3177306184,-0.30644584,3.16969983,-4.954379449999999,,,
imu,50.190978,-0.5891805080000001,-9.800135475200001,1.3105527848,-0.39616876,2.97530017,-4.75250288,,,
imu,50.199373,-0.5891805080000001,-9.779200127200001,1.3255066048,-0.45598404,2.8481927,-4.4683803,,,
imu,50.207768,-0.5951620360000001,-9.749890640000002,1.3225158408,-0.47841477,2.72108523,-4.35622665,,,
imu,50.216163,-0.5837971328000001,-9.724170069600001,1.3201232296,-0.26906129,2.69117759,-4.13939626,,,
imu,50.224558,-0.5820026744000001,-9.715795930400002,1.324908452,-0.20924601,2.63136231,-4.07210407,,,
imu,50.232952,-0.5808063688,-9.721179305600002,1.3362733552,-0.007369440000000005,2.57154703,-4.04967334,,,
imu,50.241347,-0.56824516,-9.7331423616,1.3584050088,0.20946095,2.48930102,-4.102011709999999,,,
imu,50.250164,-0.5646562432000001,-9.752283251200002,1.369769912,0.35152224,2.48930102,-4.341272829999999,,,
imu,50.258981,-0.565254396,-9.768433376800001,1.3895089544,0.35899915,2.28742445,-4.56558013,,,
imu,50.267798,-0.5700396184000001,-9.788172419200002,1.4008738576,0.10478421,2.16779389,-4.63287232,,,
imu,50.276615,-0.5730303824,-9.803724392000001,1.4098461496,-0.06718472,1.86871749,-4.77493361,,,
imu,50.285432,-0.5945638832000001,-9.825257892800002,1.4319778032,-0.16438455,1.89862513,-4.67773378,,,
imu,50.294249,-0.6137047728000001,-9.8294449624,1.447529776,-0.58309151,1.74161002,-4.6179185,,,
imu,50.303066,-0.6424161072,-9.818678212000002,1.4439408592,-0.874691,1.71917929,-4.67773378,,,
imu,50.311883,-0.6567717744000001,-9.8013317808,1.447529776,-1.06161375,1.65936401,-4.77493361,,,
imu,50.3207,-0.6693329832000001,-9.782789044000001,1.453511304,-0.9943215599999999,1.8761944,-4.70764142,,,
imu,50.329517,-0.6621551496,-9.767835224,1.4541094568,-0.8821679099999999,2.12293243,-4.70016451,,,
imu,50.338333,-0.6477994824000001,-9.741516500800001,1.4517168456,-0.84478336,2.19770153,-4.70764142,,,
imu,50.34715,-0.631051204,-9.725366375200002,1.4600909848,-0.78496808,2.37714737,-4.602964679999999,,,
imu,50.355967,-0.6160973840000001,-9.7265626808,1.4612872904,-0.53823005,2.40705501,-4.72259524,,,
imu,50.364784,-0.5814045216000001,-9.715795930400002,1.477437416,-0.48589168,2.36219355,-4.6179185,,,
imu,50.373601,-0.571235924,-9.719983000000001,1.4870078608,-0.28401511,2.14536316,-4.692687599999999,,,
imu,50.382418,-0.5520950344000001,-9.719983000000001,1.5031579864,-0.05970781,1.90610204,-4.737549059999999,,,
imu,50.391235,-0.5389356728,-9.6942624296,1.4882041664,0.03749201999999999,1.59954873,-4.7674567,,,
imu,50.400052,-0.5275707696,-9.673925234400002,1.4965783056,0.25432241,1.18084177,-4.63287232,,,
imu,50.408869,-0.5586747152,-9.6709344704,1.5007653752,0.58330645,0.8817653699999997,-4.52819558,,,
imu,50.417686,-0.580208216,-9.6912716656,1.5031579864,0.7702292,0.5901658799999998,-4.363703559999999,,,
imu,50.426503,-0.5957601888000001,-9.7086180968,1.5157191952,1.27865908,0.47801223,-4.079580979999999,,,
imu,50.43532,-0.6113121616,-9.722973764,1.516317348,1.65250458,0.2387511099999999,-3.81788913,,,
imu,50.444137,-0.6160973840000001,-9.727160833600001,1.519308112,1.7422275,-0.0603252900000002,-3.81041222,,,
imu,50.452684,-0.6268641344,-9.745105417600001,1.5085413616,1.89924261,-0.05284837999999992,-3.7954584,,,
imu,50.461232,-0.6477994824000001,-9.76484446,1.513326584,2.01887317,-0.07527911000000032,-3.77302767,,,
imu,50.469779,-0.6298548984000001,-9.785779808000001,1.5001672224,2.0413039,-0.3294940500000001,-3.81788913,,,
imu,50.478326,-0.6196863008000001,-9.770825988000002,1.4828207912,1.89924261,-0.2846325900000002,-3.7954584,,,
imu,50.486874,-0.6101158560000001,-9.779798280000001,1.4780355688,1.83195042,-0.39678624,-3.66087402,,,
imu,50.495421,-0.6017417168000001,-9.790565030400002,1.4666706656,1.77961205,-0.5538013500000001,-3.66835093,,,
imu,50.503969,-0.6166955368000001,-9.782789044000001,1.4463334704,1.83195042,-0.7332471900000002,-3.66087402,,,
imu,50.512516,-0.62806044,-9.788172419200002,1.4451371648,1.72727368,-0.8528777500000002,-3.50385891,,,
imu,50.521064,-0.6334438152,-9.7780038216,1.4343704144,1.57773548,-0.9650314,-3.51133582,,,
imu,50.529611,-0.6376308848000001,-9.7786019744,1.4517168456,1.46558183,-1.15195415,-3.53376655,,,
imu,50.538159,-0.6627533024,-9.7815927384,1.444539012,1.53287402,-1.30149235,-3.60853565,,,
imu,50.546706,-0.6699311360000001,-9.7540777096,1.4439408592,1.5179202,-1.38373836,-3.61601256,,,
imu,50.555254,-0.6507902464,-9.748096181600001,1.447529776,1.55530475,-1.20429252,-3.56367419,,,
imu,50.563801,-0.6328456624000001,-9.745703570400002,1.4337722616,1.45062801,-1.09961578,-3.67582784,,,
imu,50.572349,-0.6352382736000001,-9.756470320800002,1.444539012,1.45810492,-1.22672325,-3.71321239,,,
imu,50.580896,-0.6579680800000002,-9.767835224,1.438557484,1.54035093,-1.15195415,-3.7206893,,,
imu,50.589443,-0.6579680800000002,-9.775611210400001,1.4433427064,1.51044329,-1.21176943,-3.58610492,,,
imu,50.597991,-0.6657440664000001,-9.7636481544,1.4277907336,1.49548947,-1.15943106,-3.59358183,,,
imu,50.606538,-0.6603606912000002,-9.7534795568,1.417622136,1.45062801,-1.08466196,-3.54872037,,,
imu,50.615086,-0.6705292888000001,-9.7301515976,1.4110424552,1.5179202,-1.06970814,-3.56367419,,,
imu,50.623633,-0.6501920936000001,-9.724768222400002,1.402668316,1.57773548,-0.8902623000000003,-3.55619728,,,
imu,50.632181,-0.6424161072,-9.7427128064,1.4218092056,1.64502767,-0.80053938,-3.53376655,,,
imu,50.640728,-0.6495939408000001,-9.770825988000002,1.4247999696,1.65998149,-0.7407241,-3.7206893,,,
imu,50.649276,-0.6298548984000001,-9.7815927384,1.4271925808,1.8917657,-0.80053938,-3.78050458,,,
imu,50.657668,-0.62806044,-9.789966877600001,1.4218092056,1.8917657,-0.9126930300000002,-3.84779677,,,
imu,50.66606,-0.6442105656,-9.791761336000002,1.4218092056,1.98148862,-0.9949390400000002,-3.93751969,,,
imu,50.674453,-0.6579680800000002,-9.776209363200001,1.4140332192,1.89924261,-1.06223123,-3.92256587,,,
imu,50.682845,-0.6196863008000001,-9.7576666264,1.402668316,1.76465823,-1.09961578,-3.91508896,,,
imu,50.691237,-0.6268641344,-9.7474980288,1.3901071072,1.48053565,-1.27906162,-3.90013514,,,
imu,50.69963,-0.6388271904000001,-9.746301723200002,1.381732968,1.50296638,-1.35383072,-3.75807385,,,
imu,50.708022,-0.6555754688000001,-9.748096181600001,1.387714496,1.42072037,-1.47346128,-3.74312003,,,
imu,50.716414,-0.6573699272000001,-9.737329431200001,1.378742204,1.45810492,-1.46598437,-3.42908981,,,
imu,50.724807,-0.6914646368,-9.737927584000001,1.3853218848,1.5926893,-1.31644617,-3.16739796,,,
imu,50.733199,-0.7034276928000001,-9.746301723200002,1.3984812464,1.68241222,-1.15943106,-3.1225365,,,
imu,49.421137,,,,,,,267.6672636,-186.3856636,-338.3164296
imu,49.522517,,,,,,,270.1575324,-186.898366,-338.3164296
imu,49.62411,,,,,,,267.9480292000001,-186.0804836,-338.3164296
imu,49.725764,,,,,,,268.3752812,-185.1649436,-338.3164296
imu,49.827204,,,,,,,268.42411,-185.7264748,-338.3164296
imu,49.928797,,,,,,,268.9490196,-186.1903484,-338.3164296
imu,50.030329,,,,,,,269.6692444,-186.5809788000001,-338.3164296
imu,50.131892,,,,,,,269.7546948,-187.1791316,-338.3164296
imu,50.741591,-0.7082129152000001,-9.744507264800001,1.39070526,1.85438115,-0.8977392100000001,-3.09262886,,,
imu,50.749984,-0.6753145112000001,-9.775611210400001,1.4020701632,1.83942733,-0.7556779200000001,-3.11505959,,,
imu,50.758376,-0.6549773160000001,-9.785181655200002,1.3913034128,1.71979677,-0.6360473600000001,-3.30945925,,,
imu,50.766768,-0.6585662328000002,-9.7809945856,1.3960886352,1.70484295,-0.4715553400000001,-3.45152054,,,
imu,50.775161,-0.62806044,-9.76484446,1.384723732,1.52539711,-0.31454023,-3.57862801,,,
imu,50.783553,-0.6125084672000001,-9.746899876,1.3691717592,1.54782784,-0.25472495,-3.44404363,,,
imu,50.791945,-0.5808063688,-9.7504887928,1.3775458984,1.62259694,-0.1799558500000003,-3.50385891,,,
imu,50.800338,-0.5670488544000001,-9.792957641600001,1.3853218848,1.50296638,-0.4042631500000002,-3.84031986,,,
imu,50.80873,-0.5748248408000001,-9.802528086400002,1.3895089544,1.37585891,-0.7257702800000003,-4.13939626,,,
imu,50.817122,-0.5562821040000001,-9.8132948368,1.4020701632,1.33847436,-0.8977392100000001,-4.30388828,,,
imu,50.825515,-0.5736285352000001,-9.842604324000002,1.411640608,1.33847436,-1.1893387,-4.49828794,,,
imu,50.833907,-0.6017417168000001,-9.824061587200001,1.40565908,1.24875144,-1.50336892,-4.82727198,,,
imu,50.842299,-0.6232752176,-9.769629682400002,1.3913034128,0.9646288599999999,-1.78001459,-4.78241052,,,
imu,50.850692,-0.6286585928,-9.700243957600001,1.378742204,1.04687487,-1.70524549,-4.079580979999999,,,
imu,50.859177,-0.6178918424000002,-9.696056888000001,1.3919015656,1.00201341,-1.95198352,-3.74312003,,,
imu,50.867662,-0.6400234960000001,-9.752283251200002,1.3984812464,1.04687487,-1.96693734,-3.62348947,,,
imu,50.876269,-0.6573699272000001,-9.794752100000002,1.3954904824,1.24875144,-2.0117988,-3.46647436,,,
imu,50.884754,-0.6537810104000001,-9.8061170032,1.3990793992,1.23379762,-1.99684498,-3.39170526,,,
imu,50.89324,-0.6472013296000001,-9.809107767200002,1.3960886352,1.30856672,-1.81739914,-3.18982869,,,
imu,50.901725,-0.6424161072,-9.803724392000001,1.3751532872,1.24127453,-1.62299948,-3.26459779,,,
imu,50.91021,-0.6537810104000001,-9.800733628000001,1.3721625232,1.33099745,-1.65290712,-3.33188998,,,
imu,50.918695,-0.6771089696000001,-9.762451848800001,1.3536197864,1.42819728,-1.66038403,-3.60105874,,,
imu,50.92718,-0.7016332344,-9.736731278400002,1.354816092,1.65250458,-1.570661110000001,-3.72816621,,,
imu,50.935665,-0.7249611936,-9.7265626808,1.3685736064,1.97401171,-1.34635381,-3.74312003,,,
imu,50.944151,-0.7560651392000002,-9.714599624800002,1.3811348152,2.28804193,-1.07718505,-3.8702275,,,
imu,50.952636,-0.7799912512000001,-9.7193848472,1.3751532872,2.44505704,-0.68090882,-3.85527368,,,
imu,50.961121,-0.7949450712000001,-9.7122070136,1.3811348152,2.57216451,-0.1949096699999999,-3.88518132,,,
imu,50.969606,-0.8093007384,-9.7331423616,1.402668316,2.66936434,0.33595094,-3.9449966,,,
imu,50.978091,-0.8063099744000001,-9.767237071200002,1.396686788,2.67684125,0.9341037399999998,-3.97490424,,,
imu,50.986576,-0.8122915024000001,-9.8013317808,1.3871163432,2.51982614,1.5023489,-4.02724261,,,
imu,50.995061,-0.7943469184000002,-9.80970592,1.3721625232,2.22074974,2.00330187,-4.102011709999999,,,
imu,51.003547,-0.7775986400000001,-9.822267128800002,1.3685736064,1.88428879,2.16779389,-4.19921154,,,
imu,51.012032,-0.7799912512000001,-9.821668976000002,1.3751532872,1.65250458,2.4743472,-4.04967334,,,
imu,51.020517,-0.7722152648000001,-9.8264541984,1.3769477456,1.39081273,2.80333124,-3.67582784,,,
imu,51.029002,-0.7662337368000001,-9.8198745176,1.363788384,1.15902852,2.91548489,-3.33936689,,,
imu,51.037487,-0.7704208064000001,-9.801929933600002,1.3649846896,0.9571519499999999,3.07997691,-3.09262886,,,
imu,51.045972,-0.7662337368000001,-9.772620446400001,1.3793403568,0.78518302,3.33419185,-2.80850628,,,
imu,51.054458,-0.7752060288000001,-9.775611210400001,1.4002757048,0.77770611,3.53606842,-2.61410662,,,
imu,51.062903,-0.7829820152,-9.788172419200002,1.4038646216,0.8524752099999999,3.73794499,-2.78607555,,,
imu,51.071349,-0.7889635432000001,-9.787574266400002,1.4218092056,0.97958268,4.06692903,-2.8234601,,,
imu,51.079795,-0.7764023344000002,-9.770825988000002,1.4427445536,1.06182869,4.410866889999999,-2.99542903,,,
imu,51.088241,-0.7787949456000002,-9.7780038216,1.4517168456,0.94967504,4.694989469999999,-3.15992105,,,
imu,51.096686,-0.7770004872000001,-9.786976113600002,1.4200147472,0.8524752099999999,4.98658896,-3.13001341,,,
imu,51.105132,-0.7698226536000001,-9.783387196800001,1.3924997184,0.80013684,5.53240339,-2.90570611,,,
imu,51.113578,-0.7578595976000001,-9.7714241408,1.366779148,0.7702292,5.77166451,-2.65896808,,,
imu,51.122023,-0.7183815128000002,-9.775611210400001,1.3512271752,0.7253677399999999,6.04083327,-2.38979932,,,
imu,51.130469,-0.6902683312000001,-9.769031529600001,1.3290955216,0.8449983,6.38477113,-2.04586146,,,
imu,51.138915,-0.6603606912000002,-9.770825988000002,1.3171324656,0.74779847,6.556740059999999,-2.02343073,,,
imu,51.147361,-0.646005024,-9.786976113600002,1.309954632,0.81509066,6.71375517,-2.03838455,,,
imu,51.155806,-0.6125084672000001,-9.7923594888,1.2973934232,0.9571519499999999,6.908154829999999,-1.85893871,,,
imu,51.164252,-0.5742266880000001,-9.8168837536,1.283037756,0.91229049,7.02030848,-2.001,,,
imu,51.172698,-0.5604691736,-9.831837573600001,1.2782525336,0.74779847,7.08760067,-2.3000764,,,
imu,51.181144,-0.5323559920000001,-9.827650504000003,1.2686820888,0.49358353,6.885724099999999,-2.77112173,,,
imu,51.189589,-0.5108224912,-9.825856045600002,1.2615042552,0.40386061,6.91563174,-3.07019813,,,
imu,51.198035,-0.5012520464000001,-9.824659740000001,1.2537282688,0.29918387,6.76609354,-3.29450543,,,
imu,51.206481,-0.4839056152000001,-9.8168837536,1.2513356576,0.12721494,6.39972495,-3.48142818,,,
imu,51.214927,-0.4689517952000001,-9.821668976000002,1.2656913248,0.09730729999999999,6.16794074,-3.48142818,,,
imu,51.223372,-0.451605364,-9.8234634344,1.274065464,-0.30644584,5.71184923,-3.69078166,,,
imu,51.231818,-0.4133235848,-9.8294449624,1.3003841872,-0.46346095,5.2408039,-3.75059694,,,
imu,51.240264,-0.4264829464000001,-9.841408018400001,1.324908452,-0.74758353,4.62022037,-3.63844329,,,
imu,51.24871,-0.4587831976000001,-9.844996935200001,1.3464419528,-1.14385976,4.02954448,-3.58610492,,,
imu,51.257155,-0.5006538936,-9.847389546400002,1.354816092,-1.24105959,3.73046808,-3.24216706,,,
imu,51.265974,-0.5185984776000001,-9.828248656800001,1.3584050088,-1.46536689,3.50616078,-3.13749032,,,
imu,51.274792,-0.5443190480000001,-9.812696684000002,1.3865181904,-1.52518217,3.31176112,-3.26459779,,,
imu,51.28361,-0.5568802568000001,-9.796546558400001,1.384723732,-1.6971511,3.17717674,-3.46647436,,,
imu,51.292428,-0.5742266880000001,-9.7570684736,1.3895089544,-1.76444329,3.20708438,-3.66087402,,,
imu,51.301247,-0.5826008272000001,-9.727160833600001,1.4098461496,-1.46536689,3.28933039,-3.80293531,,,
imu,51.310065,-0.58319898,-9.725366375200002,1.4182202888,-1.28592105,3.43886859,-3.91508896,,,
imu,51.318883,-0.5939657304000001,-9.741516500800001,1.4379593312,-0.94198319,3.30428421,-4.146873169999999,,,
imu,51.327701,-0.6101158560000001,-9.755274015200001,1.4732503464,-0.84478336,3.45382241,-4.341272829999999,,,
imu,51.33652,-0.6172936896000001,-9.7815927384,1.501363528,-0.89712173,3.66317589,-4.20668845,,,
imu,51.345338,-0.601143564,-9.802528086400002,1.5085413616,-0.84478336,3.70803735,-4.244073,,,
imu,51.354156,-0.5939657304000001,-9.8013317808,1.4810263328,-0.88964482,3.70056044,-4.37865738,,,
imu,51.362974,-0.5742266880000001,-9.763050001600002,1.4756429576,-0.9494601,3.58840679,-4.4683803,,,
imu,51.371793,-0.5664507016000001,-9.7295534448,1.462483596,-0.82235263,3.61083752,-4.244073,,,
imu,51.380611,-0.5491042704000001,-9.724170069600001,1.4576983736,-0.70272207,3.40148404,-4.22911918,,,
imu,51.389429,-0.5329541448,-9.710412555200001,1.4487260816,-0.55318387,3.10240764,-4.13191935,,,
imu,51.398247,-0.5257763112000001,-9.683495679200002,1.4481279288,-0.23915365,2.80333124,-3.70573548,,,
imu,51.407066,-0.5311596864,-9.675719692800001,1.4636799016,0.13469185,2.45939338,-3.47395127,,,
imu,51.415884,-0.5526931872,-9.690075360000002,1.46547436,0.44124516,2.28742445,-3.31693616,,,
imu,51.424702,-0.580208216,-9.708019944000002,1.4690632768,0.66555246,2.1752708,-3.18982869,,,
imu,51.43352,-0.6005454112,-9.715795930400002,1.4768392632,0.8449983,2.00330187,-3.24964397,,,
imu,51.442339,-0.5909749664,-9.7474980288,1.4905967776,1.16650543,2.06311715,-3.38422835,,,
imu,51.451157,-0.5981528,-9.783387196800001,1.4911949304,1.2188438,2.11545552,-3.6459202,,,
imu,51.459975,-0.5867878968000001,-9.7911631832,1.4798300272,0.91229049,2.1752708,-4.04219643,,,
imu,51.468449,-0.5688433128,-9.756470320800002,1.4481279288,0.7552753799999999,2.15284007,-4.244073,,,
imu,51.476923,-0.5413282840000001,-9.7427128064,1.4499223872,0.59078336,2.04816333,-4.363703559999999,,,
imu,51.485396,-0.5311596864,-9.754675862400001,1.453511304,0.5010604399999999,1.90610204,-4.49828794,,,
imu,51.49387,-0.5580765624000001,-9.775611210400001,1.4451371648,0.5982602699999999,1.59207182,-4.64034923,,,
imu,51.502344,-0.5993491056000001,-9.802528086400002,1.4672688184,0.70293701,1.42010289,-4.67773378,,,
imu,51.510817,-0.6220789120000001,-9.838417254400001,1.4858115552,0.56087572,1.0537343,-4.87213344,,,
imu,51.519291,-0.6501920936000001,-9.839015407200002,1.4571002208,0.5982602699999999,0.76213481,-4.931948719999999,,,
imu,51.527765,-0.6681366776000001,-9.805518850400002,1.4463334704,0.5010604399999999,0.8219500899999996,-4.64034923,,,
imu,51.536239,-0.6866794144,-9.7780038216,1.438557484,0.29918387,0.9415806499999997,-4.08705789,,,
imu,51.544712,-0.6920627896000001,-9.767835224,1.4361648728,0.08235347999999998,1.14345722,-3.50385891,,,
imu,51.553186,-0.6914646368,-9.780396432800002,1.4206129,0.02253820000000001,1.31542615,-3.17487487,,,
imu,50.233454,,,,,,,269.9988388,-187.386654,-338.3164296
imu,50.335047,,,,,,,269.7913164,-186.8129156,-338.3164296
imu,50.436579,,,,,,,272.269378,-188.5097164,-338.3164296
imu,50.538203,,,,,,,270.2796044,-187.2279604,-338.3164296
imu,50.639857,,,,,,,273.0262244,-188.3998516,-338.3164296
imu,50.741297,,,,,,,270.1575324,-187.5941764,-338.3164296
imu,50.842829,,,,,,,270.0598748,-187.935978,-338.3164296
imu,50.944361,,,,,,,269.9378028,-188.1068788,-338.3164296
imu,51.56166,-0.6932590952000001,-9.7911631832,1.4038646216,0.07487657,1.49487199,-3.13001341,,,
imu,51.570133,-0.6759126640000002,-9.782789044000001,1.3948923296,0.20946095,1.6518871,-2.99542903,,,
imu,51.578607,-0.6585662328000002,-9.759461084800002,1.3972849408,0.25432241,2.06311715,-3.04029049,,,
imu,51.587081,-0.6322475096000001,-9.731946056000002,1.3972849408,0.34404533,2.36219355,-3.37675144,,,
imu,51.595555,-0.6172936896000001,-9.7122070136,1.393696024,0.53844499,2.63136231,-3.61601256,,,
imu,51.604028,-0.6226770648,-9.730749750400001,1.417622136,0.9347212199999999,2.93791562,-3.66087402,,,
imu,51.612502,-0.631051204,-9.748694334400001,1.4182202888,0.94967504,3.13231528,-3.90761205,,,
imu,51.620976,-0.6430142600000001,-9.754675862400001,1.4367630256,1.00949032,3.47625314,-4.244073,,,
imu,51.629449,-0.6591643856000001,-9.773816752000002,1.444539012,0.94219813,3.85009864,-4.53567249,,,
imu,51.637923,-0.6513883992,-9.801929933600002,1.4391556368,0.7552753799999999,4.26132869,-4.63287232,,,
imu,51.646397,-0.6436124128,-9.812098531200002,1.4331741088,0.4861066199999999,4.455728349999999,-4.83474889,,,
imu,51.654871,-0.6238733704,-9.8049206976,1.4451371648,0.29918387,4.62022037,-5.0665331,,,
imu,51.663344,-0.6262659816,-9.809107767200002,1.4421464008,0.19450713,4.70246638,-5.1413022,,,
imu,51.671819,-0.6322475096000001,-9.822267128800002,1.438557484,0.007584380000000002,4.73237402,-5.17868675,,,
imu,51.680294,-0.6196863008000001,-9.8228652816,1.43556672,-0.13447691,4.77723548,-5.216071299999999,,,
imu,51.688769,-0.6256678288,-9.8043225448,1.4487260816,-0.33635348,4.77723548,-5.11139456,,,
imu,51.697244,-0.6149010784000001,-9.7989391696,1.46547436,-0.36626112,4.59778964,-4.8422258,,,
imu,51.705719,-0.6561736216000001,-9.785181655200002,1.4642780544,-0.49336859,4.65760492,-4.56558013,,,
imu,51.714194,-0.7219704296,-9.785779808000001,1.4690632768,-0.5681376899999999,4.82957385,-4.244073,,,
imu,51.722669,-0.7482891528000001,-9.752283251200002,1.4720540408,-0.56066078,5.29314227,-4.012288789999999,,,
imu,51.731144,-0.7787949456000002,-9.751685098400001,1.4876060136,-0.58309151,5.831479789999999,-3.93004278,,,
imu,51.739619,-0.7967395296000002,-9.793555794400001,1.495382,-0.67281443,6.38477113,-4.40108811,,,
imu,51.748094,-0.7961413768000002,-9.803126239200001,1.4941856944,-0.74758353,6.930585559999999,-5.00671782,,,
imu,51.756569,-0.7889635432000001,-9.800733628000001,1.5001672224,-0.7999219,7.47639999,-5.44785551,,,
imu,51.765044,-0.7775986400000001,-9.776209363200001,1.4977746112,-0.8672140899999999,8.18670644,-5.522624609999999,,,
imu,51.773519,-0.7686263480000001,-9.7427128064,1.5001672224,-0.9494601,8.74747469,-5.44785551,,,
imu,51.781994,-0.7638411256000001,-9.7325442088,1.5061487504,-0.84478336,9.211043109999999,-5.22354821,,,
imu,51.790469,-0.7829820152,-9.7474980288,1.5181118064,-0.7251528,9.532550239999999,-4.81979507,,,
imu,51.798944,-0.8278434752000001,-9.764246307200002,1.5151210424,-0.44103022,10.00359557,-4.46090339,,,
imu,51.807419,-0.8631344904,-9.759461084800002,1.5246914872,-0.62047606,10.6241791,-4.40108811,,,
imu,51.815894,-0.8762938520000002,-9.738525736800002,1.5270840984,-0.54570696,11.46906993,-4.28893446,,,
imu,51.824369,-0.9079959504000001,-9.7504887928,1.5055505976,-0.33635348,12.46349896,-4.25902682,,,
imu,51.832844,-0.9247442288000001,-9.7714241408,1.48042818,-0.29896893,13.35325125,-4.28893446,,,
imu,51.841319,-0.9199590064000001,-9.752283251200002,1.4750448048,-0.30644584,14.57946449,-4.408565019999999,,,
imu,51.849794,-0.8888550608000001,-9.754675862400001,1.4756429576,-0.37373803,15.52155515,-4.647826139999999,,,
imu,51.858269,-0.8218619472,-9.763050001600002,1.477437416,-0.31392275,16.59075328,-4.79736434,,,
imu,51.866744,-0.8009265992000001,-9.786976113600002,1.4720540408,-0.39616876,17.41321338,-5.02914855,,,
imu,51.875199,-0.7823838624,-9.789368724800001,1.4666706656,-0.60552224,18.01884309,-5.13382529,,,
imu,51.883653,-0.7895616960000001,-9.793555794400001,1.4738484992,-0.64290679,18.52727297,-5.05157928,,,
imu,51.892108,-0.7943469184000002,-9.783985349600002,1.4882041664,-0.78496808,18.97588757,-5.07401001,,,
imu,51.900563,-0.7931506128000001,-9.760059237600002,1.4846152496,-0.74758353,19.72357857,-4.90204108,,,
imu,51.909017,-0.7997302936000001,-9.743310959200002,1.4911949304,-0.68029134,20.37406974,-4.6179185,,,
imu,51.917472,-0.8021229048,-9.7403201952,1.4846152496,-0.77749117,20.8675458,-4.737549059999999,,,
imu,51.925926,-0.8057118216000001,-9.7540777096,1.4882041664,-0.71019898,21.60028298,-4.670256869999999,,,
imu,51.934381,-0.7877672376000001,-9.755872168000002,1.4911949304,-0.5756146,22.20591269,-4.66277996,,,
imu,51.942836,-0.7620466672,-9.760059237600002,1.4971764584,-0.52327623,22.80406549,-4.5431494,,,
imu,51.95129,-0.7363260968000002,-9.773816752000002,1.4971764584,-0.39616876,23.3349261,-4.40108811,,,
imu,51.959745,-0.7034276928000001,-9.772620446400001,1.4995690696,-0.26906129,23.67138705,-4.47585721,,,
imu,51.968174,-0.7123999848000001,-9.767237071200002,1.5187099592,-0.28401511,23.98541727,-4.31136519,,,
imu,51.976629,-0.7728134176000001,-9.7606573904,1.5157191952,-0.29896893,24.18729384,-4.057150249999999,,,
imu,51.985084,-0.8206656416,-9.746899876,1.5205044176,-0.31392275,24.50132406,-3.81788913,,,
imu,51.993538,-0.8481806704000001,-9.7301515976,1.5276822512,-0.16438455,25.30883034,-3.37675144,,,
imu,52.001993,-0.8846679912000001,-9.7325442088,1.5438323768,-0.15690764,26.22101336,-3.02533667,,,
imu,52.010448,-0.9217534648000001,-9.746899876,1.5695529472,-0.19429219,27.0733811,-3.04029049,,,
imu,52.018902,-0.9396980488000001,-9.734936820000001,1.5892919896,-0.11952309,28.2696867,-2.88327538,,,
imu,52.027357,-0.9773816752000002,-9.7283571392,1.62996638,-0.22419983,29.49589994,-2.99542903,,,
imu,52.035812,-1.0222431352,-9.724768222400002,1.6455183528,-0.16438455,30.77445155,-3.21973633,,,
imu,52.044266,-1.1023956104,-9.694860582400002,1.6437238944,-0.127,32.41189484,-3.28702852,,,
imu,52.052721,-1.354816092,-9.688280901600002,1.6724352288,0.04496892999999999,34.31850689,-3.22721324,,,
imu,52.061175,-1.6275737688,-9.690673512800002,1.6449202,0.05244583999999999,37.04757904,-3.16739796,,,
imu,52.06963,-1.8082159144,-9.710412555200001,1.6287700744,0.14964567,41.04024897999999,-2.65896808,,,
imu,52.078094,-1.9625393368,-9.716992236000001,1.6371442136,0.21693786,46.04977868,-1.91875399,,,
imu,52.086557,-2.0552530208,-9.6942624296,1.603049504,0.2468455,51.10416984,-1.97109236,,,
imu,52.095021,-2.1964170816,-9.6709344704,1.6054421152,0.58330645,56.85391362999999,-2.54681443,,,
imu,52.103484,-2.2418766944,-9.620689635200002,1.591086448,0.94219813,62.75319562,-3.40665908,,,
imu,52.111948,-2.2681954176,-9.605735815200001,1.609031032,1.2936129,69.0188462,-3.90013514,,,
imu,52.120411,-2.1371999544,-9.597959828800002,1.6162088656,1.75718132,75.45646571,-4.25902682,,,
imu,52.128875,-2.0708049936,-9.612315496,1.6215922408,2.27308811,81.96137741,-4.72259524,,,
imu,52.137338,-1.9368187664,-9.585398620000001,1.5982642816,2.55721069,87.83075176,-5.44785551,,,
imu,52.145802,-1.755578468,-9.535153784800002,1.5707492528,2.97591765,93.35618825,-6.15068505,,,
imu,52.154266,-1.5946753648,-9.488497866400001,1.5719455584,3.26751714,98.23113357,-6.82360695,,,
imu,52.162729,-1.4690632768,-9.5040498392,1.5545991272,3.99277741,102.40324935,-7.61615941,,,
imu,52.171193,-1.4337722616,-9.6009505928,1.5767307808,4.25446926,106.16413508,-8.51338861,,,
imu,52.179656,-1.3566105504,-9.748694334400001,1.603049504,4.62831476,109.85772862,-8.81994192,,,
imu,52.18812,-1.2184372536,-9.865932283200001,1.5743381696,4.47129965,113.24476885,-9.13397214,,,
imu,52.196583,-1.049758164,-9.9048122152,1.4947838472,4.11240797,116.45236324,-9.97138606,,,
imu,52.205047,-0.8248527112,-9.848585852000001,1.4008738576,3.54416281,118.97208191,-10.70412324,,,
imu,52.21351,-0.6089195504,-9.802528086400002,1.3434511888,2.9385331,120.69177121,-11.29479913,,,
imu,52.221974,-0.4258847936,-9.7636481544,1.2632987136,2.42262631,121.39460075,-11.70602918,,,
imu,52.230437,-0.1920070488,-9.717590388800001,1.1759684048,2.16841137,121.55161586,-11.90790575,,,
imu,52.238901,0.1124527264,-9.765442612800001,1.145462612,2.06373463,120.78897104,-12.0948285,,,
imu,52.247364,0.4976631296000001,-9.803724392000001,1.1083771384,2.116073,118.58328259,-12.16212069,,,
imu,52.255828,0.8882569080000001,-9.861147060800002,1.1466589176,2.17588828,115.0018427,-12.70045821,,,
imu,52.264292,1.199296364,-9.8581562968,1.1652016544,1.95158098,110.00726682,-13.33599556,,,
imu,52.272755,1.4816244856,-9.798341016800002,1.1562293624,1.68241222,104.010785,-13.70236415,,,
imu,52.281587,1.653892492,-9.797144711200001,1.1981000584,1.54782784,97.02735106,-14.02387128,,,
imu,52.290418,1.6969594936,-9.727758986400001,1.1795573216,1.64502767,89.21398011000001,-13.53039522,,,
imu,52.29925,1.6945668824,-9.686486443200002,1.1562293624,1.51044329,81.52023972,-12.50605855,,,
imu,52.308081,1.6335552968,-9.6326526912,1.1388829312,1.74970441,74.05828354,-11.26489149,,,
imu,52.316913,1.5157191952,-9.612315496,1.148453376,2.1908421,66.81315775,-9.814370949999999,,,
imu,52.325744,1.4289870392,-9.602745051200001,1.1167512776,2.74413344,60.12132329999999,-8.37880423,,,
imu,52.334576,1.3811348152,-9.613511801600001,1.1173494304,3.34976315,53.72856525,-7.00305279,,,
imu,52.343407,1.3356752024,-9.597361676,1.112564208,4.00025432,47.61245287,-6.292746339999999,,,
imu,52.352239,1.2991878816,-9.5638651192,1.1149568192,4.8077606,41.204741,-6.24040797,,,
imu,52.36107,1.2597097968,-9.5566872856,1.1400792368,5.88443564,35.31293591999999,-5.918900839999999,,,
imu,52.369902,1.2274095456,-9.544126076800001,1.145462612,6.89381849,29.62300741,-5.238502029999999,,,
imu,51.045921,,,,,,,270.7190636,-187.6552124,-338.3164296
imu,51.147666,,,,,,,270.8777572,-188.180122,-338.3164296
imu,51.249076,,,,,,,270.4871268,-188.2777796,-338.3164296
imu,51.350608,,,,,,,269.7791092,-188.2899868,-338.3164296
imu,51.452201,,,,,,,269.9866316000001,-187.9115636,-338.3164296
imu,51.553733,,,,,,,270.0232532,-187.4110684,-338.3164296
imu,51.655326,,,,,,,272.208342,-188.1557076000001,-338.3164296
imu,51.756889,,,,,,,269.6326228,-186.8861588,-338.3164296
imu,52.378733,1.1448644592,-9.554892827200002,1.172379488,7.82095533,23.9330789,-4.715118329999999,,,
imu,52.387565,1.07667504,-9.644615747200001,1.1951092944,8.673323069999999,18.69176499,-4.04219643,,,
imu,52.396396,0.9725964528000002,-9.7474980288,1.1675942656,9.31633733,14.08598843,-3.25712088,,,
imu,52.405228,0.8421991424,-9.831837573600001,1.1406773896,9.27147587,9.70451917,-2.77112173,,,
imu,52.414059,0.7010350816000002,-9.9012232984,1.1442663064,9.136891489999998,5.876341249999999,-2.38979932,,,
imu,52.422891,0.5562821040000001,-9.9688145648,1.154434904,8.807907449999998,2.75846978,-1.88884635,,,
imu,52.431722,0.3864067088000001,-10.0316206088,1.1490515288,8.35181594,0.2312741999999997,-1.58976995,,,
imu,52.440554,0.2679724544000001,-10.0591356376,1.130508792,7.76861696,-1.69776858,-1.93370781,,,
imu,52.449386,0.1202287128,-10.066911624,1.1329014032,7.22280253,-2.96884328,-2.20287657,,,
imu,52.458217,0.0113649032,-10.03401322,1.115554972,6.55735754,-3.79130338,-2.42718387,,,
imu,52.467049,-0.0352910152,-10.0064981912,1.1191438888,5.80966654,-4.07542596,-2.80850628,,,
imu,52.47588,-0.0221316536,-9.9616367312,1.1119660552,5.06945245,-4.08290287,-3.23469015,,,
imu,52.48418,0.08314323920000001,-9.9753942456,1.1209383472,4.71056077,-4.30721017,-3.95995042,,,
imu,52.492479,0.1728661592,-9.9688145648,1.1131623608,4.16474634,-4.75582477,-4.52819558,,,
imu,52.500779,0.257205704,-9.925149410400001,1.124527264,3.70117792,-5.974561100000001,-4.66277996,,,
imu,52.509078,0.3092449976000001,-9.849184004800001,1.1191438888,3.10302512,-7.567142929999999,-4.44594957,,,
imu,52.517378,0.323002512,-9.822267128800002,1.1161531248,2.97591765,-9.21954004,-3.81041222,,,
imu,52.525677,0.3576953744,-9.7959484056,1.1101715968,2.94601001,-10.99156771,-3.02533667,,,
imu,52.533977,0.3702565832000001,-9.745703570400002,1.1113679024,2.80394872,-12.95799504,-2.29259949,,,
imu,52.542277,0.3660695136000001,-9.721179305600002,1.1263217224,3.22265568,-14.9468531,-1.52995467,,,
imu,52.550576,0.4145198904,-9.7301515976,1.1340977088,3.611455,-16.99552644,-0.9467556899999998,,,
imu,52.558876,0.4785222400000001,-9.7427128064,1.1400792368,3.73856247,-18.99933832,-0.4308489,,,
imu,52.567175,0.6125084672000001,-9.748694334400001,1.16639796,4.03763887,-21.51158008,-0.15420323,,,
imu,52.575475,0.8134878080000001,-9.802528086400002,1.1927166832,4.29185381,-24.39766734,-0.02709575999999991,,,
imu,52.583774,0.9402962016,-9.8228652816,1.1969037528,4.40400746,-28.32304509,0.04767334000000023,,,
imu,52.592074,1.0431784832,-9.828248656800001,1.1981000584,4.38157673,-32.77180654,0.4738572100000003,,,
imu,52.600374,1.0605249144,-9.802528086400002,1.175370252,4.50120729,-37.76638242,1.18416366,,,
imu,52.608673,1.019850524,-9.783387196800001,1.1418736952,4.516161110000001,-42.79086594,2.35803853,,,
imu,52.616973,0.9887465784000001,-9.783985349600002,1.1317050976,4.63579167,-47.53870379,3.89080508,,,
imu,52.625272,0.8930421304000001,-9.7995373224,1.0970122352,4.54606875,-51.8080194,5.58806365,,,
imu,52.633572,0.723764888,-9.834230184800003,1.0844510264,4.67317622,-56.10724265,6.83670762,,,
imu,52.641871,0.6220789120000001,-9.8880639368,1.0653101368,4.38905364,-59.56905198,7.576921710000001,,,
imu,52.650171,0.5347486032000001,-9.945486605600001,1.0551415392,4.02268505,-62.57476980000001,8.3171358,,,
imu,52.65847,0.5479079648000001,-9.9933388296,1.052748928,3.67874719,-65.51319543,8.818088770000001,,,
imu,52.66677,0.5933675776,-10.0256390808,1.0413840248,3.18527113,-68.62358999,8.2423667,,,
imu,52.67507,0.5377393672000002,-9.977786856800002,1.0120745376,2.6394567,-71.93586112,6.56006195,,,
imu,52.683369,0.4222958768,-9.9299346328,1.0162616072,2.16841137,-75.03877877,5.012341579999999,,,
imu,52.692023,0.2715613712,-9.920962340800001,1.028822816,1.87681188,-77.70055873,4.19735839,,,
imu,52.700677,0.03947808480000001,-9.917971576800003,1.0270283576,1.68988913,-79.50249403999999,4.04034328,,,
imu,52.70933,-0.2087553272,-9.9580478144,1.0491600112,1.2936129,-80.39972323999999,3.92071272,,,
imu,52.717984,-0.5281689224000001,-9.992142524000002,1.0671045952,0.68798319,-79.81652426,3.86089744,,,
imu,52.726638,-0.7686263480000001,-9.990348065600001,1.09162886,-0.17186146,-78.10431186999999,3.8309898,,,
imu,52.735291,-0.9067996448000001,-10.0316206088,1.1083771384,-1.38312088,-75.27803988999999,3.89080508,,,
imu,52.743945,-0.9947281064000002,-10.0806691384,1.1011993048,-2.25791935,-72.12278386999999,3.43471357,,,
imu,52.752599,-0.8996218112000001,-10.0477707344,1.103591916,-3.23739456,-69.21426588,1.81970101,,,
imu,52.761253,-0.8236564056000001,-10.001114816,1.133499556,-4.14957758,-66.57491664999999,0.002811879999999878,,,
imu,52.769906,-0.7429057776,-9.935318008000001,1.1209383472,-4.87483785,-64.38418202,-1.48509321,,,
imu,52.77856,-0.6962498592000002,-9.8653341304,1.1191438888,-5.368313909999999,-62.50000069999999,-2.16549202,,,
imu,52.787214,-0.6298548984000001,-9.815687448000002,1.1293124864,-5.50289829,-60.51114264,-2.08324601,,,
imu,52.795868,-0.6071250920000001,-9.796546558400001,1.1562293624,-5.45055992,-58.74659188,-1.36546265,,,
imu,52.804521,-0.6980443176000002,-9.8043225448,1.1998945168,-5.52532902,-57.27364061,-0.7523560299999998,,,
imu,52.813175,-0.8188711832000002,-9.792957641600001,1.2124557256,-5.60757503,-55.61376659,-0.09438795,,,
imu,52.821829,-0.9612315496000001,-9.7959484056,1.235185532,-5.600098119999999,-53.11647865,0.6607799600000002,,,
imu,52.830482,-1.0282246632,-9.805518850400002,1.274065464,-5.66739031,-49.96869954,1.09444074,,,
imu,52.839136,-1.0150653016,-9.818678212000002,1.3237121464,-5.816928509999999,-46.65642841,0.8551796199999999,,,
imu,52.84779,-0.9468758824000001,-9.824659740000001,1.3464419528,-6.310404569999999,-43.38901874,-0.28878761,,,
imu,52.856444,-0.8433954480000001,-9.863539672000002,1.3649846896,-6.60200406,-40.51040839,-1.84398489,,,
imu,52.865097,-0.6992406232000001,-9.895839923200002,1.3745551344,-6.714157709999999,-38.18508938,-3.45899745,,,
imu,52.873751,-0.5921712720000001,-9.853969227200002,1.3625920784,-7.01323411,-36.50278463,-4.991764,,,
imu,52.882405,-0.5329541448,-9.76484446,1.3446474944,-6.998280289999999,-35.31395594,-5.806747189999999,,,
imu,52.890992,-0.4976631296000001,-9.644615747200001,1.342853036,-7.0805263,-34.33448073,-5.74693191,,,
imu,52.899579,-0.5293652280000001,-9.562070660800002,1.372760676,-6.661819339999999,-33.36248243,-4.87213344,,,
imu,52.908165,-0.6304530512000001,-9.5381445488,1.4068553856,-6.13095873,-32.46525323,-4.04967334,,,
imu,52.916752,-0.7770004872000001,-9.5638651192,1.4253981224,-5.338406269999999,-31.19417853,-3.01785976,,,
imu,52.925339,-0.8894532136000001,-9.608128426400002,1.4493242344,-4.560807629999999,-29.49691996,-2.18792275,,,
imu,52.933926,-0.9504647992000002,-9.666149248000002,1.4732503464,-4.05985466,-27.16412404,-1.85893871,,,
imu,52.942513,-0.9570444800000002,-9.6912716656,1.4792318744,-3.57385551,-24.88366649,-2.3748455,,,
imu,52.9511,-0.8918458248000001,-9.685888290400001,1.5019616808,-3.25982529,-22.33404018,-3.09262886,,,
imu,52.959687,-0.7991321408000002,-9.666149248000002,1.5115321256,-3.05794872,-19.81432151,-3.68330475,,,
imu,52.968274,-0.6812960392000001,-9.668541859200001,1.51033582,-2.8186876,-17.82546345,-4.28145755,,,
imu,52.97686,-0.5879842024,-9.651195428000001,1.5324674736,-2.56447266,-16.33755836,-4.90204108,,,
imu,52.985447,-0.5138132552000001,-9.6458120528,1.5438323768,-2.2953039,-15.20106804,-5.260932759999999,,,
imu,52.994034,-0.4569887392,-9.633848996800001,1.5623751136,-1.89155076,-14.124393,-5.283363489999999,,,
imu,53.002621,-0.3959771536000001,-9.633250844,1.6006568928,-1.49527453,-13.19725616,-4.89456417,,,
imu,53.011208,-0.3511156936,-9.632054538400002,1.6138162544,-1.12142903,-12.86079521,-4.81979507,,,
imu,53.019795,-0.3475267768,-9.6296619272,1.6437238944,-0.77001426,-12.50938044,-4.8422258,,,
imu,53.028382,-0.320011748,-9.664952942400001,1.6622666312,-0.34383039,-12.41218061,-4.66277996,,,
imu,53.036969,-0.2655798432,-9.688280901600002,1.6784167568,-0.10456927,-12.13553494,-4.57305704,,,
imu,53.045556,-0.1686790896,-9.70502918,1.6843982848,0.03749201999999999,-12.24768859,-4.87961035,,,
imu,53.054142,-0.06998387760000001,-9.719983000000001,1.680809368,0.1720764,-12.59162645,-5.305794219999999,,,
imu,53.062765,0.0340947096,-9.713403319200001,1.6742296872,0.15712258,-13.62344003,-5.53010152,,,
imu,53.071352,0.08433954480000001,-9.7265626808,1.6826038264,0.12721494,-15.02909911,-5.6646859,,,
imu,53.079939,0.0532355992,-9.725366375200002,1.7053336328,0.21693786,-16.44971201,-5.50767079,,,
imu,53.088526,-0.0215335008,-9.710412555200001,1.725670828,0.49358353,-17.82546345,-5.05157928,,,
imu,53.0972,-0.1160416432,-9.706823638400001,1.7501950928,0.59078336,-18.93952304,-4.48333412,,,
imu,53.105873,-0.1985867296,-9.702636568800001,1.7663452184,0.65807555,-19.48533747,-3.91508896,,,
imu,53.114547,-0.2954874832,-9.6709344704,1.77950458,0.8823828499999999,-19.70964477,-3.69825857,,,
imu,53.123221,-0.3852104032000001,-9.648204664000001,1.7818971912,1.17398234,-19.76198314,-4.23659609,,,
imu,51.858604,,,,,,,270.0354604,-186.715258,-338.3164296
imu,51.959983,,,,,,,269.9744244,-186.165934,-338.3164296
imu,52.061576,,,,,,,269.5715868,-185.3846732,-338.3164296
imu,52.1632,,,,,,,268.5217676,-185.4823308,-338.3164296
imu,52.264732,,,,,,,263.1872212,-171.4440508,-338.3164296
imu,52.366203,,,,,,,256.3511892,-157.1616268,-338.3164296
imu,52.467857,,,,,,,256.3267748,-156.4047804,-338.3164296
imu,52.569419,,,,,,,257.6085308,-160.042526,-338.3164296
imu,52.675217,,,,,,,253.1162812,-163.521578,-338.3164296
imu,52.77269,,,,,,,258.4874492,-173.5192748,-338.3164296
imu,52.874161,,,,,,,258.8048364000001,-174.752202,-338.3164296
imu,52.975693,,,,,,,260.001142,-175.5700844,-338.3164296
imu,53.079789,,,,,,,261.2706908,-175.3747692,-338.3164296
