Type,Timestamp,Data Accelerometer X,Data Accelerometer Y,Data Accelerometer Z,Data Gyroscope X,Data Gyroscope Y,Data Gyroscope Z,Data Magnetometer X,Data Magnetometer Y,Data Magnetometer Z
imu,62.825098,-0.1836329096,-9.740918348000001,1.6999502576,0.44872207,-3.72401119,-3.07019813,,,
imu,62.833555,-0.2105497856,-9.714001472000001,1.7238763696,0.35152224,-3.38755024,-3.01785976,,,
imu,62.842012,-0.2344758976,-9.6984494992,1.7155022304,0.08235347999999998,-2.99875092,-3.02533667,,,
imu,62.85047,-0.2165313136,-9.6775141512,1.6975576464,0.20198404,-2.45293649,-2.88327538,,,
imu,62.858927,-0.185427368,-9.6817012208,1.713707772,0.3889067899999999,-1.91459897,-2.81598319,,,
imu,62.867384,-0.1836329096,-9.7074217912,1.7262689808,0.53096808,-1.57813802,-3.01038285,,,
imu,62.875841,-0.1746606176,-9.741516500800001,1.7418209536,0.6954601,-1.30149235,-3.16739796,,,
imu,62.884298,-0.1591086448,-9.746899876,1.7412228008,0.82256757,-1.12952342,-3.38422835,,,
imu,62.892756,-0.1800439928,-9.746899876,1.7478024816,0.7403215599999999,-0.9575544899999997,-3.51133582,,,
imu,62.901213,-0.1591086448,-9.746301723200002,1.7412228008,0.82256757,-0.6285704500000002,-3.496382,,,
imu,62.90967,-0.1447529776,-9.742114653600002,1.7328486616,0.85995212,-0.1874327600000001,-3.36927453,,,
imu,62.918127,-0.1381732968,-9.724170069600001,1.7370357312,0.91229049,-0.01546383000000029,-3.44404363,,,
imu,62.926584,-0.1351825328,-9.738525736800002,1.7388301896,1.03192105,0.1191205499999999,-3.60853565,,,
imu,62.935041,-0.1148453376,-9.737927584000001,1.7478024816,1.09921324,0.3060432999999998,-3.66087402,,,
imu,62.943499,-0.08493769760000001,-9.749890640000002,1.7597655376,1.04687487,0.33595094,-3.92256587,,,
imu,62.951956,-0.0723764888,-9.748096181600001,1.7484006344,1.09173633,0.35838167,-3.95995042,,,
imu,62.960424,-0.07596540560000001,-9.731347903200001,1.7394283424,1.1440747,0.35838167,-4.04967334,,,
imu,62.968893,-0.0675912664,-9.711608860800002,1.7310542032,1.08425942,0.1415512799999998,-4.034719519999999,,,
imu,62.977362,-0.05682451600000001,-9.696056888000001,1.7232782168,1.18145925,-0.02294074000000013,-4.102011709999999,,,
imu,62.98583,-0.05562821040000001,-9.699645804800001,1.725670828,1.16650543,-0.1201405700000002,-4.19173463,,,
imu,62.994299,-0.06460050240000001,-9.734338667200001,1.7196893,1.47305874,-0.3444478700000002,-4.26650373,,,
imu,63.002768,-0.0675912664,-9.735534972800002,1.710717008,1.71979677,-0.3668786000000002,-4.16182699,,,
imu,63.011236,-0.09390998960000001,-9.7301515976,1.722680064,1.65250458,-0.4865091600000002,-4.17678081,,,
imu,63.019705,-0.1148453376,-9.7540777096,1.7478024816,1.67493531,-0.4416477000000003,-4.31136519,,,
imu,63.028174,-0.09929336480000002,-9.779798280000001,1.731652356,1.83942733,-0.5911859000000002,-4.5431494,,,
imu,63.036642,-0.1220231712,-9.7606573904,1.740624648,1.80951969,-0.6285704500000002,-4.78241052,,,
imu,63.045111,-0.137575144,-9.7510869456,1.7196893,1.74970441,-0.82297011,-5.11139456,,,
imu,63.053579,-0.155519728,-9.7576666264,1.7292597448,1.71979677,-0.9500775800000003,-5.33570186,,,
imu,63.062048,-0.1872218264,-9.7959484056,1.7328486616,1.76465823,-1.07718505,-5.46280933,,,
imu,63.070517,-0.221316536,-9.801929933600002,1.7214837584,1.65250458,-0.8902623000000003,-5.24597894,,,
imu,63.078985,-0.2159331608,-9.7959484056,1.6939687296,1.57025857,-0.7257702800000003,-4.61044159,,,
imu,63.087454,-0.2177276192,-9.767237071200002,1.698753952,1.39828964,-0.4042631500000002,-4.21416536,,,
imu,63.095923,-0.236270356,-9.779200127200001,1.701744716,1.35342818,-0.0603252900000002,-3.78798149,,,
imu,63.104391,-0.2195220776,-9.800135475200001,1.6849964376,1.47305874,0.2537049300000001,-3.45899745,,,
imu,63.11286,-0.1860255208,-9.803126239200001,1.6760241456,1.33847436,0.4331507699999997,-3.48890509,,,
imu,63.121328,-0.173464312,-9.760059237600002,1.656883256,1.2936129,0.50044296,-3.84031986,,,
imu,63.129797,-0.1692772424,-9.706225485600001,1.6311626856,1.30108981,0.64250425,-4.28145755,,,
imu,63.138266,-0.1603049504,-9.696655040800001,1.6281719216,1.56278166,0.7920424499999998,-4.33379592,,,
imu,63.146734,-0.155519728,-9.681103068,1.6275737688,1.76465823,0.8369039099999998,-4.430995749999999,,,
imu,63.155203,-0.1309954632,-9.660765872800003,1.638938672,1.90671952,0.7995193599999997,-4.58053395,,,
imu,63.164017,-0.1339862272,-9.6912716656,1.6365460608,2.33290339,0.6948426199999997,-4.692687599999999,,,
imu,63.172831,-0.128602852,-9.741516500800001,1.6323589912,2.27308811,0.5153967799999997,-4.87961035,,,
imu,63.181646,-0.1280046992,-9.7780038216,1.6353497552,2.4151494,0.50044296,-4.80484125,,,
imu,63.19046,-0.1339862272,-9.763050001600002,1.6293682272,2.13102682,0.4107200399999997,-4.74502597,,,
imu,63.199274,-0.146547436,-9.783387196800001,1.6353497552,2.01887317,0.3658585799999998,-4.47585721,,,
imu,63.208089,-0.1537252696,-9.794752100000002,1.650901728,1.79456587,0.3509047599999997,-4.25902682,,,
imu,63.216903,-0.1519308112,-9.8043225448,1.6544906448,1.5179202,0.41819695,-4.0945348,,,
imu,63.225717,-0.158510492,-9.821668976000002,1.6706407704,1.27118217,0.2387511099999999,-4.16182699,,,
imu,63.234531,-0.158510492,-9.8162856008,1.6574814088,1.00201341,0.11164364,-4.34874974,,,
imu,63.243346,-0.1872218264,-9.802528086400002,1.6497054224,0.68050628,0.06678217999999969,-4.63287232,,,
imu,63.25216,-0.19439966,-9.7786019744,1.6455183528,0.44872207,0.07425908999999997,-4.61044159,,,
imu,63.260974,-0.1926052016,-9.7576666264,1.6353497552,0.56087572,0.21632038,-4.602964679999999,,,
imu,63.269788,-0.2087553272,-9.7911631832,1.6712389232,0.64312173,0.2013665599999999,-4.67773378,,,
imu,63.278603,-0.212344244,-9.8061170032,1.6766222984,0.60573718,0.3509047599999997,-4.56558013,,,
imu,63.287417,-0.2284943696,-9.8300431152,1.6796130624,0.4711528,0.44062768,-4.647826139999999,,,
imu,63.296231,-0.2284943696,-9.837819101600003,1.680809368,0.29918387,0.6798887999999996,-4.44594957,,,
imu,63.305046,-0.2189239248,-9.824659740000001,1.6843982848,0.05992275,0.6051196999999999,-4.33379592,,,
imu,63.31386,-0.2009793408,-9.779200127200001,1.6766222984,-0.20924601,0.66493498,-4.40108811,,,
imu,63.322674,-0.1979885768,-9.764246307200002,1.6730333816,-0.15690764,0.8518577299999999,-4.28893446,,,
imu,63.331488,-0.1902125904,-9.767237071200002,1.668846312,-0.14943073,0.80699627,-4.22911918,,,
imu,63.340303,-0.1830347568,-9.766638918400002,1.683800132,-0.11204618,0.8817653699999997,-3.98985806,,,
imu,63.349117,-0.1638938672,-9.756470320800002,1.692772424,-0.08961545,0.9789651999999998,-3.75059694,,,
imu,63.357931,-0.1597067976,-9.731347903200001,1.6802112152,0.01506129,0.9341037399999998,-3.60105874,,,
imu,63.366406,-0.1292010048,-9.725366375200002,1.686790896,0.10478421,0.84438082,-3.81041222,,,
imu,63.374881,-0.1124527264,-9.718188541600002,1.6933705768,0.08983038999999998,0.4331507699999997,-4.0945348,,,
imu,63.383356,-0.1423603664,-9.7122070136,1.6945668824,0.3216146,0.1191205499999999,-4.22164227,,,
imu,63.391831,-0.1860255208,-9.7008421104,1.6820056736,0.49358353,-0.15004821,-4.408565019999999,,,
imu,63.400306,-0.2081571744,-9.699047652,1.6945668824,0.58330645,-0.1276174800000001,-4.43847266,,,
imu,63.408781,-0.2404574256,-9.710412555200001,1.6885853544,0.57582954,-0.02294074000000013,-4.30388828,,,
imu,63.417256,-0.2697669128,-9.743310959200002,1.6903798128,0.5010604399999999,0.1565051,-4.341272829999999,,,
imu,63.425731,-0.2619909264,-9.7492924872,1.6843982848,0.4861066199999999,0.5153967799999997,-4.146873169999999,,,
imu,63.434206,-0.242251884,-9.745105417600001,1.6909779656,0.5459219,1.03130357,-3.88518132,,,
imu,63.442681,-0.203371952,-9.748694334400001,1.6784167568,0.60573718,1.34533379,-3.73564312,,,
imu,63.451156,-0.1872218264,-9.7612555432,1.6981557992,0.63564482,1.53225654,-3.96742733,,,
imu,63.459631,-0.1782495344,-9.751685098400001,1.6951650352,0.5459219,1.53225654,-4.057150249999999,,,
imu,63.468106,-0.152528964,-9.768433376800001,1.6933705768,0.5010604399999999,1.43505671,-4.21416536,,,
imu,63.476581,-0.1626975616,-9.766040765600001,1.6939687296,0.35152224,1.30047233,-4.53567249,,,
imu,63.485056,-0.1662864784,-9.751685098400001,1.6790149096,0.38142988,1.01634975,-4.737549059999999,,,
imu,63.493531,-0.1860255208,-9.758264779200001,1.6861927432,0.6281679099999999,0.8219500899999996,-4.52071867,,,
imu,63.502006,-0.1908107432,-9.767835224,1.6921742712,0.7104139199999999,0.8144731799999998,-4.430995749999999,,,
imu,63.510481,-0.1782495344,-9.7786019744,1.7131096192,0.55339881,0.78456554,-4.25902682,,,
imu,63.518956,-0.1698753952,-9.786976113600002,1.7101188552,0.47862971,0.8219500899999996,-4.04967334,,,
imu,63.527431,-0.1752587704,-9.794752100000002,1.7172966888,0.19450713,0.70231953,-4.124442439999999,,,
imu,63.535906,-0.170473548,-9.7744149048,1.6915761184,0.11226112,0.6574580699999997,-3.98238115,,,
imu,63.544381,-0.1698753952,-9.749890640000002,1.6999502576,-0.11952309,0.47801223,-4.057150249999999,,,
imu,63.552856,-0.1860255208,-9.715795930400002,1.6849964376,-0.08961545,0.41819695,-4.27398064,,,
imu,63.561331,-0.2039701048,-9.708019944000002,1.6760241456,-0.007369440000000005,0.1415512799999998,-4.56558013,,,
imu,63.569801,-0.2189239248,-9.7128051664,1.6903798128,0.14216876,-0.01546383000000029,-4.68521069,,,
imu,63.578271,-0.2404574256,-9.752283251200002,1.683800132,0.34404533,-0.1051867500000001,-4.647826139999999,,,
imu,63.586741,-0.2536167872,-9.7786019744,1.6646592424,0.4861066199999999,0.0368745399999999,-4.49081103,,,
imu,63.59521,-0.275150288,-9.760059237600002,1.6975576464,0.41881443,0.21632038,-4.408565019999999,,,
imu,63.60368,-0.263187232,-9.786377960800001,1.716698536,0.5010604399999999,0.44062768,-4.18425772,,,
imu,63.61215,-0.233279592,-9.800135475200001,1.7119133136,0.5459219,0.6051196999999999,-4.00481188,,,
imu,63.62062,-0.221316536,-9.792957641600001,1.7298578976,0.29918387,0.5976427899999996,-4.318842099999999,,,
imu,63.62909,-0.2243073,-9.794153947200002,1.7418209536,0.05244583999999999,0.47801223,-4.64034923,,,
imu,63.63756,-0.2344758976,-9.803126239200001,1.7274652864,-0.09709236,-0.03041764999999996,-5.10391765,,,
imu,63.64603,-0.2769447464000001,-9.811500378400002,1.7543821624,-0.32139966,-0.1874327600000001,-5.31327113,,,
imu,63.6545,-0.3128339144,-9.803126239200001,1.7501950928,-0.49336859,-0.2173404000000003,-5.07401001,,,
imu,63.66297,-0.3218062064,-9.773218599200002,1.731652356,-0.64290679,-0.1276174800000001,-4.80484125,,,
imu,63.67144,-0.3170209840000001,-9.738525736800002,1.7274652864,-0.7550604399999999,0.2013665599999999,-4.35622665,,,
imu,63.679909,-0.3247969704000001,-9.7403201952,1.7370357312,-0.77749117,0.5527813299999997,-3.77302767,,,
imu,63.688379,-0.3098431504,-9.7612555432,1.7460080232,-0.7251528,0.86681155,-3.00290594,,,
imu,63.696849,-0.2578038568000001,-9.752881404000002,1.7627563016,-0.5756146,1.07616503,-2.49447606,,,
imu,63.705319,-0.2284943696,-9.727758986400001,1.7501950928,-0.3513073,1.10607267,-2.45709151,,,
imu,63.713789,-0.2201202304,-9.687084596000002,1.7244745224,-0.26906129,0.8967191899999998,-3.03281358,,,
imu,63.722259,-0.2320832864,-9.659569567200002,1.7328486616,-0.07466163,0.8593346399999997,-3.33936689,,,
imu,63.730729,-0.2518223288000001,-9.6733270816,1.7364375784,0.1720764,0.8294269999999999,-3.6459202,,,
imu,63.739199,-0.2536167872,-9.699047652,1.7155022304,0.46367589,1.0537343,-3.63096638,,,
imu,63.747669,-0.2607946208,-9.7008421104,1.6993521048,0.57582954,1.14345722,-3.69078166,,,
imu,63.756139,-0.2613927736,-9.692467971200001,1.7071280912,0.5982602699999999,1.45001053,-3.74312003,,,
imu,63.764608,-0.2338777448,-9.6709344704,1.7059317856,0.80761375,1.68179474,-3.47395127,,,
imu,63.773155,-0.2099516328,-9.697253193600002,1.7029410216,1.09921324,1.62945637,-3.52628964,,,
imu,63.781701,-0.2039701048,-9.719983000000001,1.7119133136,1.27865908,1.46496435,-3.74312003,,,
imu,63.790247,-0.1932033544,-9.745703570400002,1.7190911472,1.33099745,1.31542615,-4.11696553,,,
imu,63.798793,-0.20935348,-9.748096181600001,1.7507932456,1.17398234,1.04625739,-4.430995749999999,,,
imu,63.807339,-0.2404574256,-9.7504887928,1.7501950928,1.09921324,0.8518577299999999,-4.29641137,,,
imu,63.815886,-0.2542149400000001,-9.756470320800002,1.7657470656,0.9646288599999999,0.7172733499999997,-4.16182699,,,
imu,63.824432,-0.2440463424,-9.794153947200002,1.74959694,0.77770611,0.9341037399999998,-3.81788913,,,
imu,63.832978,-0.2560093984,-9.802528086400002,1.7430172592,0.58330645,1.03130357,-3.77302767,,,
imu,63.841524,-0.2500278704,-9.783985349600002,1.7394283424,0.41133752,1.12102649,-3.5711511,,,
imu,63.85007,-0.248233412,-9.731946056000002,1.743615412,0.31413769,1.1285034,-3.48890509,,,
imu,63.858617,-0.236270356,-9.718786694400002,1.7711304408,0.31413769,1.16588795,-3.51133582,,,
imu,63.867163,-0.221316536,-9.758862932000001,1.7753175104,0.51601426,1.11354958,-3.71321239,,,
imu,63.875709,-0.2261017584,-9.803126239200001,1.7711304408,0.41881443,1.07616503,-3.95247351,,,
imu,63.884255,-0.2380648144,-9.818678212000002,1.80941222,0.34404533,1.12102649,-3.92256587,,,
imu,63.892801,-0.2428500368,-9.792957641600001,1.7920657888,0.03001510999999998,1.17336486,-3.90013514,,,
imu,63.901233,-0.2500278704,-9.731946056000002,1.7741212048,-0.04475399000000001,1.29299542,-3.87770441,,,
imu,63.90978,-0.251224176,-9.717590388800001,1.7633544544,0.11226112,1.33785688,-3.96742733,,,
imu,63.918326,-0.233279592,-9.7122070136,1.7549803152,0.3963837,1.36028761,-3.70573548,,,
imu,63.926872,-0.2494297176,-9.7122070136,1.7609618432,0.6132140899999999,1.34533379,-3.70573548,,,
imu,63.935418,-0.257205704,-9.7193848472,1.7830934968,0.97958268,1.33785688,-3.78798149,,,
imu,63.943964,-0.260196468,-9.7576666264,1.7848879552,1.03939796,1.25561087,-4.012288789999999,,,
imu,63.952511,-0.2368685088,-9.783387196800001,1.7926639416,0.97958268,1.31542615,-3.95247351,,,
imu,63.961057,-0.2458408008,-9.782789044000001,1.8028325392,0.74779847,1.32290306,-3.98985806,,,
imu,63.969603,-0.2404574256,-9.755274015200001,1.7848879552,0.63564482,1.36776452,-3.9449966,,,
imu,63.978326,-0.2619909264,-9.6912716656,1.7537840096,0.64312173,1.36776452,-3.78050458,,,
imu,63.987048,-0.2476352592,-9.644017594400001,1.737633884,0.73284465,1.47991817,-3.51881273,,,
imu,63.995771,-0.2434481896,-9.639830524800002,1.7328486616,0.83004448,1.4275798,-3.44404363,,,
imu,64.004494,-0.2530186344000001,-9.681103068,1.7178948416,1.1440747,1.40514907,-3.31693616,,,
imu,64.013217,-0.2386629672,-9.697253193600002,1.7310542032,1.30856672,1.2780416,-3.33188998,,,
imu,64.021939,-0.2266999112,-9.694860582400002,1.7430172592,1.53287402,1.25561087,-3.33188998,,,
imu,64.030662,-0.2296906752000001,-9.724170069600001,1.746606176,1.57025857,1.21822632,-3.32441307,,,
imu,64.039385,-0.2129423968,-9.769031529600001,1.7543821624,1.6674584,1.19579559,-3.1225365,,,
imu,64.048107,-0.1961941184,-9.800733628000001,1.7460080232,1.56278166,1.18831868,-3.11505959,,,
imu,64.05683,-0.1908107432,-9.787574266400002,1.7543821624,1.47305874,1.11354958,-3.28702852,,,
imu,64.065553,-0.2051664104,-9.789368724800001,1.7561766208,1.12164397,1.09859576,-3.42908981,,,
imu,64.074276,-0.182436604,-9.7995373224,1.755578468,1.27865908,0.9714882899999999,-3.45152054,,,
imu,64.082998,-0.1752587704,-9.806715156000001,1.7573729264,1.06182869,0.9789651999999998,-3.67582784,,,
imu,64.091721,-0.1788476872,-9.791761336000002,1.7579710792,0.9272443100000001,0.8593346399999997,-3.95995042,,,
imu,64.100444,-0.2081571744,-9.7780038216,1.7454098704,0.76275229,0.6574580699999997,-4.19173463,,,
imu,64.109166,-0.2231109944,-9.7534795568,1.7478024816,0.51601426,0.6798887999999996,-4.22911918,,,
imu,64.117889,-0.2159331608,-9.7427128064,1.7531858568,0.53096808,0.9041961000000001,-3.87770441,,,
imu,64.126612,-0.2207183832,-9.749890640000002,1.7454098704,0.45619898,0.9116730099999999,-3.81041222,,,
imu,64.135335,-0.2051664104,-9.7534795568,1.7448117176,0.51601426,0.9939190199999999,-3.7954584,,,
imu,64.144057,-0.1949978128,-9.727758986400001,1.7310542032,0.7253677399999999,0.9191499199999997,-3.53376655,,,
imu,64.15278,-0.2117460912,-9.706225485600001,1.7352412728,0.8375213899999999,0.72475026,-3.84031986,,,
imu,64.161503,-0.2219146888,-9.686486443200002,1.7190911472,1.09921324,0.5901658799999998,-3.89265823,,,
imu,64.170226,-0.2225128416,-9.676915998400002,1.713707772,1.24127453,0.5752120599999997,-4.00481188,,,
imu,64.17873,-0.2476352592,-9.7074217912,1.7280634392,1.34595127,0.56025824,-3.95247351,,,
imu,64.187234,-0.2428500368,-9.743310959200002,1.7280634392,1.64502767,0.72475026,-3.62348947,,,
imu,64.195738,-0.2320832864,-9.744507264800001,1.7220819112,1.76465823,0.8294269999999999,-3.60853565,,,
imu,64.204242,-0.242251884,-9.7217774584,1.7220819112,1.61512003,0.8817653699999997,-3.48142818,,,
imu,64.212747,-0.2458408008,-9.722375611200002,1.7322505088,1.5179202,0.84438082,-3.47395127,,,
imu,64.221251,-0.2243073,-9.7612555432,1.7095207024,1.73475059,0.9640113799999996,-3.48890509,,,
imu,64.229755,-0.2398592728,-9.7780038216,1.7095207024,1.69736604,0.9789651999999998,-3.7954584,,,
imu,64.238259,-0.2470371064,-9.758264779200001,1.728661592,1.60764312,0.8593346399999997,-4.04219643,,,
imu,64.246764,-0.2494297176,-9.756470320800002,1.7184929944,1.5926893,0.8294269999999999,-4.11696553,,,
imu,64.255268,-0.2613927736,-9.794752100000002,1.7358394256,1.39081273,0.7920424499999998,-4.244073,,,
imu,64.263772,-0.2607946208,-9.782789044000001,1.7448117176,1.12912088,0.8219500899999996,-4.28145755,,,
imu,64.272276,-0.2530186344000001,-9.780396432800002,1.7531858568,0.9945364999999999,0.8518577299999999,-4.42351884,,,
imu,64.280781,-0.248233412,-9.801929933600002,1.7639526072,0.9197674,0.7471809899999999,-4.602964679999999,,,
imu,64.289285,-0.2781410520000001,-9.8210708232,1.7657470656,0.9197674,0.64250425,-4.625395409999999,,,
imu,64.297789,-0.2954874832,-9.808509614400002,1.7723267464,0.68798319,0.66493498,-4.50576485,,,
imu,64.306293,-0.3068523864000001,-9.794752100000002,1.7699341352,0.41133752,0.6574580699999997,-4.35622665,,,
imu,62.842254,,,,,,,83.42399400000001,-23.56603000000002,117.4027608
imu,62.943816,,,,,,,82.4718324,-22.61386840000002,119.185012
imu,63.045409,,,,,,,83.08219240000001,-23.05332760000001,120.0761376
imu,63.146941,,,,,,,83.2897148,-23.02891320000002,119.6488856
imu,63.248565,,,,,,,83.057778,-22.84580520000002,119.7831648
imu,63.350097,,,,,,,83.5216516,-23.21202120000001,119.9662728
imu,63.451629,,,,,,,83.31412920000001,-22.68711160000001,120.100552
imu,63.553191,,,,,,,85.0841732,-23.19981400000002,119.1361832
imu,64.314797,-0.3188154424,-9.797144711200001,1.761559996,0.25432241,0.9116730099999999,-4.07210407,,,
imu,64.323302,-0.331974804,-9.802528086400002,1.7621581488,0.23189168,1.16588795,-3.5711511,,,
imu,64.331806,-0.3008708584000001,-9.800733628000001,1.7519895512,0.19450713,1.45748744,-2.99542903,,,
imu,64.34031,-0.2805336632,-9.758862932000001,1.7591673848,0.34404533,1.53973345,-2.88327538,,,
imu,64.348814,-0.2709632184,-9.721179305600002,1.7262689808,0.4861066199999999,1.577118,-3.02533667,,,
imu,64.357319,-0.2715613712,-9.725964528,1.7172966888,0.50853735,1.54721036,-3.14496723,,,
imu,64.365823,-0.2655798432,-9.703234721600001,1.710717008,0.47862971,1.66684092,-3.16739796,,,
imu,64.374327,-0.2769447464000001,-9.658373261600001,1.6921742712,0.57582954,1.52477963,-3.42908981,,,
imu,64.382764,-0.2930948720000001,-9.630260080000001,1.686790896,0.94219813,1.64441019,-3.66835093,,,
imu,64.391201,-0.2984782472,-9.623680399200001,1.6694444648,1.31604363,1.73413311,-3.65339711,,,
imu,64.399638,-0.3056560808,-9.636839760800001,1.6664537008,1.62259694,1.90610204,-3.66835093,,,
imu,64.408074,-0.3044597752,-9.648802816800002,1.6592758672,1.87681188,2.07059406,-3.74312003,,,
imu,64.416511,-0.2787392048,-9.701440263200002,1.6760241456,2.06373463,2.12293243,-3.72816621,,,
imu,64.424948,-0.2745521352,-9.7504887928,1.6975576464,2.12354991,2.03320951,-3.84031986,,,
imu,64.433385,-0.2578038568000001,-9.7911631832,1.7125114664,2.03382699,2.03320951,-3.93751969,,,
imu,64.441822,-0.248233412,-9.803126239200001,1.7131096192,1.72727368,2.19770153,-3.84031986,,,
imu,64.450259,-0.2237091472,-9.815687448000002,1.710717008,1.45810492,2.23508608,-3.72816621,,,
imu,64.458695,-0.2261017584,-9.8234634344,1.725670828,1.1440747,1.90610204,-3.81788913,,,
imu,64.467132,-0.2249054528,-9.812696684000002,1.7238763696,0.83004448,1.74908693,-3.78798149,,,
imu,64.475569,-0.2135405496,-9.802528086400002,1.7071280912,0.6281679099999999,1.33037997,-3.93751969,,,
imu,64.484006,-0.2296906752000001,-9.786976113600002,1.6879872016,0.67302937,0.9041961000000001,-4.057150249999999,,,
imu,64.492443,-0.2506260232,-9.745703570400002,1.7059317856,0.5459219,0.5976427899999996,-4.13191935,,,
imu,64.50088,-0.2775428992,-9.767835224,1.7370357312,0.55339881,0.44062768,-4.22911918,,,
imu,64.509317,-0.3086468448,-9.811500378400002,1.73464312,0.57582954,0.5303505999999998,-4.25902682,,,
imu,64.517753,-0.3271895816000001,-9.844398782400003,1.7460080232,0.43376825,0.62007352,-3.93751969,,,
imu,64.52619,-0.323002512,-9.831837573600001,1.76455076,-0.11204618,0.7770886299999997,-3.75059694,,,
imu,64.534627,-0.2984782472,-9.797144711200001,1.7771119688,-0.54570696,0.9116730099999999,-3.58610492,,,
imu,64.543064,-0.2883096496000001,-9.748694334400001,1.7729248992,-0.7401066199999999,1.0537343,-3.63096638,,,
imu,64.551501,-0.2954874832,-9.742114653600002,1.7681396768,-0.64290679,1.16588795,-3.60853565,,,
imu,64.559938,-0.3062542336,-9.724768222400002,1.7627563016,-0.68776825,1.27056469,-3.47395127,,,
imu,64.568374,-0.3014690112,-9.706225485600001,1.761559996,-0.55318387,1.61450255,-3.28702852,,,
imu,64.576811,-0.305057928,-9.699047652,1.7818971912,-0.33635348,1.76404075,-3.27955161,,,
imu,64.585277,-0.28412258,-9.703234721600001,1.7651489128,0.11226112,2.01825569,-3.15992105,,,
imu,64.593743,-0.2595983152,-9.719983000000001,1.7561766208,0.33656842,2.25751681,-3.18982869,,,
imu,64.602209,-0.230288828,-9.776807516000002,1.7687378296,0.36647606,2.27994754,-3.23469015,,,
imu,64.610676,-0.212344244,-9.803126239200001,1.7777101216,0.23189168,2.3995781,-3.35432071,,,
imu,64.619142,-0.2015774936,-9.7923594888,1.7591673848,0.03749201999999999,2.12293243,-3.66087402,,,
imu,64.627608,-0.2087553272,-9.7504887928,1.7430172592,-0.23167674,1.80890221,-4.057150249999999,,,
imu,64.636074,-0.215335008,-9.748096181600001,1.7310542032,-0.17933837,1.61450255,-4.04967334,,,
imu,64.64454,-0.218325772,-9.766638918400002,1.7298578976,-0.11952309,1.32290306,-4.00481188,,,
imu,64.653006,-0.2865151912,-9.803126239200001,1.773523052,-0.127,1.30047233,-3.93751969,,,
imu,64.661472,-0.2536167872,-9.7989391696,1.7567747736,-0.55318387,1.51730272,-3.48142818,,,
imu,64.669938,-0.2787392048,-9.743909112,1.782495344,-0.85973718,1.65936401,-2.8982292,,,
imu,64.678404,-0.2015774936,-9.7283571392,1.7412228008,-1.07656757,1.81637912,-2.6739219,,,
imu,64.68687,-0.2972819416,-9.7492924872,1.8201789704,-1.08404448,1.74161002,-2.80102937,,,
imu,64.695336,-0.200381188,-9.7295534448,1.725670828,-1.18124431,1.93600968,-2.38232241,,,
imu,64.703803,-0.2165313136,-9.676317845600002,1.7693359824,-1.39059779,1.96591732,-2.0757691,,,
imu,64.712269,-0.2111479384,-9.690673512800002,1.773523052,-1.18124431,1.74161002,-2.23278421,,,
imu,64.720735,-0.23926112,-9.697851346400002,1.7621581488,-1.13638285,1.6518871,-2.63653735,,,
imu,64.729201,-0.2536167872,-9.652989886400002,1.7543821624,-0.93450628,1.577118,-2.748691,,,
imu,64.737667,-0.2500278704,-9.619493329600001,1.7860842608,-0.5681376899999999,1.6518871,-2.77112173,,,
imu,64.746133,-0.2398592728,-9.638036066400002,1.7830934968,-0.23915365,1.85376367,-2.95804448,,,
imu,64.754599,-0.2554112456,-9.676915998400002,1.8016362336,0.30666078,1.89862513,-2.90570611,,,
imu,64.763065,-0.2637853848,-9.664952942400001,1.8070196088,0.6132140899999999,1.86124058,-2.83841392,,,
imu,64.771531,-0.2524204816,-9.669140012000002,1.8040288448,0.8823828499999999,1.82385603,-2.84589083,,,
imu,64.779997,-0.2530186344000001,-9.675121540000001,1.8147955952,1.24127453,2.15284007,-2.76364482,,,
imu,64.788456,-0.2554112456,-9.7265626808,1.803430692,1.31604363,2.13040934,-2.71878336,,,
imu,64.796914,-0.2506260232,-9.7492924872,1.8052251504,1.48053565,2.0257326,-3.02533667,,,
imu,64.805373,-0.2338777448,-9.727160833600001,1.800439928,1.55530475,2.15284007,-3.20478251,,,
imu,64.813831,-0.2350740504,-9.737329431200001,1.8070196088,1.69736604,2.2500399,-3.39170526,,,
imu,64.82229,-0.2326814392,-9.706225485600001,1.7848879552,1.72727368,2.38462428,-3.24216706,,,
imu,64.830748,-0.2159331608,-9.6942624296,1.7699341352,1.67493531,2.41453192,-3.30198234,,,
imu,64.839206,-0.1752587704,-9.702038416,1.7818971912,1.83942733,2.35471664,-3.53376655,,,
imu,64.847665,-0.1692772424,-9.700243957600001,1.7998417752,1.86933497,2.19022462,-3.84031986,,,
imu,64.856123,-0.167482784,-9.680504915200002,1.8118048312,1.94410407,2.14536316,-3.85527368,,,
imu,64.864582,-0.1579123392,-9.7331423616,1.7663452184,2.24318047,2.06311715,-3.97490424,,,
imu,64.87304,-0.1710717008,-9.754675862400001,1.7741212048,2.35533412,1.8014253,-4.20668845,,,
imu,64.881499,-0.1591086448,-9.786976113600002,1.7723267464,2.25813429,1.75656384,-4.41604193,,,
imu,64.889957,-0.146547436,-9.8198745176,1.791467636,2.28056502,1.63693328,-4.5431494,,,
imu,64.898416,-0.1561178808,-9.818678212000002,1.7633544544,1.86185806,1.38271834,-4.65530305,,,
imu,64.906874,-0.230288828,-9.7056273328,1.803430692,1.4431511,1.06121121,-5.05157928,,,
imu,64.915333,-0.19439966,-9.6733270816,1.8028325392,1.48801256,1.03130357,-5.34317877,,,
imu,64.923791,-0.1812402984,-9.7786019744,1.7944584,1.65250458,1.13598031,-5.761885729999999,,,
imu,64.932249,-0.2290925224000001,-9.844996935200001,1.782495344,1.54035093,0.9191499199999997,-6.068439039999999,,,
imu,64.940708,-0.1650901728,-9.867726741600002,1.8656385832,1.25622835,0.6574580699999997,-6.113300499999999,,,
imu,64.949166,-0.2560093984,-9.800733628000001,1.7681396768,0.8524752099999999,0.6350273399999997,-5.86656247,,,
imu,64.957625,-0.2715613712,-9.639232372,1.7890750248,0.94219813,0.70231953,-5.46280933,,,
imu,64.966083,-0.3774344168000001,-9.721179305600002,1.8201789704,1.12912088,0.7995193599999997,-4.81231816,,,
imu,64.974542,-0.3870048616000001,-9.787574266400002,1.7663452184,1.33099745,0.9714882899999999,-4.02724261,,,
imu,64.983,-0.2805336632,-9.763050001600002,1.7489987872,1.21136689,1.40514907,-3.81788913,,,
imu,64.991808,-0.2278962168,-9.766040765600001,1.7860842608,1.2936129,1.6518871,-3.51881273,,,
imu,65.000637,-0.287113344,-9.723571916800001,1.7418209536,1.24875144,1.61450255,-3.10010577,,,
imu,65.009466,-0.2990764,-9.655382497600002,1.707726244,1.31604363,1.65936401,-3.35432071,,,
imu,65.018295,-0.2649816904,-9.635045302400002,1.743615412,1.48801256,1.9509635,-3.60105874,,,
imu,65.027124,-0.2320832864,-9.719983000000001,1.7155022304,1.9665348,2.09302479,-3.46647436,,,
imu,65.035952,-0.2434481896,-9.6918698184,1.6975576464,2.0413039,2.06311715,-3.84779677,,,
imu,65.044781,-0.2781410520000001,-9.665551095200001,1.7172966888,2.05625772,2.12293243,-4.02724261,,,
imu,65.05361,-0.2566075512,-9.671532623200001,1.725670828,2.31047266,2.27247063,-3.9449966,,,
imu,65.062439,-0.2177276192,-9.699645804800001,1.7418209536,2.4899185,2.36967046,-3.85527368,,,
imu,65.071268,-0.2177276192,-9.716992236000001,1.7155022304,2.54225687,2.1005017,-3.90761205,,,
imu,65.080097,-0.2237091472,-9.746899876,1.722680064,2.70674889,1.85376367,-3.95995042,,,
imu,65.088926,-0.1650901728,-9.8479876992,1.7531858568,2.60207215,1.68179474,-4.012288789999999,,,
imu,65.097754,-0.2530186344000001,-9.682299373600001,1.7202874528,2.4151494,1.5023489,-4.244073,,,
imu,65.106583,-0.2320832864,-9.7780038216,1.7394283424,2.36281103,1.24065705,-4.32631901,,,
imu,65.115412,-0.2027737992,-9.832435726400002,1.7244745224,2.10859609,1.00139593,-3.90761205,,,
imu,65.124241,-0.221316536,-9.810902225600001,1.7202874528,2.00391935,0.8742884599999998,-3.75059694,,,
imu,63.654847,,,,,,,82.96012040000001,-23.1876068,120.5644256
imu,63.756348,,,,,,,85.8898484,-24.28625480000002,117.4271752
imu,63.85785,,,,,,,83.64372360000002,-23.34630040000001,119.5634352
imu,63.959412,,,,,,,85.7189476,-24.09093960000002,116.9999232
imu,64.060944,,,,,,,82.96012040000001,-22.9922916,120.3935248
imu,64.162507,,,,,,,83.36295799999999,-23.43175080000002,120.0151016
imu,64.265198,,,,,,,83.6803452,-23.50499400000001,119.123976
imu,64.365693,,,,,,,83.93669640000002,-23.26085000000002,120.405732
imu,65.13307,-0.251224176,-9.770825988000002,1.740624648,1.78708896,0.7172733499999997,-3.90761205,,,
imu,65.141899,-0.2578038568000001,-9.746301723200002,1.7454098704,1.75718132,0.7397040799999997,-3.72816621,,,
imu,65.150728,-0.2584020096,-9.760059237600002,1.752587704,1.82447351,0.52287369,-3.78798149,,,
imu,65.159557,-0.2655798432,-9.801929933600002,1.7412228008,1.65998149,0.3733354899999997,-4.012288789999999,,,
imu,65.168385,-0.2548130928,-9.832435726400002,1.7448117176,1.53287402,0.1864127399999997,-4.04967334,,,
imu,65.177214,-0.248233412,-9.800733628000001,1.7543821624,1.2936129,-0.007986920000000008,-4.04219643,,,
imu,65.186043,-0.2733558296,-9.745703570400002,1.7543821624,1.12164397,0.02192071999999978,-4.169303899999999,,,
imu,65.194513,-0.3289840400000001,-9.755274015200001,1.7011465632,1.13659779,0.04435144999999974,-4.25154991,,,
imu,65.202983,-0.3313766512,-9.714599624800002,1.7448117176,1.15155161,0.29856639,-4.079580979999999,,,
imu,65.211453,-0.3283858872000001,-9.714599624800002,1.7412228008,1.06182869,0.4630584099999999,-3.52628964,,,
imu,65.219923,-0.3116376088,-9.765442612800001,1.7352412728,1.10669015,0.7696117199999999,-3.25712088,,,
imu,65.228393,-0.3373581792000001,-9.788770572,1.707726244,1.23379762,0.98644211,-3.46647436,,,
imu,65.236863,-0.2847207328,-9.745105417600001,1.752587704,1.20388998,1.11354958,-3.58610492,,,
imu,65.245332,-0.3074505392,-9.730749750400001,1.7262689808,1.26370526,0.9789651999999998,-3.40665908,,,
imu,65.253802,-0.2966837888,-9.722375611200002,1.7041373272,1.41324346,1.14345722,-3.21225942,,,
imu,65.262272,-0.2990764,-9.710412555200001,1.7089225496,1.65250458,1.33785688,-3.26459779,,,
imu,65.270742,-0.3104413032000001,-9.701440263200002,1.6802112152,1.86933497,1.50982581,-3.36179762,,,
imu,65.279212,-0.2835244272,-9.684093832000002,1.6945668824,2.22074974,1.70422547,-3.3468438,,,
imu,65.287682,-0.260196468,-9.719983000000001,1.6784167568,2.44505704,1.82385603,-3.7206893,,,
imu,65.296152,-0.2757484408,-9.761853696000001,1.6736315344,2.57964142,1.71170238,-4.057150249999999,,,
imu,65.304622,-0.2643835376,-9.768433376800001,1.6616684784,2.57964142,1.7266562,-4.04219643,,,
imu,65.313092,-0.2673743016,-9.769629682400002,1.6730333816,2.43010322,1.6518871,-4.15435008,,,
imu,65.321562,-0.2918985664000001,-9.7959484056,1.6802112152,2.44505704,1.65936401,-4.057150249999999,,,
imu,65.330031,-0.2763465936,-9.803126239200001,1.671837076,2.2656112,1.88367131,-3.95247351,,,
imu,65.338501,-0.2697669128,-9.8061170032,1.6646592424,2.13102682,2.16031698,-3.55619728,,,
imu,65.346971,-0.2470371064,-9.809107767200002,1.662864784,1.63755076,2.16779389,-3.45899745,,,
imu,65.355441,-0.2284943696,-9.796546558400001,1.6622666312,1.45062801,2.19770153,-3.56367419,,,
imu,65.363911,-0.2159331608,-9.790565030400002,1.656883256,1.30856672,2.13788625,-3.66835093,,,
imu,65.372381,-0.212344244,-9.788770572,1.647910964,1.13659779,1.9509635,-4.057150249999999,,,
imu,65.380851,-0.206362716,-9.7995373224,1.6401349776,1.20388998,1.85376367,-4.28893446,,,
imu,65.389321,-0.2075590216,-9.7570684736,1.6323589912,1.25622835,1.68927165,-4.408565019999999,,,
imu,65.397786,-0.2159331608,-9.742114653600002,1.62996638,1.33099745,1.40514907,-4.625395409999999,,,
imu,65.40625,-0.2255036056,-9.7576666264,1.6221903936,1.35342818,1.34533379,-4.61044159,,,
imu,65.414715,-0.2584020096,-9.767237071200002,1.6407331304,1.49548947,1.19579559,-4.55062631,,,
imu,65.42318,-0.215335008,-9.8982325344,1.7280634392,1.48801256,1.18831868,-4.32631901,,,
imu,65.431645,-0.2548130928,-9.850978463200002,1.6592758672,1.12912088,1.21822632,-4.19173463,,,
imu,65.44011,-0.2673743016,-9.838417254400001,1.6849964376,0.55339881,1.01634975,-4.55810322,,,
imu,65.448574,-0.251224176,-9.791761336000002,1.6885853544,0.19450713,0.9191499199999997,-4.58053395,,,
imu,65.457039,-0.2595983152,-9.803724392000001,1.6694444648,-0.20924601,0.94905756,-4.53567249,,,
imu,65.465504,-0.2781410520000001,-9.717590388800001,1.6514998808,-0.35878421,0.9041961000000001,-4.3936112,,,
imu,65.473969,-0.3044597752,-9.6458120528,1.6520980336,-0.44850713,0.9415806499999997,-4.30388828,,,
imu,65.482434,-0.31403022,-9.639232372,1.6550887976,-0.11204618,1.0537343,-4.30388828,,,
imu,65.490898,-0.3224043592,-9.661962178400001,1.6473128112,0.42629134,1.18831868,-4.0945348,,,
imu,65.499363,-0.3014690112,-9.716992236000001,1.6526961864,0.73284465,1.24813396,-4.034719519999999,,,
imu,65.507828,-0.2984782472,-9.7361331256,1.6724352288,1.03192105,1.24065705,-4.02724261,,,
imu,65.516293,-0.2930948720000001,-9.779798280000001,1.683800132,1.18145925,1.21822632,-4.057150249999999,,,
imu,65.524758,-0.3152265256,-9.800733628000001,1.6855945904,1.18893616,1.41262598,-3.89265823,,,
imu,65.533223,-0.3128339144,-9.786976113600002,1.6903798128,1.08425942,1.45001053,-3.85527368,,,
imu,65.541687,-0.3122357616,-9.7911631832,1.7035391744,0.9048135799999999,1.62197946,-4.13191935,,,
imu,65.550152,-0.2930948720000001,-9.789966877600001,1.7262689808,0.76275229,1.64441019,-4.26650373,,,
imu,65.558617,-0.2924967192,-9.768433376800001,1.7352412728,0.46367589,1.55468727,-4.430995749999999,,,
imu,65.567082,-0.3433397072,-9.699645804800001,1.7131096192,0.2468455,1.30047233,-4.7674567,,,
imu,65.575547,-0.2763465936,-9.875502728,1.7310542032,0.3216146,1.21822632,-5.0665331,,,
imu,65.584011,-0.3062542336,-9.837220948800002,1.6873890488,0.14964567,1.03130357,-4.81979507,,,
imu,65.592476,-0.3517138464,-9.7492924872,1.7202874528,-0.14195382,0.86681155,-4.77493361,,,
imu,65.600989,-0.3905937784,-9.689477207200001,1.7029410216,-0.01484635000000001,0.84438082,-4.4683803,,,
imu,65.609503,-0.3594898328000001,-9.776209363200001,1.7095207024,0.29170696,0.9789651999999998,-3.8702275,,,
imu,65.618016,-0.3427415544,-9.7576666264,1.7011465632,0.3963837,1.40514907,-3.08515195,,,
imu,65.626529,-0.361882444,-9.7331423616,1.6963613408,0.56835263,1.37524143,-2.71878336,,,
imu,65.635042,-0.3421434016,-9.748694334400001,1.6802112152,0.64312173,1.58459491,-2.32250713,,,
imu,65.643555,-0.3194135952000001,-9.7504887928,1.65987402,0.8375213899999999,1.64441019,-2.20287657,,,
imu,65.652068,-0.305057928,-9.7403201952,1.6556869504,1.15155161,1.63693328,-2.57672207,,,
imu,65.660581,-0.3086468448,-9.745105417600001,1.6712389232,1.24875144,1.53225654,-3.05524431,,,
imu,65.669094,-0.3020671640000001,-9.745105417600001,1.665855548,1.16650543,1.3528107,-3.36179762,,,
imu,65.677608,-0.3295821928000001,-9.749890640000002,1.6652573952,1.03939796,1.32290306,-3.69825857,,,
imu,65.686121,-0.3535083048,-9.735534972800002,1.6503035752,0.91229049,1.6518871,-3.59358183,,,
imu,65.694634,-0.3630787496,-9.719983000000001,1.6616684784,0.80761375,1.85376367,-3.59358183,,,
imu,65.703147,-0.3469286240000001,-9.708019944000002,1.6724352288,0.7702292,2.04068642,-3.54124346,,,
imu,65.71166,-0.3295821928000001,-9.719983000000001,1.6664537008,0.65807555,2.18274771,-3.33936689,,,
imu,65.720173,-0.2954874832,-9.749890640000002,1.6736315344,0.68798319,2.2500399,-3.32441307,,,
imu,65.728686,-0.2769447464000001,-9.749890640000002,1.6796130624,0.6954601,2.42948574,-3.27955161,,,
imu,65.737199,-0.2853188856,-9.751685098400001,1.6873890488,0.73284465,2.39210119,-3.48142818,,,
imu,65.745713,-0.2817299688000001,-9.7474980288,1.680809368,0.67302937,2.30985518,-3.54124346,,,
imu,65.754226,-0.2775428992,-9.767237071200002,1.7041373272,0.52349117,2.37714737,-3.36927453,,,
imu,65.762739,-0.2673743016,-9.783985349600002,1.6969594936,0.3739529699999999,2.42200883,-3.1973056,,,
imu,65.771252,-0.2673743016,-9.767237071200002,1.680809368,0.29170696,2.43696265,-3.10010577,,,
imu,65.779765,-0.266177996,-9.764246307200002,1.7071280912,0.31413769,2.49677793,-3.10010577,,,
imu,65.788278,-0.248233412,-9.7845835024,1.710717008,0.35152224,2.54163939,-3.06272122,,,
imu,65.796791,-0.2320832864,-9.7815927384,1.713707772,0.29170696,2.26499372,-3.24964397,,,
imu,65.805204,-0.2404574256,-9.800733628000001,1.7454098704,0.19450713,2.12293243,-3.4216129,,,
imu,65.813617,-0.2374666616,-9.8043225448,1.7507932456,0.03749201999999999,1.92853277,-3.77302767,,,
imu,65.822029,-0.2261017584,-9.760059237600002,1.737633884,-0.14195382,1.81637912,-3.90013514,,,
imu,65.830442,-0.2530186344000001,-9.725964528,1.7280634392,-0.09709236,1.61450255,-4.012288789999999,,,
imu,65.838855,-0.2769447464000001,-9.745703570400002,1.7304560504,0.03749201999999999,1.62945637,-3.7206893,,,
imu,65.847267,-0.266177996,-9.730749750400001,1.7220819112,0.26927623,1.71917929,-3.30945925,,,
imu,65.85568,-0.2607946208,-9.706823638400001,1.7364375784,0.4711528,1.68179474,-3.15244414,,,
imu,65.864093,-0.2506260232,-9.714599624800002,1.7424191064,0.6132140899999999,1.62197946,-3.08515195,,,
imu,65.872506,-0.2446444952,-9.764246307200002,1.7340449672,0.8749059399999999,1.51730272,-3.15992105,,,
imu,65.880918,-0.2356722032,-9.7809945856,1.7340449672,0.9646288599999999,1.36028761,-3.18235178,,,
imu,65.889331,-0.2554112456,-9.7534795568,1.7418209536,0.94219813,1.58459491,-3.30945925,,,
imu,65.897744,-0.2727576768,-9.724768222400002,1.7113151608,0.7702292,1.74161002,-3.21225942,,,
imu,65.906156,-0.2787392048,-9.720581152800001,1.6999502576,0.620691,1.75656384,-3.30198234,,,
imu,65.914569,-0.2799355104,-9.700243957600001,1.710717008,0.56087572,1.98834805,-3.31693616,,,
imu,65.922982,-0.2590001624000001,-9.678112304,1.70473548,0.6954601,2.19022462,-3.21973633,,,
imu,65.931394,-0.2548130928,-9.714001472000001,1.6975576464,0.9945364999999999,2.36219355,-3.15992105,,,
imu,65.939807,-0.2356722032,-9.718786694400002,1.6766222984,1.09173633,2.51920866,-3.23469015,,,
imu,64.467225,,,,,,,83.48503000000001,-23.02891320000002,118.8432104
imu,64.568818,,,,,,,85.04755159999999,-22.51621080000001,119.5390208
imu,64.67038,,,,,,,83.70475960000002,-23.39512920000002,120.222624
imu,64.771973,,,,,,,86.1461996,-24.31066920000002,116.9144728
imu,64.873597,,,,,,,83.42399400000001,-22.98008440000001,120.0761376
imu,64.975007,,,,,,,85.93867719999999,-24.55481320000001,117.0975808
imu,65.076752,,,,,,,83.6193092,-23.21202120000001,120.4545608
imu,65.178193,,,,,,,83.48503000000001,-23.78575960000002,120.4545608
imu,65.94822,-0.2159331608,-9.708019944000002,1.6921742712,1.11416706,2.45939338,-3.17487487,,,
imu,65.956632,-0.1961941184,-9.723571916800001,1.710717008,1.17398234,2.43696265,-3.37675144,,,
imu,65.965045,-0.1830347568,-9.7534795568,1.6999502576,1.33847436,2.30237827,-3.53376655,,,
imu,65.973458,-0.1818384512,-9.783985349600002,1.713707772,1.48053565,2.26499372,-3.81788913,,,
imu,65.98187,-0.200381188,-9.8013317808,1.7131096192,1.368382,1.96591732,-4.146873169999999,,,
imu,65.990283,-0.2105497856,-9.807313308800001,1.7184929944,1.2936129,1.88367131,-4.22911918,,,
imu,65.998696,-0.227298064,-9.828248656800001,1.7095207024,0.9945364999999999,1.89114822,-4.169303899999999,,,
imu,66.007517,-0.2296906752000001,-9.818678212000002,1.707726244,0.74779847,1.81637912,-4.034719519999999,,,
imu,66.016338,-0.2243073,-9.801929933600002,1.7083243968,0.620691,1.63693328,-4.07210407,,,
imu,66.025158,-0.2404574256,-9.783387196800001,1.6909779656,0.52349117,1.55468727,-4.19173463,,,
imu,66.033979,-0.2219146888,-9.769031529600001,1.6915761184,0.51601426,1.43505671,-4.22911918,,,
imu,66.0428,-0.2290925224000001,-9.792957641600001,1.6903798128,0.7104139199999999,1.51730272,-4.10948862,,,
imu,66.051621,-0.2625890792,-9.724768222400002,1.6885853544,0.43376825,1.48739508,-4.10948862,,,
imu,66.060442,-0.2739539824000001,-9.708019944000002,1.7202874528,0.43376825,1.5023489,-4.08705789,,,
imu,66.069263,-0.2655798432,-9.736731278400002,1.7023428688,0.6281679099999999,1.51730272,-3.98985806,,,
imu,66.078084,-0.2895059552,-9.738525736800002,1.6909779656,0.7253677399999999,1.50982581,-4.11696553,,,
imu,66.08679,-0.3044597752,-9.724170069600001,1.7125114664,0.6281679099999999,1.6518871,-4.146873169999999,,,
imu,66.095611,-0.28412258,-9.725964528,1.7125114664,0.53096808,1.85376367,-4.13939626,,,
imu,66.104432,-0.2805336632,-9.744507264800001,1.7244745224,0.80761375,1.96591732,-4.13939626,,,
imu,66.113253,-0.2972819416,-9.7504887928,1.7149040776,0.81509066,1.88367131,-4.29641137,,,
imu,66.122074,-0.3002727056,-9.755274015200001,1.7262689808,0.80761375,1.89862513,-4.31136519,,,
imu,66.130895,-0.2918985664000001,-9.7540777096,1.7053336328,0.65807555,1.96591732,-4.21416536,,,
imu,66.139716,-0.2799355104,-9.748694334400001,1.6975576464,0.7403215599999999,2.08554788,-4.124442439999999,,,
imu,66.148537,-0.281131816,-9.727160833600001,1.6873890488,0.74779847,2.01825569,-4.102011709999999,,,
imu,66.157358,-0.2787392048,-9.7504887928,1.7161003832,0.77770611,1.98834805,-4.11696553,,,
imu,66.166179,-0.2554112456,-9.7540777096,1.725670828,0.97210577,1.77151766,-4.19921154,,,
imu,66.175,-0.2667761488000001,-9.716992236000001,1.7262689808,0.97958268,1.51730272,-4.42351884,,,
imu,66.18382,-0.2984782472,-9.714599624800002,1.7202874528,0.9197674,1.16588795,-4.737549059999999,,,
imu,66.192641,-0.2954874832,-9.817481906400001,1.716698536,0.8449983,1.01634975,-5.15625602,,,
imu,66.201462,-0.3547046104000001,-9.8049206976,1.7304560504,0.6954601,0.7770886299999997,-4.9169949,,,
imu,66.209953,-0.370854736,-9.833632032,1.7310542032,0.55339881,0.8593346399999997,-4.56558013,,,
imu,66.218443,-0.3666676664,-9.800733628000001,1.7071280912,0.31413769,1.06868812,-4.10948862,,,
imu,66.226933,-0.3744436528,-9.7504887928,1.6885853544,0.34404533,1.46496435,-3.43656672,,,
imu,66.235423,-0.35889168,-9.745703570400002,1.6963613408,0.30666078,1.64441019,-3.17487487,,,
imu,66.243914,-0.3481249296000001,-9.7361331256,1.6915761184,0.5459219,1.90610204,-2.80102937,,,
imu,66.252404,-0.3247969704000001,-9.7492924872,1.6975576464,0.7253677399999999,2.01077878,-2.71130645,,,
imu,66.260894,-0.3116376088,-9.755872168000002,1.6993521048,1.00201341,2.01077878,-2.84589083,,,
imu,66.269384,-0.305057928,-9.7815927384,1.6676500064,0.97210577,2.20517844,-3.20478251,,,
imu,66.277874,-0.281131816,-9.785181655200002,1.6754259928,0.8449983,2.22760917,-3.53376655,,,
imu,66.286365,-0.2757484408,-9.780396432800002,1.686790896,0.88985976,2.35471664,-3.63844329,,,
imu,66.294855,-0.272159524,-9.7780038216,1.6921742712,0.68050628,2.33228591,-3.81788913,,,
imu,66.303345,-0.2625890792,-9.769629682400002,1.6909779656,0.53844499,2.36967046,-3.99733497,,,
imu,66.311835,-0.2649816904,-9.755872168000002,1.6879872016,0.3963837,2.22760917,-4.10948862,,,
imu,66.320326,-0.2853188856,-9.743909112,1.68978166,0.29170696,2.13040934,-4.0197657,,,
imu,66.328816,-0.296085636,-9.7283571392,1.6993521048,-0.01484635000000001,1.89862513,-4.04967334,,,
imu,66.337306,-0.2924967192,-9.7217774584,1.7143059248,-0.08213854000000001,1.89862513,-3.69825857,,,
imu,66.345796,-0.275150288,-9.7331423616,1.7143059248,-0.14195382,2.01825569,-3.4216129,,,
imu,66.354287,-0.2703650656,-9.751685098400001,1.7430172592,-0.23167674,2.1005017,-3.3468438,,,
imu,66.362777,-0.2506260232,-9.749890640000002,1.743615412,-0.26158438,1.86871749,-3.56367419,,,
imu,66.371267,-0.2476352592,-9.7510869456,1.7442135648,-0.25410747,1.62197946,-3.78798149,,,
imu,66.379757,-0.2763465936,-9.7325442088,1.7232782168,-0.20924601,1.577118,-3.97490424,,,
imu,66.388248,-0.3044597752,-9.6912716656,1.7430172592,-0.13447691,1.59954873,-3.91508896,,,
imu,66.396738,-0.2757484408,-9.6745233872,1.7484006344,0.05992275,1.71170238,-3.69078166,,,
imu,66.405228,-0.2691687600000001,-9.702636568800001,1.7597655376,0.32909151,1.86124058,-3.57862801,,,
imu,66.413675,-0.2679724544000001,-9.7576666264,1.7519895512,0.53096808,1.9509635,-3.59358183,,,
imu,66.422122,-0.281131816,-9.794752100000002,1.758569232,0.6132140899999999,1.88367131,-3.58610492,,,
imu,66.430569,-0.2703650656,-9.790565030400002,1.7681396768,0.58330645,1.91357895,-3.69825857,,,
imu,66.439016,-0.2865151912,-9.76484446,1.7519895512,0.64312173,1.85376367,-3.93004278,,,
imu,66.447463,-0.3002727056,-9.752881404000002,1.7484006344,0.68050628,1.6518871,-4.04967334,,,
imu,66.45591,-0.3044597752,-9.789966877600001,1.7424191064,0.70293701,1.73413311,-4.13191935,,,
imu,66.464357,-0.3122357616,-9.806715156000001,1.7489987872,0.7104139199999999,1.98087114,-3.74312003,,,
imu,66.472804,-0.3002727056,-9.800733628000001,1.7489987872,0.53096808,2.09302479,-3.61601256,,,
imu,66.481251,-0.3002727056,-9.759461084800002,1.7394283424,0.4711528,2.27247063,-3.24964397,,,
imu,66.489698,-0.2637853848,-9.767237071200002,1.73464312,0.53096808,2.34723973,-3.21225942,,,
imu,66.498145,-0.2189239248,-9.767835224,1.737633884,0.30666078,2.30237827,-3.47395127,,,
imu,66.506592,-0.2440463424,-9.734936820000001,1.7322505088,0.30666078,2.08554788,-3.90013514,,,
imu,66.515039,-0.275150288,-9.709814402400001,1.7238763696,0.29918387,1.96591732,-4.04967334,,,
imu,66.523486,-0.2877114968,-9.724170069600001,1.7262689808,0.45619898,1.91357895,-4.012288789999999,,,
imu,66.531933,-0.2733558296,-9.746899876,1.7328486616,0.33656842,2.0257326,-3.87770441,,,
imu,66.54038,-0.2787392048,-9.7570684736,1.7489987872,0.41133752,2.18274771,-3.78050458,,,
imu,66.548827,-0.281131816,-9.7534795568,1.7244745224,0.27675314,2.18274771,-3.68330475,,,
imu,66.557274,-0.251224176,-9.746301723200002,1.7448117176,0.33656842,2.2500399,-3.68330475,,,
imu,66.565721,-0.23926112,-9.7534795568,1.7489987872,0.35152224,2.07807097,-3.82536604,,,
imu,66.574168,-0.248233412,-9.7403201952,1.73464312,0.2468455,1.95844041,-4.102011709999999,,,
imu,66.582615,-0.2691687600000001,-9.718188541600002,1.713707772,0.21693786,1.90610204,-3.99733497,,,
imu,66.591062,-0.290104108,-9.697851346400002,1.7382320368,0.15712258,1.88367131,-3.9449966,,,
imu,66.599509,-0.2667761488000001,-9.7403201952,1.767541524,0.26927623,1.93600968,-3.98238115,,,
imu,66.607956,-0.2685706072,-9.8210708232,1.7513913984,0.4861066199999999,1.89862513,-3.8702275,,,
imu,66.616425,-0.2727576768,-9.7821908912,1.7460080232,0.33656842,1.90610204,-3.88518132,,,
imu,66.624894,-0.2769447464000001,-9.748694334400001,1.773523052,0.27675314,1.99582496,-4.012288789999999,,,
imu,66.633362,-0.2691687600000001,-9.7325442088,1.7609618432,0.18703022,1.97339423,-4.00481188,,,
imu,66.641831,-0.2566075512,-9.714599624800002,1.761559996,0.29170696,1.83880985,-4.146873169999999,,,
imu,66.6503,-0.2739539824000001,-9.7151977776,1.7651489128,0.41881443,1.79394839,-4.34874974,,,
imu,66.658768,-0.287113344,-9.6912716656,1.7711304408,0.620691,1.67431783,-4.28893446,,,
imu,66.667237,-0.2781410520000001,-9.719983000000001,1.7747193576,0.65059864,1.56216418,-4.21416536,,,
imu,66.675705,-0.3038616224,-9.7636481544,1.7687378296,0.8449983,1.65936401,-4.16182699,,,
imu,66.684174,-0.3122357616,-9.7786019744,1.74959694,0.8674290299999999,1.86124058,-4.08705789,,,
imu,66.692643,-0.2990764,-9.785779808000001,1.7681396768,0.8823828499999999,1.8761944,-4.13191935,,,
imu,66.701111,-0.2895059552,-9.7331423616,1.7519895512,0.8449983,1.82385603,-4.079580979999999,,,
imu,66.70958,-0.2763465936,-9.7193848472,1.7448117176,0.9048135799999999,1.75656384,-4.19921154,,,
imu,66.718049,-0.2781410520000001,-9.742114653600002,1.76455076,0.9646288599999999,1.55468727,-4.30388828,,,
imu,66.726517,-0.2859170384,-9.76484446,1.76455076,1.02444414,1.48739508,-4.22911918,,,
imu,66.734986,-0.2859170384,-9.7702278352,1.755578468,1.11416706,1.47991817,-4.15435008,,,
imu,66.743454,-0.3152265256,-9.7337405144,1.7717285936,0.7552753799999999,1.2032725,-4.07210407,,,
imu,66.751923,-0.323002512,-9.714001472000001,1.7848879552,0.64312173,1.28551851,-3.85527368,,,
imu,66.760392,-0.3092449976000001,-9.743310959200002,1.7747193576,0.7702292,1.45001053,-3.76555076,,,
imu,65.279634,,,,,,,82.88687720000001,-23.67589480000001,120.2592456
imu,65.381166,,,,,,,83.3995796,-23.28526440000001,120.9916776
imu,65.482728,,,,,,,83.08219240000001,-23.44395800000001,120.6376688
imu,65.584291,,,,,,,82.8990844,-23.40733640000001,119.9662728
imu,65.685853,,,,,,,83.5704804,-22.78476920000001,120.0761376
imu,65.787477,,,,,,,83.48503000000001,-23.35850760000002,120.0883448
imu,65.889009,,,,,,,85.87764120000001,-23.68810200000002,117.5614544
imu,65.990571,,,,,,,83.13102119999999,-23.07774200000001,120.7231192
imu,66.76886,-0.2972819416,-9.749890640000002,1.7639526072,0.71789083,1.39767216,-3.84779677,,,
imu,66.777329,-0.2895059552,-9.7056273328,1.7866824136,0.5010604399999999,1.14345722,-4.19173463,,,
imu,66.785798,-0.3295821928000001,-9.716992236000001,1.8046269976,0.6132140899999999,1.12102649,-4.50576485,,,
imu,66.794266,-0.34393786,-9.756470320800002,1.8016362336,0.65059864,1.24065705,-4.408565019999999,,,
imu,66.802735,-0.3325729568,-9.779200127200001,1.7866824136,0.7702292,1.24813396,-4.17678081,,,
imu,66.811203,-0.3427415544,-9.758264779200001,1.77950458,0.7104139199999999,1.36776452,-3.98238115,,,
imu,66.819672,-0.3469286240000001,-9.718188541600002,1.770532288,0.63564482,1.54721036,-3.75059694,,,
imu,66.828141,-0.3391526376000001,-9.684093832000002,1.7430172592,0.76275229,1.92853277,-3.58610492,,,
imu,66.836609,-0.305057928,-9.688879054400001,1.7412228008,1.09921324,1.92105586,-3.30945925,,,
imu,66.845078,-0.290104108,-9.6709344704,1.7310542032,1.60016621,1.98087114,-3.23469015,,,
imu,66.853547,-0.2590001624000001,-9.752881404000002,1.7382320368,1.95158098,2.00330187,-3.496382,,,
imu,66.862015,-0.260196468,-9.745105417600001,1.716698536,2.16093446,1.76404075,-3.60105874,,,
imu,66.870484,-0.275150288,-9.767835224,1.7196893,2.37028794,1.56216418,-3.88518132,,,
imu,66.878953,-0.2835244272,-9.786976113600002,1.7214837584,2.16841137,1.33785688,-4.04219643,,,
imu,66.887421,-0.2769447464000001,-9.766638918400002,1.7292597448,2.02635008,1.36028761,-4.00481188,,,
imu,66.89589,-0.281131816,-9.7636481544,1.7268671336,1.72727368,1.36028761,-4.034719519999999,,,
imu,66.904358,-0.2649816904,-9.765442612800001,1.7071280912,1.43567419,1.33037997,-3.9449966,,,
imu,66.912827,-0.2769447464000001,-9.752881404000002,1.6933705768,1.08425942,1.1285034,-4.11696553,,,
imu,66.921296,-0.2918985664000001,-9.754675862400001,1.7041373272,1.00201341,1.00887284,-4.146873169999999,,,
imu,66.929764,-0.2990764,-9.755274015200001,1.7149040776,0.9945364999999999,1.00139593,-4.034719519999999,,,
imu,66.938233,-0.3056560808,-9.7612555432,1.7262689808,0.8973366700000001,1.00139593,-3.89265823,,,
imu,66.946702,-0.3224043592,-9.782789044000001,1.7244745224,0.8674290299999999,1.00139593,-3.69825857,,,
imu,66.95517,-0.3176191368,-9.787574266400002,1.7370357312,0.5010604399999999,1.07616503,-3.68330475,,,
imu,66.963639,-0.3152265256,-9.762451848800001,1.7501950928,0.31413769,1.25561087,-3.60105874,,,
imu,66.972107,-0.3271895816000001,-9.776807516000002,1.7352412728,0.21693786,1.16588795,-3.80293531,,,
imu,66.980576,-0.3289840400000001,-9.770825988000002,1.722680064,0.05244583999999999,1.17336486,-3.9449966,,,
imu,66.989045,-0.3301803456000001,-9.711608860800002,1.7310542032,0.11226112,1.27056469,-3.78798149,,,
imu,66.997513,-0.3277877344,-9.685888290400001,1.7543821624,0.3963837,1.47991817,-3.8702275,,,
imu,67.005982,-0.3367600264,-9.7427128064,1.7430172592,0.66555246,1.37524143,-4.19173463,,,
imu,67.014451,-0.3206099008000001,-9.794153947200002,1.7501950928,0.85995212,1.46496435,-4.22164227,,,
imu,67.023265,-0.3170209840000001,-9.803126239200001,1.7711304408,0.81509066,1.60702564,-4.15435008,,,
imu,67.032079,-0.3397507904000001,-9.7821908912,1.7693359824,0.7104139199999999,1.55468727,-4.012288789999999,,,
imu,67.040893,-0.3152265256,-9.768433376800001,1.7657470656,0.67302937,1.62945637,-3.77302767,,,
imu,67.049708,-0.2984782472,-9.791761336000002,1.7777101216,0.52349117,1.63693328,-3.60105874,,,
imu,67.058522,-0.3158246784000001,-9.7995373224,1.7771119688,0.35152224,1.6518871,-3.54124346,,,
imu,67.067336,-0.3170209840000001,-9.791761336000002,1.7513913984,0.34404533,1.49487199,-3.30198234,,,
imu,67.07615,-0.311039456,-9.790565030400002,1.755578468,0.43376825,1.577118,-3.22721324,,,
imu,67.084965,-0.3259932760000001,-9.7576666264,1.7771119688,0.3889067899999999,1.53225654,-3.496382,,,
imu,67.093779,-0.3397507904000001,-9.724768222400002,1.7561766208,0.4861066199999999,1.56216418,-3.44404363,,,
imu,67.102593,-0.3487230824000001,-9.706823638400001,1.74959694,0.40386061,1.47991817,-3.5711511,,,
imu,67.111408,-0.370854736,-9.7074217912,1.7418209536,0.3739529699999999,1.44253362,-3.69825857,,,
imu,67.120222,-0.3720510416,-9.6918698184,1.7358394256,0.53096808,1.71917929,-3.48890509,,,
imu,67.129036,-0.376836264,-9.680504915200002,1.7442135648,0.8823828499999999,2.04068642,-3.2720747,,,
imu,67.13785,-0.3547046104000001,-9.693066124000001,1.7448117176,1.03192105,2.33228591,-3.02533667,,,
imu,67.146665,-0.3152265256,-9.714599624800002,1.7442135648,1.16650543,2.48182411,-3.08515195,,,
imu,67.155479,-0.2889078024000001,-9.714001472000001,1.7501950928,1.31604363,2.57902394,-3.0477674,,,
imu,67.164293,-0.2703650656,-9.731347903200001,1.7328486616,1.43567419,2.52668557,-3.15244414,,,
imu,67.173107,-0.23926112,-9.7492924872,1.7489987872,1.39828964,2.46687029,-3.18982869,,,
imu,67.181801,-0.233279592,-9.7510869456,1.7663452184,1.2188438,2.12293243,-3.24964397,,,
imu,67.190615,-0.2356722032,-9.766638918400002,1.7460080232,1.09173633,2.01077878,-3.29450543,,,
imu,67.199429,-0.215335008,-9.762451848800001,1.746606176,1.00949032,2.07059406,-3.24216706,,,
imu,67.208243,-0.2237091472,-9.7492924872,1.7484006344,0.8674290299999999,1.93600968,-3.38422835,,,
imu,67.217058,-0.2518223288000001,-9.745105417600001,1.7370357312,1.05435178,1.70422547,-3.50385891,,,
imu,67.225551,-0.2404574256,-9.7427128064,1.728661592,1.15902852,1.63693328,-3.48142818,,,
imu,67.234045,-0.2410555784,-9.7576666264,1.7489987872,1.30108981,1.45748744,-3.65339711,,,
imu,67.242539,-0.263187232,-9.794752100000002,1.7573729264,1.31604363,1.25561087,-3.91508896,,,
imu,67.251032,-0.2829262744000001,-9.828248656800001,1.7687378296,1.33847436,1.24065705,-3.86275059,,,
imu,67.259526,-0.2865151912,-9.821668976000002,1.7561766208,1.00949032,1.30047233,-3.75059694,,,
imu,67.26802,-0.3080486920000001,-9.802528086400002,1.7603636904,0.8375213899999999,1.37524143,-3.496382,,,
imu,67.276513,-0.296085636,-9.775611210400001,1.7472043288,0.64312173,1.25561087,-3.52628964,,,
imu,67.285007,-0.3056560808,-9.751685098400001,1.740624648,0.41133752,1.18084177,-3.81788913,,,
imu,67.293501,-0.3313766512,-9.713403319200001,1.7232782168,0.35899915,1.24813396,-4.06462716,,,
imu,67.301994,-0.3523119992,-9.709216249600003,1.7388301896,0.40386061,1.46496435,-3.84779677,,,
imu,67.310488,-0.3505175408000001,-9.721179305600002,1.728661592,0.68798319,1.68179474,-3.62348947,,,
imu,67.318982,-0.3499193880000001,-9.7265626808,1.7214837584,0.9347212199999999,1.97339423,-3.54124346,,,
imu,67.327475,-0.323002512,-9.723571916800001,1.7304560504,0.8375213899999999,2.36219355,-3.36179762,,,
imu,67.335969,-0.290104108,-9.714001472000001,1.7699341352,0.8823828499999999,2.53416248,-3.48142818,,,
imu,67.344462,-0.2595983152,-9.7337405144,1.7597655376,0.8749059399999999,2.56407012,-3.93751969,,,
imu,67.352956,-0.245242648,-9.748096181600001,1.752587704,0.74779847,2.46687029,-4.32631901,,,
imu,67.36145,-0.2470371064,-9.740918348000001,1.761559996,0.82256757,2.31733209,-4.57305704,,,
imu,67.369943,-0.242251884,-9.7606573904,1.77950458,0.7552753799999999,2.10797861,-4.55062631,,,
imu,67.378437,-0.2607946208,-9.802528086400002,1.7836916496,0.80761375,1.89862513,-4.52819558,,,
imu,67.386931,-0.2763465936,-9.809107767200002,1.7759156632,0.6954601,1.68179474,-4.430995749999999,,,
imu,67.395424,-0.2691687600000001,-9.766638918400002,1.7543821624,0.6281679099999999,1.68179474,-3.98238115,,,
imu,67.403918,-0.272159524,-9.735534972800002,1.7370357312,0.50853735,1.54721036,-3.75059694,,,
imu,67.412412,-0.2930948720000001,-9.722375611200002,1.7262689808,0.8749059399999999,1.30047233,-3.496382,,,
imu,67.420905,-0.281131816,-9.746899876,1.716698536,1.15155161,1.26308778,-3.13749032,,,
imu,67.429399,-0.2709632184,-9.746301723200002,1.722680064,1.39081273,1.15841104,-3.04029049,,,
imu,67.437825,-0.2907022608000001,-9.7403201952,1.7131096192,1.67493531,1.06868812,-3.24964397,,,
imu,67.44625,-0.3092449976000001,-9.7570684736,1.7053336328,1.78708896,0.9565344699999998,-3.6459202,,,
imu,67.454676,-0.3080486920000001,-9.786377960800001,1.7023428688,1.75718132,0.9041961000000001,-3.8702275,,,
imu,67.463101,-0.3295821928000001,-9.773218599200002,1.6993521048,1.54782784,0.9191499199999997,-4.012288789999999,,,
imu,67.471527,-0.3559009160000001,-9.783985349600002,1.7011465632,1.36090509,1.18084177,-4.02724261,,,
imu,67.479952,-0.3517138464,-9.793555794400001,1.6909779656,1.04687487,1.36776452,-4.10948862,,,
imu,67.488378,-0.3690602776000001,-9.761853696000001,1.6969594936,0.70293701,1.43505671,-4.23659609,,,
imu,67.496803,-0.3654713608,-9.7301515976,1.7059317856,0.52349117,1.71917929,-4.04967334,,,
imu,67.505229,-0.3570972216000001,-9.717590388800001,1.7178948416,0.40386061,2.04816333,-3.90761205,,,
imu,67.513654,-0.3176191368,-9.745703570400002,1.7059317856,0.20198404,2.13788625,-3.82536604,,,
imu,67.52208,-0.2895059552,-9.748096181600001,1.7161003832,0.21693786,2.31733209,-3.496382,,,
imu,67.530505,-0.2643835376,-9.737927584000001,1.7262689808,0.08235347999999998,2.27247063,-3.48890509,,,
imu,67.538931,-0.2560093984,-9.7403201952,1.7334468144,0.14216876,1.91357895,-3.65339711,,,
imu,67.547356,-0.2655798432,-9.7815927384,1.7591673848,0.29918387,1.65936401,-3.87770441,,,
imu,67.555782,-0.287113344,-9.803126239200001,1.74959694,0.23936859,1.41262598,-4.11696553,,,
imu,67.564207,-0.3068523864000001,-9.7995373224,1.7537840096,0.16459949,1.38271834,-4.0197657,,,
imu,67.572633,-0.3247969704000001,-9.7702278352,1.7699341352,0.03749201999999999,1.3528107,-3.92256587,,,
imu,67.581058,-0.320011748,-9.7750130576,1.7908694832,-0.24663056,1.36776452,-3.90761205,,,
imu,66.092317,,,,,,,85.6945332,-23.60265160000001,118.025328
imu,66.193727,,,,,,,83.6559308,-22.87021960000002,120.9428488
imu,66.295228,,,,,,,83.30192199999999,-23.05332760000001,120.4179392
imu,66.396791,,,,,,,83.25309320000001,-22.52841800000001,120.2470384
imu,66.498384,,,,,,,82.88687720000001,-22.98008440000001,120.344696
imu,66.599916,,,,,,,82.8990844,-22.80918360000001,119.7465432
imu,66.701509,,,,,,,82.83804839999999,-22.9922916,120.3202816
imu,66.803041,,,,,,,83.2775076,-22.90684120000002,120.0028944
imu,67.589484,-0.3104413032000001,-9.7815927384,1.7717285936,-0.17186146,1.53973345,-3.81041222,,,
imu,67.597909,-0.3158246784000001,-9.752283251200002,1.767541524,-0.11952309,1.47991817,-3.78798149,,,
imu,67.606335,-0.320011748,-9.7337405144,1.782495344,-0.22419983,1.38271834,-3.83284295,,,
imu,67.61476,-0.31403022,-9.706225485600001,1.7717285936,-0.14195382,1.33037997,-3.90761205,,,
imu,67.623186,-0.3301803456000001,-9.6942624296,1.7573729264,-0.02232326000000001,1.2780416,-3.92256587,,,
imu,67.63167,-0.3481249296000001,-9.711608860800002,1.7783082744,0.21693786,1.30794924,-3.7206893,,,
imu,67.640153,-0.3511156936,-9.737329431200001,1.7860842608,0.4711528,1.42010289,-3.20478251,,,
imu,67.648637,-0.3451341656,-9.746899876,1.7998417752,0.50853735,1.47991817,-3.16739796,,,
imu,67.657121,-0.3379563320000001,-9.7780038216,1.7812990384,0.53096808,1.56216418,-3.31693616,,,
imu,67.665605,-0.3325729568,-9.792957641600001,1.788476872,0.5459219,1.68927165,-3.25712088,,,
imu,67.674089,-0.3158246784000001,-9.746301723200002,1.8088140672,0.50853735,1.75656384,-3.36927453,,,
imu,67.682573,-0.3301803456000001,-9.696655040800001,1.7878787192,0.20198404,1.70422547,-3.65339711,,,
imu,67.691057,-0.3463304712,-9.693664276800002,1.7657470656,0.13469185,1.76404075,-3.60105874,,,
imu,67.699541,-0.3511156936,-9.6817012208,1.761559996,0.30666078,1.93600968,-3.36927453,,,
imu,67.708025,-0.3361618736,-9.660765872800003,1.7567747736,0.46367589,2.04068642,-3.30945925,,,
imu,67.716508,-0.3415452488,-9.687084596000002,1.7783082744,0.7552753799999999,2.19022462,-3.43656672,,,
imu,67.724992,-0.3373581792000001,-9.736731278400002,1.7789064272,0.9646288599999999,2.30237827,-3.30945925,,,
imu,67.733476,-0.3062542336,-9.766638918400002,1.7651489128,0.80761375,2.33976282,-3.36927453,,,
imu,67.74196,-0.2942911776,-9.735534972800002,1.7627563016,0.68050628,2.34723973,-3.37675144,,,
imu,67.750444,-0.2996745528,-9.7217774584,1.7663452184,0.70293701,2.39210119,-3.33936689,,,
imu,67.758928,-0.3002727056,-9.7163940832,1.7657470656,0.7552753799999999,2.44443956,-3.29450543,,,
imu,67.767412,-0.2793373576,-9.751685098400001,1.770532288,0.7552753799999999,2.3995781,-3.30945925,,,
imu,67.775896,-0.2781410520000001,-9.794153947200002,1.7717285936,0.77770611,2.25751681,-3.44404363,,,
imu,67.784379,-0.275150288,-9.80970592,1.7848879552,0.73284465,2.19022462,-3.45899745,,,
imu,67.792863,-0.2667761488000001,-9.7953502528,1.7842898024,0.68050628,1.99582496,-3.37675144,,,
imu,67.801347,-0.2859170384,-9.765442612800001,1.7842898024,0.60573718,1.89114822,-3.3468438,,,
imu,67.809831,-0.2924967192,-9.783387196800001,1.7783082744,0.68798319,1.81637912,-3.37675144,,,
imu,66.904637,,,,,,,83.17985000000002,-22.73594040000002,120.0883448
imu,67.006261,,,,,,,85.2428668,-23.81017400000001,117.9398776
imu,67.107793,,,,,,,82.691562,-22.95567,119.9296512
imu,67.209355,,,,,,,85.34052439999999,-24.06652520000001,117.6713192
imu,67.311284,,,,,,,82.9234988,-23.19981400000002,120.039516
imu,67.420262,,,,,,,83.08219240000001,-23.37071480000002,120.8085696
imu,67.514012,,,,,,,83.17985000000002,-22.88242680000001,120.5766328
imu,67.615575,,,,,,,83.11881400000001,-23.21202120000001,120.4179392
imu,67.722569,,,,,,,83.42399400000001,-22.94346280000001,119.9540656
