Type,Timestamp,Data Accelerometer X,Data Accelerometer Y,Data Accelerometer Z,Data Gyroscope X,Data Gyroscope Y,Data Gyroscope Z,Data Magnetometer X,Data Magnetometer Y,Data Magnetometer Z
imu,475.428157,-0.8559566568000001,-9.422701058400001,1.4038646216,8.63593852,-0.7033395499999999,-1.90380017,,,
imu,475.436619,-1.0312154272,-9.352717180800001,1.396686788,9.308860419999998,0.3209971199999999,-2.49447606,,,
imu,475.445081,-1.2387744488,-9.222918023200002,1.4331741088,10.12384361,1.8014253,-3.37675144,,,
imu,475.453543,-1.3153380072,-8.957936332800001,1.6203959352,10.84910388,3.9697292,-4.146873169999999,,,
imu,475.462006,-1.4523149984,-8.794042465600002,1.7812990384,12.15008622,6.80347809,-4.887087259999999,,,
imu,475.470468,-1.6281719216,-8.7910517016,1.7651489128,14.12399046,10.07088776,-5.97123921,,,
imu,475.47893,-1.55519728,-8.612802167200002,1.7501950928,16.03060251,13.65980456,-7.20492936,,,
imu,475.487393,-1.3871163432,-8.215628708,1.9667264064,17.86244546,17.43564411,-8.48348097,,,
imu,475.495855,-0.8577511152000001,-7.293277090400001,2.3549275736,21.1074244,20.62080777,-9.53772528,,,
imu,475.504317,-0.7381205552000002,-8.672019294400002,1.8327401792,26.92446038,22.97603442,-9.38071017,,,
imu,475.512779,-0.5162058664000001,-9.815089295200002,1.7268671336,30.42365426,23.4844643,-7.361944469999999,,,
imu,475.521242,-0.04785222400000001,-9.788770572,1.7663452184,30.38626971,22.18348196,-5.83665483,,,
imu,475.529704,0.3876030144000001,-9.710412555200001,1.9105000432,29.96756275,19.72357857,-5.48524006,,,
imu,475.538166,0.4946723656000001,-9.897036228800001,1.9332298496,29.76568618,15.96269284,-4.341272829999999,,,
imu,475.546628,0.3086468448,-10.321126564,1.7208856056,29.16753338,11.297101,-1.73183124,,,
imu,475.555091,0.08254508640000002,-10.7494039688,1.5486175992,27.73944357,6.80347809,0.32431901,,,
imu,475.563553,-0.158510492,-10.9832817136,1.4762411104,25.02532524,3.23699202,0.5561032200000002,,,
imu,475.572015,-0.3971734592000001,-10.8074247904,1.3350770496,21.60837737,0.7097964399999999,0.4738572100000003,,,
imu,475.580478,-0.62806044,-10.521507752,1.1646035016,18.72976702,-0.6958626400000001,1.30379422,,,
imu,475.58894,-0.8655271016000001,-10.2918170768,1.004896704,16.64370913,-0.8454008399999999,2.17111578,,,
imu,475.597402,-0.9624278552000001,-10.1943181704,0.9211553120000001,15.58946482,0.21632038,1.87951629,,,
imu,475.605864,-1.0090837736,-10.0064981912,0.8248527112,15.00626584,1.79394839,1.20659439,,,
imu,475.614327,-1.028822816,-9.828248656800001,0.7524762224000001,14.85672764,3.45382241,0.7953643399999999,,,
imu,475.622789,-0.9833632032,-9.7128051664,0.5108224912,15.31281915,5.442680469999999,0.0626271599999999,,,
imu,475.631251,-0.7506817640000001,-9.8713156584,0.6555754688000001,16.68857059,7.267046509999999,-1.05890934,,,
imu,475.639715,-0.6143029256000001,-10.1428770296,0.7129981376000001,16.93530862,8.612890310000001,-2.11315365,,,
imu,475.648178,-0.5413282840000001,-10.2146553656,0.5150095608,16.19509453,9.300766029999998,-2.5243837,,,
imu,475.656642,-0.400762376,-10.2930133824,0.4629702672000001,14.81934309,9.83162664,-2.62158353,,,
imu,475.665105,-0.2613927736,-10.3893159832,0.4952705184000001,13.05479233,9.74938063,-2.89075229,,,
imu,475.673569,-0.221316536,-10.494590876,0.4569887392,10.66965804,9.13627401,-3.03281358,,,
imu,475.682032,-0.2595983152,-10.4006808864,0.3834159448,8.15741628,8.10446043,-2.95804448,,,
imu,475.690496,-0.3505175408000001,-10.1584290024,0.3194135952000001,5.53302087,7.057693029999999,-3.37675144,,,
imu,475.698959,-0.4169125016,-9.9078029792,0.2775428992,3.67874719,6.37729422,-3.99733497,,,
imu,475.707423,-0.4791203928000001,-9.735534972800002,0.2464389536,2.75161035,5.82400288,-4.3936112,,,
imu,475.715887,-0.5329541448,-9.594370912,0.2428500368,2.72170271,5.51744957,-4.102011709999999,,,
imu,475.72435,-0.5987509528,-9.501657228000001,0.3271895816000001,3.09554821,5.42772665,-3.66087402,,,
imu,475.732814,-0.6268641344,-9.539939007200001,0.3654713608,3.947915950000001,5.592218669999999,-3.0477674,,,
imu,475.741277,-0.6160973840000001,-9.714599624800002,0.3899956256000001,4.62083785,5.71932614,-2.60662971,,,
imu,475.749741,-0.6298548984000001,-9.908401132000002,0.424688488,4.74794532,5.93615653,-1.83650798,,,
imu,475.758204,-0.6795015808000001,-10.069902388,0.4845037680000001,3.925485220000001,6.39224804,-0.8794635,,,
imu,475.766668,-0.7070166096,-10.1291195152,0.4922797544,3.00582529,6.5866477,-0.32617216,,,
imu,475.775131,-0.6842868032,-10.1679994472,0.49347606,2.01887317,6.908154829999999,-0.63272547,,,
imu,475.783595,-0.6483976352,-10.1225398344,0.4713444064,0.9870595899999999,7.05021612,-1.44023175,,,
imu,475.792058,-0.550300576,-9.998124052,0.4480164472000001,0.41133752,7.23713887,-1.76921579,,,
imu,475.800522,-0.439642308,-9.800733628000001,0.4258847936,0.59078336,7.51378454,-1.98604618,,,
imu,475.808985,-0.3612842912,-9.671532623200001,0.4593813504000001,1.2936129,7.27452342,-1.93370781,,,
imu,475.817449,-0.3684621248000001,-9.716992236000001,0.4868963792000001,2.1908421,6.601601519999999,-1.67201596,,,
imu,475.825913,-0.3361618736,-9.8719138112,0.4677554896000001,3.22265568,5.943633439999999,-1.44023175,,,
imu,475.834317,-0.2990764,-9.944290300000002,0.4713444064,3.79837775,5.023973509999999,-1.70940051,,,
imu,475.842787,-0.3433397072,-10.0274335392,0.5036446576000001,3.94043904,4.18655959,-2.25521494,,,
imu,475.851257,-0.4761296288000001,-10.1709902112,0.5030465048,3.77594702,3.49868387,-2.64401426,,,
imu,475.859727,-0.6166955368000001,-10.2547316032,0.4791203928000001,3.17779422,3.01268472,-2.83841392,,,
imu,475.868197,-0.7255593464000001,-10.2098701432,0.4575868920000001,2.35533412,3.23699202,-3.00290594,,,
imu,475.876667,-0.8134878080000001,-10.0495651928,0.4228940296000001,1.60764312,3.88000628,-3.05524431,,,
imu,475.885137,-0.8924439776000002,-9.9448884528,0.4276792520000001,0.8449983,4.82957385,-3.13001341,,,
imu,475.893606,-0.8948365888000002,-9.844398782400003,0.3965753064,0.55339881,5.8389567,-3.26459779,,,
imu,475.902076,-0.8523677400000002,-9.722973764,0.3959771536000001,0.79265993,7.080123759999999,-3.43656672,,,
imu,475.910546,-0.7841783208,-9.594370912,0.3905937784,1.03939796,7.99230678,-3.97490424,,,
imu,475.919016,-0.6244715232,-9.522592576000001,0.4013605288,1.86933497,8.612890310000001,-4.37118047,,,
imu,475.927486,-0.4683536424000001,-9.581809703200001,0.4318663216,2.83385636,8.6054134,-4.66277996,,,
imu,475.935956,-0.4049494456000001,-9.672728928800002,0.4432312248,3.54416281,8.25399863,-4.759979789999999,,,
imu,475.944426,-0.3899956256000001,-9.802528086400002,0.4390441552000001,3.95539286,7.581076729999999,-4.318842099999999,,,
imu,475.952896,-0.3541064576,-9.833632032,0.4001642232,4.00025432,6.60907843,-3.98238115,,,
imu,475.961366,-0.3792288752000001,-9.8479876992,0.4390441552000001,3.48434753,5.547357209999999,-3.7954584,,,
imu,475.969836,-0.5467116592000001,-9.894045464800001,0.4402404608,2.72170271,4.58283582,-3.86275059,,,
imu,475.978305,-0.7076147624000001,-9.899428840000002,0.3870048616000001,1.89924261,3.85757555,-4.079580979999999,,,
imu,475.986775,-0.7985339880000002,-9.882680561600003,0.3720510416,1.24127453,3.77532954,-4.28145755,,,
imu,475.995245,-0.8559566568000001,-9.862343366400001,0.3648732080000001,0.65807555,4.06692903,-4.26650373,,,
imu,476.003715,-0.8828735328,-9.8683248944,0.3977716120000001,0.3889067899999999,4.739850929999999,-4.19173463,,,
imu,476.012185,-0.8320305448000002,-9.868923047200001,0.4169125016,0.007584380000000002,5.52492648,-3.92256587,,,
imu,476.020655,-0.708811068,-9.807313308800001,0.3941826952,0.05244583999999999,6.317478939999999,-3.74312003,,,
imu,476.029125,-0.5927694248,-9.746301723200002,0.4169125016,0.08235347999999998,6.59412461,-3.90013514,,,
imu,476.037595,-0.4677554896000001,-9.783985349600002,0.4671573368000001,0.3739529699999999,6.50440169,-4.10948862,,,
imu,476.046408,-0.3379563320000001,-9.869521200000003,0.5012520464000001,1.1440747,6.19037147,-3.98985806,,,
imu,476.055221,-0.2530186344000001,-9.916177118400002,0.520392936,1.41324346,5.52492648,-3.66087402,,,
imu,476.064034,-0.2314851336,-9.946084758400001,0.5580765624000001,1.08425942,4.39591307,-3.41413599,,,
imu,476.072847,-0.3098431504,-9.944290300000002,0.5568802568000001,0.74779847,3.05754618,-3.07767504,,,
imu,476.081659,-0.4528016696000001,-9.920364188,0.5347486032000001,0.47862971,2.09302479,-2.88327538,,,
imu,476.090472,-0.571235924,-9.878493492,0.5209910888,0.09730729999999999,1.36776452,-2.95804448,,,
imu,476.099285,-0.6519865520000001,-9.838417254400001,0.5000557408,-0.17186146,1.13598031,-3.36927453,,,
imu,476.108098,-0.6962498592000002,-9.7821908912,0.4533998224,-0.09709236,1.47244126,-3.60853565,,,
imu,476.116911,-0.7441020832,-9.687084596000002,0.4318663216,0.22441477,1.86871749,-3.84779677,,,
imu,476.125724,-0.741709472,-9.617698871200002,0.4390441552000001,0.5982602699999999,2.35471664,-4.10948862,,,
imu,476.134537,-0.6364345792000001,-9.461580990400002,0.4109309736,1.23379762,2.81080815,-4.27398064,,,
imu,476.14335,-0.6561736216000001,-9.738525736800002,0.5814045216000001,2.24318047,3.10240764,-4.453426479999999,,,
imu,476.152163,-0.61310662,-9.694860582400002,0.4569887392,2.46001086,3.28185348,-4.3936112,,,
imu,476.160976,-0.5036446576000001,-9.5429297712,0.5197947832,2.95348692,3.16969983,-3.75059694,,,
imu,476.169789,-0.4432312248,-9.511227672800002,0.565254396,3.34228624,2.59397776,-3.60105874,,,
imu,476.178602,-0.4791203928000001,-9.599156134400001,0.5473098120000001,3.96286977,2.01077878,-3.46647436,,,
imu,476.187415,-0.5162058664000001,-9.685290137600001,0.5287670752,4.25446926,1.33037997,-3.10010577,,,
imu,476.196228,-0.5622636320000001,-9.741516500800001,0.5108224912,4.45634583,1.08364194,-2.72626027,,,
imu,476.205041,-0.6184899952000001,-9.7295534448,0.4851019208000001,4.32176145,0.7696117199999999,-2.748691,,,
imu,476.213854,-0.6962498592000002,-9.709216249600003,0.4384460024000001,4.32176145,0.7172733499999997,-2.70382954,,,
imu,476.222667,-0.7524762224000001,-9.7056273328,0.4115291264,4.38905364,0.8967191899999998,-2.58419898,,,
imu,476.23148,-0.7554669864000001,-9.742114653600002,0.3989679176000001,4.77785296,1.38271834,-2.24026112,,,
imu,476.240292,-0.6842868032,-9.801929933600002,0.3864067088000001,5.17412919,1.85376367,-2.20287657,,,
imu,476.248767,-0.6208826064000001,-9.834828337600001,0.3882011672000001,5.42834413,2.11545552,-2.21783039,,,
imu,476.257242,-0.5586747152,-9.879091644800003,0.391790084,5.30123666,2.22760917,-2.18044584,,,
imu,476.265717,-0.49347606,-9.906008520800002,0.3983697648000001,5.45077486,2.07807097,-2.63653735,,,
imu,476.274192,-0.4264829464000001,-9.953262592000002,0.3786307224000001,5.30123666,1.92105586,-3.03281358,,,
imu,476.282667,-0.4199032656,-10.0142741776,0.3660695136000001,4.94982189,1.577118,-3.21225942,,,
imu,476.291142,-0.4414367664,-10.0382002896,0.3176191368,4.17970016,1.10607267,-3.30945925,,,
imu,476.299617,-0.4623721144,-10.0106852608,0.2948893304,3.71613174,0.6499811599999998,-3.23469015,,,
imu,476.308092,-0.4857000736000001,-9.974197940000002,0.2990764,3.11797894,0.3284740299999998,-3.24216706,,,
imu,476.316567,-0.5592728680000001,-9.937112466400002,0.2781410520000001,2.43010322,0.1864127399999997,-3.23469015,,,
imu,476.325042,-0.5903768136,-9.9000269928,0.2057645632,1.5926893,0.1265974599999997,-3.37675144,,,
imu,476.333517,-0.6298548984000001,-9.931130938400003,0.3445360128,1.60016621,0.2686587499999997,-3.51133582,,,
imu,476.341992,-0.7243630408,-9.934121702400002,0.173464312,1.17398234,0.29856639,-3.74312003,,,
imu,476.350467,-0.7016332344,-9.717590388800001,0.1949978128,0.7552753799999999,0.5677351499999999,-3.39170526,,,
imu,476.358942,-0.6454068712000001,-9.682299373600001,0.2470371064,0.88985976,0.8294269999999999,-3.10010577,,,
imu,476.367417,-0.6268641344,-9.760059237600002,0.2225128416,1.31604363,1.03878048,-3.0477674,,,
imu,476.375892,-0.6125084672000001,-9.817481906400001,0.2219146888,1.45810492,1.26308778,-2.71130645,,,
imu,476.384367,-0.5867878968000001,-9.80970592,0.2278962168,1.53287402,1.4275798,-2.59167589,,,
imu,476.392842,-0.5688433128,-9.752881404000002,0.2494297176,1.46558183,1.46496435,-2.86084465,,,
imu,476.401317,-0.5622636320000001,-9.746899876,0.266177996,1.6674584,1.52477963,-3.01038285,,,
imu,476.409792,-0.5754229936,-9.7821908912,0.2655798432,1.75718132,1.40514907,-2.98795212,,,
imu,476.418267,-0.5837971328000001,-9.789368724800001,0.2494297176,1.92167334,1.26308778,-2.99542903,,,
imu,476.426742,-0.6340419680000001,-9.7845835024,0.2428500368,1.86185806,1.28551851,-3.07019813,,,
imu,476.435217,-0.6783052752000002,-9.785181655200002,0.2326814392,1.92915025,1.39767216,-3.14496723,,,
imu,476.443692,-0.6836886504,-9.773218599200002,0.1866236736,2.12354991,1.56216418,-3.0477674,,,
imu,476.452162,-0.6537810104000001,-9.755274015200001,0.203371952,2.17588828,1.74161002,-2.9729983,,,
imu,476.460632,-0.6244715232,-9.768433376800001,0.218325772,2.61702597,1.92105586,-3.4216129,,,
imu,476.469102,-0.6107140088,-9.765442612800001,0.2105497856,2.96096383,1.99582496,-3.91508896,,,
imu,476.477572,-0.6023398696000001,-9.797742864000002,0.2189239248,3.21517877,2.06311715,-4.28893446,,,
imu,476.486042,-0.5915731192000001,-9.855763685600001,0.2266999112,3.11050203,2.15284007,-4.3936112,,,
imu,476.494512,-0.5808063688,-9.9197660352,0.2290925224000001,2.84133327,2.22760917,-4.29641137,,,
imu,476.502981,-0.5568802568000001,-9.955655203200001,0.2314851336,2.55721069,2.13788625,-4.169303899999999,,,
imu,476.511451,-0.5281689224000001,-9.961038578400002,0.2613927736,1.9665348,2.16031698,-4.19921154,,,
imu,476.519921,-0.4839056152000001,-9.883876867200001,0.1955959656,1.60016621,2.10797861,-4.19921154,,,
imu,476.528391,-0.5209910888,-9.867726741600002,0.311039456,1.61512003,1.92105586,-4.02724261,,,
imu,476.536861,-0.6645477608,-10.1309139736,0.200381188,1.22632071,1.6518871,-3.7206893,,,
imu,476.545331,-0.6262659816,-9.9688145648,0.1369769912,0.30666078,1.44253362,-3.23469015,,,
imu,476.553801,-0.5520950344000001,-9.8043225448,0.1788476872,-0.18681528,1.48739508,-3.0477674,,,
imu,476.562271,-0.5550857984,-9.745105417600001,0.1991848824,-0.03727708,1.36776452,-3.07019813,,,
imu,476.570741,-0.5951620360000001,-9.765442612800001,0.2015774936,0.17955331,1.10607267,-3.05524431,,,
imu,476.579211,-0.5933675776,-9.796546558400001,0.2009793408,0.3216146,0.9565344699999998,-2.93561375,,,
imu,476.58768,-0.5676470072,-9.785779808000001,0.221316536,0.3739529699999999,0.8967191899999998,-2.95056757,,,
imu,476.59615,-0.5957601888000001,-9.766638918400002,0.2314851336,0.67302937,0.9789651999999998,-2.98795212,,,
imu,476.60462,-0.6089195504,-9.7989391696,0.2530186344000001,0.8524752099999999,0.7770886299999997,-2.87579847,,,
imu,476.61309,-0.6400234960000001,-9.828248656800001,0.2554112456,0.7403215599999999,0.6873657099999999,-2.83093701,,,
imu,476.62156,-0.6693329832000001,-9.863539672000002,0.2506260232,0.7403215599999999,0.9341037399999998,-2.88327538,,,
imu,476.63003,-0.6920627896000001,-9.883876867200001,0.263187232,0.52349117,0.9939190199999999,-2.81598319,,,
imu,476.6385,-0.6980443176000002,-9.879091644800003,0.2464389536,0.18703022,1.15093413,-2.68139881,,,
imu,476.64697,-0.6806978864000002,-9.838417254400001,0.2266999112,-0.04475399000000001,1.36028761,-2.4496146,,,
imu,476.655426,-0.6621551496,-9.833632032,0.218325772,-0.18681528,1.53225654,-2.14306129,,,
imu,476.663882,-0.666940372,-9.8061170032,0.2081571744,-0.30644584,1.77151766,-2.21035348,,,
imu,476.672337,-0.6352382736000001,-9.7815927384,0.2266999112,-0.64290679,1.90610204,-2.32250713,,,
imu,476.680793,-0.5975546472000001,-9.786377960800001,0.2147368552,-0.52327623,1.92105586,-2.5243837,,,
imu,476.689249,-0.5754229936,-9.723571916800001,0.1668846312,-0.4260764,1.96591732,-2.81598319,,,
imu,476.697705,-0.5335522976000001,-9.596165370400001,0.1668846312,-0.18681528,1.82385603,-3.06272122,,,
imu,476.706161,-0.5018501992000001,-9.579417092000002,0.2296906752000001,0.44124516,1.51730272,-3.27955161,,,
imu,476.714617,-0.5371412144000001,-9.639232372,0.2536167872,1.24875144,1.45748744,-3.69078166,,,
imu,476.723073,-0.5837971328000001,-9.701440263200002,0.2613927736,1.85438115,1.36028761,-3.75807385,,,
imu,476.731529,-0.6208826064000001,-9.749890640000002,0.2799355104,2.15345755,1.21074941,-3.69078166,,,
imu,476.739985,-0.6693329832000001,-9.8234634344,0.2835244272,1.99644244,1.21822632,-3.55619728,,,
imu,476.748441,-0.7022313872,-9.891054700800002,0.251224176,1.77213514,1.54721036,-3.46647436,,,
imu,476.756897,-0.6974461648000001,-9.918569729600001,0.233279592,1.51044329,1.81637912,-3.28702852,,,
imu,476.765353,-0.6693329832000001,-9.904214062400001,0.2135405496,1.07678251,2.10797861,-3.38422835,,,
imu,476.773808,-0.6543791632000001,-9.869521200000003,0.2129423968,0.8823828499999999,2.36967046,-3.41413599,,,
imu,476.782264,-0.61310662,-9.8479876992,0.2099516328,0.59078336,2.45939338,-3.46647436,,,
imu,475.521521,,,,,,,-90.589642,166.4512452,123.8603696
imu,475.623114,,,,,,,-88.392346,165.3770116,119.6977144
imu,475.724646,,,,,,,-90.39432680000002,165.6943988,122.0659112
imu,475.826209,,,,,,,-89.1003636,164.2905708,118.4037512
imu,475.927771,,,,,,,-90.50419160000001,164.791066,120.955056
imu,476.029334,,,,,,,-90.4797772,164.5103004,120.2592456
imu,476.79072,-0.58319898,-9.834230184800003,0.206362716,0.53096808,2.46687029,-3.45152054,,,
imu,476.799176,-0.5598710208000001,-9.824061587200001,0.2009793408,0.5010604399999999,2.35471664,-3.59358183,,,
imu,476.807632,-0.520392936,-9.803126239200001,0.1806421456,0.53096808,2.36967046,-3.69078166,,,
imu,476.816088,-0.5168040192000001,-9.746301723200002,0.1728661592,0.44124516,2.24256299,-3.78050458,,,
imu,476.824544,-0.5371412144000001,-9.7361331256,0.1818384512,0.58330645,1.89862513,-3.71321239,,,
imu,476.833,-0.5742266880000001,-9.790565030400002,0.2075590216,1.04687487,1.83133294,-3.88518132,,,
imu,476.841456,-0.5891805080000001,-9.8168837536,0.2105497856,1.05435178,1.74161002,-4.00481188,,,
imu,476.849912,-0.5957601888000001,-9.827650504000003,0.2237091472,0.8749059399999999,1.577118,-4.102011709999999,,,
imu,476.858422,-0.6214807592000001,-9.810902225600001,0.2566075512,0.9197674,1.63693328,-4.02724261,,,
imu,476.866933,-0.6436124128,-9.802528086400002,0.2823281216,0.7552753799999999,1.53225654,-3.84031986,,,
imu,476.875443,-0.6238733704,-9.802528086400002,0.266177996,0.8749059399999999,1.577118,-3.59358183,,,
imu,476.883954,-0.6208826064000001,-9.782789044000001,0.242251884,0.6281679099999999,1.56964109,-3.43656672,,,
imu,476.892465,-0.5945638832000001,-9.7492924872,0.2069608688,0.6281679099999999,1.44253362,-3.33936689,,,
imu,476.900975,-0.5730303824,-9.672728928800002,0.182436604,0.8823828499999999,1.40514907,-3.33188998,,,
imu,476.909486,-0.5126169496,-9.620091482400001,0.19439966,1.31604363,1.30794924,-3.31693616,,,
imu,476.917996,-0.4671573368000001,-9.593174606400002,0.2051664104,1.99644244,1.04625739,-3.43656672,,,
imu,476.926557,-0.4420349192,-9.594370912,0.1926052016,2.85628709,0.5378275100000001,-3.48890509,,,
imu,476.935067,-0.4258847936,-9.614109954400002,0.1961941184,3.71613174,-0.04537147000000008,-3.82536604,,,
imu,476.943578,-0.3899956256000001,-9.474142199200001,0.2296906752000001,4.62831476,-0.6136166300000001,-4.22911918,,,
imu,476.952088,-0.535346756,-9.7122070136,0.2996745528,5.57788233,-1.21176943,-4.77493361,,,
imu,476.960599,-0.5628617848,-9.7301515976,0.1908107432,6.05640457,-1.68281476,-4.89456417,,,
imu,476.969109,-0.5072335744,-9.675121540000001,0.2009793408,6.22089659,-2.06413717,-4.94690254,,,
imu,476.97762,-0.4880926848000001,-9.6015487456,0.2320832864,6.40034243,-2.52770559,-5.62730135,,,
imu,476.986131,-0.4342589328000001,-9.544126076800001,0.2027737992,6.7517572,-2.99875092,-6.113300499999999,,,
imu,476.994641,-0.4258847936,-9.5184055064,0.1662864784,7.36486382,-3.71653428,-6.56939201,,,
imu,477.003152,-0.415716196,-9.558481744000002,0.173464312,8.254616109999999,-4.59133275,-6.838560769999999,,,
imu,477.011662,-0.4073420568000001,-9.553098368800002,0.1656883256,8.90510728,-5.466131219999999,-7.15259099,,,
imu,477.020173,-0.3989679176000001,-9.5010590752,0.1650901728,9.60045991,-6.35588351,-7.35446756,,,
imu,477.028684,-0.4019586816,-9.395784182400002,0.188418132,10.51264293,-7.327881809999999,-7.6086825,,,
imu,477.037194,-0.5544876456000001,-9.620091482400001,0.2284943696,11.64913325,-8.12043427,-8.04982019,,,
imu,477.045705,-0.5891805080000001,-9.685290137600001,0.1130508792,12.4342088,-8.70363325,-8.27412749,,,
imu,477.054215,-0.6226770648,-9.713403319200001,0.09869521200000002,12.92020795,-8.91298673,-7.982528,,,
imu,477.062987,-0.7297464160000001,-9.822267128800002,0.2159331608,13.12208452,-8.92794055,-7.85542053,,,
imu,477.071759,-0.7907580016000001,-9.828248656800001,0.09450814240000002,12.66599301,-8.82326381,-7.930189629999999,,,
imu,477.080531,-0.8445917536,-9.80970592,0.1668846312,12.79310048,-8.02323444,-7.578774859999999,,,
imu,477.089303,-1.094619624,-9.990348065600001,0.1411640608,12.32205515,-7.10357451,-7.41428284,,,
imu,477.098074,-1.1119660552,-9.971207176000002,-0.06460050240000001,11.26033393,-5.974561100000001,-7.13763717,,,
imu,477.106846,-1.010878232,-9.8527729216,-0.08792846160000001,10.6397504,-4.71844022,-6.71893021,,,
imu,477.115618,-0.9953262592000002,-9.683495679200002,-0.10467674,10.07898215,-3.37259642,-6.644161110000001,,,
imu,477.12439,-1.013868996,-9.6326526912,-0.09869521200000002,10.13132052,-2.15386009,-6.771268579999999,,,
imu,477.133162,-0.9588389384,-9.645213900000002,-0.13458438,10.70704259,-1.09961578,-6.73388403,,,
imu,477.141933,-0.8631344904,-9.668541859200001,-0.1609031032,11.23042629,-0.3070633200000001,-6.554438189999999,,,
imu,477.150705,-0.8386102256000002,-9.685888290400001,-0.1495382,11.57436415,0.1265974599999997,-6.30022325,,,
imu,477.159477,-0.7865709320000001,-9.6745233872,-0.1848292152,11.79119454,0.4256738599999998,-6.15068505,,,
imu,477.168249,-0.7895616960000001,-9.812696684000002,-0.158510492,12.15756313,0.5079198699999998,-6.046008309999999,,,
imu,477.177021,-0.7722152648000001,-9.802528086400002,-0.2159331608,12.02297875,0.50044296,-5.70207045,,,
imu,477.185793,-0.7207741240000002,-9.805518850400002,-0.212344244,11.9108251,0.27613566,-5.13382529,,,
imu,477.194564,-0.7482891528000001,-9.9078029792,-0.281131816,11.69399471,0.1565051,-4.67773378,,,
imu,477.203336,-0.7817857096,-9.922158646400002,-0.352910152,11.11827264,0.11164364,-4.46090339,,,
imu,477.212108,-0.8093007384,-9.939505077600002,-0.4091365152000001,10.36310473,0.01444380999999995,-4.23659609,,,
imu,477.22088,-0.8445917536,-9.9239531048,-0.4623721144,9.86215176,0.13407437,-4.10948862,,,
imu,477.229652,-0.8416009896000001,-9.9430939944,-0.5060372688000001,9.219137499999999,0.2387511099999999,-3.85527368,,,
imu,477.238423,-0.8685178656000001,-9.941897688800001,-0.5269726168000001,8.867722729999999,0.4481045899999998,-3.39918217,,,
imu,477.247195,-0.8529658928000001,-9.969412717600003,-0.5491042704000001,8.449015769999999,0.6948426199999997,-3.16739796,,,
imu,477.255967,-0.7668318896,-9.908999284800002,-0.5778156048000002,7.977970440000001,0.8742884599999998,-3.14496723,,,
imu,477.264441,-0.7470928472,-9.920364188,-0.5485061176,7.5742173,1.01634975,-2.83093701,,,
imu,477.272914,-0.7853746264000001,-9.938906924800001,-0.56824516,6.95363377,1.0537343,-2.68139881,,,
imu,477.281388,-0.7189796656000002,-9.9718053288,-0.5921712720000001,6.42277316,1.28551851,-2.59167589,,,
imu,477.289862,-0.5939657304000001,-9.934719855200001,-0.631051204,5.77228199,1.30047233,-2.35989168,,,
imu,477.298336,-0.5718340768000001,-9.844996935200001,-0.6125084672000001,5.15917537,0.9939190199999999,-2.23278421,,,
imu,477.306809,-0.5227855472,-9.828248656800001,-0.6370327320000001,4.90496043,0.52287369,-2.09072292,,,
imu,477.315283,-0.5018501992000001,-9.802528086400002,-0.6615569968000001,4.64326858,-0.17247894,-2.05333837,,,
imu,477.323757,-0.5281689224000001,-9.7923594888,-0.666940372,4.658222400000001,-0.88278539,-1.84398489,,,
imu,477.33223,-0.5419264368000001,-9.7492924872,-0.6914646368,4.68065313,-1.62299948,-1.93370781,,,
imu,477.340704,-0.6077232448000001,-9.7086180968,-0.6962498592000002,4.74794532,-2.34825975,-2.27016876,,,
imu,477.349178,-0.7171852072000001,-9.7283571392,-0.7123999848000001,4.89748352,-2.87164345,-2.64401426,,,
imu,477.357652,-0.780589404,-9.751685098400001,-0.6992406232000001,4.93486807,-3.21558131,-2.83841392,,,
imu,477.366125,-0.8439936008000001,-9.766040765600001,-0.6896701784000001,4.97972953,-3.30530423,-2.98795212,,,
imu,477.374599,-0.9414925072000001,-9.769031529600001,-0.7052221512000001,4.91243734,-2.97632019,-3.15244414,,,
imu,477.383073,-0.9899428840000002,-9.805518850400002,-0.70282954,4.98720644,-2.50527486,-3.05524431,,,
imu,477.391546,-1.0150653016,-9.8402117128,-0.7076147624000001,4.964775710000001,-1.72767622,-2.78607555,,,
imu,477.40002,-1.013868996,-9.8880639368,-0.7303445688000001,4.61336094,-1.00241595,-2.64401426,,,
imu,477.408494,-0.9893447312000001,-9.928738327200001,-0.7548688336000001,4.26942308,-0.09770984000000027,-2.81598319,,,
imu,477.416968,-0.9450814240000001,-9.937710619200002,-0.7692245008,4.01520814,0.6798887999999996,-2.74121409,,,
imu,477.425441,-0.8774901576000002,-9.9197660352,-0.7387187080000002,3.50677826,1.3528107,-2.75616791,,,
imu,477.433915,-0.8433954480000001,-9.898830687200002,-0.7746078760000001,3.19274804,1.81637912,-2.59167589,,,
imu,477.442389,-0.7985339880000002,-9.891054700800002,-0.7859727792000001,2.98339456,2.01825569,-2.62906044,,,
imu,477.450862,-0.76264482,-9.879689797600001,-0.7973376824000001,2.54225687,1.98087114,-2.51690679,,,
imu,477.459336,-0.7614485144,-9.898830687200002,-0.8015247520000001,2.22074974,2.01077878,-2.39727623,,,
imu,477.467811,-0.7572614448000001,-9.950869980800002,-0.8104970440000001,2.07868845,1.89114822,-2.13558438,,,
imu,477.476286,-0.7177833600000001,-9.950869980800002,-0.8296379336000002,1.89924261,1.62197946,-1.63463141,,,
imu,477.484761,-0.7082129152000001,-9.897036228800001,-0.8445917536,1.65250458,1.56964109,-0.9542325999999999,,,
imu,477.493236,-0.6842868032,-9.870717505600002,-0.8595455736000001,1.48801256,1.40514907,-0.6476792899999999,,,
imu,477.501711,-0.6896701784000001,-9.971207176000002,-0.8380120728000001,1.54035093,1.10607267,-0.49066418,,,
imu,477.510186,-0.6250696760000001,-10.0866506664,-0.9211553120000001,1.71979677,0.9116730099999999,-0.1093417699999999,,,
imu,477.518661,-0.5485061176,-10.135699196,-0.9600352440000001,1.54035093,0.50044296,0.21964227,,,
imu,477.527136,-0.5030465048,-10.0938285,-1.0246357464,1.17398234,-0.08275602000000015,0.21964227,,,
imu,477.535611,-0.5263744640000001,-9.984366537600001,-1.0503563168,0.78518302,-0.8678315700000003,-0.37851053,,,
imu,477.544086,-0.5784137576,-9.9335235496,-1.0784694984,0.3889067899999999,-1.50336892,-1.14115535,,,
imu,477.552561,-0.6250696760000001,-9.867128588800002,-1.0724879704,-0.38869185,-2.07161408,-2.00847691,,,
imu,477.561036,-0.6693329832000001,-9.835426490400001,-1.0060930096,-1.51770526,-2.39312121,-3.00290594,,,
imu,477.569511,-0.6800997336000001,-9.762451848800001,-1.0066911624,-2.93084125,-2.40059812,-4.08705789,,,
imu,477.577986,-0.7171852072000001,-9.6428212888,-1.01685976,-4.05237775,-2.29592138,-4.124442439999999,,,
imu,477.586461,-0.76264482,-9.560874355200001,-0.9935318008000001,-4.71034583,-2.05666026,-3.55619728,,,
imu,477.594936,-0.8057118216000001,-9.495077547200001,-0.9779798280000002,-4.69539201,-1.81739914,-3.496382,,,
imu,477.603411,-0.8667234072000001,-9.472347740800002,-0.8870606024000001,-4.40379252,-1.48093819,-3.88518132,,,
imu,476.130939,,,,,,,-90.7239212,164.8643092,120.9184344
imu,476.232502,,,,,,,-90.50419160000001,165.0840388,120.3202816
imu,476.334186,,,,,,,-90.3088764,164.6323724,121.2480288
imu,476.435627,,,,,,,-88.0383372,164.2051204,119.4413632
imu,476.53722,,,,,,,-90.23563320000001,164.4004356,120.58884
imu,476.638782,,,,,,,-87.5500492,163.1308868,117.9276704
imu,476.740894,,,,,,,-89.7595524,164.0098052,120.5644256
imu,476.841938,,,,,,,-90.1868044,163.5337244,118.0619496
imu,477.611886,-0.8846679912000001,-9.507040603200002,-0.8380120728000001,-3.760778259999999,-1.21924634,-3.78798149,,,
imu,477.620361,-0.8433954480000001,-9.642223136000002,-0.7339334856000002,-3.21496383,-0.8154932000000001,-3.21973633,,,
imu,477.628836,-0.7931506128000001,-9.7570684736,-0.7345316384000001,-2.87850288,-0.3818324200000003,-2.41223005,,,
imu,477.637311,-0.7907580016000001,-9.842604324000002,-0.7231667352000001,-2.80373378,-0.05284837999999992,-1.73183124,,,
imu,477.645786,-0.7823838624,-9.969412717600003,-0.6986424704000002,-2.94579507,0.1789358299999999,-1.18601681,,,
imu,477.654261,-0.7207741240000002,-10.0334150672,-0.6854831088000001,-3.27477911,0.35838167,-0.6925407499999998,,,
imu,477.662736,-0.6154992312,-10.0447799704,-0.6531828576,-4.06733157,0.2387511099999999,-0.26635688,,,
imu,477.671196,-0.6113121616,-10.0920340416,-0.6238733704,-4.725299649999999,-0.04537147000000008,0.21964227,,,
imu,477.679655,-0.6023398696000001,-10.1345028904,-0.6196863008000001,-5.66739031,-0.1650020300000001,0.6533030499999999,,,
imu,477.688115,-0.481513004,-10.0956229584,-0.6166955368000001,-6.53471187,-0.7257702800000003,1.07201001,,,
imu,477.696575,-0.3905937784,-9.9783850096,-0.6089195504,-7.3796027,-1.40616909,1.71502427,,,
imu,477.705035,-0.3720510416,-9.842006171200001,-0.6107140088,-7.686156009999999,-2.34078284,2.89637605,,,
imu,477.713494,-0.3206099008000001,-9.739722042400002,-0.6059287864000001,-7.469325619999999,-3.37259642,4.00295873,,,
imu,477.721954,-0.2404574256,-9.6224840936,-0.5849934384000001,-6.975849559999999,-4.63619421,5.16187978,,,
imu,477.730414,-0.1722680064,-9.617100718400001,-0.5383375200000001,-6.101051089999999,-6.041853290000001,6.40304684,,,
imu,477.738873,-0.1094619624,-9.633848996800001,-0.5646562432000001,-5.07671442,-7.53723529,7.614306260000001,,,
imu,477.747333,-0.05443190480000001,-9.664952942400001,-0.5323559920000001,-3.91779337,-9.30178605,8.90781169,,,
imu,477.755793,-0.04964668240000001,-9.737329431200001,-0.499457588,-2.72896468,-10.96166007,10.1863633,,,
imu,477.764253,-0.0675912664,-9.837819101600003,-0.4641665728000001,-2.10838115,-12.59910336,11.35276126,,,
imu,477.772712,-0.1244157824,-9.9753942456,-0.4617739616000001,-1.77939711,-14.07953154,12.4294363,,,
imu,477.781172,-0.2087553272,-10.0561448736,-0.4898871432,-1.89902767,-15.34312933,13.13226584,,,
imu,477.789632,-0.305057928,-10.1512511688,-0.472540712,-2.82616451,-16.27026617,13.1771273,,,
imu,477.798091,-0.4719425592000001,-10.1679994472,-0.5407301312,-4.17200831,-16.61420403,13.04254292,,,
imu,477.806551,-0.6657440664000001,-10.1620179192,-0.5646562432000001,-5.82440542,-16.35998909,12.8032818,,,
imu,477.815011,-0.8667234072000001,-10.1195490704,-0.6519865520000001,-7.95532477,-15.48519062,11.93596024,,,
imu,477.823471,-1.0264302048,-9.910793743200001,-0.6950535536000001,-10.24325923,-13.73559368,9.79756398,,,
imu,477.83193,-1.1227328056,-9.731347903200001,-0.6208826064000001,-12.55362442,-11.17101355,6.91147672,,,
imu,477.84039,-1.1227328056,-9.593174606400002,-0.6053306336000001,-13.97423732,-8.01575753,4.34689659,,,
imu,477.84885,-1.0641138312,-9.398774946400001,-0.6232752176,-14.47519029,-4.67357876,1.94680848,,,
imu,477.85731,-1.0132708432,-9.2336847736,-0.5269726168000001,-14.13125243,-1.40616909,-0.4458027199999999,,,
imu,477.865769,-0.9941299536000001,-9.186430702400001,-0.3864067088000001,-12.94990065,1.51730272,-2.76364482,,,
imu,477.874585,-0.8093007384,-9.216338342400002,-0.3415452488,-11.11058079,4.38095925,-4.61044159,,,
imu,477.883401,-0.6005454112,-9.356904250400001,-0.2757484408,-8.8749847,6.80347809,-5.47028624,,,
imu,477.892216,-0.3876030144000001,-9.478927421600002,-0.2458408008,-7.02818793,8.28390627,-5.34317877,,,
imu,477.901032,-0.1938015072,-9.633848996800001,-0.203371952,-5.32345245,9.10636637,-5.01419473,,,
imu,477.909847,0.0005981528000000001,-9.7510869456,-0.1776513816,-4.0897623,8.964305079999999,-4.78241052,,,
imu,477.918663,0.230288828,-9.849184004800001,-0.146547436,-3.31964057,7.92501459,-4.647826139999999,,,
imu,477.927479,0.4240903352000001,-9.914980812800001,-0.170473548,-2.99065653,6.23523293,-4.58801086,,,
imu,477.936294,0.5180003248000001,-9.917971576800003,-0.2189239248,-2.84111833,3.86505246,-4.692687599999999,,,
imu,477.94511,0.4922797544,-9.953262592000002,-0.2021756464,-2.60185721,1.18084177,-5.08896383,,,
imu,477.953925,0.4605776560000001,-10.0382002896,-0.2195220776,-2.55699575,-1.66786094,-5.567486069999999,,,
imu,477.962741,0.3971734592000001,-10.0226483168,-0.3164228312,-2.2953039,-4.4791791,-5.69459354,,,
imu,477.971557,0.2314851336,-9.919167882400002,-0.3660695136000001,-2.23548862,-6.909174849999999,-5.50767079,,,
imu,477.980372,0.026916876,-9.788770572,-0.3965753064,-2.02613514,-8.86064836,-4.93942563,,,
imu,477.989188,-0.1339862272,-9.627269316000001,-0.4510072112,-1.30835178,-10.16910761,-4.26650373,,,
imu,477.998003,-0.296085636,-9.456795768000001,-0.4665591840000001,-0.08213854000000001,-11.06633681,-3.98985806,,,
imu,478.006819,-0.4145198904,-9.321613235200001,-0.4851019208000001,1.30108981,-11.59719742,-4.44594957,,,
imu,478.015635,-0.4653628784000001,-9.2133475784,-0.5066354216000001,3.45443989,-11.47756686,-5.1413022,,,
imu,478.024392,-0.5467116592000001,-9.214543884000001,-0.4874945320000001,6.16108131,-11.01399844,-5.74693191,,,
imu,478.033208,-0.6884738728,-9.398176793600001,-0.3810233336,8.979876379999999,-10.15415379,-6.1880696,,,
imu,478.042023,-0.7835801680000001,-9.708019944000002,-0.4175106544000001,10.85658079,-8.48680286,-6.442284539999999,,,
imu,478.050839,-0.7632429728000001,-9.996329593600002,-0.5227855472,11.42482595,-6.340929689999999,-6.24040797,,,
imu,478.059655,-0.6705292888000001,-10.2236276576,-0.5197947832,10.76685787,-4.15767197,-5.76936264,,,
imu,478.06847,-0.5036446576000001,-10.246357464,-0.5670488544000001,9.23409132,-1.7874915,-4.81231816,,,
imu,478.076944,-0.3744436528,-10.1679994472,-0.5281689224000001,6.9760645,0.29856639,-2.59167589,,,
imu,478.085418,-0.3194135952000001,-10.1542419328,-0.4683536424000001,4.25446926,1.52477963,0.2345960900000001,,,
imu,478.093891,-0.2913004136,-10.039994748,-0.5257763112000001,1.80951969,2.23508608,1.87203938,,,
imu,478.102365,-0.3331711096,-9.819276364800002,-0.4360533912000001,-0.90459864,2.37714737,2.26831561,,,
imu,478.110839,-0.3355637208,-9.7008421104,-0.2924967192,-3.55142478,2.22760917,2.04400831,,,
imu,478.119312,-0.2697669128,-9.730749750400001,-0.2799355104,-5.435606099999999,1.84628676,1.50567079,,,
imu,478.127786,-0.2045682576000001,-9.802528086400002,-0.1848292152,-6.594527149999999,1.48739508,0.5635801300000001,,,
imu,478.13626,-0.1363788384,-9.782789044000001,-0.1160416432,-7.446894889999999,1.30047233,0.2570268200000001,,,
imu,478.144734,-0.1274065464,-9.696655040800001,-0.0346928624,-7.95532477,1.01634975,0.8477027100000001,,,
imu,478.153207,-0.1357806856,-9.637437913600001,-0.0281131816,-7.962801679999999,0.6275504299999999,1.25893276,,,
imu,478.161681,-0.1184342544,-9.6015487456,0.0323002512,-7.536617809999999,0.1265974599999997,1.04210237,,,
imu,478.170155,-0.13458438,-9.571641105600001,0.06041343280000001,-6.616957879999999,-0.37435551,0.5336724899999998,,,
imu,478.178628,-0.2111479384,-9.572239258400002,0.1148453376,-5.30849863,-0.7033395499999999,0.0177657,,,
imu,478.187102,-0.2733558296,-9.634447149600001,0.1716698536,-4.05985466,-0.8304470200000003,-0.96918642,,,
imu,478.195576,-0.2865151912,-9.767835224,0.1417622136,-2.92336434,-0.6435242699999999,-2.30755331,,,
imu,478.20405,-0.2942911776,-9.949075522400001,0.2009793408,-2.32521154,-0.35192478,-3.5711511,,,
imu,478.212523,-0.320011748,-10.1362973488,0.2416537312,-2.09342733,-0.0005100100000001717,-4.602964679999999,,,
imu,478.220997,-0.3541064576,-10.1554382384,0.1890162848,-2.25791935,0.3882893099999998,-5.67216281,,,
imu,478.229471,-0.3433397072,-10.0890432776,0.09211553120000002,-2.86354906,0.7770886299999997,-6.397423079999999,,,
imu,478.237944,-0.2069608688,-9.844996935200001,-0.026916876,-3.46917877,0.8967191899999998,-6.76379167,,,
imu,478.246418,-0.0663949608,-9.597959828800002,-0.1154434904,-3.76825517,0.9939190199999999,-7.21988318,,,
imu,478.254892,0.04785222400000001,-9.4735440464,-0.1238176296,-3.08037945,0.52287369,-7.518959579999999,,,
imu,478.263366,0.1447529776,-9.536948243200001,-0.068787572,-2.54951884,-0.5911859000000002,-7.66102087,,,
imu,478.271839,0.1932033544,-9.785181655200002,-0.0257205704,-2.15324261,-1.9370297,-7.77317452,,,
imu,478.2803,0.2458408008,-10.0178630944,-0.0323002512,-2.45979592,-3.61933445,-8.02738946,,,
imu,478.288761,0.2667761488000001,-10.1871403368,-0.0352910152,-3.15514855,-5.533423409999999,-8.27412749,,,
imu,478.297222,0.1650901728,-10.2780595624,-0.0675912664,-4.26920814,-7.51480456,-8.94704939,,,
imu,478.305683,-0.0155519728,-10.2798540208,-0.1333880744,-5.42065228,-9.10738639,-9.97886297,,,
imu,478.314144,-0.1662864784,-10.2900226184,-0.1333880744,-6.60200406,-10.07190778,-10.72655397,,,
imu,478.322605,-0.2877114968,-10.2654983536,-0.1483418944,-8.127293700000001,-10.2363998,-11.10039947,,,
imu,478.331066,-0.4677554896000001,-10.2625075896,-0.1214250184,-10.04885957,-9.85507739,-10.33027774,,,
imu,478.339527,-0.7123999848000001,-10.3199302584,-0.1070693512,-12.10500982,-8.890556,-8.02738946,,,
imu,478.347988,-0.8733030880000001,-10.3761566216,-0.1010878232,-14.37051355,-7.43255855,-4.64034923,,,
imu,478.356449,-0.9564463272000002,-10.36299726,-0.1178361016,-16.45657144,-5.899792,-1.35798574,,,
imu,478.36491,-1.0114763848,-10.2445630056,-0.1429585192,-18.65478298,-4.26982562,1.38604023,,,
imu,478.373371,-1.0880399432,-10.1231379872,-0.0723764888,-20.54644121,-2.51275177,3.92818963,,,
imu,478.381832,-1.055739692,-9.984366537600001,-0.0245242648,-22.00443866,-0.82297011,5.827324770000001,,,
imu,478.390293,-0.9731946056000002,-9.879091644800003,-0.04545961280000001,-22.72969893,1.21822632,7.1955993,,,
imu,478.398754,-0.9480721880000001,-9.843800629600002,0.017944584,-23.23812881,2.98277708,8.32461271,,,
imu,478.407215,-0.9199590064000001,-9.8013317808,0.04785222400000001,-23.58206667,4.59031273,8.85547332,,,
imu,478.415676,-0.7877672376000001,-9.734936820000001,0.08314323920000001,-23.72412796,6.24270984,8.49658164,,,
imu,478.424137,-0.6184899952000001,-9.623082246400001,0.09630260080000001,-23.67178959,7.67827656,7.95076721,,,
imu,476.943439,,,,,,,-90.0525252,163.6435892,120.5644256
imu,477.045032,,,,,,,-89.4421652,163.4848956,121.2968576
imu,477.146564,,,,,,,-88.52662520000001,162.6914276,120.6376688
imu,477.248096,,,,,,,-88.6120756,162.28859,119.6855072
imu,477.349689,,,,,,,-88.29468840000001,161.67823,119.6000568
imu,477.451252,,,,,,,-87.81860759999999,161.739266,120.3324888
imu,477.552814,,,,,,,-85.13302360000002,160.8115188,118.9896968
imu,477.654499,,,,,,,-87.73315720000001,161.7514732,119.7587504
imu,478.432598,-0.5060372688000001,-9.478927421600002,0.110658268,-23.39514392,8.8297207,7.1955993,,,
imu,478.441059,-0.406743904,-9.246844135200002,0.08493769760000001,-22.42314562,9.71947299,6.0740628,,,
imu,478.44952,-0.2554112456,-8.948365888000001,0.06041343280000001,-20.70345632,10.41482562,4.690834450000001,,,
imu,478.457981,-0.131593616,-8.712095532000001,0.1118545736,-18.30336821,10.98307078,3.52443649,,,
imu,478.466442,-0.06519865520000001,-8.723460435200002,0.2524204816,-15.29017348,11.22980881,2.67954566,,,
imu,478.474903,-0.0526374464,-9.005190404000002,0.3564990688,-11.99285617,11.05036297,1.72250118,,,
imu,478.483386,-0.0634041968,-9.303070498400002,0.4761296288000001,-8.822646330000001,10.78119421,0.4289957499999999,,,
imu,478.491869,-0.0251224176,-9.485507102400002,0.5604691736,-6.265543109999999,10.30267197,-1.13367844,,,
imu,478.500351,0.07656355840000001,-9.5184055064,0.6561736216000001,-4.777638019999999,9.44282732,-2.5991528,,,
imu,478.508834,0.1686790896,-9.5590798968,0.7770004872000001,-3.61124006,8.620367219999999,-3.53376655,,,
imu,478.517316,0.197390424,-9.657775108800001,0.8122915024000001,-2.16819643,7.603507459999999,-3.91508896,,,
imu,478.525799,0.2918985664000001,-9.671532623200001,0.8164785720000002,-1.19619813,6.250186749999999,-4.034719519999999,,,
imu,478.534282,0.4013605288,-9.6296619272,0.8266471696000001,-0.63542988,4.478159079999999,-4.15435008,,,
imu,478.542764,0.4701481008,-9.651195428000001,0.7991321408000002,0.007584380000000002,2.42200883,-4.33379592,,,
imu,478.551247,0.571235924,-9.737329431200001,0.7345316384000001,0.79265993,-0.06780220000000003,-4.363703559999999,,,
imu,478.559729,0.6244715232,-9.807313308800001,0.6992406232000001,1.30108981,-2.71462834,-4.74502597,,,
imu,478.568212,0.5245800056000001,-9.9365143136,0.6938572480000001,1.70484295,-5.54090032,-5.70207045,,,
imu,478.576695,0.3457323184,-10.0962211112,0.6866794144,1.95905789,-8.01575753,-6.76379167,,,
imu,478.585177,0.1692772424,-10.276265104,0.6962498592000002,1.76465823,-10.04200014,-7.885328169999999,,,
imu,478.59366,-0.0101685976,-10.3970919696,0.6687348304,0.68050628,-11.3579363,-9.724648029999999,,,
imu,478.602143,-0.1967922712,-10.368978788,0.5808063688,-0.5008455,-11.88879691,-11.81818283,,,
imu,478.610625,-0.3923882368,-10.189532948,0.5102243384,-1.73453565,-11.47756686,-13.6649796,,,
imu,478.619108,-0.5843952856000001,-10.0693042352,0.4360533912000001,-3.42431731,-10.2363998,-15.57906856,,,
imu,478.62759,-0.8039173632000001,-9.920364188,0.2996745528,-4.57576145,-8.00080371,-16.28937501,,,
imu,478.636073,-0.9702038416000002,-9.9048122152,0.2524204816,-5.47299065,-4.79320932,-15.29494598,,,
imu,478.644556,-1.0958159296,-9.851576616000001,0.1537252696,-6.616957879999999,-1.10709269,-13.09673444,,,
imu,478.653038,-1.1293124864,-9.746899876,0.1040785872,-7.753448199999999,2.67622377,-10.33775465,,,
imu,478.661521,-1.022841288,-9.591380148,0.07895616960000001,-8.90489234,5.80157215,-8.2068353,,,
imu,478.670003,-0.9062014920000001,-9.4496179344,0.1292010048,-9.48809132,8.31381391,-6.554438189999999,,,
imu,478.678486,-0.8332268504000001,-9.511227672800002,0.2619909264,-9.413322220000001,10.14565686,-4.759979789999999,,,
imu,478.686943,-0.6101158560000001,-9.6015487456,0.2847207328,-8.98713835,11.16251662,-3.3468438,,,
imu,478.6954,-0.4151180432000001,-9.6326526912,0.3517138464,-8.48618538,11.69337723,-2.24773803,,,
imu,478.703858,-0.2554112456,-9.638634219200002,0.46356842,-7.94784786,11.65599268,-1.20844754,,,
imu,478.712315,-0.1100601152,-9.758264779200001,0.5120187968000001,-6.998280289999999,11.2223319,-0.5654332799999999,,,
imu,478.720772,-0.0191408896,-9.892251006400002,0.580208216,-6.11600491,10.24285669,-0.60281783,,,
imu,478.729229,-0.0053833752,-9.939505077600002,0.6340419680000001,-5.70477486,9.121320189999999,-0.90937114,,,
imu,478.737686,-0.007775986400000001,-9.931130938400003,0.6968480120000001,-5.360837,8.17922953,-1.17106299,,,
imu,478.746144,0.0305057928,-9.934121702400002,0.7698226536000001,-5.151483519999999,7.341815609999999,-1.11872462,,,
imu,478.754601,0.1022841288,-9.946084758400001,0.7943469184000002,-5.25616026,6.40720186,-1.19349372,,,
imu,478.763058,0.03947808480000001,-9.821668976000002,0.7518780696000001,-5.42812919,5.62960322,-1.03647861,,,
imu,478.771515,-0.04007623760000001,-9.625474857600002,0.7327371800000001,-5.48794447,4.91929677,-1.41780102,,,
imu,478.779972,-0.03887993200000001,-9.402363863200002,0.6388271904000001,-4.97203768,4.40338998,-1.73183124,,,
imu,478.788429,-0.0281131816,-9.339557819200001,0.7614485144,-4.0897623,4.08188285,-2.28512258,,,
imu,478.796887,-0.137575144,-9.414326919200002,0.7429057776,-3.20748692,3.820191,-2.53186061,,,
imu,478.805344,-0.2500278704,-9.662560331200002,0.8218619472,-2.22801171,3.85009864,-2.95056757,,,
imu,478.813801,-0.2685706072,-9.891054700800002,0.8320305448000002,-1.74201256,4.06692903,-3.59358183,,,
imu,478.822258,-0.2895059552,-10.0094889552,0.8553585040000001,-1.90650458,4.3435747,-4.146873169999999,,,
imu,478.830715,-0.2924967192,-10.0513596512,0.8661252544000001,-2.16071952,5.0164966,-4.78988743,,,
imu,478.839173,-0.3176191368,-10.0567430264,0.8960328944000001,-2.77382614,5.59969558,-5.48524006,,,
imu,478.84763,-0.2344758976,-10.0387984424,0.9169682424000002,-3.618716969999999,6.160463829999999,-6.053485220000001,,,
imu,478.856087,-0.1591086448,-10.0561448736,0.9097904088000002,-4.45613089,6.706278259999999,-6.397423079999999,,,
imu,478.864544,-0.1148453376,-9.956253356,0.8954347416000001,-5.16643734,6.818431909999999,-6.5619151,,,
imu,478.873001,-0.068787572,-9.840809865600002,0.9014162696000001,-5.85431306,6.80347809,-6.5619151,,,
imu,478.881458,-0.06160973840000001,-9.803724392000001,0.9115848672000001,-6.22068165,6.52683242,-6.703976389999999,,,
imu,478.890327,-0.0526374464,-9.783387196800001,0.9235479232000001,-6.08609727,6.11560237,-6.85351459,,,
imu,478.899196,-0.0245242648,-9.720581152800001,0.9385017432000002,-5.80197469,5.681941589999999,-7.010529699999999,,,
imu,478.908065,-0.0275150288,-9.625474857600002,0.9432869656,-5.77206705,5.330526819999999,-6.83108386,,,
imu,478.916933,-0.04964668240000001,-9.550705757600001,0.9169682424000002,-5.458036829999999,4.79966621,-6.793699309999999,,,
imu,478.925802,-0.0855358504,-9.4346641144,0.8924439776000002,-5.061760599999999,4.455728349999999,-6.681545659999999,,,
imu,478.934671,-0.092713684,-9.414326919200002,0.9390998960000001,-4.62809982,4.171605769999999,-6.404899990000001,,,
imu,478.943539,-0.1483418944,-9.503451686400002,0.9343146736000002,-3.9402241,3.99963684,-6.17311578,,,
imu,478.952408,-0.2398592728,-9.550705757600001,0.8900513664000002,-3.01308726,3.69308353,-6.075915950000001,,,
imu,478.961277,-0.3283858872000001,-9.489694172,0.9056033392000001,-2.53456502,3.41643786,-6.644161110000001,,,
imu,478.970145,-0.3636769024000001,-9.477132963200003,0.9337165208000001,-1.86912003,3.23699202,-6.995575880000001,,,
imu,478.979014,-0.4450256832000001,-9.573435564,0.9564463272000002,-0.85973718,3.46877623,-6.85351459,,,
imu,478.987883,-0.5108224912,-9.702038416,0.9181645480000001,0.17955331,3.6706528,-6.487145999999999,,,
imu,478.996751,-0.5335522976000001,-9.735534972800002,0.9145756312000002,0.64312173,4.104313579999999,-6.0385314,,,
imu,479.00562,-0.5778156048000002,-9.746899876,0.9558481744000001,0.9197674,4.59031273,-5.77683955,,,
imu,479.014489,-0.5640580904000001,-9.8132948368,0.9558481744000001,1.58521239,5.308096089999999,-5.5151477,,,
imu,479.023357,-0.5359449088000001,-9.8647359776,0.9414925072000001,1.90671952,6.063264,-5.08896383,,,
imu,479.032226,-0.4438293776000001,-9.897634381600001,0.9468758824000001,1.89924261,6.751139719999999,-4.59548777,,,
imu,479.041095,-0.4139217376000001,-9.864137824800002,0.9373054376000002,1.63755076,7.21470814,-4.25902682,,,
imu,479.049963,-0.4169125016,-9.8653341304,0.9289312984000001,1.33847436,7.43153853,-4.02724261,,,
imu,479.058832,-0.3804251808,-9.9269438688,0.9624278552000001,0.8749059399999999,7.59603055,-3.86275059,,,
imu,479.067701,-0.2829262744000001,-9.990348065600001,0.9642223136000001,0.60573718,7.68575347,-3.71321239,,,
imu,479.076569,-0.2320832864,-9.8653341304,0.8374139200000001,0.13469185,7.551169089999999,-3.81788913,,,
imu,479.085438,-0.2823281216,-9.596165370400001,0.8254508640000001,-0.28401511,7.222185049999999,-4.169303899999999,,,
imu,479.093856,-0.3008708584000001,-9.454403156800002,0.8272453224,-0.2765382,6.69132444,-4.59548777,,,
imu,479.102274,-0.3236006648,-9.608128426400002,0.8469843648000001,0.47862971,6.39224804,-5.25345585,,,
imu,479.110691,-0.3511156936,-9.8144911424,0.8027210576,0.8749059399999999,5.84643361,-5.61982444,,,
imu,479.11904,-0.3893974728000001,-9.863539672000002,0.7787949456000002,0.8749059399999999,5.45015738,-5.61982444,,,
imu,479.127457,-0.4258847936,-9.817481906400001,0.8188711832000002,0.9870595899999999,5.1660348,-5.64973208,,,
imu,479.135875,-0.400762376,-9.825856045600002,0.8009265992000001,1.00201341,4.84452767,-5.567486069999999,,,
imu,479.144293,-0.3714528888,-9.9269438688,0.8075062800000001,0.68050628,4.478159079999999,-5.58243989,,,
imu,479.152711,-0.4025568344,-9.9580478144,0.8176748776000001,0.3216146,4.08188285,-5.500193879999999,,,
imu,479.161128,-0.4372496968000001,-9.985562843200002,0.8410028368000001,-0.25410747,3.80523718,-6.01610067,,,
imu,479.169546,-0.451605364,-10.0059000384,0.8272453224,-0.7251528,3.58840679,-6.270315609999999,,,
imu,479.177964,-0.4976631296000001,-9.9496736752,0.7835801680000001,-1.56256672,3.5958837,-6.23293106,,,
imu,479.186382,-0.5395338256000001,-9.858754449600001,0.7949450712000001,-2.25791935,3.73046808,-6.203023419999999,,,
imu,479.1948,-0.5526931872,-9.803724392000001,0.7752060288000001,-2.67662631,3.90243701,-5.896470109999999,,,
imu,479.203217,-0.5778156048000002,-9.8013317808,0.76264482,-2.80373378,4.23142105,-5.328224949999999,,,
imu,479.211635,-0.6292567456000001,-9.7953502528,0.7680281952000001,-3.14767164,4.54545127,-4.94690254,,,
imu,479.220053,-0.6765108168000001,-9.812696684000002,0.7943469184000002,-3.42431731,5.001542779999999,-4.887087259999999,,,
imu,479.228471,-0.6256678288,-9.897634381600001,0.8326286976000001,-3.34954821,5.33800373,-4.58801086,,,
imu,479.236888,-0.6107140088,-9.9269438688,0.86732156,-3.43179422,5.80904906,-4.31136519,,,
imu,479.245306,-0.6107140088,-9.953262592000002,0.8810790744000001,-3.37197894,6.36981731,-4.30388828,,,
imu,477.75586,,,,,,,-85.56027560000001,160.945798,118.3427152
imu,477.857484,,,,,,,-86.5734732,162.28859,120.89402
imu,477.959016,,,,,,,-86.36595080000001,162.3130044,120.3691104
imu,478.060548,,,,,,,-85.95090599999999,162.1909324,122.1269472
imu,478.16211,,,,,,,-85.6213116,162.1421036,122.8227576
imu,478.263703,,,,,,,-85.14523080000001,163.0454364,123.4209104
imu,478.365235,,,,,,,-85.56027560000001,162.7036348,124.2265856
imu,478.466798,,,,,,,-84.84005080000001,162.9477788,123.5918112
imu,479.253724,-0.5987509528,-9.9747960928,0.9115848672000001,-3.4168404,6.68384753,-4.30388828,,,
imu,479.262142,-0.5550857984,-9.989151760000002,0.9486703408000001,-3.28225602,7.02030848,-4.28145755,,,
imu,479.270559,-0.5215892416000001,-10.0274335392,0.9953262592000002,-3.37197894,7.13246213,-4.81979507,,,
imu,479.278977,-0.4647647256,-10.0328169144,1.0132708432,-3.08037945,7.21470814,-5.49271697,,,
imu,479.287395,-0.4623721144,-10.0352095256,1.0455710944,-3.25982529,7.16236977,-6.374992349999999,,,
imu,479.29586,-0.4988594352000001,-10.0543504152,1.0521507752,-3.22991765,6.83338573,-7.1600679,,,
imu,479.304325,-0.5036446576000001,-10.0382002896,1.0342061912,-3.49908641,6.534309329999999,-8.24421985,,,
imu,479.312789,-0.5556839512000001,-9.987357301600001,1.01685976,-3.35702512,6.444586409999999,-9.09658759,,,
imu,479.321254,-0.6872775672000001,-9.945486605600001,1.0473655528,-3.39440967,6.24270984,-9.88914005,,,
imu,479.329719,-0.8093007384,-9.942495841600001,1.0371969552,-3.67105534,6.19037147,-10.69664633,,,
imu,479.338184,-0.8984255056000002,-9.859950755200002,1.0060930096,-3.82059354,6.45954023,-10.81627689,,,
imu,479.346649,-0.9660167720000001,-9.718188541600002,0.9971207176000002,-4.21686977,7.222185049999999,-10.56953886,,,
imu,479.355113,-1.0216449824,-9.530368562400001,0.9636241608000001,-4.3888387,8.11193734,-10.1508319,,,
imu,479.363578,-1.0222431352,-9.349128264,0.9056033392000001,-4.47856162,9.29328912,-9.45547927,,,
imu,479.372043,-1.004896704,-9.173271340800001,0.8703123240000001,-4.28416196,10.4746409,-8.24421985,,,
imu,479.380508,-0.9570444800000002,-9.024331293600001,0.8098988912000001,-3.88788573,11.75319251,-7.00305279,,,
imu,479.388973,-0.8739012408000001,-8.984255056000002,0.7835801680000001,-3.53647096,12.80743682,-5.61982444,,,
imu,479.397437,-0.7429057776,-9.066800142400002,0.7530743752000001,-2.62428794,13.74205057,-3.98985806,,,
imu,479.405902,-0.5969564944000001,-9.169682424000001,0.7201759712000001,-1.89155076,14.32524955,-2.68139881,,,
imu,479.414367,-0.5251781584,-9.220525412,0.744700236,-1.00927538,14.27291118,-1.83650798,,,
imu,479.422832,-0.4522035168,-9.419112141600001,0.7931506128000001,-0.25410747,13.89906568,-1.66453905,,,
imu,479.431297,-0.3367600264,-9.694860582400002,0.8374139200000001,0.6954601,13.17380541,-1.59724686,,,
imu,479.439762,-0.2739539824000001,-9.921560493600001,0.8834716856000001,1.35342818,12.14946874,-2.06081528,,,
imu,479.448226,-0.2356722032,-10.1159601536,0.9331183680000001,1.65998149,11.02045533,-2.56176825,,,
imu,479.456691,-0.2428500368,-10.2517408392,0.9827650504000001,1.62259694,9.711996079999999,-2.92065993,,,
imu,479.465156,-0.2225128416,-10.3851289136,1.0276265104,1.27865908,8.6054134,-3.18235178,,,
imu,479.473621,-0.200381188,-10.410849484,1.0443747888,0.71789083,7.37920016,-3.39918217,,,
imu,479.482086,-0.19439966,-10.4012790392,1.0599267616,-0.14195382,6.24270984,-3.6459202,,,
imu,479.49055,-0.2237091472,-10.3265099392,1.0509544696,-0.9943215599999999,5.046404239999999,-3.84031986,,,
imu,479.49902,-0.3313766512,-10.2080756848,1.043776636,-1.46536689,3.88000628,-4.124442439999999,,,
imu,479.50749,-0.3553027632,-10.0866506664,1.034804344,-1.9962275,2.96782326,-4.625395409999999,,,
imu,479.51596,-0.3421434016,-10.0304243032,1.0306172744,-2.18315025,2.33976282,-4.87961035,,,
imu,479.52443,-0.415716196,-9.891054700800002,1.0312154272,-2.42241137,1.62945637,-4.89456417,,,
imu,479.5329,-0.499457588,-9.777405668800002,1.037795108,-2.8186876,0.9640113799999996,-5.05157928,,,
imu,479.54137,-0.5437208952000001,-9.711010708000002,1.0485618584,-3.00561035,0.70231953,-5.20859439,,,
imu,479.54984,-0.5987509528,-9.654186192000001,1.0635156784,-2.87850288,0.5677351499999999,-5.021671639999999,,,
imu,479.55831,-0.5885823552,-9.593174606400002,1.0778713456,-3.05047181,0.6125966099999998,-4.931948719999999,,,
imu,479.56678,-0.6172936896000001,-9.505844297600001,1.0754787344,-3.20748692,0.5901658799999998,-4.68521069,,,
imu,479.575249,-0.681894192,-9.425691822400001,1.0832547208,-3.31964057,0.70231953,-4.30388828,,,
imu,479.583719,-0.6525847048000001,-9.371259917600002,1.0533470808,-3.07290254,1.00887284,-3.85527368,,,
imu,479.592189,-0.6232752176,-9.326398457600002,1.0712916648,-2.66167249,1.13598031,-3.66087402,,,
imu,479.600659,-0.6382290376000002,-9.28632222,1.0533470808,-1.91398149,1.30794924,-3.29450543,,,
imu,479.609129,-0.7010350816000002,-9.285724067200002,1.07667504,-1.15881358,1.42010289,-2.96552139,,,
imu,479.617599,-0.6555754688000001,-9.4412437952,1.1137605136,-0.17186146,1.5023489,-2.84589083,,,
imu,479.626069,-0.5766192992000001,-9.548313146400002,1.088638096,0.7702292,1.74161002,-2.70382954,,,
imu,479.634539,-0.6071250920000001,-9.5429297712,1.1000029992,1.58521239,2.03320951,-2.38232241,,,
imu,479.643009,-0.6483976352,-9.580613397600002,1.0892362488,2.35533412,2.27994754,-2.18792275,,,
imu,479.651479,-0.6041343280000001,-9.725366375200002,1.052748928,2.97591765,2.60893158,-1.7766927,,,
imu,479.659948,-0.5700396184000001,-9.901821451200002,1.0222431352,3.2376095,2.93791562,-1.46266248,,,
imu,479.668418,-0.5945638832000001,-10.0112834136,0.9827650504000001,2.85628709,3.1472691,-1.4028472,,,
imu,479.676888,-0.5467116592000001,-10.0352095256,0.9749890640000002,2.32542648,3.34166876,-1.22340136,,,
imu,479.685358,-0.5120187968000001,-10.0382002896,0.9540537160000001,1.31604363,3.61083752,-1.47013939,,,
imu,479.693828,-0.4587831976000001,-10.0190594,0.9062014920000001,0.5010604399999999,3.58092988,-1.69444669,,,
imu,479.702283,-0.4127254320000001,-10.0387984424,0.9205571592,-0.24663056,3.52859151,-2.08324601,,,
imu,479.710737,-0.4240903352000001,-10.0555467208,0.9175663952000002,-0.74758353,3.33419185,-2.51690679,,,
imu,479.719192,-0.4575868920000001,-10.0346113728,0.9205571592,-1.20367504,3.02763854,-2.92813684,,,
imu,479.727647,-0.4163143488000001,-10.0136760248,0.9235479232000001,-1.60742818,2.9229618,-3.20478251,,,
imu,479.736101,-0.4210995712,-10.0334150672,0.9420906600000001,-2.07847351,2.79585433,-3.30198234,,,
imu,479.744556,-0.4689517952000001,-9.9999185104,0.9594370912000001,-2.48222665,2.63136231,-3.53376655,,,
imu,479.753011,-0.4791203928000001,-9.895241770400002,0.9821668976000001,-2.84859524,2.6238854,-3.47395127,,,
imu,479.761465,-0.4683536424000001,-9.850380310400002,0.9929336480000002,-2.94579507,2.49677793,-3.2720747,,,
imu,479.76992,-0.4851019208000001,-9.8234634344,1.0150653016,-3.05047181,2.30985518,-3.35432071,,,
imu,479.778374,-0.5132151024,-9.803724392000001,1.0246357464,-3.05047181,2.31733209,-3.496382,,,
imu,479.786829,-0.5407301312,-9.776209363200001,1.055739692,-3.06542563,2.15284007,-3.42908981,,,
imu,479.795284,-0.571235924,-9.7128051664,1.0994048464,-3.05794872,2.16031698,-3.62348947,,,
imu,479.803738,-0.5622636320000001,-9.708019944000002,1.1041900688,-3.13271782,2.13040934,-3.78050458,,,
imu,479.812193,-0.5676470072,-9.711608860800002,1.1107697496,-3.07290254,2.27247063,-3.69078166,,,
imu,479.820648,-0.5855915912,-9.669140012000002,1.1263217224,-3.117764,2.2500399,-3.85527368,,,
imu,479.829102,-0.5664507016000001,-9.6039413568,1.1346958616,-2.79625687,2.46687029,-3.77302767,,,
imu,479.837557,-0.571235924,-9.574631869600001,1.1646035016,-2.22801171,2.64631613,-3.60105874,,,
imu,479.846012,-0.5939657304000001,-9.578220786400001,1.1771647104,-1.65228964,2.6986545,-3.57862801,,,
imu,479.854466,-0.5969564944000001,-9.583604161600002,1.1765665576,-1.23358268,2.81080815,-3.5711511,,,
imu,479.862921,-0.5820026744000001,-9.530368562400001,1.1598182792,-0.83730645,2.8481927,-3.52628964,,,
imu,479.871375,-0.5820026744000001,-9.569248494400002,1.1729776408,-0.4260764,2.91548489,-3.54124346,,,
imu,479.87983,-0.5784137576,-9.655980650400002,1.1490515288,0.26927623,2.88557725,-3.54872037,,,
imu,479.888285,-0.5903768136,-9.7427128064,1.1442663064,0.49358353,2.93791562,-3.60853565,,,
imu,479.896739,-0.5921712720000001,-9.779200127200001,1.1382847784,0.46367589,2.96034635,-3.60853565,,,
imu,479.905564,-0.5778156048000002,-9.8479876992,1.1586219736,0.30666078,2.78090051,-3.57862801,,,
imu,479.914389,-0.6005454112,-9.917373424,1.1352940144,-0.23167674,2.76594669,-3.67582784,,,
imu,479.923214,-0.62806044,-9.916177118400002,1.1257235696,-0.82235263,2.78837742,-3.54124346,,,
imu,479.932039,-0.6262659816,-9.887465784000002,1.1329014032,-1.55508981,2.76594669,-3.60105874,,,
imu,479.940864,-0.6184899952000001,-9.910793743200001,1.1209383472,-1.89902767,2.87062343,-3.50385891,,,
imu,479.949689,-0.6196863008000001,-9.896438076,1.1131623608,-2.36259609,2.9229618,-3.20478251,,,
imu,479.958514,-0.6370327320000001,-9.8228652816,1.1107697496,-2.78877996,3.02763854,-3.07767504,,,
imu,479.967339,-0.6777071224000001,-9.8264541984,1.1137605136,-2.84111833,3.05006927,-3.10010577,,,
imu,479.976163,-0.6753145112000001,-9.810304072800001,1.1000029992,-2.87850288,3.02016163,-3.08515195,,,
imu,479.984988,-0.6370327320000001,-9.770825988000002,1.115554972,-2.87102597,3.24446893,-3.10010577,,,
imu,479.993813,-0.6513883992,-9.746301723200002,1.1137605136,-2.77382614,3.25942275,-3.15244414,,,
imu,480.002638,-0.6472013296000001,-9.746899876,1.1119660552,-2.47474974,3.34914567,-3.20478251,,,
imu,480.011463,-0.6561736216000001,-9.7540777096,1.1101715968,-2.2953039,3.26689966,-3.28702852,,,
imu,480.020288,-0.6543791632000001,-9.752881404000002,1.1107697496,-2.18315025,3.17717674,-3.45899745,,,
imu,480.029113,-0.6448087184,-9.718786694400002,1.1251254168,-1.87659694,3.21456129,-3.41413599,,,
imu,480.037938,-0.6537810104000001,-9.7008421104,1.1287143336,-1.57004363,3.23699202,-3.53376655,,,
imu,480.046762,-0.6735200528,-9.706823638400001,1.1227328056,-1.15881358,3.37905331,-3.47395127,,,
imu,480.055587,-0.6956517064000001,-9.706225485600001,1.1227328056,-0.8672140899999999,3.47625314,-3.43656672,,,
imu,480.064412,-0.6603606912000002,-9.706823638400001,1.1263217224,-0.7550604399999999,3.6706528,-3.33188998,,,
imu,478.56836,,,,,,,-85.20626680000001,164.11967,124.800324
imu,478.669923,,,,,,,-83.6071236,163.4726884,123.5918112
imu,478.771485,,,,,,,-86.2682932,163.5459316,125.8257288
imu,478.873231,,,,,,,-83.65595240000002,164.4980932,123.7260904
imu,478.97461,,,,,,,-86.1706356,165.0718316,126.0698728
imu,479.076173,,,,,,,-86.31712200000001,164.8154804,126.1064944
imu,479.177705,,,,,,,-86.19505000000001,165.1694892,126.0698728
imu,479.279298,,,,,,,-86.5734732,165.279354,125.898972
imu,480.073237,-0.6765108168000001,-9.7074217912,1.1209383472,-0.5008455,3.77532954,-3.10758268,,,
imu,480.082062,-0.7046239984,-9.7403201952,1.127518028,-0.15690764,3.88000628,-2.98795212,,,
imu,480.090887,-0.7213722768,-9.7361331256,1.1430700008,-0.04475399000000001,4.171605769999999,-2.92813684,,,
imu,480.099712,-0.7076147624000001,-9.745703570400002,1.1406773896,0.18703022,4.51554363,-2.748691,,,
imu,480.108239,-0.6836886504,-9.810902225600001,1.1011993048,0.27675314,4.672558739999999,-2.59167589,,,
imu,480.116766,-0.681894192,-9.786976113600002,1.100601152,0.35152224,5.03145042,-2.51690679,,,
imu,480.125293,-0.6567717744000001,-9.772022293600001,1.1227328056,0.01506129,4.98658896,-2.62158353,,,
imu,480.13382,-0.6083213976,-9.788770572,1.0898344016,0.09730729999999999,4.97163514,-2.59167589,,,
imu,480.142347,-0.5969564944000001,-9.803724392000001,1.0844510264,0.08235347999999998,4.90434295,-2.57672207,,,
imu,480.150875,-0.5885823552,-9.800135475200001,1.1179475832,-0.13447691,4.88191222,-2.58419898,,,
imu,480.159402,-0.5688433128,-9.785779808000001,1.1239291112,-0.38121494,4.7921893,-2.58419898,,,
imu,480.167929,-0.535346756,-9.802528086400002,1.1496496816,-0.35878421,4.62022037,-2.49447606,,,
imu,480.176456,-0.5377393672000002,-9.865932283200001,1.1556312096,-0.6279529699999999,4.36600543,-2.56176825,,,
imu,480.184983,-0.5562821040000001,-9.881484256,1.1705850296,-0.8522602699999999,4.16412886,-2.46456842,,,
imu,480.19351,-0.5299633808,-9.864137824800002,1.1711831824,-1.25601341,3.76785263,-2.62158353,,,
imu,480.202037,-0.5197947832,-9.842006171200001,1.1885296136,-1.56256672,3.4463455,-2.79355246,,,
imu,480.210507,-0.5497024232000001,-9.807313308800001,1.205277892,-1.74948947,3.28933039,-2.71878336,,,
imu,480.219034,-0.5389356728,-9.803126239200001,1.1957074472,-1.82425857,3.00520781,-2.748691,,,
imu,480.227561,-0.5168040192000001,-9.802528086400002,1.1939129888,-1.8466893,2.88557725,-2.60662971,,,
imu,480.236088,-0.5395338256000001,-9.768433376800001,1.1975019056,-1.98127368,2.83323888,-2.49447606,,,
imu,480.244615,-0.5694414656000001,-9.749890640000002,1.202287128,-1.74201256,2.76594669,-2.34493786,,,
imu,480.253142,-0.5837971328000001,-9.727160833600001,1.1897259192,-1.4728438,2.72856214,-2.34493786,,,
imu,480.261669,-0.5885823552,-9.775611210400001,1.214250184,-1.24105959,2.65379304,-2.47204533,,,
imu,480.270197,-0.6172936896000001,-9.7989391696,1.2208298648,-0.8672140899999999,2.70613141,-2.6739219,,,
imu,480.278724,-0.6352382736000001,-9.772620446400001,1.2304003096,-0.74758353,2.74351596,-2.78607555,,,
imu,480.287251,-0.6495939408000001,-9.7702278352,1.2268113928,-0.5681376899999999,3.15474601,-2.83093701,,,
imu,480.295778,-0.6579680800000002,-9.780396432800002,1.2226243232,-0.60552224,3.31176112,-2.95056757,,,
imu,480.304305,-0.6627533024,-9.803126239200001,1.2208298648,-0.71767589,3.52859151,-2.85336774,,,
imu,480.312711,-0.6681366776000001,-9.8228652816,1.2160446424,-0.8821679099999999,3.90243701,-2.76364482,,,
imu,480.321118,-0.6394253432000001,-9.813892989600001,1.217240948,-0.92702937,4.30619015,-2.61410662,,,
imu,480.329524,-0.6340419680000001,-9.808509614400002,1.2076705032,-1.06161375,4.70246638,-2.51690679,,,
imu,480.33793,-0.6113121616,-9.8049206976,1.1927166832,-1.53265908,4.76975857,-2.61410662,,,
imu,480.346337,-0.601143564,-9.785779808000001,1.1885296136,-1.75696638,4.87443531,-2.56176825,,,
imu,480.354743,-0.5497024232000001,-9.762451848800001,1.2028852808,-1.87659694,5.03145042,-2.5991528,,,
imu,480.363149,-0.5497024232000001,-9.780396432800002,1.21125942,-2.0709966,5.17351171,-2.8234601,,,
imu,480.371556,-0.5269726168000001,-9.785181655200002,1.220231712,-2.12333497,5.12865025,-2.84589083,,,
imu,480.379962,-0.4898871432,-9.740918348000001,1.2507375048,-2.19810407,5.068834969999999,-2.83841392,,,
imu,480.388368,-0.4916816016,-9.7474980288,1.2668876304,-2.36259609,4.82957385,-2.85336774,,,
imu,480.396775,-0.4456238360000001,-9.788172419200002,1.253130116,-2.27287317,4.75480475,-2.77859864,,,
imu,480.405181,-0.4629702672000001,-9.755274015200001,1.2638968664,-2.2205348,4.523020539999999,-2.58419898,,,
imu,480.413587,-0.442633072,-9.689477207200001,1.265093172,-2.19062716,4.20899032,-2.43466078,,,
imu,479.380855,,,,,,,-87.52563479999999,164.9497596,126.875548
imu,479.482387,,,,,,,-87.59887800000001,165.462462,125.0322608
imu,479.583919,,,,,,,-87.904058,165.5357052,125.898972
imu,479.685573,,,,,,,-86.19505000000001,165.401426,123.5429824
imu,479.787074,,,,,,,-88.209238,166.1460652,126.7168544
imu,479.888606,,,,,,,-85.7433836,165.4380476,124.1777568
imu,479.990169,,,,,,,-87.9773012,165.6211556,126.631404
imu,480.091914,,,,,,,-87.92847240000002,166.3902092,126.2773952
imu,480.193355,,,,,,,-88.52662520000001,166.8296684,126.9487912
imu,480.294917,,,,,,,-88.05054439999999,167.1226412,126.8389264
imu,480.396419,,,,,,,-87.9773012,167.3301636,127.0220344
