Type,Timestamp,Data Accelerometer X,Data Accelerometer Y,Data Accelerometer Z,Data Gyroscope X,Data Gyroscope Y,Data Gyroscope Z,Data Magnetometer X,Data Magnetometer Y,Data Magnetometer Z
imu,259.05443,0.06400234960000001,-9.0578278504,3.7408476112,-2.13828879,4.07440594,-1.59724686,,,
imu,259.062894,0.0723764888,-9.051846322400001,3.782718307200001,-2.05604278,3.99215993,-1.51500085,,,
imu,259.071357,0.0514411408,-9.055435239200001,3.792288752000001,-2.20558098,3.820191,-1.46266248,,,
imu,259.079821,0.0317020984,-9.0644075312,3.777334932,-2.15324261,3.73794499,-1.38041647,,,
imu,259.088285,0.0185427368,-9.066800142400002,3.7779330848,-1.83173548,3.73794499,-1.42527793,,,
imu,259.096748,0.0143556672,-9.062613072800001,3.792288752000001,-1.89902767,3.85757555,-1.24583209,,,
imu,259.105212,0.0346928624,-9.066800142400002,3.7928869048,-1.66724346,4.20899032,-0.7897405799999999,,,
imu,259.113675,0.05802082160000001,-9.0673982952,3.7821201544,-1.5476129,4.37348234,-0.43832581,,,
imu,259.122139,0.08194693360000001,-9.079959504000001,3.7707552512,-1.12142903,4.28375942,-0.5878640099999999,,,
imu,259.130602,0.1052748928,-9.069192753600001,3.753408820000001,-0.80739881,4.30619015,-0.99909406,,,
imu,259.139066,0.1172379488,-9.056631544800002,3.750418056,-0.54570696,4.05945212,-1.37293956,,,
imu,259.147529,0.11963056,-9.0476592528,3.755203278400001,-0.13447691,3.77532954,-1.70940051,,,
imu,259.156346,0.09211553120000002,-9.058426003200001,3.7432402224,-0.02980017,3.57345297,-1.98604618,,,
imu,259.165163,0.07955432240000002,-9.056631544800002,3.723501180000001,-0.07466163,3.46129932,-2.18044584,,,
imu,259.17398,0.0723764888,-9.056033392000002,3.725893791200001,-0.08213854000000001,3.42391477,-2.24773803,,,
imu,259.182797,0.08374139200000001,-9.063211225600002,3.7426420696,-0.04475399000000001,3.40148404,-2.24773803,,,
imu,259.191614,0.0634041968,-9.070389059200002,3.7276882496,-0.18681528,3.52859151,-2.21783039,,,
imu,259.200431,0.05861897440000001,-9.079959504000001,3.722903027200001,-0.17186146,3.53606842,-2.06081528,,,
imu,259.209248,0.0514411408,-9.0853428792,3.732473472000001,-0.32139966,3.49120696,-2.10567674,,,
imu,259.218065,0.0502448352,-9.0817539624,3.7270900968,-0.17186146,3.46129932,-2.11315365,,,
imu,259.226882,0.04725407120000001,-9.0961096296,3.733071624800001,-0.28401511,3.49868387,-2.19539966,,,
imu,259.235699,0.05084298800000001,-9.115250519200002,3.7408476112,-0.58309151,3.5211146,-2.21783039,,,
imu,259.244516,0.0514411408,-9.131998797600001,3.7408476112,-0.56066078,3.62579134,-2.17296893,,,
imu,259.253332,0.04845037680000001,-9.142167395200001,3.7378568472,-0.5307531400000001,3.70803735,-2.06829219,,,
imu,259.262149,0.0532355992,-9.1373821728,3.743838375200001,-0.47093786,3.73046808,-2.08324601,,,
imu,259.270966,0.05682451600000001,-9.13678402,3.7432402224,-0.48589168,3.75289881,-1.91127708,,,
imu,259.279783,0.05562821040000001,-9.142167395200001,3.7408476112,-0.4260764,3.83514482,-1.87389253,,,
imu,259.2886,0.06579680800000001,-9.145158159200001,3.751614361600001,-0.48589168,3.93234465,-1.86641562,,,
imu,259.297417,0.080750628,-9.151737840000001,3.7546051256,-0.77001426,4.13422122,-1.8514618,,,
imu,259.306234,0.0735727944,-9.1475507704,3.755801431200001,-1.03918302,4.02954448,-1.81407725,,,
imu,259.315051,0.080750628,-9.152335992800001,3.7390531528,-1.09152139,4.02206757,-1.9262309,,,
imu,259.323868,0.08792846160000001,-9.132596950400002,3.728286402400001,-1.00179847,4.0444983,-1.85893871,,,
imu,259.332685,0.08912476720000001,-9.100894852000001,3.7366605416,-0.94198319,4.20899032,-1.87389253,,,
imu,259.341502,0.09690075360000001,-9.110465296800001,3.7450346808,-1.07656757,4.14169813,-1.97856927,,,
imu,259.350319,0.09929336480000002,-9.117643130400001,3.728884555200001,-0.95693701,4.104313579999999,-2.08324601,,,
imu,259.358783,0.1088638096,-9.090726254400002,3.712136276800001,-0.9494601,4.05945212,-2.23278421,,,
imu,259.367247,0.08912476720000001,-9.0614167672,3.7360623888,-1.10647521,3.81271409,-2.27764567,,,
imu,259.375712,0.092713684,-9.062613072800001,3.739651305600001,-1.00927538,3.86505246,-2.05333837,,,
imu,259.384176,0.09151737840000002,-9.083548420800001,3.7312771664,-1.15133667,3.88748319,-1.80660034,,,
imu,259.39264,0.0980970592,-9.108072685600002,3.737258694400001,-1.0989983,3.99963684,-1.61967759,,,
imu,259.401105,0.1142471848,-9.111661602400002,3.722903027200001,-1.06161375,3.85757555,-1.78416961,,,
imu,259.409569,0.1148453376,-9.111063449600001,3.730679013600001,-1.14385976,3.6706528,-1.94866163,,,
imu,259.418033,0.1178361016,-9.112857908,3.735464236,-1.06909066,3.52859151,-1.9262309,,,
imu,259.426498,0.1052748928,-9.094913324,3.7522125144,-1.06161375,3.34166876,-2.04586146,,,
imu,259.434962,0.09570444800000001,-9.0883336432,3.744436528,-0.94198319,3.18465365,-2.03838455,,,
imu,259.443427,0.07955432240000002,-9.0673982952,3.742043916800001,-1.09152139,3.15474601,-2.12063056,,,
imu,259.451891,0.06998387760000001,-9.066800142400002,3.7348660832,-0.9943215599999999,3.07997691,-1.95613854,,,
imu,259.460355,0.07177833600000001,-9.0596223088,3.7336697776,-0.79244499,3.15474601,-1.88884635,,,
imu,259.46882,0.06220789120000001,-9.060220461600002,3.732473472000001,-0.64290679,3.38653022,-1.68696978,,,
imu,259.477284,0.07058203040000001,-9.070389059200002,3.734267930400001,-0.71767589,3.39400713,-1.56733922,,,
imu,259.485748,0.07775986400000001,-9.073379823200002,3.748025444800001,-0.63542988,3.39400713,-1.44770866,,,
imu,259.494213,0.09450814240000002,-9.0925207128,3.7402494584,-0.53823005,3.52859151,-1.51500085,,,
imu,259.502677,0.09749890640000002,-9.097904088000002,3.753408820000001,-0.54570696,3.48373005,-1.63463141,,,
imu,259.511141,0.1010878232,-9.0991003936,3.750418056,-0.5681376899999999,3.34914567,-1.70940051,,,
imu,259.519606,0.1022841288,-9.106876380000001,3.7599885008,-0.5756146,3.20708438,-1.84398489,,,
imu,259.52807,0.10467674,-9.119437588800002,3.755203278400001,-0.5307531400000001,3.28185348,-1.75426197,,,
imu,259.536534,0.1058730456,-9.1122597552,3.7707552512,-0.59056842,3.28933039,-1.78416961,,,
imu,259.544999,0.1010878232,-9.112857908,3.760586653600001,-0.76253735,3.17717674,-1.9262309,,,
imu,259.553463,0.1130508792,-9.109867144,3.751016208800001,-0.6503837,3.28933039,-1.86641562,,,
imu,259.561928,0.11963056,-9.100296699200001,3.748025444800001,-0.85973718,3.24446893,-1.75426197,,,
imu,259.570377,0.1238176296,-9.090726254400002,3.751614361600001,-0.70272207,3.19213056,-1.66453905,,,
imu,259.578827,0.1321917688,-9.0883336432,3.7450346808,-0.73262971,3.09493073,-1.70940051,,,
imu,259.587276,0.1357806856,-9.084146573600002,3.744436528,-0.68776825,2.98277708,-1.73930815,,,
imu,259.595726,0.1453511304,-9.081155809600002,3.733071624800001,-0.66533752,2.83323888,-1.80660034,,,
imu,259.604175,0.1399677552,-9.079959504000001,3.7402494584,-0.5681376899999999,2.78090051,-1.74678506,,,
imu,259.612625,0.1501363528,-9.0506500168,3.738455000000001,-0.60552224,2.6238854,-1.81407725,,,
imu,259.621074,0.1591086448,-9.0303128216,3.738455000000001,-0.5756146,2.45191647,-1.8514618,,,
imu,259.629524,0.1567160336,-9.066800142400002,3.726491944,-0.25410747,2.22760917,-1.82903107,,,
imu,259.637974,0.1543234224,-9.103885616000001,3.713332582400001,-0.29149202,1.92105586,-1.78416961,,,
imu,259.646423,0.1656883256,-9.073977976,3.7151270408,-0.05970781,1.71170238,-1.79912343,,,
imu,259.654873,0.16449202,-9.031509127200001,3.721108568800001,-0.02232326000000001,1.51730272,-1.89632326,,,
imu,259.663322,0.1746606176,-9.0781650456,3.7001732208,0.03749201999999999,1.04625739,-1.89632326,,,
imu,259.671772,0.1896144376,-9.103287463200001,3.7019676792,0.35152224,0.56025824,-1.76173888,,,
imu,259.680221,0.2009793408,-9.098502240800002,3.7001732208,0.5459219,0.1490281899999997,-1.56733922,,,
imu,259.688671,0.2111479384,-9.1092689912,3.693593540000001,0.620691,-0.1799558500000003,-1.36546265,,,
imu,259.69712,0.2201202304,-9.1290080336,3.6917990816,0.56087572,-0.6883857300000003,-1.12620153,,,
imu,259.70557,0.230288828,-9.1224283528,3.704958443200001,0.56087572,-1.27906162,-0.7000176599999999,,,
imu,259.714019,0.218325772,-9.111063449600001,3.7013695264,0.23189168,-1.8622606,-0.26635688,,,
imu,259.722469,0.2195220776,-9.0991003936,3.692995387200001,0.27675314,-2.62490542,0.0177657,,,
imu,259.730919,0.215335008,-9.090726254400002,3.687612012,0.10478421,-3.35016569,0.1972115400000001,,,
imu,259.739368,0.1776513816,-9.1236246584,3.722903027200001,0.19450713,-3.79878029,0.6233954100000001,,,
imu,259.747818,0.1620994088,-9.171476882400002,3.734267930400001,0.19450713,-4.26982562,1.13182529,,,
imu,259.756267,0.1459492832,-9.184038091200001,3.696584304,0.11226112,-4.74834786,1.58043989,,,
imu,259.764717,0.11963056,-9.161308284800002,3.7043602904,-0.127,-5.06985499,1.96923921,,,
imu,259.773182,0.1130508792,-9.134391408800001,3.710939971200001,-0.32887657,-5.159577909999999,2.32065398,,,
imu,259.781646,0.1303973104,-9.139176631200002,3.7001732208,-0.29896893,-5.144624090000001,2.90385296,,,
imu,259.790111,0.1471455888,-9.1541304512,3.678639720000001,-0.2765382,-5.316593019999999,3.29265228,,,
imu,259.798576,0.1567160336,-9.170280576800002,3.6714618864,-0.0522309,-5.555854139999999,3.37489829,,,
imu,259.807041,0.1668846312,-9.1511396872,3.6714618864,-0.05970781,-5.68296161,3.09825262,,,
imu,259.815506,0.1758569232,-9.129606186400002,3.6672748168,-0.07466163,-5.89231509,2.97114515,,,
imu,259.823971,0.1806421456,-9.118839436000002,3.6732563448,-0.08961545,-6.13157621,2.88142223,,,
imu,259.832435,0.1626975616,-9.114652366400001,3.6923972344,-0.13447691,-6.15400694,2.73188403,,,
imu,259.8409,0.13458438,-9.1200357416,3.684023095200001,-0.19429219,-6.33345278,2.59729965,,,
imu,259.849365,0.1244157824,-9.114652366400001,3.674452650400001,-0.5307531400000001,-6.41569879,2.40289999,,,
imu,259.85783,0.1244157824,-9.1134560608,3.676247108800001,-0.5307531400000001,-6.31102205,2.32813089,,,
imu,259.866295,0.113649032,-9.100296699200001,3.6690692752,-0.47841477,-6.16148385,2.23840797,,,
imu,259.874759,0.125612088,-9.090128101600001,3.670265580800001,-0.66533752,-6.041853290000001,1.97671612,,,
imu,259.883224,0.1010878232,-9.096707782400001,3.6708637336,-0.63542988,-5.727823069999999,1.8869932,,,
imu,259.891689,0.08792846160000001,-9.095511476800002,3.6894064704,-0.5681376899999999,-5.61566942,2.13373123,,,
imu,259.900154,0.092713684,-9.103885616000001,3.6828267896,-0.53823005,-5.421269759999999,2.14120814,,,
imu,259.908619,0.0903210728,-9.1092689912,3.692995387200001,-0.51579932,-5.25677774,1.61034753,,,
imu,259.917083,0.0783580168,-9.118839436000002,3.6941916928,-0.5681376899999999,-5.159577909999999,1.25145585,,,
imu,259.925548,0.05981528000000001,-9.114652366400001,3.702565832000001,-0.49336859,-5.032470440000001,0.8850872600000002,,,
imu,259.934013,0.04187069600000001,-9.104483768800002,3.7013695264,-0.45598404,-4.87545533,0.6757337799999998,,,
imu,259.942478,0.0221316536,-9.121232047200001,3.7007713736,-0.53823005,-4.53899438,0.3916112000000003,,,
imu,259.950943,0.007775986400000001,-9.114054213600001,3.696584304,-0.5307531400000001,-4.19505652,0.0177657,,,
imu,259.959408,-0.0023926112,-9.1302043392,3.7001732208,-0.5008455,-3.56699608,-0.2214954199999999,,,
imu,259.967872,-0.007775986400000001,-9.13678402,3.707351054400001,-0.47841477,-3.05108929,-0.40841817,,,
imu,259.976724,-0.011963056,-9.1499433816,3.709145512800001,-0.71019898,-2.43798267,-0.77478676,,,
imu,259.985575,-0.0197390424,-9.132596950400002,3.688210164800001,-0.91207555,-1.89216824,-1.09629389,,,
imu,259.994427,-0.01495382,-9.1164468248,3.714528888000001,-0.79244499,-1.25663089,-1.253309,,,
imu,260.003278,-0.0053833752,-9.119437588800002,3.7199122632,-0.6279529699999999,-0.4939860700000001,-1.37293956,,,
imu,260.012129,0.007775986400000001,-9.139176631200002,3.7001732208,-0.5980453299999999,0.01444380999999995,-1.67201596,,,
imu,260.020981,0.004785222400000001,-9.114652366400001,3.688210164800001,-0.71767589,0.4032431299999999,-2.04586146,,,
imu,260.029832,0.005981528000000001,-9.093717018400001,3.706752901600001,-0.874691,0.9191499199999997,-2.26269185,,,
imu,260.038684,-0.0017944584,-9.1026893104,3.7199122632,-0.92702937,1.38271834,-2.38232241,,,
imu,260.047535,0.0,-9.121830200000002,3.709145512800001,-0.83730645,2.00330187,-2.4496146,,,
imu,260.056387,0.011963056,-9.132596950400002,3.709743665600001,-0.91207555,2.51173175,-2.47204533,,,
imu,260.065238,0.0317020984,-9.134989561600001,3.705556596,-1.07656757,2.90053107,-2.62158353,,,
imu,260.074089,0.04964668240000001,-9.117643130400001,3.6947898456,-1.04665993,3.24446893,-2.88327538,,,
imu,260.082941,0.0723764888,-9.0996985464,3.6941916928,-1.08404448,3.47625314,-3.01785976,,,
imu,260.091792,0.0855358504,-9.096707782400001,3.6941916928,-1.13638285,3.72299117,-3.22721324,,,
imu,260.100644,0.080750628,-9.0817539624,3.690004623200001,-1.10647521,3.77532954,-3.38422835,,,
imu,260.109495,0.08254508640000002,-9.0925207128,3.690004623200001,-1.15881358,3.94729847,-3.59358183,,,
imu,259.139211,,,,,,,-88.42896760000001,177.3766892,104.2433992
imu,259.240773,,,,,,,-91.1145516,178.3166436,107.0144336
imu,259.342336,,,,,,,-88.23365240000001,177.974842,104.5241648
imu,260.118257,0.08194693360000001,-9.090726254400002,3.6870138592,-1.1737674,3.97720611,-3.6459202,,,
imu,260.127108,0.092713684,-9.0913244072,3.696584304,-1.03918302,4.0444983,-3.38422835,,,
imu,260.135959,0.1022841288,-9.097305935200001,3.7031639848,-1.11395212,4.11179049,-3.23469015,,,
imu,260.144811,0.107667504,-9.1122597552,3.714528888000001,-1.08404448,4.149175039999999,-3.01785976,,,
imu,260.153662,0.1124527264,-9.1290080336,3.711538124,-1.03170611,4.246374869999999,-2.95056757,,,
imu,260.162514,0.1094619624,-9.129606186400002,3.709145512800001,-1.11395212,4.13422122,-3.07019813,,,
imu,260.171365,0.1058730456,-9.118839436000002,3.7139307352,-1.09152139,4.171605769999999,-3.01785976,,,
imu,260.17981,0.1118545736,-9.111661602400002,3.709145512800001,-1.09152139,4.23889796,-2.95056757,,,
imu,260.188254,0.1178361016,-9.0996985464,3.7079492072,-1.19619813,4.216467229999999,-2.96552139,,,
imu,260.196699,0.113649032,-9.103885616000001,3.7061547488,-1.1737674,4.126744309999999,-3.0477674,,,
imu,260.205143,0.10467674,-9.100296699200001,3.709743665600001,-1.0989983,4.02954448,-3.21973633,,,
imu,260.213587,0.0861340032,-9.098502240800002,3.713332582400001,-1.13638285,3.98468302,-3.32441307,,,
imu,260.222032,0.0681894192,-9.105081921600002,3.728884555200001,-1.01675229,4.149175039999999,-3.496382,,,
imu,260.230476,0.03887993200000001,-9.108670838400002,3.7157251936,-0.81487572,4.20151341,-3.45899745,,,
imu,260.238921,0.0275150288,-9.0996985464,3.7199122632,-0.7999219,4.410866889999999,-3.73564312,,,
imu,260.247365,0.0137575144,-9.085941032000001,3.7181178048,-0.78496808,4.62769728,-3.90013514,,,
imu,260.25581,-0.004785222400000001,-9.108670838400002,3.723501180000001,-0.68029134,4.92677368,-4.13939626,,,
imu,260.264254,0.0023926112,-9.130802492,3.7181178048,-0.65786061,5.263234629999999,-4.32631901,,,
imu,260.272699,0.002990764,-9.121232047200001,3.723501180000001,-0.7401066199999999,5.55483412,-4.47585721,,,
imu,260.281143,-0.0005981528000000001,-9.097904088000002,3.7223048744,-0.73262971,5.81652597,-4.647826139999999,,,
imu,260.289588,0.0005981528000000001,-9.097305935200001,3.7139307352,-0.91955246,6.14551001,-4.96185636,,,
imu,260.298032,0.0113649032,-9.0991003936,3.7217067216,-0.8821679099999999,6.3623404,-5.044102369999999,,,
imu,260.306477,0.005981528000000001,-9.090128101600001,3.7312771664,-0.8821679099999999,6.54926315,-5.05905619,,,
imu,260.314921,0.0185427368,-9.0817539624,3.7223048744,-0.71019898,6.78104736,-5.03662546,,,
imu,260.323366,0.0430670016,-9.084146573600002,3.7181178048,-0.64290679,6.87824719,-5.021671639999999,,,
imu,260.33181,0.03947808480000001,-9.083548420800001,3.7270900968,-0.66533752,6.83338573,-4.84970271,,,
imu,260.340254,0.04785222400000001,-9.073379823200002,3.729482708,-0.52327623,6.908154829999999,-4.77493361,,,
imu,260.348699,0.0592171272,-9.076968740000002,3.721108568800001,-0.52327623,6.71375517,-4.70764142,,,
imu,260.357143,0.05981528000000001,-9.0817539624,3.7079492072,-0.44103022,6.57169388,-4.49081103,,,
imu,260.365588,0.062806044,-9.0578278504,3.7019676792,-0.3513073,6.45954023,-4.22164227,,,
imu,260.374032,0.0663949608,-9.062613072800001,3.709743665600001,-0.26158438,6.339909669999999,-4.07210407,,,
imu,260.382495,0.0675912664,-9.0638093784,3.709743665600001,-0.19429219,6.23523293,-3.78050458,,,
imu,260.390957,0.0693857248,-9.082950268000001,3.705556596,-0.21672292,6.010925629999999,-3.63096638,,,
imu,260.399419,0.0723764888,-9.111063449600001,3.7103418184,-0.007369440000000005,5.831479789999999,-3.41413599,,,
imu,260.407881,0.068787572,-9.114652366400001,3.710939971200001,-0.03727708,5.55483412,-3.32441307,,,
imu,260.416344,0.06160973840000001,-9.120633894400001,3.7199122632,-0.11204618,5.38286519,-3.48890509,,,
imu,260.424806,0.0592171272,-9.118241283200001,3.728286402400001,-0.22419983,5.308096089999999,-3.496382,,,
imu,260.433268,0.04007623760000001,-9.1266154224,3.7378568472,-0.32139966,5.15108098,-3.3468438,,,
imu,260.441731,0.0382817792,-9.131400644800001,3.720510416000001,-0.55318387,5.03892733,-3.25712088,,,
imu,260.450193,0.0340947096,-9.125419116800002,3.726491944,-0.6503837,5.023973509999999,-3.30945925,,,
imu,260.458655,0.0167482784,-9.1134560608,3.739651305600001,-0.70272207,5.14360407,-3.1973056,,,
imu,260.467117,0.008374139200000002,-9.090726254400002,3.707351054400001,-0.5756146,5.14360407,-3.11505959,,,
imu,260.47558,0.008972292000000002,-9.048855558400001,3.691200928800001,-0.4260764,5.263234629999999,-3.18982869,,,
imu,260.484042,-0.007775986400000001,-9.0434721832,3.718715957600001,-0.39616876,5.22585008,-3.45899745,,,
imu,260.492504,-0.0221316536,-9.073977976,3.7199122632,-0.32139966,5.27818845,-3.66087402,,,
imu,260.500966,-0.0346928624,-9.103885616000001,3.690004623200001,0.03749201999999999,5.4651112,-3.76555076,,,
imu,260.509429,-0.03887993200000001,-9.130802492,3.7127344296,0.20198404,5.726803049999999,-3.87770441,,,
imu,260.517891,-0.0466559184,-9.1373821728,3.732473472000001,0.08983038999999998,6.04831018,-3.69825857,,,
imu,260.526353,-0.0263187232,-9.142765548000002,3.720510416000001,0.25432241,6.50440169,-3.10758268,,,
imu,260.534815,-0.003588916800000001,-9.158915673600001,3.6959861512,0.33656842,6.85581646,-2.79355246,,,
imu,260.543278,0.008972292000000002,-9.1654953544,3.670265580800001,0.26927623,7.16236977,-2.86832156,,,
imu,260.55174,0.04007623760000001,-9.146354464800002,3.6523209968,0.27675314,7.3343387,-3.1225365,,,
imu,260.560202,0.0550300576,-9.126017269600002,3.645741316000001,0.21693786,7.25209269,-3.35432071,,,
imu,260.568665,0.05802082160000001,-9.126017269600002,3.631983801600001,0.29918387,7.222185049999999,-3.50385891,,,
imu,260.577127,0.0442633072,-9.124820964000001,3.6266004264,0.25432241,7.23713887,-3.66835093,,,
imu,260.58559,0.0406743904,-9.130802492,3.621815204,0.35152224,7.16236977,-3.78050458,,,
imu,260.594054,0.03349655680000001,-9.1445600064,3.620618898400001,0.19450713,6.97544702,-3.81041222,,,
imu,260.602517,0.05742266880000001,-9.1481489232,3.6200207456,-0.11204618,6.885724099999999,-3.74312003,,,
imu,260.610981,0.0663949608,-9.148747076000001,3.609852148000001,-0.19429219,6.85581646,-3.7206893,,,
imu,260.619445,0.06699311360000001,-9.149345228800001,3.6283948848,-0.2017691,6.556740059999999,-3.74312003,,,
imu,260.627908,0.0562263632,-9.166093507200001,3.6325819544,-0.38869185,6.37729422,-3.59358183,,,
imu,260.636372,0.06220789120000001,-9.190617772000001,3.631983801600001,-0.65786061,6.10812546,-3.61601256,,,
imu,260.644835,0.05562821040000001,-9.194206688800001,3.633180107200001,-0.874691,5.80157215,-3.80293531,,,
imu,260.653299,0.04605776560000001,-9.18164548,3.642750552,-0.9644139199999999,5.62960322,-3.78050458,,,
imu,260.661762,0.03887993200000001,-9.171476882400002,3.649330232800001,-1.18124431,5.397819009999999,-3.66087402,,,
imu,260.670226,0.04187069600000001,-9.172673188000001,3.648732080000001,-1.29339796,5.18098862,-3.48142818,,,
imu,260.678689,0.0245242648,-9.1750657992,3.651722844000001,-1.15881358,4.99406587,-3.36927453,,,
imu,260.687153,0.017944584,-9.171476882400002,3.651722844000001,-1.12142903,4.87443531,-3.21225942,,,
imu,260.695616,0.017944584,-9.1750657992,3.6594988304,-1.03170611,4.75480475,-3.06272122,,,
imu,260.70408,0.0131593616,-9.173869493600002,3.664882205600001,-1.0989983,4.739850929999999,-2.95804448,,,
imu,260.712544,0.0053833752,-9.1672898128,3.665480358400001,-1.28592105,4.433297619999999,-2.88327538,,,
imu,260.721007,-0.0005981528000000001,-9.1583175208,3.665480358400001,-1.30087487,4.47068217,-2.69635263,,,
imu,260.729471,-0.0197390424,-9.154728604,3.6642840528,-1.45041307,4.44077453,-2.56924516,,,
imu,260.737934,-0.0143556672,-9.1672898128,3.6594988304,-1.45788998,4.523020539999999,-2.5243837,,,
imu,260.746398,-0.008972292000000002,-9.1409710896,3.6589006776,-1.46536689,4.478159079999999,-2.39727623,,,
imu,260.754861,-0.0101685976,-9.134989561600001,3.6798360256,-1.63733582,4.68751256,-2.31503022,,,
imu,260.763325,-0.0113649032,-9.146354464800002,3.693593540000001,-1.68967419,4.84452767,-2.26269185,,,
imu,260.771788,-0.002990764,-9.1541304512,3.670265580800001,-1.72705874,4.90434295,-2.31503022,,,
imu,260.780252,-0.007775986400000001,-9.1266154224,3.678639720000001,-2.04108896,4.82957385,-2.31503022,,,
imu,260.788715,-0.0173464312,-9.089529948800001,3.703762137600001,-2.25044244,4.85200458,-2.44213769,,,
imu,260.797179,-0.0221316536,-9.077566892800002,3.703762137600001,-2.34016536,5.14360407,-2.31503022,,,
imu,260.805642,-0.0131593616,-9.0787631984,3.7079492072,-2.2953039,5.285665359999999,-2.12063056,,,
imu,260.814106,-0.0023926112,-9.0925207128,3.711538124,-2.24296553,5.375388279999999,-2.05333837,,,
imu,260.82257,0.011963056,-9.0991003936,3.7151270408,-2.08595042,5.51744957,-2.08324601,,,
imu,260.831033,0.0251224176,-9.089529948800001,3.7169214992,-1.92893531,5.56231103,-2.21035348,,,
imu,260.839497,0.0203371952,-9.062613072800001,3.7223048744,-2.10838115,5.62212631,-2.46456842,,,
imu,260.84796,0.0053833752,-9.066800142400002,3.722903027200001,-1.73453565,5.55483412,-2.59167589,,,
imu,260.856424,0.01495382,-9.076968740000002,3.710939971200001,-1.56256672,5.614649399999999,-2.77859864,,,
imu,260.864887,-0.0005981528000000001,-9.0542389336,3.7193141104,-1.4728438,5.71184923,-2.8982292,,,
imu,260.873351,0.005981528000000001,-9.048257405600001,3.717519652,-1.00927538,5.84643361,-2.88327538,,,
imu,260.881814,0.0131593616,-9.0638093784,3.7199122632,-0.9494601,6.04083327,-2.94309066,,,
imu,260.890278,0.0197390424,-9.072781670400001,3.730679013600001,-0.7251528,6.07821782,-2.90570611,,,
imu,260.898741,0.007775986400000001,-9.076968740000002,3.721108568800001,-0.69524516,6.13055619,-2.71878336,,,
imu,260.907205,0.020935348,-9.076370587200001,3.7127344296,-0.74758353,6.295048209999999,-2.68139881,,,
imu,260.915669,0.0251224176,-9.079361351200001,3.722903027200001,-0.44850713,6.51935551,-2.60662971,,,
imu,260.924132,0.0305057928,-9.1092689912,3.722903027200001,-0.53823005,6.51935551,-2.6739219,,,
imu,259.443819,,,,,,,-90.79716440000001,178.3532652,107.038848
imu,259.553225,,,,,,,-91.02910120000001,178.5485804,107.0876768
imu,259.654757,,,,,,,-90.0769396,178.2434004,107.3318208
imu,259.756319,,,,,,,-89.86941720000002,177.7062836,107.5515504
imu,259.858004,,,,,,,-89.7595524,178.218986,108.5281264
imu,259.959475,,,,,,,-87.35473400000001,177.85277,108.2717752
imu,260.061617,,,,,,,-88.9172556,178.0480852,108.5403336
imu,260.162569,,,,,,,-86.58568040000002,176.998266,105.5983984
imu,260.932596,0.0191408896,-9.118839436000002,3.7181178048,-0.63542988,6.601601519999999,-2.80850628,,,
imu,260.941059,0.03110394560000001,-9.130802492,3.723501180000001,-0.51579932,6.840862639999999,-2.83841392,,,
imu,260.949523,0.0215335008,-9.130802492,3.7270900968,-0.41112258,6.99787775,-2.89075229,,,
imu,260.957986,0.0185427368,-9.118839436000002,3.7217067216,-0.47841477,7.08760067,-3.05524431,,,
imu,260.96645,0.0185427368,-9.112857908,3.724697485600001,-0.70272207,7.199754319999999,-3.26459779,,,
imu,260.974913,0.0257205704,-9.1134560608,3.721108568800001,-0.38121494,7.40163089,-3.45899745,,,
imu,260.983377,0.02871133440000001,-9.110465296800001,3.7151270408,-0.30644584,7.57359982,-3.52628964,,,
imu,260.992195,0.0221316536,-9.110465296800001,3.7103418184,-0.20924601,7.76052257,-3.66835093,,,
imu,261.001013,0.0370854736,-9.108072685600002,3.709145512800001,-0.23167674,8.007260599999999,-3.90013514,,,
imu,261.009832,0.0346928624,-9.104483768800002,3.7019676792,-0.24663056,8.007260599999999,-3.96742733,,,
imu,261.01865,0.04007623760000001,-9.097904088000002,3.690004623200001,-0.38121494,8.03716824,-4.124442439999999,,,
imu,261.027468,0.0340947096,-9.094315171200002,3.684023095200001,-0.0522309,8.11193734,-4.13939626,,,
imu,261.036286,0.0340947096,-9.0853428792,3.6798360256,0.03749201999999999,8.17175262,-4.28145755,,,
imu,261.045105,0.0317020984,-9.087137337600002,3.6714618864,-0.02232326000000001,8.1567988,-4.43847266,,,
imu,261.053923,0.020935348,-9.090128101600001,3.672060039200001,0.10478421,8.14932189,-4.57305704,,,
imu,261.062741,0.0137575144,-9.085941032000001,3.660695136000001,0.29918387,8.20913717,-4.65530305,,,
imu,261.071559,0.0245242648,-9.0961096296,3.651124691200001,0.30666078,8.41101374,-4.64034923,,,
imu,261.080378,0.008972292000000002,-9.0991003936,3.657704372,0.3889067899999999,8.41101374,-4.692687599999999,,,
imu,261.089196,0.0185427368,-9.1200357416,3.6636859,0.44872207,8.51569048,-4.70764142,,,
imu,261.098014,0.0137575144,-9.129606186400002,3.664882205600001,0.23936859,8.575505759999999,-4.58053395,,,
imu,261.106832,0.0191408896,-9.134391408800001,3.6738544976,0.08235347999999998,8.52316739,-4.58801086,,,
imu,261.115651,0.0107667504,-9.1541304512,3.674452650400001,-0.14195382,8.56055194,-4.61044159,,,
imu,261.124469,0.0143556672,-9.1433637008,3.6732563448,-0.20924601,8.56802885,-4.59548777,,,
imu,261.133287,0.0185427368,-9.1331951032,3.676247108800001,-0.41859949,8.418490649999999,-4.53567249,,,
imu,261.142105,0.0233279592,-9.134989561600001,3.6774434144,-0.38869185,8.3811061,-4.3936112,,,
imu,261.150924,0.0143556672,-9.1373821728,3.6684711224,-0.41112258,8.418490649999999,-4.19173463,,,
imu,261.159742,0.01495382,-9.141569242400001,3.660695136000001,-0.51579932,8.29886009,-4.034719519999999,,,
imu,261.16856,0.020935348,-9.1481489232,3.6589006776,-0.21672292,8.23904481,-3.88518132,,,
imu,261.177378,0.0215335008,-9.1445600064,3.6463394688,-0.2765382,8.0820297,-3.95995042,,,
imu,261.186197,0.0257205704,-9.143961853600002,3.6481339272,-0.2017691,8.11193734,-3.90761205,,,
imu,261.194434,0.017944584,-9.151737840000001,3.657704372,-0.21672292,8.0820297,-3.85527368,,,
imu,261.202671,0.0317020984,-9.158915673600001,3.649330232800001,-0.20924601,8.052122059999999,-3.81041222,,,
imu,261.211072,0.0430670016,-9.162504590400001,3.6523209968,-0.3513073,7.89510695,-3.70573548,,,
imu,261.219309,0.04845037680000001,-9.157121215200002,3.6672748168,-0.61299915,7.67827656,-3.65339711,,,
imu,261.227546,0.0502448352,-9.152335992800001,3.6738544976,-0.71019898,7.56612291,-3.44404363,,,
imu,261.235783,0.05443190480000001,-9.128409880800001,3.6505265384,-1.03918302,7.45396926,-3.39170526,,,
imu,261.244021,0.04964668240000001,-9.09192256,3.6565080664,-1.09152139,7.28947724,-3.3468438,,,
imu,261.252258,0.0215335008,-9.074576128800002,3.683424942400001,-1.3233056,7.09507758,-3.31693616,,,
imu,261.260495,0.0065796808,-9.094913324,3.679237872800001,-1.24105959,6.98292393,-3.16739796,,,
imu,261.268733,0.008374139200000002,-9.131998797600001,3.6672748168,-1.15881358,6.87077028,-3.15244414,,,
imu,261.27697,0.0011963056,-9.120633894400001,3.6600969832,-1.07656757,6.87077028,-2.95056757,,,
imu,261.285207,0.0113649032,-9.111063449600001,3.692995387200001,-0.92702937,7.035262299999999,-2.53933752,,,
imu,261.293445,0.0340947096,-9.111661602400002,3.672658192000001,-0.6503837,7.2595696,-1.93370781,,,
imu,261.301682,0.0723764888,-9.121232047200001,3.670265580800001,-0.50832241,7.22966196,-1.61220068,,,
imu,261.309919,0.0813487808,-9.1200357416,3.657704372,-0.127,7.20723123,-1.76173888,,,
imu,261.318156,0.09690075360000001,-9.118839436000002,3.645741316000001,0.0001074699999999984,6.87077028,-2.02343073,,,
imu,261.326394,0.07895616960000001,-9.096707782400001,3.6505265384,0.31413769,6.6614168,-2.25521494,,,
imu,261.334631,0.07656355840000001,-9.097904088000002,3.6421523992,0.41881443,6.45954023,-2.4496146,,,
imu,261.342868,0.05203929360000001,-9.0991003936,3.6421523992,0.3889067899999999,6.25766366,-2.75616791,,,
imu,261.351106,0.01495382,-9.094913324,3.639759788000001,0.38142988,6.15298692,-2.95804448,,,
imu,261.359343,0.002990764,-9.0925207128,3.637367176800001,0.47862971,6.28009439,-3.03281358,,,
imu,261.36758,-0.0215335008,-9.0817539624,3.6295911904,0.5010604399999999,6.579170789999999,-3.24964397,,,
imu,261.375818,-0.03588916800000001,-9.097305935200001,3.6379653296,0.56835263,6.863293369999999,-3.33936689,,,
imu,261.384055,-0.0323002512,-9.0991003936,3.623609662400001,0.68050628,7.267046509999999,-3.56367419,,,
imu,261.392292,-0.04785222400000001,-9.098502240800002,3.6325819544,0.5982602699999999,7.49883072,-3.80293531,,,
imu,261.40101,-0.0430670016,-9.0925207128,3.639759788000001,0.6132140899999999,7.92501459,-3.9449966,,,
imu,261.409727,-0.05383375200000001,-9.100296699200001,3.6409560936,0.71789083,8.32876773,-4.13939626,,,
imu,261.418444,-0.05383375200000001,-9.097904088000002,3.641554246400001,0.80013684,8.73999778,-4.363703559999999,,,
imu,261.427162,-0.0532355992,-9.110465296800001,3.637367176800001,1.04687487,9.06150491,-4.55810322,,,
imu,261.435879,-0.04127254320000001,-9.1164468248,3.6295911904,0.9870595899999999,9.48021187,-4.737549059999999,,,
imu,261.444597,-0.0281131816,-9.1272135752,3.639161635200001,1.11416706,9.83910355,-4.64034923,,,
imu,261.453314,-0.0233279592,-9.140372936800002,3.6355727184,1.12912088,10.15313377,-4.55062631,,,
imu,261.462032,-0.007775986400000001,-9.160710132,3.639161635200001,1.23379762,10.36996416,-4.56558013,,,
imu,261.470749,0.0005981528000000001,-9.176262104800001,3.6439468576,1.12164397,10.67651747,-4.49081103,,,
imu,261.479466,0.017944584,-9.1918140776,3.631983801600001,1.18893616,10.8484864,-4.53567249,,,
imu,261.488184,0.03588916800000001,-9.204375286400001,3.641554246400001,1.09173633,10.93073241,-4.5431494,,,
imu,261.496901,0.05443190480000001,-9.199590064,3.6176281344,0.9646288599999999,10.9980246,-4.49828794,,,
imu,261.505619,0.0663949608,-9.190617772000001,3.5990853976,0.94967504,10.95316314,-4.50576485,,,
imu,261.514336,0.07118018320000001,-9.162504590400001,3.607459536800001,0.7702292,11.08774752,-4.5431494,,,
imu,261.523053,0.0663949608,-9.156523062400002,3.6176281344,0.47862971,11.02045533,-4.48333412,,,
imu,261.531771,0.07058203040000001,-9.1672898128,3.591309411200001,0.65807555,10.90082477,-4.4683803,,,
imu,261.540488,0.07596540560000001,-9.160710132,3.570374063200001,0.59078336,10.79614803,-4.692687599999999,,,
imu,261.549206,0.0783580168,-9.1134560608,3.5841315776,0.3739529699999999,10.57184073,-4.73007215,,,
imu,261.557923,0.06460050240000001,-9.0925207128,3.5685796048,0.32909151,10.51202545,-4.65530305,,,
imu,261.56664,0.07716171120000001,-9.0925207128,3.570972216,0.45619898,10.66156365,-4.46090339,,,
imu,261.575358,0.08254508640000002,-9.1026893104,3.556018396000001,0.63564482,10.66904056,-4.386134289999999,,,
imu,261.584075,0.09749890640000002,-9.1373821728,3.562598076800001,0.70293701,10.57931764,-4.4683803,,,
imu,261.592793,0.1052748928,-9.152934145600002,3.55900916,0.8449983,10.48211781,-4.61044159,,,
imu,261.601265,0.1070693512,-9.1409710896,3.550036868,0.9870595899999999,10.20547214,-4.72259524,,,
imu,261.609738,0.1034804344,-9.135587714400002,3.542260881600001,0.8749059399999999,9.93630338,-4.92447181,,,
imu,261.61821,0.09390998960000001,-9.134391408800001,3.530895978400001,0.94219813,9.599842429999999,-5.08896383,,,
imu,261.626683,0.07297464160000001,-9.136185867200002,3.523119992000001,1.26370526,9.36805822,-5.08896383,,,
imu,261.635155,0.0693857248,-9.148747076000001,3.5183347696,1.30856672,9.13627401,-5.11887147,,,
imu,261.643627,0.07177833600000001,-9.154728604,3.511755088800001,1.42819728,8.9044898,-5.00671782,,,
imu,261.6521,0.0783580168,-9.169682424000001,3.5219236864,1.63755076,8.73999778,-4.9169949,,,
imu,261.660572,0.09091922560000001,-9.1882251608,3.5153440056,1.73475059,8.56055194,-4.647826139999999,,,
imu,261.669045,0.09869521200000002,-9.1924122304,3.511755088800001,1.56278166,8.306337,-4.4683803,,,
imu,261.677517,0.110658268,-9.193608536000001,3.517138464,1.5926893,8.052122059999999,-4.11696553,,,
imu,261.68599,0.1232194768,-9.2091605088,3.5273070616,1.65250458,7.625938189999999,-3.92256587,,,
imu,261.694462,0.1387714496,-9.2133475784,3.5153440056,1.65998149,7.02778539,-3.66835093,,,
imu,261.702934,0.1620994088,-9.221721717600001,3.5195310752,1.32352054,6.59412461,-3.39170526,,,
imu,261.711407,0.1692772424,-9.2312921624,3.5183347696,1.27118217,5.98101799,-2.8982292,,,
imu,261.719879,0.1770532288,-9.2300958568,3.5165403112,0.8973366700000001,5.375388279999999,-2.53186061,,,
imu,261.728352,0.185427368,-9.224114328800002,3.5153440056,0.82256757,4.82209694,-2.04586146,,,
imu,261.736824,0.1728661592,-9.222918023200002,3.511156936,0.6132140899999999,4.14169813,-1.75426197,,,
imu,261.745297,0.1620994088,-9.223516176,3.505175408000001,0.41881443,3.51363769,-1.46266248,,,
imu,260.264132,,,,,,,-89.18581400000001,178.0602924,108.2717752
imu,260.365725,,,,,,,-88.51441799999999,177.4377252,105.5007408
imu,260.467226,,,,,,,-89.22243560000001,178.096914,107.7590728
imu,260.56885,,,,,,,-89.18581400000001,177.5842116,108.5281264
imu,260.670382,,,,,,,-89.05153480000001,177.4743468,108.0520456
imu,260.771975,,,,,,,-89.01491320000001,177.791734,107.8445232
imu,260.873507,,,,,,,-89.6618948,177.54759,107.4294784
imu,260.975069,,,,,,,-89.8450028,177.7062836,107.6125864
imu,261.753769,0.1495382,-9.2139457312,3.500390185600001,0.35899915,3.05754618,-1.3280781,,,
imu,261.762242,0.1357806856,-9.207366050400001,3.492614199200001,0.1720764,2.64631613,-1.18601681,,,
imu,261.770714,0.1190324072,-9.1930103832,3.4920160464,0.23936859,2.30985518,-1.03647861,,,
imu,261.779186,0.1082656568,-9.222918023200002,3.488427129600001,0.007584380000000002,1.98834805,-1.09629389,,,
imu,261.787659,0.125612088,-9.224114328800002,3.4800529904,-0.13447691,1.61450255,-1.18601681,,,
imu,261.796131,0.1238176296,-9.220525412,3.4818474488,-0.09709236,1.41262598,-1.1785399,,,
imu,261.804592,0.1064711984,-9.197795605600001,3.477062226400001,-0.03727708,1.0537343,-0.9542325999999999,,,
imu,261.813053,0.07716171120000001,-9.1882251608,3.479454837600001,-0.03727708,0.86681155,-0.77478676,,,
imu,261.821514,0.07895616960000001,-9.193608536000001,3.4836419072,-0.23167674,0.66493498,-0.73740221,,,
imu,261.829975,0.0681894192,-9.1918140776,3.487230824,-0.26906129,0.5453044199999999,-0.6775869299999999,,,
imu,261.838436,0.0532355992,-9.190019619200001,3.4878289768,-0.38869185,0.41819695,-0.6701100199999999,,,
imu,261.846897,0.0634041968,-9.183439938400001,3.4830437544,-0.52327623,0.3434278499999999,-0.54300255,,,
imu,261.855358,0.05802082160000001,-9.172673188000001,3.481249296000001,-0.41112258,0.2686587499999997,-0.5056179999999999,,,
imu,261.863819,0.0466559184,-9.167887965600002,3.484240060000001,-0.36626112,0.3060432999999998,-0.52057182,,,
imu,261.87228,0.0317020984,-9.1708787296,3.479454837600001,-0.35878421,0.4256738599999998,-0.4981410899999998,,,
imu,261.880741,0.03648732080000001,-9.193608536000001,3.489025282400001,-0.53823005,0.56025824,-0.4532796299999999,,,
imu,261.889202,0.03588916800000001,-9.2103568144,3.4950068104,-0.41859949,0.7546578999999998,-0.4458027199999999,,,
imu,261.897663,0.02871133440000001,-9.2133475784,3.4860345184,-0.21672292,0.76213481,-0.5878640099999999,,,
imu,261.906124,0.023926112,-9.204973439200002,3.484240060000001,-0.46346095,0.8144731799999998,-0.9018942299999999,,,
imu,261.914585,0.03110394560000001,-9.1924122304,3.4836419072,-0.67281443,0.9341037399999998,-1.08881698,,,
imu,261.923046,0.0317020984,-9.195402994400002,3.4854363656,-0.69524516,1.0537343,-1.26826282,,,
imu,261.931507,0.04545961280000001,-9.2067678976,3.4860345184,-0.5756146,1.24065705,-1.43275484,,,
imu,261.939968,0.0562263632,-9.219927259200002,3.4836419072,-0.54570696,1.42010289,-1.48509321,,,
imu,261.948429,0.0532355992,-9.209758661600002,3.481249296000001,-0.5681376899999999,1.51730272,-1.38789338,,,
imu,261.95689,0.05443190480000001,-9.194206688800001,3.4944086576,-0.81487572,1.55468727,-1.39537029,,,
imu,261.965351,0.04964668240000001,-9.201982675200002,3.5057735608,-0.9793677399999999,1.60702564,-1.45518557,,,
imu,261.973812,0.0663949608,-9.201982675200002,3.493212352,-1.03918302,1.68179474,-1.51500085,,,
imu,261.982273,0.04785222400000001,-9.176262104800001,3.511156936,-1.28592105,1.75656384,-1.63463141,,,
imu,261.990734,0.03349655680000001,-9.1792528688,3.535083048000001,-1.44293616,1.77151766,-1.71687742,,,
imu,261.999195,0.020935348,-9.207964203200001,3.5302978256,-1.57004363,1.86124058,-1.64210832,,,
imu,262.008015,0.009570444800000001,-9.223516176,3.511156936,-1.48779762,1.94348659,-1.73183124,,,
imu,262.016834,0.0137575144,-9.215142036800001,3.5135495472,-1.46536689,2.19022462,-1.57481613,,,
imu,262.025654,0.0137575144,-9.2127494256,3.533288589600001,-1.39059779,2.49677793,-1.26826282,,,
imu,262.034474,0.05084298800000001,-9.219927259200002,3.5153440056,-1.23358268,2.88557725,-0.9318018699999999,,,
imu,262.043293,0.06400234960000001,-9.2342829264,3.49919388,-1.03918302,3.02763854,-0.8794635,,,
imu,262.052113,0.08015247520000002,-9.2342829264,3.4896234352,-1.08404448,3.06502309,-1.29069355,,,
imu,262.060932,0.09091922560000001,-9.211553120000001,3.490221588,-0.90459864,3.05006927,-1.68696978,,,
imu,262.069752,0.08972292000000001,-9.208562356000002,3.5033809496,-0.7999219,2.96034635,-1.96361545,,,
imu,262.078572,0.0903210728,-9.211553120000001,3.4896234352,-1.06909066,2.93791562,-2.19539966,,,
imu,262.087391,0.07775986400000001,-9.1965993,3.4920160464,-1.46536689,2.8481927,-2.26269185,,,
imu,262.096211,0.0735727944,-9.184038091200001,3.5009883384,-1.7719202,2.89305416,-2.19539966,,,
imu,262.10503,0.0663949608,-9.163102743200001,3.497997574400001,-1.92893531,2.90053107,-2.10567674,,,
imu,262.11385,0.08972292000000001,-9.155924909600001,3.505175408000001,-1.96631986,2.85566961,-2.05333837,,,
imu,262.122669,0.07895616960000001,-9.161308284800002,3.5057735608,-2.22801171,2.72856214,-2.05333837,,,
imu,262.131489,0.0855358504,-9.1642990488,3.5207273808,-2.45231901,2.57902394,-1.95613854,,,
imu,262.140309,0.07955432240000002,-9.170280576800002,3.521325533600001,-2.54204193,2.43696265,-1.99352309,,,
imu,262.149128,0.08792846160000001,-9.158915673600001,3.52910152,-2.41493446,2.27994754,-1.95613854,,,
imu,262.157948,0.07058203040000001,-9.171476882400002,3.5434571872,-2.30278081,2.1005017,-1.96361545,,,
imu,262.166767,0.04845037680000001,-9.1642990488,3.549438715200001,-2.45979592,2.01825569,-2.03838455,,,
imu,262.175587,0.0502448352,-9.1684861184,3.546447951200001,-2.11585806,1.89114822,-1.9262309,,,
imu,262.184407,0.05383375200000001,-9.186430702400001,3.5691777576,-2.07847351,1.83880985,-1.84398489,,,
imu,262.193226,0.05084298800000001,-9.180449174400001,3.558411007200001,-2.11585806,1.76404075,-1.82903107,,,
imu,262.202046,0.0532355992,-9.1882251608,3.5715703688,-2.04856587,1.84628676,-1.58976995,,,
imu,262.210526,0.0634041968,-9.1918140776,3.5781500496,-2.05604278,1.77899457,-1.28321664,,,
imu,262.219006,0.08254508640000002,-9.1965993,3.575159285600001,-2.11585806,1.69674856,-0.99909406,,,
imu,262.227486,0.1070693512,-9.1792528688,3.586524188800001,-1.94388913,1.53973345,-0.8196482199999999,,,
imu,262.235966,0.1411640608,-9.142765548000002,3.5853278832,-2.06351969,1.31542615,-0.7224483899999998,,,
imu,262.244446,0.1626975616,-9.171476882400002,3.5512331736,-2.12333497,0.9116730099999999,-0.5056179999999999,,,
imu,262.252926,0.1782495344,-9.175663952,3.582935272,-2.00370441,0.4854891399999999,-0.08691103999999994,,,
imu,262.261406,0.215335008,-9.182243632800002,3.6092539952,-2.26539626,-0.09770984000000027,0.05515025000000007,,,
imu,262.269886,0.2237091472,-9.2091605088,3.581738966400001,-2.17567334,-0.86035466,0.2719806400000002,,,
imu,262.278366,0.221316536,-9.1858325496,3.5823371192,-2.39998064,-1.63047639,0.4514264799999999,,,
imu,262.286846,0.2171294664,-9.136185867200002,3.595496480800001,-2.7439185,-2.44545958,0.7579797899999998,,,
imu,262.295326,0.1967922712,-9.154728604,3.587720494400001,-2.63176485,-3.1333353,1.23650203,,,
imu,262.303687,0.173464312,-9.1499433816,3.588916800000001,-2.6691494,-3.74644192,1.99914685,,,
imu,262.312167,0.176455076,-9.1266154224,3.597889092,-2.86354906,-4.11281051,2.46271527,,,
imu,262.320647,0.167482784,-9.1170449776,3.609852148000001,-2.70653395,-4.57637893,2.64216111,,,
imu,262.329127,0.1716698536,-9.135587714400002,3.6032724672,-2.72896468,-5.077331900000001,2.84403768,,,
imu,262.337607,0.1620994088,-9.143961853600002,3.6020761616,-2.68410322,-5.339023750000001,2.88142223,,,
imu,262.346087,0.1656883256,-9.134989561600001,3.591309411200001,-2.76634923,-5.57080796,3.06834498,,,
imu,262.354567,0.1501363528,-9.1200357416,3.5847297304,-2.51213429,-5.83249981,3.12068335,,,
imu,262.363047,0.1292010048,-9.108670838400002,3.5853278832,-2.54204193,-6.13905312,3.0085297,,,
imu,262.371527,0.1309954632,-9.115848672,3.5895149528,-2.33268845,-6.28859132,3.03843734,,,
imu,262.380007,0.122621324,-9.118241283200001,3.5673832992,-2.13828879,-6.370837330000001,3.00105279,,,
imu,262.388487,0.107667504,-9.110465296800001,3.595496480800001,-2.26539626,-6.31102205,3.0832988,,,
imu,262.396967,0.1064711984,-9.1164468248,3.597290939200001,-2.0709966,-6.13157621,3.20292936,,,
imu,262.405448,0.1070693512,-9.1272135752,3.594898328000001,-1.74948947,-6.00446874,3.30012919,,,
imu,262.413905,0.1238176296,-9.1272135752,3.6032724672,-1.8466893,-5.952130370000001,3.35246756,,,
imu,262.422362,0.137575144,-9.134989561600001,3.605066925600001,-1.75696638,-5.757730710000001,3.34499065,,,
imu,262.430819,0.137575144,-9.1200357416,3.600281703200001,-1.74201256,-5.54837723,3.29265228,,,
imu,262.439276,0.1393696024,-9.128409880800001,3.616431828800001,-1.66724346,-5.56333105,3.20292936,,,
imu,262.447733,0.152528964,-9.1331951032,3.600879856,-1.57752054,-5.50351577,3.02348352,,,
imu,262.456191,0.1471455888,-9.142765548000002,3.6032724672,-1.55508981,-5.421269759999999,2.91880678,,,
imu,262.464648,0.1327899216,-9.134391408800001,3.600281703200001,-1.25601341,-5.294162289999999,2.7842224,,,
imu,262.473105,0.1399677552,-9.133793256,3.61882444,-1.18124431,-5.04742426,2.49262291,,,
imu,262.481562,0.1453511304,-9.134391408800001,3.602674314400001,-1.24105959,-4.76330168,2.32065398,,,
imu,262.490019,0.143556672,-9.13678402,3.593702022400001,-1.13638285,-4.73339404,2.17859269,,,
imu,262.498477,0.1453511304,-9.126017269600002,3.605066925600001,-0.92702937,-4.50908674,2.02905449,,,
imu,262.506934,0.1519308112,-9.1290080336,3.597889092,-1.05413684,-4.33711781,1.75988573,,,
imu,262.515391,0.125612088,-9.125419116800002,3.602674314400001,-0.95693701,-4.12776433,1.53557843,,,
imu,262.523848,0.1262102408,-9.133793256,3.604468772800001,-0.82235263,-3.82868793,1.37108641,,,
imu,262.532305,0.1309954632,-9.131998797600001,3.605066925600001,-0.79244499,-3.55204226,1.07948692,,,
imu,262.540762,0.1262102408,-9.134391408800001,3.6032724672,-0.93450628,-3.2828735,0.6832106900000001,,,
imu,262.54922,0.1327899216,-9.133793256,3.597889092,-0.95693701,-2.96884328,0.3691804699999999,,,
imu,262.557677,0.1333880744,-9.1266154224,3.6116466064,-0.84478336,-2.79687435,0.21964227,,,
imu,262.566134,0.1292010048,-9.130802492,3.5990853976,-0.7550604399999999,-2.67724379,-0.01961884999999985,,,
imu,261.076715,,,,,,,-87.75757159999999,176.7907436,106.001236
imu,261.178094,,,,,,,-89.94266040000001,177.4133108,106.9289832
imu,261.280084,,,,,,,-87.3303196,176.9494372,104.6950656
imu,261.383386,,,,,,,-90.5774348,177.7062836,107.5515504
imu,261.482782,,,,,,,-90.39432680000002,177.608626,105.085696
imu,261.584344,,,,,,,-90.82157880000001,177.4499324,107.0022264
imu,261.685937,,,,,,,-90.9070292,177.425518,106.8679472
imu,261.787469,,,,,,,-91.016894,177.5231756,106.4040736
imu,262.574591,0.1351825328,-9.114652366400001,3.587720494400001,-0.63542988,-2.31835211,-0.1616801399999999,,,
imu,262.583048,0.1369769912,-9.121830200000002,3.5996835504,-0.5008455,-2.09404481,-0.1616801399999999,,,
imu,262.591506,0.1381732968,-9.1272135752,3.5841315776,-0.63542988,-2.04170644,-0.3037414299999999,,,
imu,262.599963,0.1471455888,-9.1331951032,3.587720494400001,-0.51579932,-1.94450661,-0.4233719899999999,,,
imu,262.60842,0.1387714496,-9.134391408800001,3.5925057168,-0.32139966,-1.81739914,-0.63272547,,,
imu,262.616886,0.1214250184,-9.136185867200002,3.587720494400001,-0.21672292,-1.67533785,-0.73740221,,,
imu,262.625352,0.1130508792,-9.148747076000001,3.6020761616,-0.28401511,-1.570661110000001,-0.93927878,,,
imu,262.633818,0.1142471848,-9.172673188000001,3.594898328000001,-0.23915365,-1.27906162,-1.03647861,,,
imu,262.642284,0.1082656568,-9.184636244000002,3.590711258400001,-0.14943073,-1.00989286,-1.14863226,,,
imu,262.65075,0.107667504,-9.1924122304,3.6092539952,-0.4260764,-0.7407241,-1.32060119,,,
imu,262.659216,0.107667504,-9.190019619200001,3.6080576896,-0.65786061,-0.3818324200000003,-1.36546265,,,
imu,262.667683,0.107667504,-9.156523062400002,3.5925057168,-0.79244499,-0.3594016900000003,-1.51500085,,,
imu,262.676149,0.09869521200000002,-9.1331951032,3.606861384000001,-0.93450628,-0.25472495,-1.80660034,,,
imu,262.684615,0.0933118368,-9.1445600064,3.6152355232,-1.14385976,-0.1051867500000001,-1.89632326,,,
imu,262.693081,0.08733030880000002,-9.178654716,3.618226287200001,-1.13638285,0.1639820099999998,-1.82903107,,,
imu,262.701547,0.08673215600000002,-9.198393758400002,3.6116466064,-1.20367504,0.3060432999999998,-1.73930815,,,
imu,262.710013,0.08972292000000001,-9.171476882400002,3.6295911904,-1.29339796,0.64250425,-1.56733922,,,
imu,262.718479,0.09450814240000002,-9.1583175208,3.6409560936,-1.53265908,0.92662683,-1.14863226,,,
imu,262.726945,0.1268083936,-9.177458410400002,3.6242078152,-1.36069015,1.18831868,-0.7224483899999998,,,
imu,262.735411,0.1543234224,-9.188823313600002,3.6092539952,-1.35321324,1.42010289,-0.5056179999999999,,,
imu,262.743877,0.1728661592,-9.171476882400002,3.6062632312,-1.3980747,1.43505671,-0.6476792899999999,,,
imu,262.752343,0.1878199792,-9.137980325600001,3.593103869600001,-1.29339796,1.2780416,-0.9018942299999999,,,
imu,262.760809,0.1991848824,-9.123026505600002,3.607459536800001,-1.24105959,1.25561087,-1.14115535,,,
imu,262.769276,0.1842310624,-9.115250519200002,3.6020761616,-1.21862886,1.14345722,-1.34303192,,,
imu,262.777742,0.1513326584,-9.114652366400001,3.5984872448,-1.12890594,1.18084177,-1.51500085,,,
imu,262.786208,0.1351825328,-9.117643130400001,3.6080576896,-1.00927538,1.14345722,-1.78416961,,,
imu,262.794674,0.131593616,-9.129606186400002,3.616431828800001,-1.24105959,1.03878048,-1.96361545,,,
imu,262.80314,0.1292010048,-9.1266154224,3.6080576896,-0.9494601,1.21822632,-2.04586146,,,
imu,262.811606,0.1327899216,-9.114054213600001,3.604468772800001,-1.14385976,1.24813396,-2.35241477,,,
imu,262.820068,0.122621324,-9.119437588800002,3.6271985792,-1.12890594,1.43505671,-2.3748455,,,
imu,262.82853,0.1214250184,-9.126017269600002,3.612842912,-1.0989983,1.44253362,-2.41970696,,,
imu,262.836993,0.11963056,-9.129606186400002,3.618226287200001,-1.31582869,1.54721036,-2.56176825,,,
imu,262.845455,0.1148453376,-9.133793256,3.6313856488,-1.21862886,1.65936401,-2.71130645,,,
imu,262.853917,0.1010878232,-9.1266154224,3.6343764128,-1.30835178,1.67431783,-2.87579847,,,
imu,262.86238,0.1040785872,-9.112857908,3.634974565600001,-1.27096723,1.68927165,-2.83841392,,,
imu,262.870842,0.101685976,-9.121232047200001,3.6379653296,-1.20367504,1.59207182,-2.78607555,,,
imu,262.879304,0.09211553120000002,-9.135587714400002,3.6451431632,-1.26349032,1.75656384,-2.65896808,,,
imu,262.887766,0.09091922560000001,-9.1475507704,3.6463394688,-1.1737674,1.80890221,-2.47204533,,,
imu,262.896229,0.1034804344,-9.151737840000001,3.654115455200001,-1.2485365,1.86124058,-2.26269185,,,
imu,262.904691,0.1058730456,-9.1583175208,3.6642840528,-1.24105959,2.04068642,-2.20287657,,,
imu,262.913153,0.107667504,-9.151737840000001,3.6612932888,-1.18124431,2.15284007,-2.20287657,,,
imu,262.921615,0.116639796,-9.145756312000001,3.665480358400001,-1.07656757,2.23508608,-2.03090764,,,
imu,262.930078,0.107667504,-9.145756312000001,3.6523209968,-1.15881358,2.22013226,-2.001,,,
imu,262.93854,0.10467674,-9.1331951032,3.6571062192,-1.09152139,2.24256299,-1.99352309,,,
imu,262.947002,0.09151737840000002,-9.1164468248,3.676247108800001,-1.09152139,2.34723973,-1.99352309,,,
imu,262.955465,0.1004896704,-9.139176631200002,3.684023095200001,-0.9793677399999999,2.43696265,-2.19539966,,,
imu,262.963927,0.08194693360000001,-9.1445600064,3.6636859,-0.92702937,2.52668557,-2.39727623,,,
imu,262.972389,0.0783580168,-9.0996985464,3.6433487048,-1.04665993,2.59397776,-2.53933752,,,
imu,262.980851,0.0663949608,-9.0638093784,3.6642840528,-1.12890594,2.80333124,-2.70382954,,,
imu,262.989314,0.0502448352,-9.073379823200002,3.6589006776,-0.9644139199999999,3.19960747,-2.72626027,,,
imu,262.997776,0.0514411408,-9.088931796,3.6451431632,-0.97189083,3.51363769,-2.40475314,,,
imu,263.006238,0.0592171272,-9.097305935200001,3.6433487048,-0.76253735,3.9697292,-2.35989168,,,
imu,263.0147,0.07656355840000001,-9.1026893104,3.630189343200001,-0.3513073,4.20151341,-2.40475314,,,
imu,263.023523,0.08733030880000002,-9.1092689912,3.637367176800001,-0.53823005,4.410866889999999,-2.80102937,,,
imu,263.032345,0.08194693360000001,-9.115848672,3.6463394688,-0.40364567,4.60526655,-3.15244414,,,
imu,263.041167,0.07895616960000001,-9.123026505600002,3.623609662400001,-0.2765382,4.73237402,-3.25712088,,,
imu,263.049989,0.0783580168,-9.119437588800002,3.6266004264,-0.24663056,4.95668132,-3.496382,,,
imu,263.058812,0.07058203040000001,-9.100296699200001,3.621217051200001,-0.19429219,5.12117334,-3.6459202,,,
imu,263.067634,0.0681894192,-9.115250519200002,3.6062632312,-0.007369440000000005,5.375388279999999,-3.80293531,,,
imu,263.076456,0.0532355992,-9.142167395200001,3.6116466064,-0.08961545,5.65203395,-3.81788913,,,
imu,263.085278,0.04845037680000001,-9.142167395200001,3.614039217600001,-0.14943073,5.89129507,-3.75807385,,,
imu,263.094101,0.05742266880000001,-9.1481489232,3.623609662400001,-0.16438455,6.10812546,-3.91508896,,,
imu,263.102923,0.07775986400000001,-9.169084271200001,3.6056650784,-0.17186146,6.444586409999999,-3.98985806,,,
imu,263.111745,0.08254508640000002,-9.173869493600002,3.6134410648,-0.3513073,6.818431909999999,-4.00481188,,,
imu,263.120567,0.08912476720000001,-9.1648972016,3.6200207456,-0.35878421,7.05021612,-4.0197657,,,
imu,263.129389,0.1040785872,-9.170280576800002,3.621217051200001,-0.43355331,7.16984668,-4.04967334,,,
imu,263.138212,0.1052748928,-9.1648972016,3.616431828800001,-0.53823005,7.483876899999999,-4.11696553,,,
imu,263.147034,0.09929336480000002,-9.157719368,3.627796732000001,-0.71019898,7.625938189999999,-4.28145755,,,
imu,263.155856,0.107667504,-9.162504590400001,3.6200207456,-0.85973718,7.723138019999999,-4.41604193,,,
imu,263.164678,0.1010878232,-9.1583175208,3.624805968,-0.97189083,7.70070729,-4.5431494,,,
imu,263.173501,0.0980970592,-9.162504590400001,3.626002273600001,-1.06909066,7.835291669999999,-4.647826139999999,,,
imu,263.182323,0.092713684,-9.154728604,3.6254041208,-0.9494601,8.01473751,-4.670256869999999,,,
imu,263.191145,0.1028822816,-9.149345228800001,3.6266004264,-1.18872122,8.08950661,-4.737549059999999,,,
imu,263.199967,0.09450814240000002,-9.159513826400001,3.6325819544,-1.00927538,8.096983519999998,-4.692687599999999,,,
imu,263.20879,0.09510629520000001,-9.156523062400002,3.623609662400001,-1.14385976,8.20913717,-4.81231816,,,
imu,263.217612,0.1178361016,-9.1511396872,3.626002273600001,-1.11395212,8.33624464,-4.89456417,,,
imu,263.22615,0.1142471848,-9.138578478400001,3.623609662400001,-1.21115195,8.396059919999999,-5.08148692,,,
imu,263.234689,0.1010878232,-9.131400644800001,3.622413356800001,-1.22610577,8.36615228,-5.13382529,,,
imu,263.243228,0.1040785872,-9.134391408800001,3.627796732000001,-0.98684465,8.06707588,-5.17120984,,,
imu,263.251766,0.09690075360000001,-9.120633894400001,3.618226287200001,-0.9943215599999999,8.01473751,-5.32074804,,,
imu,263.260305,0.0747691,-9.114652366400001,3.6134410648,-1.01675229,7.954922229999999,-5.350655679999999,,,
imu,263.268843,0.0663949608,-9.117643130400001,3.6283948848,-1.1737674,7.99230678,-5.32074804,,,
imu,263.277382,0.06699311360000001,-9.1122597552,3.6266004264,-1.04665993,8.05959897,-5.15625602,,,
imu,263.28592,0.07775986400000001,-9.1170449776,3.621815204,-0.88964482,8.06707588,-5.07401001,,,
imu,263.294459,0.0675912664,-9.118839436000002,3.622413356800001,-0.7401066199999999,8.119414249999998,-5.08148692,,,
imu,263.302997,0.07177833600000001,-9.1272135752,3.6116466064,-0.5307531400000001,8.044645150000001,-5.10391765,,,
imu,263.311536,0.0693857248,-9.138578478400001,3.6283948848,-0.5756146,7.88015313,-5.05905619,,,
imu,263.320075,0.0675912664,-9.139176631200002,3.6379653296,-0.74758353,7.835291669999999,-5.08896383,,,
imu,263.328613,0.0592171272,-9.139176631200002,3.6499283856,-0.79244499,7.954922229999999,-5.07401001,,,
imu,263.337152,0.0466559184,-9.157121215200002,3.6230115096,-0.68776825,7.92501459,-5.07401001,,,
imu,263.34569,0.03887993200000001,-9.1708787296,3.6361708712,-0.73262971,7.87267622,-4.98428709,,,
imu,263.354229,0.04187069600000001,-9.170280576800002,3.6421523992,-0.95693701,8.03716824,-4.84970271,,,
imu,263.362767,0.0382817792,-9.157719368,3.633180107200001,-0.97189083,8.096983519999998,-4.89456417,,,
imu,263.371306,0.0317020984,-9.1272135752,3.618226287200001,-1.03170611,8.044645150000001,-4.887087259999999,,,
imu,263.379845,0.03110394560000001,-9.1092689912,3.6361708712,-1.22610577,7.88015313,-5.021671639999999,,,
imu,263.388383,0.002990764,-9.131998797600001,3.6475357744,-1.38312088,7.93996841,-5.05157928,,,
imu,261.889032,,,,,,,-91.1023444,177.4499324,107.282992
imu,261.990594,,,,,,,-90.833786,177.5109684,106.367452
imu,262.092218,,,,,,,-90.9436508,177.5842116,106.6482176
imu,262.193811,,,,,,,-88.148202,177.4499324,105.0002456
imu,262.295404,,,,,,,-90.8826148,177.6818692,107.710244
imu,262.396905,,,,,,,-88.40455320000001,177.2057884,105.2199752
imu,262.498437,,,,,,,-90.3699124,178.3654724,107.588172
imu,262.599969,,,,,,,-89.57644440000001,177.9626348,107.405064
imu,263.396884,0.0011963056,-9.1792528688,3.645741316000001,-1.3233056,7.977352959999999,-5.044102369999999,,,
imu,263.405422,0.0011963056,-9.1852343968,3.634974565600001,-1.31582869,8.20913717,-5.05905619,,,
imu,263.413961,-0.003588916800000001,-9.172673188000001,3.6523209968,-1.39059779,8.23904481,-4.84970271,,,
imu,263.422499,0.0023926112,-9.1672898128,3.6660785112,-1.2485365,8.54559812,-4.35622665,,,
imu,263.430898,0.04246884880000001,-9.154728604,3.6313856488,-1.33078251,8.8297207,-4.012288789999999,,,
imu,263.439297,0.05203929360000001,-9.166093507200001,3.6230115096,-1.45041307,9.054027999999999,-3.83284295,,,
imu,263.447696,0.07118018320000001,-9.170280576800002,3.618226287200001,-1.29339796,9.121320189999999,-3.66087402,,,
imu,263.456094,0.110658268,-9.153532298400002,3.605066925600001,-1.11395212,8.9792589,-3.62348947,,,
imu,263.464493,0.1309954632,-9.1290080336,3.612244759200001,-0.92702937,8.77738233,-3.90761205,,,
imu,263.472892,0.11963056,-9.1170449776,3.612842912,-1.12890594,8.530644299999999,-4.18425772,,,
imu,263.48129,0.113649032,-9.109867144,3.60387062,-1.1737674,8.141844979999998,-4.46090339,,,
imu,263.489689,0.1064711984,-9.110465296800001,3.600879856,-1.08404448,7.790430209999999,-4.6179185,,,
imu,263.498088,0.1064711984,-9.098502240800002,3.6020761616,-1.18872122,7.67827656,-4.58801086,,,
imu,263.506486,0.113649032,-9.096707782400001,3.604468772800001,-0.9943215599999999,7.42406162,-4.35622665,,,
imu,263.514885,0.1130508792,-9.098502240800002,3.6080576896,-0.94198319,7.20723123,-4.04219643,,,
imu,263.523284,0.1190324072,-9.1056800744,3.608655842400001,-0.77001426,6.95301629,-3.8702275,,,
imu,263.531682,0.1250139352,-9.117643130400001,3.6062632312,-0.85973718,6.6614168,-3.82536604,,,
imu,263.540081,0.1190324072,-9.100894852000001,3.624805968,-0.92702937,6.25766366,-3.75807385,,,
imu,263.54848,0.1244157824,-9.1122597552,3.6230115096,-0.93450628,5.876341249999999,-3.78050458,,,
imu,263.556879,0.1142471848,-9.1290080336,3.6355727184,-0.66533752,5.50249575,-3.53376655,,,
imu,263.565277,0.113649032,-9.139176631200002,3.645741316000001,-0.7401066199999999,5.285665359999999,-3.44404363,,,
imu,263.573676,0.1118545736,-9.160710132,3.6481339272,-0.8821679099999999,4.93425059,-3.36927453,,,
imu,263.582075,0.09690075360000001,-9.157121215200002,3.646937621600001,-0.874691,4.66508183,-3.1973056,,,
imu,263.590473,0.09869521200000002,-9.142167395200001,3.6409560936,-0.85973718,4.37348234,-2.93561375,,,
imu,263.598872,0.08493769760000001,-9.157719368,3.6559099136,-0.9644139199999999,4.149175039999999,-2.72626027,,,
imu,263.607271,0.0813487808,-9.1654953544,3.6589006776,-0.89712173,3.93982156,-2.51690679,,,
imu,263.615669,0.08015247520000002,-9.161308284800002,3.6559099136,-1.21862886,3.85757555,-2.44213769,,,
imu,263.624068,0.07775986400000001,-9.157719368,3.667872969600001,-1.2485365,3.70056044,-2.42718387,,,
imu,263.63253,0.07058203040000001,-9.163700896000002,3.6565080664,-1.12142903,3.68560662,-2.3000764,,,
imu,263.640993,0.0675912664,-9.154728604,3.6535173024,-1.15881358,3.65569898,-2.31503022,,,
imu,263.649455,0.06101158560000001,-9.146354464800002,3.665480358400001,-1.20367504,3.5211146,-2.25521494,,,
imu,263.657917,0.07177833600000001,-9.154728604,3.672060039200001,-1.12142903,3.56597606,-2.38232241,,,
imu,263.666379,0.0693857248,-9.172673188000001,3.6421523992,-1.09152139,3.43886859,-2.50195297,,,
imu,263.674842,0.06699311360000001,-9.131400644800001,3.6451431632,-1.12890594,3.43139168,-2.68887572,,,
imu,263.683304,0.05682451600000001,-9.093118865600001,3.6600969832,-1.27844414,3.35662258,-2.81598319,,,
imu,263.691766,0.04007623760000001,-9.0847447264,3.6714618864,-1.26349032,3.37905331,-2.6739219,,,
imu,263.700228,0.04187069600000001,-9.102091157600002,3.651722844000001,-1.3233056,3.49120696,-2.32998404,,,
imu,263.708691,0.04007623760000001,-9.112857908,3.662489594400001,-1.29339796,3.64822207,-2.24026112,,,
imu,263.717153,0.04127254320000001,-9.1170449776,3.654115455200001,-1.31582869,3.5958837,-2.28512258,,,
imu,263.725615,0.0514411408,-9.1062782272,3.664882205600001,-1.36816706,3.64074516,-2.50942988,,,
imu,263.734078,0.05084298800000001,-9.095511476800002,3.663087747200001,-1.29339796,3.65569898,-2.65896808,,,
imu,263.74254,0.03947808480000001,-9.070987212,3.654115455200001,-1.18124431,3.58092988,-2.71878336,,,
imu,263.751002,0.0227298064,-9.065603836800001,3.6361708712,-0.9943215599999999,3.61831443,-2.89075229,,,
imu,263.759464,0.017944584,-9.055435239200001,3.6379653296,-0.63542988,3.73794499,-3.07767504,,,
imu,263.767927,0.0257205704,-9.056033392000002,3.6200207456,-0.41112258,3.83514482,-3.09262886,,,
imu,263.776389,0.0317020984,-9.042275877600002,3.616431828800001,-0.11204618,4.05197521,-3.1225365,,,
imu,263.784851,0.04007623760000001,-9.0644075312,3.6116466064,0.29918387,4.05945212,-3.17487487,,,
imu,263.793313,0.05562821040000001,-9.094315171200002,3.6254041208,0.3963837,4.03702139,-3.08515195,,,
imu,263.801776,0.05682451600000001,-9.139774784,3.6230115096,0.620691,4.104313579999999,-3.07019813,,,
imu,263.810238,0.05443190480000001,-9.163700896000002,3.626002273600001,0.5459219,4.0444983,-3.11505959,,,
imu,263.8187,0.0532355992,-9.190019619200001,3.6230115096,0.35152224,4.01459066,-3.10758268,,,
imu,263.827163,0.06699311360000001,-9.201982675200002,3.621815204,0.2468455,4.00711375,-3.01785976,,,
imu,263.835629,0.0783580168,-9.207366050400001,3.6170299816,0.09730729999999999,4.03702139,-2.96552139,,,
imu,263.844095,0.0783580168,-9.203777133600001,3.6283948848,-0.32887657,3.84262173,-2.8982292,,,
imu,263.852561,0.08733030880000002,-9.1924122304,3.6200207456,-0.65786061,3.69308353,-2.98047521,,,
imu,263.861027,0.08792846160000001,-9.195402994400002,3.621815204,-0.76253735,3.64822207,-3.05524431,,,
imu,263.869493,0.09450814240000002,-9.200786369600001,3.6289930376,-0.874691,3.52859151,-3.04029049,,,
imu,263.877959,0.08733030880000002,-9.186430702400001,3.630189343200001,-1.12890594,3.43139168,-3.13001341,,,
imu,263.886425,0.07297464160000001,-9.175663952,3.6325819544,-1.15881358,3.13231528,-3.21225942,,,
imu,263.894891,0.06998387760000001,-9.1720750352,3.6271985792,-1.2485365,3.02763854,-3.30198234,,,
imu,263.903357,0.06519865520000001,-9.1654953544,3.6355727184,-1.35321324,2.82576197,-3.4216129,,,
imu,263.911823,0.04187069600000001,-9.148747076000001,3.6361708712,-1.29339796,2.75099287,-3.40665908,,,
imu,263.920289,0.04246884880000001,-9.142167395200001,3.6403579408,-1.25601341,2.68370068,-3.48890509,,,
imu,263.928756,0.0281131816,-9.1290080336,3.6343764128,-1.19619813,2.42200883,-3.45899745,,,
imu,263.937222,0.0161501256,-9.125419116800002,3.6200207456,-1.03918302,2.35471664,-3.50385891,,,
imu,263.945688,0.0113649032,-9.1122597552,3.6194225928,-0.85973718,2.27247063,-3.54124346,,,
imu,263.954154,0.0023926112,-9.096707782400001,3.623609662400001,-0.79244499,2.20517844,-3.496382,,,
imu,263.96262,-0.0053833752,-9.082950268000001,3.614637370400001,-0.66533752,2.22760917,-3.33188998,,,
imu,263.971086,-0.0113649032,-9.086539184800001,3.621217051200001,-0.56066078,2.41453192,-3.3468438,,,
imu,263.979552,-0.008972292000000002,-9.098502240800002,3.604468772800001,-0.34383039,2.324809,-3.33188998,,,
imu,263.988018,-0.0023926112,-9.114652366400001,3.602674314400001,-0.20924601,2.41453192,-3.28702852,,,
imu,263.996484,-0.003588916800000001,-9.118241283200001,3.6092539952,-0.29896893,2.45939338,-3.33188998,,,
imu,264.00495,0.007177833600000002,-9.118839436000002,3.6116466064,-0.16438455,2.3995781,-3.45899745,,,
imu,264.013416,0.0005981528000000001,-9.129606186400002,3.641554246400001,-0.17186146,2.29490136,-3.48142818,,,
imu,264.021882,-0.002990764,-9.138578478400001,3.6475357744,-0.20924601,2.1752708,-3.48142818,,,
imu,264.030349,-0.007775986400000001,-9.1672898128,3.639161635200001,-0.25410747,2.04068642,-3.6459202,,,
imu,264.039163,-0.003588916800000001,-9.169682424000001,3.6451431632,-0.45598404,1.93600968,-3.65339711,,,
imu,264.047977,-0.011963056,-9.160710132,3.6642840528,-0.7401066199999999,1.98087114,-3.60853565,,,
imu,262.701513,,,,,,,-89.1980212,177.6574548,108.4304688
imu,262.803106,,,,,,,-89.3811292,177.4743468,108.3450184
imu,262.904607,,,,,,,-89.0271204,177.3888964,108.1741176
imu,263.006231,,,,,,,-86.2194644,177.3522748,108.6013696
imu,263.107854,,,,,,,-88.7341476,177.6574548,108.1497032
imu,263.209356,,,,,,,-86.71995960000001,176.876194,105.4274976
imu,263.310918,,,,,,,-89.3323004,177.4987612,107.832316
imu,263.41245,,,,,,,-89.796174,176.63205,105.268804
imu,263.514196,,,,,,,-89.3933364,177.7184908,108.4060544
imu,263.615575,,,,,,,-89.613066,177.9504276,107.7224512
imu,263.717168,,,,,,,-89.5642372,177.54759,108.259568
imu,263.818731,,,,,,,-90.27225480000001,177.0348876,108.1497032
imu,263.920263,,,,,,,-90.0891468,177.7062836,109.3338016
imu,264.021825,,,,,,,-90.1135612,176.9860588,108.3083968
