Type,Timestamp,Data Accelerometer X,Data Accelerometer Y,Data Accelerometer Z,Data Gyroscope X,Data Gyroscope Y,Data Gyroscope Z,Data Magnetometer X,Data Magnetometer Y,Data Magnetometer Z
imu,351.024576,0.1064711984,-9.124820964000001,3.582935272,-1.25601341,4.20899032,-2.27764567,,,
imu,351.033389,0.0903210728,-9.124820964000001,3.591907564,-1.01675229,4.06692903,-2.34493786,,,
imu,351.042202,0.08194693360000001,-9.1331951032,3.6014780088,-1.16629049,3.96225229,-2.54681443,,,
imu,351.051015,0.08673215600000002,-9.1290080336,3.593103869600001,-1.12142903,4.00711375,-2.59167589,,,
imu,351.059828,0.0753672528,-9.121830200000002,3.5871223416,-1.00927538,4.00711375,-2.56176825,,,
imu,351.068641,0.08433954480000001,-9.1272135752,3.5883186472,-0.90459864,4.0444983,-2.45709151,,,
imu,351.077114,0.08733030880000002,-9.135587714400002,3.597290939200001,-1.21115195,4.171605769999999,-2.36736859,,,
imu,351.085588,0.09151737840000002,-9.138578478400001,3.5966927864,-0.98684465,4.194036499999999,-2.20287657,,,
imu,351.094062,0.09749890640000002,-9.139774784,3.600281703200001,-0.92702937,4.20151341,-2.15801511,,,
imu,351.102535,0.09570444800000001,-9.145756312000001,3.6056650784,-0.9793677399999999,4.28375942,-2.24773803,,,
imu,351.111009,0.08374139200000001,-9.141569242400001,3.594898328000001,-0.83730645,4.30619015,-1.97856927,,,
imu,351.119483,0.09151737840000002,-9.145158159200001,3.6056650784,-0.71019898,4.32114397,-2.06829219,,,
imu,351.127957,0.0980970592,-9.1499433816,3.593702022400001,-0.5756146,4.47068217,-2.09819983,,,
imu,351.13643,0.09929336480000002,-9.1481489232,3.5901131056,-0.47093786,4.48563599,-2.21035348,,,
imu,351.144904,0.101685976,-9.146354464800002,3.591309411200001,-0.60552224,4.47068217,-2.15801511,,,
imu,351.153378,0.09570444800000001,-9.149345228800001,3.591907564,-0.71019898,4.44825144,-2.25521494,,,
imu,351.161851,0.08733030880000002,-9.156523062400002,3.600879856,-0.47841477,4.567882,-2.38979932,,,
imu,351.170325,0.09211553120000002,-9.1583175208,3.597889092,-0.52327623,4.500589809999999,-2.41970696,,,
imu,351.178799,0.092713684,-9.1409710896,3.587720494400001,-0.6503837,4.54545127,-2.5991528,,,
imu,351.187273,0.09869521200000002,-9.1331951032,3.5901131056,-0.44850713,4.48563599,-2.53933752,,,
imu,351.195746,0.1058730456,-9.134989561600001,3.5996835504,-0.32139966,4.58283582,-2.45709151,,,
imu,351.20422,0.1064711984,-9.160710132,3.595496480800001,-0.31392275,4.53797436,-2.55429134,,,
imu,351.212694,0.1070693512,-9.159513826400001,3.593702022400001,-0.32887657,4.478159079999999,-2.71130645,,,
imu,351.221167,0.1112564208,-9.157719368,3.587720494400001,-0.33635348,4.32114397,-2.748691,,,
imu,351.229641,0.1118545736,-9.152335992800001,3.590711258400001,-0.35878421,4.14169813,-2.71878336,,,
imu,351.238115,0.1022841288,-9.157121215200002,3.5925057168,-0.36626112,4.08188285,-2.53933752,,,
imu,351.246589,0.10467674,-9.171476882400002,3.5745611328,-0.46346095,4.02206757,-2.42718387,,,
imu,351.255062,0.09091922560000001,-9.171476882400002,3.5661869936,-0.52327623,3.96225229,-2.38232241,,,
imu,351.263536,0.09091922560000001,-9.162504590400001,3.5787482024,-0.4260764,3.84262173,-2.21783039,,,
imu,351.27201,0.0903210728,-9.152335992800001,3.5853278832,-0.26906129,3.96225229,-2.001,,,
imu,351.280474,0.08374139200000001,-9.157719368,3.575159285600001,-0.25410747,3.96225229,-1.87389253,,,
imu,351.288939,0.07955432240000002,-9.169682424000001,3.586524188800001,-0.34383039,3.92486774,-1.96361545,,,
imu,351.297404,0.0741709472,-9.188823313600002,3.5805426608,-0.45598404,3.92486774,-2.05333837,,,
imu,351.305869,0.08733030880000002,-9.173869493600002,3.570972216,-0.54570696,4.01459066,-2.18792275,,,
imu,351.314334,0.07955432240000002,-9.152934145600002,3.5667851464,-0.5307531400000001,4.25385178,-2.36736859,,,
imu,351.322799,0.07297464160000001,-9.134989561600001,3.5715703688,-0.60552224,4.33609779,-2.45709151,,,
imu,351.331263,0.07895616960000001,-9.146354464800002,3.5763555912,-0.77001426,4.32862088,-2.65896808,,,
imu,351.339728,0.07596540560000001,-9.152335992800001,3.5661869936,-0.65786061,4.47068217,-2.75616791,,,
imu,351.348193,0.0813487808,-9.142167395200001,3.55900916,-0.74758353,4.53797436,-2.78607555,,,
imu,351.356658,0.09630260080000001,-9.1511396872,3.585926036,-0.73262971,4.51554363,-2.77112173,,,
imu,351.365123,0.1082656568,-9.156523062400002,3.583533424800001,-0.85973718,4.51554363,-2.69635263,,,
imu,351.373587,0.1184342544,-9.118241283200001,3.550635020800001,-0.88964482,4.44077453,-2.60662971,,,
imu,351.382052,0.1190324072,-9.0787631984,3.562598076800001,-0.7401066199999999,4.20899032,-2.69635263,,,
imu,351.390517,0.110658268,-9.082950268000001,3.5805426608,-0.68029134,4.01459066,-2.70382954,,,
imu,351.398982,0.09869521200000002,-9.131400644800001,3.5823371192,-0.45598404,3.95477538,-2.50942988,,,
imu,351.407447,0.08374139200000001,-9.1750657992,3.5715703688,-0.4260764,3.88748319,-2.43466078,,,
imu,351.415911,0.0550300576,-9.1684861184,3.579944508,-0.41859949,3.85009864,-2.24773803,,,
imu,351.424376,0.06220789120000001,-9.1619064376,3.595496480800001,-0.37373803,4.171605769999999,-1.7019236,,,
imu,351.432841,0.04545961280000001,-9.178056563200002,3.5871223416,-0.38121494,4.42582071,-1.1785399,,,
imu,351.441306,0.068787572,-9.204375286400001,3.5871223416,-0.41112258,4.65760492,-0.9841402399999999,,,
imu,351.449771,0.09091922560000001,-9.212151272800002,3.570374063200001,-0.36626112,4.59778964,-1.35798574,,,
imu,351.458236,0.1040785872,-9.190019619200001,3.5614017712,-0.41112258,4.59778964,-1.75426197,,,
imu,351.4667,0.1148453376,-9.1852343968,3.581738966400001,-0.34383039,4.567882,-2.09072292,,,
imu,351.475165,0.1112564208,-9.190617772000001,3.572168521600001,-0.24663056,4.523020539999999,-2.49447606,,,
imu,351.483629,0.1040785872,-9.184038091200001,3.5614017712,-0.44850713,4.44825144,-2.71878336,,,
imu,351.492092,0.08792846160000001,-9.169682424000001,3.562598076800001,-0.58309151,4.35852852,-2.83841392,,,
imu,351.500556,0.1034804344,-9.139176631200002,3.5614017712,-0.52327623,4.44077453,-2.83841392,,,
imu,351.509019,0.116639796,-9.1236246584,3.542260881600001,-0.55318387,4.530497449999999,-2.70382954,,,
imu,351.517483,0.11963056,-9.115250519200002,3.551831326400001,-0.58309151,4.388436159999999,-2.56176825,,,
imu,351.525946,0.1250139352,-9.118839436000002,3.5578128544,-0.49336859,4.30619015,-2.47952224,,,
imu,351.53441,0.1297991576,-9.1302043392,3.5476442568,-0.5008455,4.20151341,-2.35989168,,,
imu,351.542874,0.1232194768,-9.129606186400002,3.5566165488,-0.43355331,3.820191,-2.31503022,,,
imu,351.551337,0.101685976,-9.121830200000002,3.554223937600001,-0.49336859,3.70056044,-2.50942988,,,
imu,351.559801,0.09151737840000002,-9.130802492,3.569775910400001,-0.33635348,3.56597606,-2.49447606,,,
imu,351.568264,0.07177833600000001,-9.146354464800002,3.565588840800001,-0.10456927,3.5211146,-2.38232241,,,
imu,351.576728,0.05562821040000001,-9.138578478400001,3.5661869936,-0.02980017,3.58092988,-2.41970696,,,
imu,351.585191,0.04366515440000001,-9.139774784,3.5823371192,-0.08961545,3.60336061,-2.31503022,,,
imu,351.593655,0.0340947096,-9.162504590400001,3.5841315776,0.08235347999999998,3.85009864,-2.1505382,,,
imu,351.602118,0.03289840400000001,-9.156523062400002,3.5853278832,-0.10456927,3.9697292,-2.18044584,,,
imu,351.610582,0.02871133440000001,-9.146952617600002,3.591907564,0.03001510999999998,4.246374869999999,-2.0757691,,,
imu,351.619045,0.03648732080000001,-9.1511396872,3.5966927864,0.04496892999999999,4.530497449999999,-2.21783039,,,
imu,351.627509,0.04127254320000001,-9.146354464800002,3.587720494400001,0.26179932,4.65760492,-2.12810747,,,
imu,351.635972,0.05203929360000001,-9.1445600064,3.5895149528,0.05992275,4.87443531,-2.18044584,,,
imu,351.644436,0.05742266880000001,-9.127811728000001,3.573962980000001,0.08235347999999998,5.2408039,-2.35989168,,,
imu,351.6529,0.0735727944,-9.120633894400001,3.587720494400001,0.35899915,5.38286519,-2.31503022,,,
imu,351.661363,0.08733030880000002,-9.114054213600001,3.595496480800001,0.56087572,5.49501884,-2.32998404,,,
imu,351.669827,0.09869521200000002,-9.1266154224,3.60387062,0.52349117,5.4651112,-2.45709151,,,
imu,351.67829,0.1154434904,-9.137980325600001,3.576953744000001,0.73284465,5.38286519,-2.58419898,,,
imu,351.686927,0.1309954632,-9.114652366400001,3.5596073128,0.9197674,5.21837317,-2.56176825,,,
imu,351.695563,0.128602852,-9.114652366400001,3.5925057168,0.8674290299999999,5.001542779999999,-2.58419898,,,
imu,351.7042,0.1112564208,-9.146354464800002,3.5781500496,0.71789083,5.023973509999999,-2.44213769,,,
imu,351.712836,0.1178361016,-9.1858325496,3.5883186472,0.81509066,4.93425059,-2.04586146,,,
imu,351.721473,0.1160416432,-9.2576108856,3.6110484536,0.55339881,4.9417275,-1.79912343,,,
imu,351.730109,0.1309954632,-9.328192916,3.593702022400001,0.23936859,4.814620029999999,-1.73183124,,,
imu,351.738746,0.1357806856,-9.367072848000001,3.5847297304,-0.51579932,4.672558739999999,-1.84398489,,,
imu,351.747382,0.1274065464,-9.367072848000001,3.562598076800001,-1.56256672,4.70994329,-1.93370781,,,
imu,351.756018,0.1088638096,-9.3443430416,3.5302978256,-2.55699575,4.50806672,-1.93370781,,,
imu,351.764655,0.08972292000000001,-9.3108464848,3.5165403112,-3.17010237,4.62769728,-1.88136944,,,
imu,351.773291,0.0747691,-9.2785462336,3.514745852800001,-3.62619388,4.70246638,-1.84398489,,,
imu,351.781928,0.07656355840000001,-9.267181330400001,3.505175408000001,-3.63367079,4.85948149,-1.73930815,,,
imu,351.790564,0.0741709472,-9.2271050928,3.506371713600001,-3.70843989,4.97163514,-1.5523854,,,
imu,351.799201,0.0735727944,-9.177458410400002,3.4680899344,-4.02247011,5.18098862,-1.4776163,,,
imu,351.807837,0.07058203040000001,-9.128409880800001,3.489025282400001,-3.902839549999999,5.24828081,-1.37293956,,,
imu,351.816474,0.080750628,-9.1056800744,3.4985957272,-3.68600916,5.49501884,-1.31312428,,,
imu,351.82511,0.08433954480000001,-9.083548420800001,3.4854363656,-3.02056417,5.592218669999999,-1.42527793,,,
imu,351.833747,0.08254508640000002,-9.0823521152,3.497997574400001,-2.64671867,5.6894185,-1.42527793,,,
imu,351.842383,0.09630260080000001,-9.069192753600001,3.509960630400001,-2.25044244,5.898771979999999,-1.39537029,,,
imu,351.85102,0.110658268,-9.042275877600002,3.5105587832,-1.74201256,5.921202709999999,-1.49257012,,,
imu,351.859656,0.1297991576,-9.035098044000001,3.523119992000001,-1.18872122,5.988494899999999,-1.66453905,,,
imu,351.868293,0.1321917688,-9.032705432800002,3.5273070616,-0.46346095,6.08569473,-1.71687742,,,
imu,351.876929,0.1351825328,-9.0596223088,3.532690436800001,-0.17186146,6.15298692,-1.73930815,,,
imu,351.885566,0.1561178808,-9.094913324,3.549438715200001,0.3889067899999999,6.063264,-1.85893871,,,
imu,351.894371,0.1728661592,-9.1170449776,3.5512331736,0.63564482,6.05578709,-2.001,,,
imu,351.903012,0.1812402984,-9.123026505600002,3.544653492800001,0.7702292,6.04831018,-2.10567674,,,
imu,351.911652,0.1770532288,-9.140372936800002,3.548840562400001,0.81509066,5.92867962,-2.11315365,,,
imu,351.920293,0.1920070488,-9.1684861184,3.54405534,0.97210577,5.831479789999999,-2.03838455,,,
imu,351.928933,0.2027737992,-9.1924122304,3.5482424096,1.15902852,5.637080129999999,-2.02343073,,,
imu,351.937574,0.1991848824,-9.190019619200001,3.55900916,1.19641307,5.41277283,-2.00847691,,,
imu,351.946214,0.2015774936,-9.209758661600002,3.5566165488,1.09173633,5.08378879,-1.99352309,,,
imu,351.954855,0.1985867296,-9.216338342400002,3.5608036184,0.9571519499999999,4.97163514,-2.11315365,,,
imu,351.963495,0.1985867296,-9.225908787200002,3.5685796048,0.59078336,4.68751256,-2.31503022,,,
imu,351.972136,0.2009793408,-9.220525412,3.5673832992,0.29918387,4.63517419,-2.32998404,,,
imu,351.980776,0.1872218264,-9.221123564800001,3.570374063200001,0.26927623,4.37348234,-2.33746095,,,
imu,351.989416,0.1800439928,-9.228301398400001,3.5596073128,0.23936859,4.149175039999999,-2.20287657,,,
imu,351.998057,0.1758569232,-9.209758661600002,3.5482424096,-0.14943073,3.95477538,-2.21035348,,,
imu,352.006697,0.1698753952,-9.190617772000001,3.546447951200001,-0.08213854000000001,3.76037572,-2.00847691,,,
imu,352.015338,0.1591086448,-9.179851021600001,3.5458497984,-0.32139966,3.83514482,-1.91127708,,,
imu,352.023978,0.152528964,-9.155924909600001,3.54405534,-0.71767589,3.73794499,-1.88136944,,,
imu,351.060931,,,,,,,-90.27225480000001,178.4387156,108.4548832
imu,351.162524,,,,,,,-90.0647324,178.0724996,109.3215944
imu,351.264056,,,,,,,-88.49000360000001,178.402094,108.8577208
imu,352.032619,0.1519308112,-9.148747076000001,3.5386719648,-0.54570696,3.67812971,-1.79912343,,,
imu,352.041259,0.1387714496,-9.152335992800001,3.5434571872,-0.24663056,3.6706528,-1.66453905,,,
imu,352.0499,0.128602852,-9.1654953544,3.525512603200001,-0.40364567,3.76785263,-1.7019236,,,
imu,352.05854,0.137575144,-9.1750657992,3.52910152,-0.48589168,3.797760269999999,-1.79912343,,,
imu,352.067181,0.1357806856,-9.1720750352,3.529699672800001,-0.39616876,3.7454219,-1.78416961,,,
imu,352.075821,0.1369769912,-9.154728604,3.5267089088,-0.56066078,3.80523718,-1.93370781,,,
imu,352.084461,0.140565908,-9.1409710896,3.5416627288,-0.68776825,3.96225229,-1.96361545,,,
imu,352.092938,0.1357806856,-9.155326756800001,3.5452516456,-0.61299915,4.09683667,-2.001,,,
imu,352.101414,0.1549215752,-9.172673188000001,3.536877506400001,-0.81487572,4.23889796,-2.03838455,,,
imu,352.10989,0.1603049504,-9.179851021600001,3.5416627288,-0.65786061,4.28375942,-1.96361545,,,
imu,352.118367,0.1752587704,-9.1672898128,3.544653492800001,-0.58309151,4.29871324,-1.95613854,,,
imu,352.126843,0.1836329096,-9.149345228800001,3.5267089088,-0.56066078,4.15665195,-1.99352309,,,
imu,352.135319,0.188418132,-9.139176631200002,3.521325533600001,-0.60552224,4.13422122,-2.03838455,,,
imu,352.143795,0.1698753952,-9.117643130400001,3.54405534,-0.5980453299999999,4.01459066,-2.21783039,,,
imu,352.152272,0.158510492,-9.127811728000001,3.5482424096,-0.61299915,3.8949601,-2.26269185,,,
imu,352.160748,0.1519308112,-9.167887965600002,3.550036868,-0.39616876,3.7454219,-2.14306129,,,
imu,352.169224,0.1292010048,-9.176262104800001,3.546447951200001,-0.26906129,3.75289881,-1.96361545,,,
imu,352.1777,0.1184342544,-9.176262104800001,3.558411007200001,-0.39616876,3.93982156,-1.64958523,,,
imu,352.186177,0.1387714496,-9.178056563200002,3.572168521600001,-0.38869185,4.20151341,-1.07386316,,,
imu,352.194653,0.1668846312,-9.211553120000001,3.5452516456,-0.20924601,4.44825144,-0.71497148,,,
imu,352.203129,0.2087553272,-9.2300958568,3.5404664232,-0.5681376899999999,4.4183438,-0.8046943999999998,,,
imu,352.211605,0.221316536,-9.226506940000002,3.5249144504,-0.52327623,4.35852852,-1.0290017,,,
imu,352.220082,0.2177276192,-9.201384522400001,3.5183347696,-0.5681376899999999,4.18655959,-1.17106299,,,
imu,352.228558,0.2266999112,-9.205571592000002,3.514147700000001,-0.93450628,3.8949601,-1.35050883,,,
imu,352.237034,0.2165313136,-9.194804841600002,3.511156936,-0.88964482,3.58092988,-1.51500085,,,
imu,352.24551,0.1896144376,-9.177458410400002,3.5033809496,-1.01675229,3.46877623,-1.66453905,,,
imu,352.253987,0.1776513816,-9.173869493600002,3.511755088800001,-0.8672140899999999,3.40896095,-1.66453905,,,
imu,352.262463,0.1938015072,-9.169682424000001,3.504577255200001,-1.00179847,3.25194584,-1.75426197,,,
imu,352.270939,0.1866236736,-9.152335992800001,3.5069698664,-1.12890594,3.13979219,-1.89632326,,,
imu,352.279415,0.1812402984,-9.137980325600001,3.5009883384,-1.28592105,3.10240764,-1.94866163,,,
imu,352.287892,0.170473548,-9.13678402,3.4973994216,-1.39059779,3.03511545,-1.85893871,,,
imu,352.296358,0.1609031032,-9.135587714400002,3.49919388,-1.21115195,3.02016163,-1.9262309,,,
imu,352.304824,0.1567160336,-9.1164468248,3.511755088800001,-1.15133667,3.05754618,-2.0757691,,,
imu,352.31329,0.1501363528,-9.124222811200001,3.5039791024,-1.00927538,3.01268472,-2.11315365,,,
imu,352.321756,0.1369769912,-9.1272135752,3.517138464,-0.94198319,3.10988455,-2.27016876,,,
imu,352.330222,0.143556672,-9.125419116800002,3.5207273808,-0.90459864,3.16222292,-2.3000764,,,
imu,352.338688,0.1387714496,-9.134989561600001,3.523119992000001,-0.7401066199999999,3.19960747,-2.2253073,,,
imu,352.347154,0.1333880744,-9.145158159200001,3.523119992000001,-0.88964482,3.37905331,-2.21035348,,,
imu,352.35562,0.1297991576,-9.156523062400002,3.539270117600001,-0.7550604399999999,3.49868387,-1.95613854,,,
imu,352.364086,0.1297991576,-9.170280576800002,3.538073812,-0.5307531400000001,3.55102224,-1.84398489,,,
imu,352.372553,0.1519308112,-9.180449174400001,3.536877506400001,-0.38869185,3.61831443,-1.73183124,,,
imu,352.381019,0.1597067976,-9.178056563200002,3.5434571872,-0.5307531400000001,3.64074516,-1.76173888,,,
imu,352.389485,0.1591086448,-9.195402994400002,3.542260881600001,-0.61299915,3.75289881,-1.69444669,,,
imu,352.397951,0.1722680064,-9.201384522400001,3.536877506400001,-0.64290679,3.73794499,-1.64958523,,,
imu,352.406417,0.1878199792,-9.201384522400001,3.549438715200001,-0.7251528,3.88000628,-1.67201596,,,
imu,352.414883,0.191408896,-9.198991911200002,3.5608036184,-0.80739881,3.76037572,-1.6271545,,,
imu,352.423349,0.1997830352,-9.2061697448,3.5733648272,-0.81487572,3.70803735,-1.64958523,,,
imu,352.431815,0.200381188,-9.2061697448,3.54405534,-0.80739881,3.72299117,-1.7019236,,,
imu,352.440281,0.2081571744,-9.178056563200002,3.5398682704,-0.8821679099999999,3.46129932,-1.76921579,,,
imu,352.448747,0.1848292152,-9.148747076000001,3.562598076800001,-0.90459864,3.39400713,-1.81407725,,,
imu,352.457213,0.176455076,-9.143961853600002,3.5715703688,-0.73262971,3.43886859,-1.56733922,,,
imu,352.465679,0.1860255208,-9.169682424000001,3.55900916,-1.0242292,3.52859151,-1.253309,,,
imu,352.474146,0.1848292152,-9.174467646400002,3.549438715200001,-1.27844414,3.53606842,-1.16358608,,,
imu,352.482612,0.1979885768,-9.155924909600001,3.5554202432,-1.30087487,3.37905331,-1.34303192,,,
imu,352.491078,0.212344244,-9.136185867200002,3.544653492800001,-1.42050543,3.46877623,-1.3280781,,,
imu,352.499539,0.2069608688,-9.1290080336,3.5476442568,-1.28592105,3.45382241,-1.45518557,,,
imu,352.508,0.1932033544,-9.103287463200001,3.556018396000001,-1.27096723,3.32671494,-1.52247776,,,
imu,352.516461,0.1698753952,-9.089529948800001,3.5536257848,-1.03918302,3.19213056,-1.64210832,,,
imu,352.524922,0.1680809368,-9.141569242400001,3.512353241600001,-0.58309151,3.17717674,-1.82903107,,,
imu,352.533383,0.1728661592,-9.148747076000001,3.5105587832,-0.23167674,3.45382241,-1.79912343,,,
imu,352.541844,0.158510492,-9.09192256,3.542260881600001,-0.24663056,3.40148404,-1.68696978,,,
imu,352.550305,0.161501256,-9.1236246584,3.5279052144,0.05992275,3.38653022,-1.67201596,,,
imu,352.558766,0.1698753952,-9.173271340800001,3.529699672800001,0.26179932,3.58092988,-1.5523854,,,
imu,352.567227,0.161501256,-9.188823313600002,3.518932922400001,0.22441477,3.73794499,-1.46266248,,,
imu,352.575688,0.1710717008,-9.1894214664,3.533288589600001,0.25432241,3.86505246,-1.44770866,,,
imu,352.584149,0.1710717008,-9.1930103832,3.529699672800001,-0.007369440000000005,3.99215993,-1.50004703,,,
imu,352.59261,0.1638938672,-9.188823313600002,3.5386719648,-0.23915365,4.00711375,-1.53743158,,,
imu,352.601071,0.1722680064,-9.1965993,3.5386719648,-0.40364567,4.216467229999999,-1.58229304,,,
imu,352.609532,0.1812402984,-9.204973439200002,3.5314941312,-0.76253735,4.37348234,-1.66453905,,,
imu,352.617993,0.1991848824,-9.199590064,3.5416627288,-0.7550604399999999,4.56040509,-1.67201596,,,
imu,352.626454,0.20935348,-9.1918140776,3.5434571872,-0.78496808,4.6426511,-1.76173888,,,
imu,352.634915,0.2159331608,-9.184636244000002,3.536877506400001,-0.92702937,4.75480475,-1.84398489,,,
imu,352.643376,0.2165313136,-9.1918140776,3.535681200800001,-0.78496808,4.85200458,-1.82903107,,,
imu,352.651837,0.2284943696,-9.187627008000002,3.535681200800001,-0.89712173,4.807143119999999,-1.87389253,,,
imu,352.660298,0.2356722032,-9.175663952,3.530895978400001,-0.82982954,4.82209694,-1.97856927,,,
imu,352.668759,0.2464389536,-9.163700896000002,3.5207273808,-0.81487572,4.784712389999999,-1.96361545,,,
imu,352.67722,0.2464389536,-9.170280576800002,3.536877506400001,-0.63542988,4.75480475,-2.001,,,
imu,352.685681,0.2488315648,-9.186430702400001,3.5279052144,-0.82982954,4.62022037,-2.12810747,,,
imu,352.694142,0.2649816904,-9.1852343968,3.5362793536,-0.7999219,4.42582071,-2.11315365,,,
imu,352.702603,0.2715613712,-9.1792528688,3.532092284,-1.08404448,4.29871324,-2.20287657,,,
imu,352.711064,0.2673743016,-9.1792528688,3.523718144800001,-1.06909066,4.16412886,-2.06081528,,,
imu,352.719525,0.272159524,-9.173869493600002,3.5093624776,-0.9644139199999999,4.09683667,-1.99352309,,,
imu,352.727986,0.272159524,-9.1648972016,3.5153440056,-1.06909066,3.81271409,-2.00847691,,,
imu,352.736447,0.2637853848,-9.149345228800001,3.511156936,-1.12890594,3.73794499,-1.97109236,,,
imu,352.744908,0.2566075512,-9.1541304512,3.518932922400001,-1.24105959,3.70056044,-2.06829219,,,
imu,352.753369,0.2380648144,-9.155924909600001,3.5225218392,-1.11395212,3.4463455,-2.01595382,,,
imu,352.76183,0.2404574256,-9.166691660000001,3.515942158400001,-1.06161375,3.39400713,-1.90380017,,,
imu,352.770291,0.2410555784,-9.1648972016,3.521325533600001,-1.05413684,3.41643786,-1.80660034,,,
imu,352.778752,0.227298064,-9.173271340800001,3.533288589600001,-1.22610577,3.43886859,-1.76921579,,,
imu,352.787213,0.2338777448,-9.190617772000001,3.533288589600001,-1.2485365,3.40896095,-1.81407725,,,
imu,352.795674,0.2290925224000001,-9.207366050400001,3.529699672800001,-1.13638285,3.5211146,-1.79912343,,,
imu,352.804135,0.2296906752000001,-9.1965993,3.549438715200001,-1.27096723,3.43139168,-1.96361545,,,
imu,352.812596,0.2147368552,-9.195402994400002,3.5614017712,-1.18124431,3.48373005,-2.08324601,,,
imu,352.821057,0.20935348,-9.204375286400001,3.564990688,-1.24105959,3.58092988,-2.04586146,,,
imu,352.829518,0.2069608688,-9.204375286400001,3.5763555912,-1.18124431,3.75289881,-2.14306129,,,
imu,352.837979,0.2075590216,-9.180449174400001,3.564990688,-1.43545925,3.9697292,-2.17296893,,,
imu,351.365619,,,,,,,-90.76054280000001,178.0724996,108.9675856
imu,351.467242,,,,,,,-87.8064004,177.1325452,107.0022264
imu,351.568774,,,,,,,-90.33329080000001,177.913806,108.7966848
imu,351.670337,,,,,,,-89.5276156,177.3400676,106.5017312
imu,351.771899,,,,,,,-90.16238999999999,177.669662,109.0042072
imu,351.873431,,,,,,,-90.3577052,177.6452476,108.625784
imu,351.975024,,,,,,,-90.2478404,177.9870492,108.4792976
imu,352.076556,,,,,,,-90.1868044,178.7194812,108.6013696
imu,352.84644,0.2015774936,-9.150541534400002,3.5596073128,-1.4728438,4.11179049,-2.3000764,,,
imu,352.854901,0.2129423968,-9.131400644800001,3.5673832992,-1.36816706,4.216467229999999,-2.31503022,,,
imu,352.863362,0.2051664104,-9.115848672,3.570374063200001,-1.30835178,4.38095925,-2.35989168,,,
imu,352.871823,0.2099516328,-9.0925207128,3.5637943824,-1.31582869,4.388436159999999,-2.51690679,,,
imu,352.880284,0.2069608688,-9.090128101600001,3.5691777576,-1.20367504,4.4183438,-2.73373718,,,
imu,352.888745,0.1997830352,-9.114652366400001,3.594898328000001,-1.14385976,4.523020539999999,-2.88327538,,,
imu,352.897206,0.17944584,-9.169682424000001,3.5996835504,-0.94198319,4.48563599,-2.85336774,,,
imu,352.906023,0.1818384512,-9.171476882400002,3.567981452000001,-0.92702937,4.59778964,-2.80102937,,,
imu,352.914839,0.1800439928,-9.118839436000002,3.5685796048,-0.91207555,4.8669584,-2.61410662,,,
imu,352.923656,0.185427368,-9.112857908,3.6032724672,-0.78496808,5.158557889999999,-2.3000764,,,
imu,352.932473,0.20935348,-9.173869493600002,3.581738966400001,-0.67281443,5.47258811,-2.09072292,,,
imu,352.94129,0.2488315648,-9.2133475784,3.547046104000001,-0.5307531400000001,5.55483412,-1.91875399,,,
imu,352.950107,0.2739539824000001,-9.195402994400002,3.5416627288,-0.47841477,5.592218669999999,-2.24773803,,,
imu,352.958924,0.2835244272,-9.152335992800001,3.537475659200001,-0.51579932,5.375388279999999,-2.60662971,,,
imu,352.967741,0.2889078024000001,-9.137980325600001,3.536877506400001,-0.85973718,5.1660348,-2.9729983,,,
imu,352.976558,0.3038616224,-9.137980325600001,3.529699672800001,-0.92702937,4.87443531,-3.1225365,,,
imu,352.985234,0.2972819416,-9.139176631200002,3.5219236864,-0.77749117,4.56040509,-3.10010577,,,
imu,352.99405,0.2715613712,-9.1331951032,3.5183347696,-0.5756146,4.28375942,-2.8982292,,,
imu,353.002867,0.272159524,-9.114652366400001,3.515942158400001,-0.60552224,4.07440594,-2.90570611,,,
imu,353.011684,0.281131816,-9.121830200000002,3.5195310752,-0.43355331,3.94729847,-2.86832156,,,
imu,353.020501,0.2805336632,-9.1290080336,3.5219236864,-0.32139966,3.76037572,-2.748691,,,
imu,353.029318,0.2739539824000001,-9.132596950400002,3.5207273808,-0.33635348,3.55849915,-2.62906044,,,
imu,353.038135,0.2643835376,-9.1433637008,3.5183347696,-0.4260764,3.1472691,-2.70382954,,,
imu,353.046952,0.251224176,-9.171476882400002,3.5279052144,-0.40364567,2.93043871,-2.71878336,,,
imu,353.055769,0.2368685088,-9.173271340800001,3.536877506400001,-0.41859949,2.67622377,-2.73373718,,,
imu,353.064586,0.2147368552,-9.186430702400001,3.5225218392,-0.7251528,2.59397776,-2.88327538,,,
imu,353.073403,0.19439966,-9.182243632800002,3.5249144504,-0.6503837,2.55659321,-3.04029049,,,
imu,353.08222,0.1818384512,-9.177458410400002,3.526110756,-0.47093786,2.51920866,-2.9729983,,,
imu,353.091037,0.1579123392,-9.184636244000002,3.5243162976,-0.59056842,2.57902394,-2.92065993,,,
imu,353.099854,0.1477437416,-9.1924122304,3.5344848952,-0.7401066199999999,2.9229618,-2.93561375,,,
imu,353.108334,0.1333880744,-9.1930103832,3.5404664232,-0.77001426,3.13231528,-2.87579847,,,
imu,353.116814,0.1441548248,-9.203178980800002,3.5338867424,-0.7251528,3.2968073,-2.78607555,,,
imu,353.125294,0.140565908,-9.1960011472,3.5476442568,-1.12890594,3.45382241,-2.91318302,,,
imu,353.133774,0.1543234224,-9.198393758400002,3.542260881600001,-1.01675229,3.73046808,-2.91318302,,,
imu,353.142254,0.1519308112,-9.176860257600001,3.5428590344,-1.08404448,3.93234465,-2.84589083,,,
imu,353.150734,0.1573141864,-9.1792528688,3.563196229600001,-0.95693701,3.98468302,-2.84589083,,,
imu,353.159214,0.1626975616,-9.1828417856,3.556018396000001,-0.91955246,4.171605769999999,-2.94309066,,,
imu,353.167694,0.1656883256,-9.1965993,3.546447951200001,-0.77001426,4.16412886,-3.03281358,,,
imu,353.176174,0.1758569232,-9.1750657992,3.5338867424,-1.06161375,4.246374869999999,-3.17487487,,,
imu,353.184654,0.1902125904,-9.143961853600002,3.5452516456,-1.30835178,4.22394414,-3.23469015,,,
imu,353.193134,0.176455076,-9.134989561600001,3.546447951200001,-1.20367504,4.28375942,-3.21973633,,,
imu,353.201614,0.1776513816,-9.13678402,3.5362793536,-1.21115195,4.37348234,-2.85336774,,,
imu,353.210095,0.1818384512,-9.158915673600001,3.511755088800001,-1.15881358,4.33609779,-2.60662971,,,
imu,353.218575,0.1902125904,-9.1642990488,3.5153440056,-1.09152139,4.38095925,-2.54681443,,,
imu,353.227055,0.2075590216,-9.1475507704,3.5105587832,-1.0242292,4.28375942,-2.56176825,,,
imu,353.235535,0.2099516328,-9.1499433816,3.517138464,-0.93450628,4.14169813,-2.5991528,,,
imu,353.244015,0.2069608688,-9.1475507704,3.508166172,-1.01675229,3.9697292,-2.60662971,,,
imu,353.252495,0.2027737992,-9.148747076000001,3.512353241600001,-0.8821679099999999,3.77532954,-2.61410662,,,
imu,353.260975,0.185427368,-9.157719368,3.502184644000001,-1.00927538,3.43139168,-2.61410662,,,
imu,353.269455,0.1752587704,-9.154728604,3.511755088800001,-1.11395212,3.40896095,-2.56924516,,,
imu,353.277935,0.1716698536,-9.159513826400001,3.5153440056,-0.84478336,3.4463455,-2.36736859,,,
imu,353.286415,0.1543234224,-9.169084271200001,3.5165403112,-0.8821679099999999,3.42391477,-2.17296893,,,
imu,353.294895,0.1417622136,-9.154728604,3.5153440056,-0.9793677399999999,3.37905331,-1.85893871,,,
imu,353.303375,0.1441548248,-9.163700896000002,3.533288589600001,-0.95693701,3.38653022,-1.7019236,,,
imu,353.311965,0.1381732968,-9.173869493600002,3.536877506400001,-0.91207555,3.64822207,-1.55986231,,,
imu,353.320554,0.1381732968,-9.1918140776,3.536877506400001,-0.7999219,3.70803735,-1.55986231,,,
imu,353.329144,0.143556672,-9.191215924800002,3.5476442568,-0.9494601,3.85009864,-1.58229304,,,
imu,353.337733,0.1423603664,-9.190617772000001,3.554223937600001,-0.95693701,3.97720611,-1.58229304,,,
imu,353.346322,0.1327899216,-9.187028855200001,3.5596073128,-1.06909066,4.05197521,-1.78416961,,,
imu,353.354912,0.1513326584,-9.186430702400001,3.5548220904,-1.20367504,4.25385178,-1.97109236,,,
imu,353.363501,0.1501363528,-9.1858325496,3.5404664232,-1.15133667,4.4183438,-2.08324601,,,
imu,353.372091,0.1638938672,-9.1708787296,3.558411007200001,-1.27844414,4.65760492,-2.1505382,,,
imu,353.38068,0.1848292152,-9.169682424000001,3.5554202432,-1.10647521,4.8669584,-2.28512258,,,
imu,353.38927,0.1932033544,-9.160111979200002,3.547046104000001,-1.0989983,4.95668132,-2.51690679,,,
imu,353.397859,0.200381188,-9.146952617600002,3.554223937600001,-1.07656757,5.03145042,-2.59167589,,,
imu,353.406448,0.218325772,-9.13678402,3.546447951200001,-0.9943215599999999,5.03145042,-2.62158353,,,
imu,353.415038,0.2386629672,-9.117643130400001,3.5428590344,-0.9793677399999999,5.001542779999999,-2.65896808,,,
imu,353.423627,0.242251884,-9.097305935200001,3.551831326400001,-0.85973718,4.82209694,-2.68887572,,,
imu,353.432217,0.2500278704,-9.102091157600002,3.547046104000001,-0.95693701,4.784712389999999,-2.54681443,,,
imu,353.440806,0.2578038568000001,-9.102091157600002,3.532690436800001,-0.73262971,4.51554363,-2.4496146,,,
imu,353.449396,0.2613927736,-9.1170449776,3.536877506400001,-0.51579932,4.37348234,-2.54681443,,,
imu,353.457985,0.2554112456,-9.115848672,3.5314941312,-0.5756146,4.18655959,-2.56924516,,,
imu,353.466574,0.2548130928,-9.1224283528,3.546447951200001,-0.48589168,3.94729847,-2.49447606,,,
imu,353.475164,0.2416537312,-9.133793256,3.5404664232,-0.37373803,3.73046808,-2.4496146,,,
imu,353.483753,0.2296906752000001,-9.1511396872,3.5428590344,-0.14943073,3.5958837,-2.39727623,,,
imu,353.492343,0.2147368552,-9.154728604,3.54405534,-0.17186146,3.41643786,-2.35241477,,,
imu,353.500932,0.1979885768,-9.152934145600002,3.5482424096,-0.26906129,3.46877623,-2.25521494,,,
imu,353.509522,0.170473548,-9.1409710896,3.535083048000001,-0.127,3.58840679,-2.09819983,,,
imu,353.517857,0.161501256,-9.13678402,3.558411007200001,0.05992275,3.5958837,-1.96361545,,,
imu,353.526192,0.1632957144,-9.1619064376,3.560205465600001,-0.01484635000000001,3.68560662,-2.05333837,,,
imu,353.534527,0.1501363528,-9.1750657992,3.550635020800001,0.08235347999999998,3.83514482,-2.03838455,,,
imu,353.542862,0.146547436,-9.1965993,3.5512331736,-0.08961545,4.02206757,-2.24026112,,,
imu,353.551197,0.1471455888,-9.198393758400002,3.548840562400001,-0.18681528,4.29123633,-2.44213769,,,
imu,353.559532,0.1549215752,-9.2067678976,3.541064576,-0.41859949,4.56040509,-2.62906044,,,
imu,353.567867,0.1531271168,-9.210954967200001,3.5386719648,-0.29896893,4.79966621,-2.74121409,,,
imu,353.576202,0.1429585192,-9.2169364952,3.538073812,-0.43355331,5.00901969,-2.8234601,,,
imu,353.584538,0.1244157824,-9.2312921624,3.528503367200001,-0.70272207,5.21837317,-2.87579847,,,
imu,353.592873,0.1232194768,-9.2366755376,3.5249144504,-0.77749117,5.637080129999999,-3.00290594,,,
imu,353.601208,0.125612088,-9.2366755376,3.521325533600001,-1.0242292,5.988494899999999,-3.04029049,,,
imu,353.609543,0.1268083936,-9.2133475784,3.505175408000001,-1.42798234,6.42963259,-3.18235178,,,
imu,353.617878,0.1244157824,-9.178654716,3.5087643248,-1.42798234,6.751139719999999,-3.45152054,,,
imu,353.626213,0.1202287128,-9.177458410400002,3.504577255200001,-1.39059779,7.057693029999999,-3.75059694,,,
imu,353.634548,0.1064711984,-9.197197452800001,3.5177366168,-1.50275144,7.16984668,-4.012288789999999,,,
imu,353.642883,0.08493769760000001,-9.257012732800002,3.535083048000001,-1.64481273,7.267046509999999,-4.034719519999999,,,
imu,353.651219,0.06519865520000001,-9.295294512000002,3.5207273808,-1.86164312,7.73061493,-4.057150249999999,,,
imu,353.659554,0.0466559184,-9.3036686512,3.5302978256,-2.54951884,8.29138318,-4.146873169999999,,,
imu,352.17813,,,,,,,-90.1257684,178.218986,108.9431712
imu,352.279601,,,,,,,-90.62626360000002,178.4997516,109.0896576
imu,352.381133,,,,,,,-90.27225480000001,178.4997516,108.8455136
imu,352.482756,,,,,,,-87.843022,177.2179956,107.1487128
imu,352.584258,,,,,,,-90.0769396,178.15795,108.8943424
imu,352.68579,,,,,,,-89.613066,178.2311932,106.977812
imu,352.794463,,,,,,,-89.57644440000001,178.4143012,108.5159192
imu,352.888945,,,,,,,-90.3577052,178.5363732,108.9797928
imu,353.667889,0.03588916800000001,-9.309052026400002,3.5362793536,-3.17757928,9.15870474,-3.83284295,,,
imu,353.676224,0.06699311360000001,-9.3347725968,3.5404664232,-3.74582444,9.85405737,-3.5711511,,,
imu,353.684559,0.09211553120000002,-9.384419279200001,3.5249144504,-4.276685049999999,10.41482562,-3.72816621,,,
imu,353.692894,0.08433954480000001,-9.3993730992,3.517138464,-4.82997639,10.93820932,-4.18425772,,,
imu,353.701229,0.080750628,-9.364082084000001,3.493810504800001,-5.74963632,11.51393139,-4.89456417,,,
imu,353.709564,0.07058203040000001,-9.3347725968,3.5135495472,-6.549665689999999,12.17189947,-5.477763149999999,,,
imu,353.718033,0.062806044,-9.2929019008,3.504577255200001,-7.05061866,12.73266772,-6.01610067,,,
imu,353.726502,0.04007623760000001,-9.244451524,3.511156936,-7.701109829999999,13.3158667,-6.62920729,,,
imu,353.73497,0.03887993200000001,-9.244451524,3.5386719648,-7.843171119999999,13.97383478,-7.36942138,,,
imu,353.743439,-0.004785222400000001,-9.259405344000001,3.5183347696,-8.06747842,14.7364796,-7.87785126,,,
imu,353.751907,-0.0352910152,-9.2432552184,3.521325533600001,-8.46375465,15.44678605,-8.45357333,,,
imu,353.760376,-0.0155519728,-9.221123564800001,3.564392535200001,-8.79273869,16.44869199,-9.17135669,,,
imu,353.768845,-0.0005981528000000001,-9.232488468000001,3.587720494400001,-9.18901492,17.47302866,-9.89661696,,,
imu,353.777313,0.0203371952,-9.242058912800001,3.5805426608,-9.570337330000001,18.28053494,-10.53215431,,,
imu,353.785782,0.03110394560000001,-9.2336847736,3.6014780088,-9.98904429,18.81887246,-11.26489149,,,
imu,353.794251,0.04486146000000001,-9.2067678976,3.624805968,-10.3703667,19.56656346,-11.720983,,,
imu,353.802719,0.08792846160000001,-9.167887965600002,3.6439468576,-10.94608877,19.94788587,-12.11725923,,,
imu,353.811188,0.1004896704,-9.134391408800001,3.6612932888,-11.08815006,20.44136193,-12.52848928,,,
imu,353.819656,0.09211553120000002,-9.109867144,3.691200928800001,-11.25264208,20.62828468,-12.7677504,,,
imu,353.828125,0.07656355840000001,-9.095511476800002,3.712136276800001,-11.23021135,20.93483799,-12.62568911,,,
imu,353.836594,0.0735727944,-9.108072685600002,3.7378568472,-11.28254972,21.20400675,-12.6182122,,,
imu,353.845062,0.06160973840000001,-9.118839436000002,3.746230986400001,-11.42461101,21.51803697,-12.5434431,,,
imu,353.853531,0.0741709472,-9.0991003936,3.748025444800001,-11.46199556,21.95169775,-12.43128945,,,
imu,353.862,0.092713684,-9.09192256,3.788101682400001,-11.67882595,22.31806634,-12.37147417,,,
imu,353.870468,0.11963056,-9.077566892800002,3.8287760728,-11.65639522,22.54985055,-12.28922816,,,
imu,353.878937,0.140565908,-9.093717018400001,3.8497114208,-11.68630286,22.66948111,-12.16212069,,,
imu,353.887405,0.1501363528,-9.0996985464,3.855692948800001,-11.97042544,22.49751218,-12.08735159,,,
imu,353.895874,0.1740624648,-9.0853428792,3.885002436000001,-12.09753291,22.24329724,-11.97519794,,,
imu,353.904343,0.1926052016,-9.0787631984,3.9334528128,-12.08257909,22.10123595,-11.78079828,,,
imu,353.912811,0.2051664104,-9.053042628,3.929863896000001,-11.97790235,21.64514444,-11.54153716,,,
imu,353.921623,0.19439966,-9.011770084800002,3.937041729600001,-12.23211729,21.24886821,-11.48172188,,,
imu,353.930435,0.1878199792,-8.954347416000001,3.941826952000001,-12.13491746,20.61333086,-11.08544565,,,
imu,353.939246,0.1698753952,-8.9112804144,3.968743828,-12.0152869,20.20210081,-10.78636925,,,
imu,353.948058,0.1656883256,-8.882569080000001,3.97771612,-11.8657487,19.99274733,-10.53963122,,,
imu,353.956869,0.1788476872,-8.878980163200001,3.986090259200001,-11.43208792,19.55160964,-10.19569336,,,
imu,353.965681,0.17944584,-8.864624496000001,4.0058293016,-11.0432886,19.25253324,-9.78446331,,,
imu,353.974493,0.1967922712,-8.828137175200002,4.00762376,-10.39279743,18.83382628,-9.27603343,,,
imu,353.983304,0.191408896,-8.8251464112,4.027960955200001,-9.83950609,18.23567348,-9.19378742,,,
imu,353.992116,0.1932033544,-8.810790744000002,4.0399240112,-9.413322220000001,17.74219742,-9.178833599999999,,,
imu,354.000928,0.206362716,-8.795238771200001,4.056672289600001,-8.628246670000001,17.15152153,-8.9545263,,,
imu,354.009739,0.191408896,-8.789257243200002,4.062055664800001,-7.656248369999999,16.51598418,-8.82741883,,,
imu,354.018551,0.1961941184,-8.7766960344,4.063251970400001,-6.91603428,15.87296992,-8.85732647,,,
imu,354.027362,0.2015774936,-8.788060937600001,4.0698316512,-6.13843564,15.2598633,-8.71526518,,,
imu,354.036174,0.188418132,-8.783873868,4.085981776800001,-5.46551374,14.62432595,-8.371327319999999,,,
imu,354.044986,0.1842310624,-8.792248007200001,4.0919633048,-4.844930209999999,13.84672731,-8.10215856,,,
imu,354.053797,0.1770532288,-8.8185667304,4.099739291200001,-4.11966994,13.18128232,-7.668497779999999,,,
imu,354.062609,0.1531271168,-8.8532595928,4.099739291200001,-3.43179422,12.69528317,-7.234837000000001,,,
imu,354.07142,0.1477437416,-8.876587552000002,4.109309736000001,-2.72896468,12.18685329,-6.89837605,,,
imu,354.080085,0.1477437416,-8.882569080000001,4.1099078888,-2.58690339,11.61113122,-6.509576729999999,,,
imu,354.088897,0.137575144,-8.874793093600001,4.1081134304,-2.13081188,11.14008589,-6.090869769999999,,,
imu,354.097709,0.1357806856,-8.882569080000001,4.129646931200001,-1.89902767,10.67651747,-5.79927028,,,
imu,354.10652,0.1088638096,-8.910084108800001,4.129048778400001,-1.54013599,10.14565686,-5.39551714,,,
imu,354.115332,0.09690075360000001,-8.9220471648,4.151778584800001,-1.34573633,9.71947299,-5.09644074,,,
imu,354.123811,0.1052748928,-8.913074872800001,4.139217376,-1.38312088,9.34562749,-4.93942563,,,
imu,354.132289,0.09450814240000002,-8.920850859200002,4.1404136816,-1.07656757,9.06898182,-4.692687599999999,,,
imu,354.140768,0.09869521200000002,-8.924439776000002,4.1338340008,-1.08404448,8.73999778,-4.44594957,,,
imu,354.149247,0.1118545736,-8.9256360816,4.1356284592,-1.26349032,8.32876773,-4.26650373,,,
imu,354.157726,0.113649032,-8.913074872800001,4.130843236800001,-1.12890594,7.94744532,-3.95247351,,,
imu,354.166205,0.1028822816,-8.902906275200001,4.132637695200001,-1.00179847,7.483876899999999,-3.57862801,,,
imu,354.174683,0.110658268,-8.9076914976,4.136226612000001,-1.00927538,7.12498522,-3.28702852,,,
imu,354.183162,0.107667504,-8.9112804144,4.124861708800001,-0.82235263,6.6614168,-3.02533667,,,
imu,354.191641,0.09929336480000002,-8.904102580800002,4.1164875696,-0.70272207,6.19037147,-2.92813684,,,
imu,354.20012,0.08852661440000001,-8.890943219200002,4.1236654032,-0.51579932,5.74175687,-2.86832156,,,
imu,354.208599,0.08733030880000002,-8.8981210528,4.129048778400001,-0.30644584,5.38286519,-2.66644499,,,
imu,354.217077,0.06041343280000001,-8.914271178400002,4.1469933624,-0.14195382,5.068834969999999,-2.4496146,,,
imu,354.225556,0.004785222400000001,-8.925037928800002,4.1218709448,-0.11204618,4.82957385,-2.35989168,,,
imu,354.234035,-0.0131593616,-8.938197290400002,4.117683875200001,0.0001074699999999984,4.75480475,-2.40475314,,,
imu,354.242514,-0.0125612088,-8.9256360816,4.1075152776,0.21693786,4.807143119999999,-2.44213769,,,
imu,354.250993,-0.01495382,-8.929224998400002,4.103328208000001,0.25432241,5.12865025,-2.44213769,,,
imu,354.259471,-0.0113649032,-8.929224998400002,4.110506041600001,0.23189168,5.45763429,-2.25521494,,,
imu,354.26795,-0.0005981528000000001,-8.931617609600002,4.096150374400001,0.15712258,5.50997266,-2.35989168,,,
imu,354.276429,0.0053833752,-8.937599137600001,4.0937577632,0.21693786,5.71184923,-2.42718387,,,
imu,354.284908,0.007177833600000002,-8.945375124000002,4.0955522216,0.27675314,5.876341249999999,-2.31503022,,,
imu,354.293387,0.02990764000000001,-8.9262342344,4.0871780824,0.3963837,6.010925629999999,-2.32998404,,,
imu,354.301865,0.04845037680000001,-8.9429825128,4.082991012800001,0.44872207,5.876341249999999,-2.42718387,,,
imu,354.310344,0.06460050240000001,-8.945973276800002,4.094954068800001,0.81509066,5.749233779999999,-2.33746095,,,
imu,354.318823,0.07297464160000001,-8.9710956944,4.1128986528,0.7104139199999999,5.704372319999999,-2.27016876,,,
imu,354.327288,0.05802082160000001,-8.9956199592,4.094355916,0.68798319,5.569787939999999,-2.06829219,,,
imu,354.335753,0.04007623760000001,-9.0159571544,4.0925614576,0.52349117,5.42772665,-1.91875399,,,
imu,354.344217,0.03947808480000001,-9.007583015200002,4.085383624,0.15712258,5.42772665,-1.83650798,,,
imu,354.352682,0.0592171272,-8.980067986400002,4.0728224152,0.0001074699999999984,5.592218669999999,-1.74678506,,,
imu,354.361147,0.04007623760000001,-8.938197290400002,4.079402096,-0.007369440000000005,5.62960322,-1.98604618,,,
imu,354.369612,0.0257205704,-8.944776971200001,4.091365152000001,-0.14943073,5.55483412,-2.25521494,,,
imu,354.378077,0.0161501256,-8.9806661392,4.0835891656,-0.2017691,5.71932614,-2.35989168,,,
imu,354.386542,0.005981528000000001,-9.0159571544,4.074018720800001,-0.35878421,5.831479789999999,-2.28512258,,,
imu,354.395006,0.0005981528000000001,-8.990236584000002,4.0572704424,-0.32139966,6.16794074,-2.35241477,,,
imu,354.403471,-0.0011963056,-8.9848532088,4.073420568,-0.45598404,6.564216969999999,-2.0757691,,,
imu,354.411936,0.0251224176,-8.9878439728,4.0710279568,-0.33635348,6.94553938,-1.61220068,,,
imu,354.420401,0.07656355840000001,-8.9950218064,4.0447092336,-0.2017691,7.16984668,-1.24583209,,,
imu,354.428866,0.1088638096,-8.997414417600002,4.040522164,-0.13447691,7.20723123,-1.3280781,,,
imu,354.43733,0.155519728,-8.9848532088,4.029157260800001,-0.127,7.244615779999999,-1.64958523,,,
imu,354.445795,0.1842310624,-8.965114166400001,4.0399240112,-0.01484635000000001,6.87077028,-1.88136944,,,
imu,354.45426,0.1997830352,-8.9645160136,4.0471018448,0.0001074699999999984,6.489447869999999,-1.94118472,,,
imu,354.462725,0.1979885768,-8.982460597600001,4.053083372800001,0.1720764,5.988494899999999,-1.93370781,,,
imu,354.47119,0.1770532288,-8.979469833600001,4.041718469600001,0.1720764,5.637080129999999,-1.97856927,,,
imu,354.479655,0.1836329096,-8.966310472000002,4.0381295528,0.05992275,5.15108098,-2.01595382,,,
imu,352.990477,,,,,,,-90.0281108,178.5485804,108.38164
imu,353.09204,,,,,,,-89.8816244,178.341058,108.9553784
imu,353.193602,,,,,,,-89.41775080000001,178.5607876,108.1008744
imu,353.295226,,,,,,,-90.00369640000001,178.2922292,107.9788024
imu,353.39691,,,,,,,-87.904058,177.425518,105.9768216
imu,353.49832,,,,,,,-89.8816244,178.3532652,108.8455136
imu,353.599883,,,,,,,-87.6110852,177.6818692,106.1721368
imu,353.701415,,,,,,,-90.51639879999999,178.0236708,109.0408288
imu,354.488119,0.1692772424,-8.9471695824,4.0333443304,-0.13447691,4.82957385,-1.90380017,,,
imu,354.496584,0.1603049504,-8.95733818,4.0351387888,-0.38869185,4.50806672,-1.81407725,,,
imu,354.505049,0.1447529776,-8.9495621936,4.031549872,-0.25410747,4.30619015,-1.78416961,,,
imu,354.513514,0.1339862272,-8.931019456800001,4.034540636000001,-0.22419983,4.149175039999999,-1.80660034,,,
imu,354.521979,0.1333880744,-8.930421304000001,4.037531400000001,-0.4260764,3.97720611,-2.04586146,,,
imu,354.530464,0.125612088,-8.934010220800001,4.0542796784,-0.08961545,3.83514482,-2.14306129,,,
imu,354.538949,0.1232194768,-8.9286268456,4.0441110808,0.05992275,3.67812971,-2.26269185,,,
imu,354.547434,0.1148453376,-8.9399917488,4.0578685952,0.09730729999999999,3.60336061,-2.25521494,,,
imu,354.555919,0.1112564208,-8.939393596000002,4.0608593592,0.03001510999999998,3.55102224,-2.31503022,,,
imu,354.564404,0.1148453376,-8.9471695824,4.067439040000001,0.08983038999999998,3.4463455,-2.24026112,,,
imu,354.57289,0.1154434904,-8.945375124000002,4.0656445816,0.3739529699999999,3.3715764,-2.18044584,,,
imu,354.581375,0.1244157824,-8.9537492632,4.0835891656,0.44872207,3.15474601,-2.03838455,,,
imu,354.58986,0.09929336480000002,-8.969899388800002,4.0889725408,0.49358353,3.12483837,-1.79912343,,,
imu,354.598345,0.10467674,-8.987245820000002,4.1027300552,0.29170696,3.0725,-1.60472377,,,
imu,354.60683,0.1160416432,-9.003395945600001,4.099739291200001,0.33656842,3.05754618,-1.5523854,,,
imu,354.615315,0.1303973104,-9.007583015200002,4.094355916,0.14964567,2.90800798,-1.68696978,,,
imu,354.6238,0.1238176296,-8.986049514400001,4.077607637600001,0.21693786,2.87062343,-1.66453905,,,
imu,354.632286,0.1232194768,-8.9627215552,4.0770094848,0.26179932,2.76594669,-1.69444669,,,
imu,354.640771,0.125612088,-8.9465714296,4.084785471200001,0.41133752,2.76594669,-1.74678506,,,
imu,354.649256,0.1321917688,-8.939393596000002,4.0752150264,0.35899915,2.79585433,-1.70940051,,,
imu,354.657741,0.1411640608,-8.9160656368,4.0518870672,0.52349117,2.55659321,-1.83650798,,,
imu,354.666226,0.1573141864,-8.8813727744,4.0447092336,0.6281679099999999,2.31733209,-1.91875399,,,
imu,354.674711,0.1351825328,-8.8341187032,4.065046428800001,0.73284465,2.14536316,-1.86641562,,,
imu,354.683197,0.1459492832,-8.828137175200002,4.054877831200001,1.15155161,2.03320951,-1.5523854,,,
imu,354.691682,0.1626975616,-8.868213412800001,4.046503692000001,1.60016621,1.8761944,-1.26078591,,,
imu,354.700167,0.1609031032,-8.885559844000001,4.0351387888,1.86933497,1.71170238,-1.20844754,,,
imu,354.708652,0.182436604,-8.929224998400002,4.008221912800001,2.07868845,1.36028761,-1.4028472,,,
imu,354.717137,0.1836329096,-8.940589901600001,4.001044079200001,2.50487232,1.03130357,-1.24583209,,,
imu,354.725622,0.1800439928,-8.941786207200002,4.0142034408,2.49739541,0.70231953,-1.29817046,,,
imu,354.734062,0.1579123392,-8.920850859200002,4.0118108296,2.59459524,0.2088434699999997,-1.253309,,,
imu,354.742501,0.1333880744,-8.947767735200001,3.9962588568,2.81142563,-0.1425713000000002,-1.29069355,,,
imu,354.750941,0.1202287128,-8.996816264800001,3.9753235088,3.17779422,-0.3070633200000001,-1.15610917,,,
imu,354.75938,0.09869521200000002,-9.020742376800001,3.980108731200001,3.34228624,-0.6510011800000002,-0.9018942299999999,,,
imu,354.767819,0.0741709472,-9.019546071200002,3.962762300000001,3.25256332,-0.7855855599999999,-0.6551562,,,
imu,354.776259,0.06998387760000001,-9.024929446400002,3.956780772000001,3.27499405,-0.80053938,-0.5355256399999999,,,
imu,354.784698,0.06400234960000001,-9.0303128216,3.949004785600001,3.12545585,-0.6435242699999999,-0.4682334499999998,,,
imu,354.793137,0.05203929360000001,-9.037490655200001,3.9591733832,2.88619473,-0.57623208,-0.3560797999999998,,,
imu,354.801577,0.06400234960000001,-9.027920210400001,3.962762300000001,2.84133327,-0.5164168,-0.25887997,,,
imu,354.810016,0.0526374464,-9.0386869608,3.951397396800001,2.69179507,-0.5463244400000002,-0.2289723299999999,,,
imu,354.818456,0.06579680800000001,-9.0267239048,3.930462048800001,2.52730305,-0.4266938800000002,-0.06448030999999999,,,
imu,354.826895,0.06101158560000001,-9.047061100000002,3.9352472712,2.7142258,-0.31454023,0.1074886200000003,,,
imu,354.835334,0.08374139200000001,-9.035098044000001,3.914910076,2.66936434,-0.31454023,0.1074886200000003,,,
imu,354.843774,0.092713684,-9.017751612800001,3.917900840000001,2.63197979,-0.37435551,0.1074886200000003,,,
imu,354.852213,0.07716171120000001,-9.021938682400002,3.915508228800001,2.65441052,-0.39678624,0.18225772,,,
imu,354.860652,0.092713684,-9.031509127200001,3.908330395200001,2.75161035,-0.4939860700000001,0.1897346300000002,,,
imu,354.869092,0.0980970592,-9.029116516000002,3.8784227552,2.62450288,-0.6360473600000001,0.2719806400000002,,,
imu,354.877531,0.1052748928,-9.0123682376,3.8826098248,2.63197979,-0.6360473600000001,0.2944113700000002,,,
imu,354.885971,0.1268083936,-8.998610723200002,3.889189505600001,2.62450288,-0.7706317400000002,0.2794575500000001,,,
imu,354.89441,0.1537252696,-8.993227348000001,3.883207977600001,2.84133327,-0.9500775800000003,0.4738572100000003,,,
imu,354.902849,0.143556672,-9.00219964,3.8856005888,3.2376095,-1.12204651,0.75050288,,,
imu,354.911289,0.143556672,-9.030910974400001,3.8921802696,3.40210152,-1.36130763,1.01967164,,,
imu,354.919728,0.1459492832,-9.0608186144,3.885002436000001,3.30490169,-1.61552257,1.02714855,,,
imu,354.928168,0.1333880744,-9.0596223088,3.865263393600001,3.21517877,-1.84730678,1.04210237,,,
imu,354.936987,0.1262102408,-9.059024156000001,3.8664596992,3.07311748,-2.05666026,0.9673332700000001,,,
imu,354.945807,0.1303973104,-9.0476592528,3.8562911016,2.99087147,-2.2361061,0.9673332700000001,,,
imu,354.954626,0.1339862272,-9.035696196800002,3.862272629600001,2.96844074,-2.43798267,0.9374256299999999,,,
imu,354.963446,0.128602852,-9.044070336,3.858085560000001,3.08059439,-2.52770559,0.8776103499999999,,,
imu,354.972265,0.137575144,-9.024331293600001,3.846720656800001,3.05816366,-2.66228997,0.8776103499999999,,,
imu,354.981085,0.1393696024,-9.024331293600001,3.8353557536,2.75908726,-2.81930508,0.9449025400000002,,,
imu,354.989905,0.1591086448,-9.0339017384,3.8473188096,3.04320984,-3.0585662,1.20659439,,,
imu,354.998724,0.1626975616,-9.055435239200001,3.8359539064,3.17031731,-3.2081044,1.48324006,,,
imu,355.007544,0.1668846312,-9.063211225600002,3.826981614400001,3.20022495,-3.46979625,1.72250118,,,
imu,355.016363,0.1369769912,-9.094315171200002,3.8263834616,3.23013259,-3.53708844,2.05148522,,,
imu,355.025183,0.1292010048,-9.111661602400002,3.8168130168,3.26751714,-3.82121102,2.17111578,,,
imu,355.034002,0.1190324072,-9.111661602400002,3.813822252800001,3.17779422,-3.98570304,2.10382359,,,
imu,355.042822,0.1118545736,-9.1266154224,3.8168130168,2.99087147,-3.89598012,2.05148522,,,
imu,355.051642,0.09869521200000002,-9.118241283200001,3.801859196800001,2.99087147,-3.82121102,1.96923921,,,
imu,355.060461,0.0980970592,-9.128409880800001,3.7970739744,2.81890254,-3.61185754,1.95428539,,,
imu,355.069281,0.08254508640000002,-9.127811728000001,3.7928869048,2.3403803,-3.38755024,1.84213174,,,
imu,355.0781,0.1028822816,-9.1062782272,3.788699835200001,1.9665348,-3.15576603,1.65520899,,,
imu,355.08692,0.08912476720000001,-9.1224283528,3.792288752000001,1.82447351,-2.93893564,1.61782444,,,
imu,355.09574,0.1034804344,-9.0787631984,3.759390348,1.64502767,-2.72210525,1.57296298,,,
imu,355.104559,0.1118545736,-9.062014920000001,3.771353404000001,1.48053565,-2.5351825,1.38604023,,,
imu,355.113379,0.1118545736,-9.053640780800002,3.783914612800001,1.42072037,-2.33330593,1.32622495,,,
imu,355.122198,0.1064711984,-9.0925207128,3.801859196800001,1.45062801,-2.27349065,1.34865568,,,
imu,355.131018,0.09091922560000001,-9.118839436000002,3.7731478624,1.49548947,-2.0865679,1.31874804,,,
imu,355.139493,0.09151737840000002,-9.103885616000001,3.765371876000001,1.36090509,-1.80244532,1.26640967,,,
imu,355.147968,0.09989151760000002,-9.0996985464,3.78331646,1.18145925,-1.45103055,1.3636095,,,
imu,355.156443,0.1363788384,-9.114652366400001,3.76836264,1.40576655,-0.9874621299999999,1.59539371,,,
imu,355.164918,0.1489400472,-9.115250519200002,3.7276882496,1.77961205,-0.5238937100000003,1.67016281,,,
imu,355.173286,0.1519308112,-9.120633894400001,3.718715957600001,1.83195042,-0.2173404000000003,1.58043989,,,
imu,355.181761,0.1878199792,-9.090128101600001,3.718715957600001,1.86933497,-0.09023292999999999,1.47576315,,,
imu,355.190236,0.2111479384,-9.079361351200001,3.7139307352,1.86185806,-0.04537147000000008,1.10191765,,,
imu,355.198711,0.2057645632,-9.086539184800001,3.7013695264,2.01139626,-0.1874327600000001,0.75050288,,,
imu,355.207186,0.197390424,-9.093118865600001,3.7007713736,2.05625772,-0.3220171400000003,0.3916112000000003,,,
imu,355.215661,0.1985867296,-9.094913324,3.6947898456,2.07121154,-0.2696787700000001,0.2046884499999999,,,
imu,355.224136,0.206362716,-9.090726254400002,3.7001732208,2.09364227,-0.39678624,-0.07195722000000004,,,
imu,355.232611,0.1902125904,-9.090726254400002,3.696584304,2.03382699,-0.4640784300000003,-0.1915877799999999,,,
imu,355.241086,0.2039701048,-9.0883336432,3.693593540000001,1.88428879,-0.5687551700000002,-0.12429559,,,
imu,355.249561,0.1926052016,-9.0991003936,3.704958443200001,1.83942733,-0.5238937100000003,-0.04204958000000003,,,
imu,355.258036,0.1836329096,-9.109867144,3.702565832000001,1.70484295,-0.43417079,-0.01961884999999985,,,
imu,355.266511,0.17944584,-9.1170449776,3.70854736,1.5926893,-0.4491246100000001,-0.04952648999999987,,,
imu,355.274986,0.1561178808,-9.115848672,3.716323346400001,1.43567419,-0.3369709599999999,-0.2065416,,,
imu,355.283461,0.1650901728,-9.131400644800001,3.7252956384,1.38333582,-0.2248173100000002,-0.2514030599999999,,,
imu,355.291936,0.1591086448,-9.1409710896,3.7199122632,1.33099745,-0.07527911000000032,-0.3336490699999999,,,
imu,355.300411,0.1603049504,-9.143961853600002,3.7127344296,1.45810492,0.1415512799999998,-0.31869525,,,
imu,353.802922,,,,,,,-90.6750924,178.4997516,107.8567304
imu,353.904485,,,,,,,-91.38311000000002,178.2556076,108.5769552
imu,354.006047,,,,,,,-92.46955080000001,178.5974092,106.672632
imu,354.107549,,,,,,,-92.6526588,178.5119588,106.3308304
imu,354.209142,,,,,,,-92.847974,178.4997516,106.5627672
imu,354.310674,,,,,,,-90.7361284,178.3776796,105.5251552
imu,354.412267,,,,,,,-93.22639720000001,179.1467332,106.062272
imu,354.513829,,,,,,,-90.56522760000001,178.2922292,103.4621384
imu,355.308886,0.1632957144,-9.128409880800001,3.7031639848,1.38333582,0.4032431299999999,-0.4682334499999998,,,
imu,355.317361,0.1698753952,-9.1236246584,3.714528888000001,1.23379762,0.64250425,-0.43832581,,,
imu,355.325836,0.1728661592,-9.115250519200002,3.7193141104,1.12164397,0.8892422799999999,-0.4532796299999999,,,
imu,355.334311,0.1740624648,-9.114652366400001,3.714528888000001,1.23379762,1.06121121,-0.55047946,,,
imu,355.342774,0.1812402984,-9.1302043392,3.7103418184,1.11416706,1.24065705,-0.6925407499999998,,,
imu,355.351238,0.1955959656,-9.134989561600001,3.702565832000001,1.30856672,1.45748744,-0.74487912,,,
imu,355.359701,0.2087553272,-9.127811728000001,3.6864157064,1.32352054,1.62197946,-1.05890934,,,
imu,355.368165,0.221316536,-9.114652366400001,3.690004623200001,1.34595127,1.59954873,-1.12620153,,,
imu,355.376628,0.2027737992,-9.093118865600001,3.697780609600001,1.45810492,1.61450255,-1.32060119,,,
imu,355.385092,0.2039701048,-9.103287463200001,3.6864157064,1.33847436,1.60702564,-1.58976995,,,
imu,355.393555,0.1949978128,-9.130802492,3.672060039200001,1.40576655,1.53973345,-1.73930815,,,
imu,355.402019,0.1961941184,-9.1062782272,3.6636859,1.34595127,1.44253362,-1.87389253,,,
imu,355.410482,0.1842310624,-9.084146573600002,3.6768452616,1.2936129,1.25561087,-1.97856927,,,
imu,355.418946,0.1800439928,-9.066201989600001,3.660695136000001,1.2188438,1.30047233,-1.79164652,,,
imu,355.42741,0.1716698536,-9.090726254400002,3.6594988304,1.33847436,1.40514907,-1.34303192,,,
imu,355.435873,0.1776513816,-9.1092689912,3.6421523992,1.35342818,1.45001053,-1.35050883,,,
imu,355.444337,0.1836329096,-9.108072685600002,3.6409560936,1.42819728,1.45748744,-1.35050883,,,
imu,355.4528,0.1872218264,-9.110465296800001,3.6313856488,1.57773548,1.45748744,-1.38041647,,,
imu,355.461264,0.1955959656,-9.097904088000002,3.627796732000001,1.64502767,1.39767216,-1.44023175,,,
imu,355.469727,0.1890162848,-9.1014930048,3.6152355232,1.54782784,1.26308778,-1.44023175,,,
imu,355.478191,0.1770532288,-9.114652366400001,3.607459536800001,1.84690424,1.36028761,-1.55986231,,,
imu,355.486654,0.1650901728,-9.1026893104,3.600281703200001,1.8917657,1.34533379,-1.74678506,,,
imu,355.495118,0.1495382,-9.1056800744,3.5960946336,2.08616536,1.31542615,-1.69444669,,,
imu,355.503581,0.1489400472,-9.1272135752,3.5960946336,2.31794957,1.43505671,-1.67201596,,,
imu,355.512045,0.1489400472,-9.148747076000001,3.590711258400001,2.4899185,1.53973345,-1.56733922,,,
imu,355.520508,0.1453511304,-9.150541534400002,3.591907564,2.16093446,1.56964109,-1.68696978,,,
imu,355.528972,0.1561178808,-9.146354464800002,3.588916800000001,2.09364227,1.70422547,-1.64958523,,,
imu,355.537436,0.1632957144,-9.161308284800002,3.5841315776,2.2656112,1.93600968,-1.38041647,,,
imu,355.545904,0.1597067976,-9.1654953544,3.5883186472,2.22074974,2.07059406,-1.28321664,,,
imu,355.554373,0.1662864784,-9.1720750352,3.581140813600001,2.19831901,2.1752708,-1.3280781,,,
imu,355.562841,0.1722680064,-9.163700896000002,3.5715703688,2.07868845,2.1752708,-1.39537029,,,
imu,355.57131,0.1680809368,-9.1541304512,3.579346355200001,2.03382699,2.19770153,-1.41032411,,,
imu,355.579779,0.16449202,-9.178056563200002,3.5685796048,2.10111918,2.22760917,-1.41032411,,,
imu,355.588247,0.1626975616,-9.182243632800002,3.5524294792,1.9665348,2.34723973,-1.60472377,,,
imu,355.596716,0.1513326584,-9.203777133600001,3.5512331736,1.9665348,2.39210119,-1.73183124,,,
imu,355.605185,0.158510492,-9.2001882168,3.544653492800001,1.8917657,2.48182411,-1.82903107,,,
imu,355.613653,0.1710717008,-9.1924122304,3.5578128544,1.71231986,2.66126995,-1.85893871,,,
imu,355.622122,0.1710717008,-9.194206688800001,3.548840562400001,1.77961205,2.66126995,-1.7766927,,,
imu,355.63059,0.1716698536,-9.204375286400001,3.5344848952,1.24875144,2.72856214,-2.03838455,,,
imu,355.639059,0.1806421456,-9.193608536000001,3.529699672800001,1.00201341,2.86314652,-2.16549202,,,
imu,355.647528,0.1722680064,-9.1894214664,3.5183347696,0.97958268,2.82576197,-2.11315365,,,
imu,355.655996,0.1758569232,-9.173271340800001,3.512353241600001,0.8375213899999999,3.01268472,-2.19539966,,,
imu,355.664465,0.1806421456,-9.172673188000001,3.507568019200001,0.56835263,3.20708438,-2.43466078,,,
imu,355.672934,0.182436604,-9.155924909600001,3.4848382128,0.74779847,3.13979219,-2.47204533,,,
imu,355.681402,0.1806421456,-9.141569242400001,3.4920160464,0.83004448,3.11736146,-2.53186061,,,
imu,355.689871,0.17944584,-9.1445600064,3.491417893600001,0.7552753799999999,3.18465365,-2.49447606,,,
imu,355.698339,0.1806421456,-9.1720750352,3.4956049632,1.04687487,3.13231528,-2.41223005,,,
imu,355.706808,0.1776513816,-9.1792528688,3.5057735608,1.17398234,3.24446893,-2.47952224,,,
imu,355.715277,0.1776513816,-9.195402994400002,3.4985957272,1.10669015,3.1472691,-2.6739219,,,
imu,355.723745,0.1776513816,-9.1965993,3.491417893600001,1.01696723,3.19960747,-2.72626027,,,
imu,355.732214,0.1878199792,-9.2067678976,3.5039791024,0.88985976,3.13979219,-2.83841392,,,
imu,355.740683,0.1770532288,-9.232488468000001,3.514147700000001,0.9347212199999999,3.1472691,-2.86832156,,,
imu,355.749198,0.1656883256,-9.2408626072,3.4973994216,0.64312173,3.15474601,-2.91318302,,,
imu,355.757714,0.1620994088,-9.234881079200001,3.512353241600001,0.5010604399999999,3.09493073,-2.86084465,,,
imu,355.76623,0.1716698536,-9.249834899200001,3.5153440056,0.21693786,3.08745382,-2.79355246,,,
imu,355.774745,0.1597067976,-9.2546201216,3.5279052144,-0.0522309,3.17717674,-2.5991528,,,
imu,355.783261,0.1662864784,-9.2342829264,3.514147700000001,-0.32139966,3.25942275,-2.54681443,,,
imu,355.791777,0.1591086448,-9.178056563200002,3.5027827968,-0.48589168,3.19213056,-2.61410662,,,
imu,355.800292,0.1369769912,-9.155924909600001,3.514147700000001,-0.58309151,3.16222292,-2.57672207,,,
imu,355.808808,0.1220231712,-9.1858325496,3.532092284,-0.53823005,3.28933039,-2.53186061,,,
imu,355.817324,0.1190324072,-9.202580828,3.5165403112,-0.67281443,3.51363769,-2.43466078,,,
imu,355.825839,0.1142471848,-9.1828417856,3.5057735608,-0.6279529699999999,3.66317589,-2.18792275,,,
imu,355.834355,0.1160416432,-9.138578478400001,3.5105587832,-0.5980453299999999,4.00711375,-1.86641562,,,
imu,355.842871,0.131593616,-9.1373821728,3.5249144504,-0.63542988,4.38095925,-1.48509321,,,
imu,355.851386,0.173464312,-9.1619064376,3.4944086576,-0.41859949,4.63517419,-1.17106299,,,
imu,355.859902,0.2051664104,-9.1684861184,3.4734733096,-0.01484635000000001,4.61274346,-1.11872462,,,
imu,355.868418,0.2243073,-9.162504590400001,3.4627065592,-0.08213854000000001,4.51554363,-1.6271545,,,
imu,355.876933,0.248233412,-9.130802492,3.4680899344,0.07487657,4.38095925,-1.9262309,,,
imu,355.885449,0.2625890792,-9.1266154224,3.46928624,0.19450713,4.22394414,-2.12063056,,,
imu,355.893965,0.260196468,-9.142167395200001,3.470482545600001,0.57582954,3.81271409,-2.28512258,,,
imu,355.90248,0.23926112,-9.142167395200001,3.4698843928,0.65059864,3.46129932,-2.42718387,,,
imu,355.910996,0.2266999112,-9.134989561600001,3.4668936288,0.8973366700000001,3.20708438,-2.53933752,,,
imu,355.919512,0.2237091472,-9.126017269600002,3.460912100800001,0.7552753799999999,3.09493073,-2.53933752,,,
imu,355.928027,0.218325772,-9.120633894400001,3.4597157952,0.80761375,2.90800798,-2.53186061,,,
imu,355.936543,0.2165313136,-9.100894852000001,3.470482545600001,1.09173633,2.64631613,-2.45709151,,,
imu,355.945059,0.1979885768,-9.131998797600001,3.4650991704,1.21136689,2.52668557,-2.4496146,,,
imu,355.954153,0.1818384512,-9.178056563200002,3.463304712000001,1.63007385,2.36219355,-2.28512258,,,
imu,355.963247,0.1788476872,-9.1930103832,3.465697323200001,1.58521239,2.27994754,-2.38232241,,,
imu,355.972342,0.1680809368,-9.1828417856,3.470482545600001,1.51044329,2.04816333,-2.43466078,,,
imu,355.981436,0.1507345056,-9.179851021600001,3.4734733096,1.73475059,1.94348659,-2.53186061,,,
imu,355.99053,0.1411640608,-9.1930103832,3.471678851200001,1.7422275,2.00330187,-2.59167589,,,
imu,355.999624,0.1381732968,-9.1930103832,3.4645010176,1.68988913,1.98087114,-2.45709151,,,
imu,356.008719,0.1268083936,-9.194206688800001,3.479454837600001,1.48053565,2.07059406,-2.41970696,,,
imu,356.017813,0.1292010048,-9.201982675200002,3.4710806984,1.50296638,2.13788625,-2.30755331,,,
imu,354.615392,,,,,,,-93.1653612,178.7927244,106.4406952
imu,354.717046,,,,,,,-92.76252360000001,178.5607876,103.864976
imu,354.818486,,,,,,,-92.8357668,178.6340308,106.184344
imu,354.920079,,,,,,,-92.8235596,178.6584452,106.672632
imu,355.021642,,,,,,,-92.50617240000001,178.7316884,107.710244
imu,355.123235,,,,,,,-92.3108572,178.5974092,107.1975416
imu,355.224767,,,,,,,-91.7249116,178.7438956,108.259568
imu,355.326329,,,,,,,-88.78297640000001,177.5353828,105.5861912
imu,355.427788,,,,,,,-91.2976596,179.256598,107.8445232
imu,355.52935,,,,,,,-88.69752600000001,177.6940764,105.7692992
imu,355.630913,,,,,,,-91.32207400000001,178.402094,108.2351536
imu,355.732475,,,,,,,-90.6628852,178.0724996,108.5281264
imu,355.834007,,,,,,,-91.3098668,178.5729948,108.9431712
imu,355.935722,,,,,,,-91.22441640000001,178.4509228,108.7722704
