Type,Timestamp,Data Accelerometer X,Data Accelerometer Y,Data Accelerometer Z,Data Gyroscope X,Data Gyroscope Y,Data Gyroscope Z,Data Magnetometer X,Data Magnetometer Y,Data Magnetometer Z
imu,90.31043,0.0023926112,-9.690075360000002,2.051664104,1.5926893,-1.69776858,-2.90570611,,,
imu,90.319221,-0.007177833600000002,-9.671532623200001,2.0504677984,1.35342818,-1.55570729,-2.87579847,,,
imu,90.328013,-0.0161501256,-9.699645804800001,2.0588419376,1.2936129,-1.6379533,-2.89075229,,,
imu,90.336805,-0.0101685976,-9.7474980288,2.0498696456,1.43567419,-1.61552257,-2.94309066,,,
imu,90.345597,-0.0155519728,-9.7283571392,2.042691812,1.2936129,-1.51084583,-2.8982292,,,
imu,90.354388,-0.0017944584,-9.683495679200002,2.0582437848,1.09921324,-1.47346128,-2.80102937,,,
imu,90.36318,0.0005981528000000001,-9.669140012000002,2.0480751872,1.00949032,-1.51084583,-2.65896808,,,
imu,90.371972,0.0011963056,-9.693066124000001,2.0391028952,1.21136689,-1.55570729,-2.53933752,,,
imu,90.380763,0.0011963056,-9.685290137600001,2.0408973536,1.24127453,-1.58561493,-2.39727623,,,
imu,90.389555,0.0017944584,-9.654784344800001,2.0408973536,1.18145925,-1.54823038,-2.40475314,,,
imu,90.398347,0.0107667504,-9.630858232800001,2.0265416864,1.55530475,-1.46598437,-2.27764567,,,
imu,90.407139,0.0131593616,-9.6218859408,2.013980477600001,1.65998149,-1.69029167,-2.54681443,,,
imu,90.41593,0.0023926112,-9.613511801600001,2.0211583112,1.69736604,-1.98189116,-2.77112173,,,
imu,90.424722,-0.002990764,-9.595567217600001,2.015774936,1.85438115,-2.06413717,-2.80850628,,,
imu,90.433514,0.0017944584,-9.590183842400002,2.0020174216,2.22822665,-2.11647554,-2.8234601,,,
imu,90.442306,0.0017944584,-9.581809703200001,1.9810820736,2.43758013,-1.98936807,-2.96552139,,,
imu,90.45078,0.004785222400000001,-9.579417092000002,1.9673245592,2.80394872,-2.06413717,-2.98795212,,,
imu,90.459255,0.011963056,-9.5800152448,1.9565578088,3.11797894,-2.10899863,-2.91318302,,,
imu,90.46773,0.004187069600000001,-9.609922884800001,1.9631374896,3.42453225,-2.11647554,-2.88327538,,,
imu,90.476205,0.0,-9.635643455200002,1.955959656,3.67874719,-2.11647554,-2.78607555,,,
imu,90.48468,-0.008374139200000002,-9.658971414400002,1.9457910584,3.85071612,-2.11647554,-2.62158353,,,
imu,90.493155,-0.0203371952,-9.655382497600002,1.9428002944,3.73856247,-2.13890627,-2.64401426,,,
imu,90.50163,-0.0215335008,-9.685888290400001,1.9386132248,3.81333157,-1.98936807,-2.62906044,,,
imu,90.510105,-0.0251224176,-9.727758986400001,1.9272483216,4.00773123,-2.04170644,-2.62158353,,,
imu,90.51858,-0.0323002512,-9.752283251200002,1.9308372384,3.7609932,-2.13890627,-2.86084465,,,
imu,90.527055,-0.0346928624,-9.76484446,1.9182760296,3.54416281,-2.04918335,-2.8982292,,,
imu,90.53553,-0.04605776560000001,-9.7845835024,1.9057148208,3.44696298,-1.97441425,-2.83093701,,,
imu,90.544005,-0.06101158560000001,-9.7953502528,1.8997332928,3.35724006,-1.78001459,-2.75616791,,,
imu,90.55248,-0.06101158560000001,-9.802528086400002,1.8967425288,3.12545585,-1.712722400000001,-2.65896808,,,
imu,90.560955,-0.05562821040000001,-9.800733628000001,1.8817887088,2.88619473,-1.42112291,-2.45709151,,,
imu,90.56943,-0.05383375200000001,-9.800733628000001,1.872218264,2.61702597,-1.16690797,-2.27016876,,,
imu,90.577905,-0.04486146000000001,-9.803724392000001,1.881190556,2.25813429,-1.00241595,-2.24773803,,,
imu,90.58638,-0.05981528000000001,-9.791761336000002,1.8889665424,2.01887317,-0.7407241,-2.06081528,,,
imu,90.594855,-0.05443190480000001,-9.746899876,1.91408896,1.55530475,-0.43417079,-1.87389253,,,
imu,90.60333,-0.05383375200000001,-9.751685098400001,1.8943499176,1.33847436,-0.31454023,-1.96361545,,,
imu,90.611805,-0.0634041968,-9.786976113600002,1.8859757784,1.04687487,-0.09770984000000027,-2.08324601,,,
imu,90.62028,-0.0430670016,-9.7492924872,1.9027240568,0.64312173,0.1265974599999997,-2.27016876,,,
imu,90.628755,-0.0406743904,-9.673925234400002,1.9105000432,0.20946095,0.19388965,-2.39727623,,,
imu,90.63723,-0.0592171272,-9.676317845600002,1.9134908072,0.26179932,0.47801223,-2.32250713,,,
imu,90.645705,-0.05861897440000001,-9.7151977776,1.9176778768,0.42629134,0.7770886299999997,-1.99352309,,,
imu,90.654173,-0.04845037680000001,-9.7086180968,1.9152852656,0.3739529699999999,1.13598031,-1.78416961,,,
imu,90.66264,-0.0215335008,-9.654784344800001,1.9254538632,0.34404533,1.43505671,-1.73930815,,,
imu,90.671107,-0.0005981528000000001,-9.6458120528,1.9344261552,0.51601426,1.61450255,-1.82903107,,,
imu,90.679575,-0.0065796808,-9.676915998400002,1.935024308,0.65807555,1.74161002,-2.12063056,,,
imu,90.688042,-0.0017944584,-9.690673512800002,1.9338280024,0.7253677399999999,1.92105586,-2.17296893,,,
imu,90.696509,0.0173464312,-9.672130776000001,1.9445947528,0.6132140899999999,1.95844041,-2.31503022,,,
imu,90.704977,0.0197390424,-9.6733270816,1.938015072,0.63564482,2.12293243,-2.50195297,,,
imu,90.713444,0.04366515440000001,-9.679308609600001,1.952968892,0.88985976,2.18274771,-2.65896808,,,
imu,90.721911,0.0592171272,-9.688879054400001,1.9511744336,0.9048135799999999,2.1752708,-2.70382954,,,
imu,90.730379,0.08314323920000001,-9.683495679200002,1.9481836696,0.77770611,2.15284007,-2.56924516,,,
imu,90.738846,0.1070693512,-9.678112304,1.9439966,0.65059864,2.01077878,-2.53186061,,,
imu,90.747313,0.110658268,-9.6733270816,1.9451929056,0.7552753799999999,1.97339423,-2.5991528,,,
imu,90.755781,0.1178361016,-9.685290137600001,1.9493799752,0.8823828499999999,1.88367131,-2.43466078,,,
imu,90.764248,0.1268083936,-9.672130776000001,1.9428002944,0.8449983,1.69674856,-2.32998404,,,
imu,90.772716,0.11963056,-9.680504915200002,1.9535670448,1.00201341,1.58459491,-2.23278421,,,
imu,90.781183,0.1238176296,-9.676317845600002,1.9398095304,1.07678251,1.46496435,-2.15801511,,,
imu,90.78965,0.1238176296,-9.672728928800002,1.9374169192,0.9197674,1.16588795,-2.24773803,,,
imu,90.798118,0.1280046992,-9.675719692800001,1.9362206136,1.03192105,1.06121121,-2.36736859,,,
imu,90.806585,0.1297991576,-9.6846919848,1.9392113776,0.94219813,0.9415806499999997,-2.56176825,,,
imu,90.815052,0.1190324072,-9.6817012208,1.9362206136,1.00201341,0.7322271699999998,-2.64401426,,,
imu,90.82352,0.101685976,-9.684093832000002,1.9266501688,1.2188438,0.58268897,-2.78607555,,,
imu,90.831987,0.09749890640000002,-9.6918698184,1.9272483216,1.12164397,0.5079198699999998,-2.92813684,,,
imu,90.840454,0.09211553120000002,-9.686486443200002,1.9206686408,1.24127453,0.5677351499999999,-3.13001341,,,
imu,90.848922,0.08194693360000001,-9.676317845600002,1.9194723352,1.2188438,0.5079198699999998,-3.21973633,,,
imu,90.857381,0.07297464160000001,-9.6817012208,1.9134908072,1.36090509,0.4555814999999996,-3.40665908,,,
imu,90.865841,0.06699311360000001,-9.678710456800001,1.9128926544,1.35342818,0.5303505999999998,-3.45899745,,,
imu,90.874301,0.062806044,-9.678112304,1.9039203624,1.25622835,0.56025824,-3.5711511,,,
imu,90.882761,0.05981528000000001,-9.690075360000002,1.8997332928,1.23379762,0.5303505999999998,-3.7954584,,,
imu,90.89122,0.06460050240000001,-9.688280901600002,1.8877702368,1.26370526,0.62007352,-3.84031986,,,
imu,90.89968,0.0663949608,-9.703832874400002,1.8817887088,1.37585891,0.64250425,-3.95247351,,,
imu,90.90814,0.06101158560000001,-9.7056273328,1.8859757784,1.53287402,0.66493498,-4.034719519999999,,,
imu,90.9166,0.0526374464,-9.709216249600003,1.88418132,1.35342818,0.5976427899999996,-4.21416536,,,
imu,90.925059,0.05802082160000001,-9.7163940832,1.8859757784,1.35342818,0.66493498,-4.124442439999999,,,
imu,90.933519,0.05203929360000001,-9.710412555200001,1.8698256528,1.26370526,0.7546578999999998,-4.0945348,,,
imu,90.941979,0.06220789120000001,-9.7086180968,1.8704238056,1.39081273,0.7696117199999999,-4.012288789999999,,,
imu,90.950438,0.05682451600000001,-9.7151977776,1.8853776256,1.4431511,0.7995193599999997,-3.75807385,,,
imu,90.958898,0.0562263632,-9.746301723200002,1.8949480704,1.11416706,0.9341037399999998,-3.58610492,,,
imu,90.967358,0.06220789120000001,-9.766638918400002,1.9212667936,1.09921324,0.9939190199999999,-3.30198234,,,
imu,90.975818,0.07596540560000001,-9.7606573904,1.9445947528,0.8375213899999999,1.0537343,-3.22721324,,,
imu,90.984277,0.09091922560000001,-9.743310959200002,1.9505762808,0.57582954,0.9939190199999999,-3.23469015,,,
imu,90.992737,0.08733030880000002,-9.744507264800001,1.9625393368,0.25432241,0.7920424499999998,-3.25712088,,,
imu,91.001197,0.08374139200000001,-9.743310959200002,1.9553615032,0.05992275,0.4854891399999999,-3.43656672,,,
imu,91.009657,0.08254508640000002,-9.700243957600001,1.9691190176,-0.20924601,0.3209971199999999,-3.60105874,,,
imu,91.018116,0.06699311360000001,-9.6296619272,1.9780913096,-0.31392275,0.1191205499999999,-3.60105874,,,
imu,91.026576,0.04486146000000001,-9.592576453600001,1.9906525184,-0.44103022,-0.1126636599999999,-3.6459202,,,
imu,91.035036,0.0502448352,-9.5907819952,1.9966340464,-0.17186146,-0.15004821,-3.55619728,,,
imu,91.043495,0.04007623760000001,-9.609922884800001,2.0014192688,-0.13447691,-0.2921095,-3.59358183,,,
imu,91.051955,0.0125612088,-9.627867468800002,2.000821116,0.04496892999999999,-0.4640784300000003,-3.67582784,,,
imu,91.060537,0.005981528000000001,-9.633250844,2.024747228,0.32909151,-0.5837089900000003,-3.66087402,,,
imu,91.069119,-0.008374139200000002,-9.638036066400002,2.0283361448,0.4861066199999999,-0.7033395499999999,-3.90761205,,,
imu,91.077701,-0.009570444800000001,-9.655980650400002,2.0199620056,0.64312173,-0.8154932000000001,-4.07210407,,,
imu,91.086282,-0.0442633072,-9.661962178400001,2.0265416864,0.81509066,-1.01736977,-4.18425772,,,
imu,91.094864,-0.06041343280000001,-9.644615747200001,2.0163730888,1.09921324,-1.04727741,-4.19173463,,,
imu,91.103446,-0.0723764888,-9.648204664000001,2.009793408,1.368382,-0.94260067,-4.11696553,,,
imu,91.112028,-0.07297464160000001,-9.631456385600002,1.9930451296,1.45062801,-0.9126930300000002,-3.96742733,,,
imu,91.12061,-0.0663949608,-9.602146898400001,1.979885768,1.71979677,-0.8528777500000002,-3.6459202,,,
imu,91.129191,-0.0562263632,-9.613511801600001,1.961941184,1.95158098,-0.7706317400000002,-3.38422835,,,
imu,91.137773,-0.05682451600000001,-9.639232372,1.95895042,2.0413039,-0.68090882,-3.2720747,,,
imu,91.146355,-0.0430670016,-9.666149248000002,1.9439966,2.16841137,-0.8454008399999999,-3.08515195,,,
imu,91.154937,-0.04605776560000001,-9.671532623200001,1.9356224608,2.44505704,-1.00241595,-2.9729983,,,
imu,91.163519,-0.04127254320000001,-9.675121540000001,1.92904278,2.5646876,-1.07718505,-2.81598319,,,
imu,91.1721,-0.05203929360000001,-9.680504915200002,1.917079724,2.51234923,-1.02484668,-2.56924516,,,
imu,91.180682,-0.068787572,-9.683495679200002,1.9069111264,2.75161035,-0.9500775800000003,-2.50195297,,,
imu,91.189264,-0.07895616960000001,-9.6745233872,1.89913514,2.83385636,-0.7930624700000002,-2.36736859,,,
imu,91.197846,-0.09630260080000001,-9.668541859200001,1.8853776256,2.90114855,-0.5313706200000001,-2.39727623,,,
imu,91.206428,-0.09570444800000001,-9.669140012000002,1.8668348888,2.84133327,-0.3220171400000003,-2.47204533,,,
imu,91.215009,-0.1052748928,-9.675719692800001,1.842310624,3.05068675,-0.1425713000000002,-2.33746095,,,
imu,91.223591,-0.1094619624,-9.6799067624,1.8112066784,3.29742478,0.1565051,-2.23278421,,,
imu,91.232173,-0.107667504,-9.647606511200001,1.8052251504,3.40210152,0.76213481,-2.03838455,,,
imu,91.240755,-0.1052748928,-9.626671163200001,1.800439928,3.33480933,1.16588795,-2.09072292,,,
imu,91.249336,-0.09091922560000001,-9.648802816800002,1.782495344,3.52920899,1.65936401,-2.18044584,,,
imu,91.257918,-0.07596540560000001,-9.6703363176,1.7681396768,3.70117792,2.0257326,-2.41970696,,,
imu,91.266616,-0.0813487808,-9.675719692800001,1.770532288,3.71613174,2.51920866,-2.54681443,,,
imu,91.275313,-0.0741709472,-9.7331423616,1.7812990384,3.69370101,3.0725,-2.68887572,,,
imu,91.284011,-0.068787572,-9.797742864000002,1.767541524,3.73856247,3.61083752,-2.66644499,,,
imu,91.292708,-0.04246884880000001,-9.803126239200001,1.7639526072,3.46939371,4.03702139,-2.84589083,,,
imu,91.301406,-0.023926112,-9.7845835024,1.7472043288,3.24508641,4.478159079999999,-2.8234601,,,
imu,91.310103,0.0101685976,-9.780396432800002,1.7244745224,3.2376095,4.90434295,-2.88327538,,,
imu,91.318801,0.0293094872,-9.7953502528,1.713707772,3.09554821,5.08378879,-2.81598319,,,
imu,91.327498,0.03887993200000001,-9.791761336000002,1.7053336328,2.87871782,5.4651112,-2.77859864,,,
imu,91.336196,0.07656355840000001,-9.7636481544,1.68978166,2.92357928,5.592218669999999,-2.61410662,,,
imu,91.344893,0.1070693512,-9.727758986400001,1.686790896,2.9385331,5.67446468,-2.75616791,,,
imu,91.353591,0.1471455888,-9.711010708000002,1.6826038264,2.80394872,5.67446468,-2.96552139,,,
imu,91.362288,0.1830347568,-9.7331423616,1.6921742712,2.75908726,5.43520356,-3.13749032,,,
imu,91.370986,0.2057645632,-9.770825988000002,1.7053336328,2.67684125,5.1660348,-3.2720747,,,
imu,91.379683,0.2039701048,-9.783985349600002,1.7089225496,2.4899185,4.97163514,-3.39170526,,,
imu,91.388381,0.2189239248,-9.800135475200001,1.7083243968,2.39271867,4.82957385,-3.41413599,,,
imu,91.396994,0.2440463424,-9.807313308800001,1.7161003832,1.95905789,4.4183438,-3.60853565,,,
imu,91.405692,0.251224176,-9.8234634344,1.713707772,1.60016621,4.00711375,-3.86275059,,,
imu,91.414389,0.2356722032,-9.803126239200001,1.6993521048,1.09173633,3.43886859,-4.034719519999999,,,
imu,91.423087,0.2165313136,-9.768433376800001,1.6975576464,0.70293701,2.68370068,-4.19173463,,,
imu,91.431784,0.1991848824,-9.756470320800002,1.68978166,0.66555246,2.13788625,-4.034719519999999,,,
imu,91.440482,0.158510492,-9.755274015200001,1.6879872016,0.6281679099999999,1.59954873,-4.0197657,,,
imu,91.449179,0.1172379488,-9.755872168000002,1.7059317856,0.63564482,1.24813396,-3.95995042,,,
imu,91.457877,0.09749890640000002,-9.756470320800002,1.7071280912,0.58330645,1.09859576,-3.84031986,,,
imu,91.466353,0.04785222400000001,-9.754675862400001,1.7208856056,0.6281679099999999,1.18831868,-3.71321239,,,
imu,91.47483,0.0245242648,-9.767835224,1.7280634392,0.73284465,1.32290306,-3.54124346,,,
imu,91.483306,0.004187069600000001,-9.779200127200001,1.7657470656,0.6132140899999999,1.56216418,-3.45152054,,,
imu,91.491782,0.0011963056,-9.802528086400002,1.7729248992,0.26927623,1.92105586,-3.50385891,,,
imu,91.500258,-0.004785222400000001,-9.8061170032,1.7938602472,0.03749201999999999,2.45191647,-3.42908981,,,
imu,91.508735,0.007177833600000002,-9.805518850400002,1.8100103728,-0.23915365,2.98277708,-3.46647436,,,
imu,91.517211,0.0275150288,-9.806715156000001,1.8225715816,-0.6279529699999999,3.37905331,-3.73564312,,,
imu,91.525687,0.04964668240000001,-9.801929933600002,1.8219734288,-0.9943215599999999,3.5211146,-4.034719519999999,,,
imu,91.534163,0.0592171272,-9.783387196800001,1.8399180128,-1.33078251,3.70803735,-4.28145755,,,
imu,91.54264,0.08733030880000002,-9.721179305600002,1.8698256528,-1.76444329,3.6706528,-4.58801086,,,
imu,91.551116,0.1058730456,-9.711010708000002,1.860255208,-1.89902767,3.61831443,-4.93942563,,,
imu,91.559592,0.0903210728,-9.7151977776,1.8566662912,-1.9962275,3.26689966,-5.16373293,,,
imu,91.568068,0.09390998960000001,-9.675121540000001,1.8626478192,-2.10090424,2.81080815,-5.283363489999999,,,
imu,91.576545,0.08254508640000002,-9.614708107200002,1.8764053336,-2.08595042,2.38462428,-5.38056332,,,
imu,91.585021,0.04246884880000001,-9.585398620000001,1.88418132,-1.82425857,1.85376367,-5.18616366,,,
imu,91.593497,0.0107667504,-9.612315496,1.8937517648,-1.36816706,1.55468727,-4.65530305,,,
imu,91.601973,-0.0017944584,-9.6458120528,1.8973406816,-0.7999219,1.46496435,-4.06462716,,,
imu,91.61045,-0.011963056,-9.627867468800002,1.8979388344,-0.62047606,1.33785688,-3.92256587,,,
imu,91.618926,-0.0251224176,-9.6117173432,1.8985369872,-0.32887657,1.12102649,-3.77302767,,,
imu,91.627402,-0.04486146000000001,-9.6159044128,1.9033222096,0.11973803,0.94905756,-3.90761205,,,
imu,91.635878,-0.068787572,-9.656578803200002,1.8937517648,0.41133752,0.8144731799999998,-4.124442439999999,,,
imu,91.644355,-0.09690075360000001,-9.673925234400002,1.890162848,0.50853735,0.7696117199999999,-4.42351884,,,
imu,91.652831,-0.1010878232,-9.658971414400002,1.8919573064,0.620691,0.92662683,-4.4683803,,,
imu,91.661307,-0.1112564208,-9.648204664000001,1.8770034864,0.78518302,1.17336486,-4.363703559999999,,,
imu,91.66978,-0.1040785872,-9.659569567200002,1.8746108752,0.9646288599999999,1.42010289,-4.169303899999999,,,
imu,91.678252,-0.08912476720000001,-9.672130776000001,1.8668348888,0.97210577,1.55468727,-4.0945348,,,
imu,91.686725,-0.07955432240000002,-9.680504915200002,1.857264444,1.06182869,1.77899457,-3.84031986,,,
imu,91.695197,-0.07058203040000001,-9.679308609600001,1.8620496664,1.21136689,1.8761944,-3.66087402,,,
imu,91.703669,-0.05861897440000001,-9.6918698184,1.860255208,1.22632071,1.89862513,-3.52628964,,,
imu,91.712142,-0.0550300576,-9.706225485600001,1.8566662912,1.39081273,2.04816333,-3.24216706,,,
imu,91.720614,-0.0514411408,-9.7151977776,1.8590589024,1.28613599,1.94348659,-3.14496723,,,
imu,91.729087,-0.04127254320000001,-9.715795930400002,1.8530773744,1.2188438,1.84628676,-2.98795212,,,
imu,91.737559,-0.03110394560000001,-9.7128051664,1.8500866104,1.03192105,1.83880985,-2.98047521,,,
imu,91.746032,-0.0466559184,-9.720581152800001,1.8560681384,0.9272443100000001,1.74908693,-2.90570611,,,
imu,91.754504,-0.0550300576,-9.7128051664,1.8608533608,0.94219813,1.81637912,-2.71130645,,,
imu,91.762976,-0.06579680800000001,-9.706225485600001,1.8530773744,0.94967504,1.99582496,-2.61410662,,,
imu,91.771449,-0.05443190480000001,-9.699645804800001,1.83931986,0.80013684,2.08554788,-2.62158353,,,
imu,91.779921,-0.05084298800000001,-9.689477207200001,1.8399180128,0.8823828499999999,2.26499372,-2.48699915,,,
imu,91.788394,-0.04187069600000001,-9.685888290400001,1.8327401792,0.94967504,2.46687029,-2.61410662,,,
imu,91.796866,-0.0370854736,-9.682299373600001,1.830347568,1.12164397,2.79585433,-2.58419898,,,
imu,90.332739,,,,,,,-132.338266,140.987026,133.0890128
imu,90.434271,,,,,,,-130.3118708,140.3522516,130.720816
imu,90.535834,,,,,,,-132.6312388,141.23117,133.7970304
imu,90.637396,,,,,,,-131.8255636,139.9372068,131.9171216
imu,90.738989,,,,,,,-132.0819148,140.7917108,134.1266248
imu,90.840583,,,,,,,-132.3504732,140.9504044,134.2853184
imu,90.942084,,,,,,,-131.7523204,140.7184676,133.6871656
imu,91.043646,,,,,,,-132.0575004,141.109098,133.650544
imu,91.805339,-0.0275150288,-9.693066124000001,1.8339364848,1.04687487,2.89305416,-2.65149117,,,
imu,91.813811,-0.011963056,-9.688280901600002,1.8267586512,1.23379762,3.21456129,-2.71878336,,,
imu,91.822284,-0.0005981528000000001,-9.690673512800002,1.8267586512,1.2936129,3.25942275,-2.81598319,,,
imu,91.830756,0.009570444800000001,-9.696056888000001,1.818384512,1.45810492,3.31923803,-2.92065993,,,
imu,91.839228,0.0185427368,-9.6918698184,1.8231697344,1.54035093,3.51363769,-2.80102937,,,
imu,91.847701,0.0275150288,-9.702636568800001,1.8177863592,1.54035093,3.38653022,-2.83093701,,,
imu,91.856173,0.0442633072,-9.706225485600001,1.8088140672,1.57773548,3.36409949,-2.92065993,,,
imu,91.864646,0.05742266880000001,-9.717590388800001,1.797449164,1.71231986,3.16222292,-2.92065993,,,
imu,91.873106,0.07596540560000001,-9.721179305600002,1.797449164,1.64502767,3.07997691,-2.86832156,,,
imu,91.881565,0.07716171120000001,-9.7122070136,1.791467636,1.56278166,2.89305416,-2.8234601,,,
imu,91.890025,0.0741709472,-9.713403319200001,1.803430692,1.64502767,2.8481927,-2.85336774,,,
imu,91.898485,0.0855358504,-9.731946056000002,1.8100103728,1.72727368,2.75099287,-2.83841392,,,
imu,91.906944,0.0783580168,-9.738525736800002,1.7920657888,1.57773548,2.61640849,-2.74121409,,,
imu,91.915404,0.07596540560000001,-9.736731278400002,1.7968510112,1.54782784,2.33976282,-2.77112173,,,
imu,91.923864,0.080750628,-9.745703570400002,1.7944584,1.2936129,2.31733209,-2.86084465,,,
imu,91.932324,0.0741709472,-9.734936820000001,1.7938602472,1.25622835,2.20517844,-2.71130645,,,
imu,91.940783,0.07177833600000001,-9.737329431200001,1.7980473168,1.07678251,2.18274771,-2.85336774,,,
imu,91.949243,0.0693857248,-9.728955292000002,1.7968510112,1.01696723,2.03320951,-2.86832156,,,
imu,91.957703,0.06400234960000001,-9.731946056000002,1.7920657888,0.9272443100000001,2.13040934,-2.85336774,,,
imu,91.966163,0.06101158560000001,-9.7265626808,1.7980473168,0.88985976,1.98087114,-2.98047521,,,
imu,91.974622,0.06220789120000001,-9.7151977776,1.7926639416,0.8973366700000001,2.13788625,-3.06272122,,,
imu,91.983082,0.0663949608,-9.720581152800001,1.788476872,0.79265993,2.19770153,-3.22721324,,,
imu,91.991542,0.05861897440000001,-9.7151977776,1.7962528584,0.66555246,2.18274771,-3.15244414,,,
imu,92.000001,0.06519865520000001,-9.724170069600001,1.8070196088,0.620691,2.12293243,-3.28702852,,,
imu,92.008461,0.06699311360000001,-9.711608860800002,1.7998417752,0.65059864,2.0257326,-3.39170526,,,
imu,92.016921,0.06460050240000001,-9.7122070136,1.8100103728,0.68798319,1.99582496,-3.31693616,,,
imu,92.025381,0.0693857248,-9.711010708000002,1.7932620944,0.7552753799999999,1.98087114,-3.39918217,,,
imu,92.03384,0.07118018320000001,-9.711010708000002,1.8058233032,0.70293701,2.04816333,-3.47395127,,,
imu,92.0423,0.0735727944,-9.706823638400001,1.8016362336,0.85995212,2.04816333,-3.51881273,,,
imu,92.05076,0.0813487808,-9.7151977776,1.818384512,1.00201341,2.14536316,-3.5711511,,,
imu,92.05922,0.07895616960000001,-9.7265626808,1.8016362336,1.09921324,2.01077878,-3.66835093,,,
imu,92.067679,0.07775986400000001,-9.7163940832,1.7968510112,0.94967504,1.78647148,-3.7954584,,,
imu,92.076199,0.06998387760000001,-9.708019944000002,1.8022343864,0.9571519499999999,1.67431783,-3.90761205,,,
imu,92.084718,0.0550300576,-9.7056273328,1.8016362336,1.00201341,1.64441019,-3.86275059,,,
imu,92.093238,0.0466559184,-9.709216249600003,1.800439928,1.00201341,1.55468727,-3.72816621,,,
imu,92.101757,0.04007623760000001,-9.709216249600003,1.7992436224,0.9347212199999999,1.53973345,-3.78798149,,,
imu,92.110277,0.0323002512,-9.692467971200001,1.7932620944,0.83004448,1.43505671,-3.84779677,,,
imu,92.118796,0.011963056,-9.685290137600001,1.7902713304,0.83004448,1.36776452,-3.80293531,,,
imu,92.127316,0.004785222400000001,-9.697851346400002,1.7950565528,0.7702292,1.42010289,-3.78798149,,,
imu,92.135835,0.004187069600000001,-9.704431027200002,1.7992436224,1.03939796,1.59207182,-3.7206893,,,
imu,92.144355,-0.0053833752,-9.70502918,1.7986454696,0.8674290299999999,1.56964109,-3.90013514,,,
imu,92.152874,-0.002990764,-9.709814402400001,1.8010380808,1.06182869,1.77899457,-3.75059694,,,
imu,92.161394,0.0011963056,-9.741516500800001,1.7980473168,1.10669015,1.80890221,-3.82536604,,,
imu,92.169913,-0.002990764,-9.730749750400001,1.788476872,1.18145925,1.99582496,-3.75807385,,,
imu,92.178433,-0.0017944584,-9.706823638400001,1.7998417752,1.18893616,2.13040934,-3.56367419,,,
imu,92.186952,0.0065796808,-9.7193848472,1.8082159144,1.25622835,2.27247063,-3.55619728,,,
imu,92.195472,0.0281131816,-9.754675862400001,1.7980473168,1.28613599,2.04068642,-3.76555076,,,
imu,92.203991,0.0203371952,-9.711010708000002,1.8010380808,1.15902852,1.9509635,-3.93751969,,,
imu,92.212511,0.0143556672,-9.669140012000002,1.7950565528,0.9347212199999999,1.8761944,-3.91508896,,,
imu,92.22103,0.009570444800000001,-9.724170069600001,1.800439928,1.0693056,1.83133294,-3.93004278,,,
imu,92.22955,0.0053833752,-9.801929933600002,1.8177863592,1.15155161,1.68927165,-3.9449966,,,
imu,92.238069,0.0005981528000000001,-9.8061170032,1.8297494152,0.8674290299999999,1.66684092,-3.85527368,,,
imu,92.246589,-0.004785222400000001,-9.740918348000001,1.8249641928,0.55339881,1.63693328,-3.75807385,,,
imu,92.255108,-0.0197390424,-9.6918698184,1.8195808176,0.3739529699999999,1.56216418,-3.56367419,,,
imu,92.263628,-0.0340947096,-9.7074217912,1.815393748,0.5459219,1.68179474,-3.24964397,,,
imu,92.272147,-0.0376836264,-9.731347903200001,1.8016362336,0.7552753799999999,1.82385603,-2.91318302,,,
imu,92.280902,-0.02990764000000001,-9.722375611200002,1.8112066784,0.68050628,1.92105586,-2.83093701,,,
imu,92.289656,-0.0161501256,-9.6817012208,1.797449164,0.64312173,1.99582496,-2.8982292,,,
imu,92.298411,-0.026916876,-9.669140012000002,1.8028325392,0.8375213899999999,2.03320951,-3.10758268,,,
imu,92.307165,-0.0281131816,-9.6709344704,1.8028325392,1.02444414,2.15284007,-3.33936689,,,
imu,92.31592,-0.0227298064,-9.667943706400001,1.7968510112,1.00949032,2.16779389,-3.65339711,,,
imu,92.324674,-0.0346928624,-9.646410205600002,1.7801027328,1.03939796,2.21265535,-3.77302767,,,
imu,92.333429,-0.0137575144,-9.640428677600001,1.776513816,1.33847436,2.52668557,-3.59358183,,,
imu,92.342184,-0.0011963056,-9.658971414400002,1.7741212048,1.55530475,2.64631613,-3.53376655,,,
imu,92.350938,0.005981528000000001,-9.686486443200002,1.7723267464,1.5179202,2.69117759,-3.52628964,,,
imu,92.359693,0.0227298064,-9.6912716656,1.7579710792,1.68988913,2.65379304,-3.42908981,,,
imu,92.368447,0.0215335008,-9.7074217912,1.7603636904,1.63007385,2.54163939,-3.28702852,,,
imu,92.377202,0.0257205704,-9.723571916800001,1.7591673848,1.83195042,2.45191647,-3.09262886,,,
imu,92.385956,0.01495382,-9.738525736800002,1.761559996,1.82447351,2.36967046,-2.92065993,,,
imu,92.394711,0.0221316536,-9.748694334400001,1.7639526072,1.74970441,2.30237827,-2.88327538,,,
imu,92.403465,0.0173464312,-9.76484446,1.7693359824,1.62259694,2.31733209,-2.90570611,,,
imu,92.41222,0.0221316536,-9.7809945856,1.7723267464,1.43567419,2.22013226,-2.91318302,,,
imu,92.420975,0.0143556672,-9.777405668800002,1.7741212048,1.31604363,2.21265535,-3.05524431,,,
imu,92.429729,0.0203371952,-9.767237071200002,1.7741212048,1.01696723,2.21265535,-3.16739796,,,
imu,92.438484,0.0215335008,-9.783387196800001,1.7723267464,0.74779847,2.30237827,-3.28702852,,,
imu,92.447238,0.026916876,-9.769629682400002,1.7830934968,0.68050628,2.37714737,-3.18982869,,,
imu,92.455993,0.0382817792,-9.7534795568,1.7741212048,0.6281679099999999,2.39210119,-3.33936689,,,
imu,92.464747,0.04246884880000001,-9.7361331256,1.7753175104,0.56835263,2.50425484,-3.39918217,,,
imu,92.473502,0.0526374464,-9.728955292000002,1.7663452184,0.50853735,2.37714737,-3.50385891,,,
imu,92.481976,0.05981528000000001,-9.7301515976,1.7591673848,0.76275229,2.29490136,-3.56367419,,,
imu,92.490376,0.05682451600000001,-9.692467971200001,1.803430692,0.7702292,2.30985518,-3.54872037,,,
imu,92.498849,0.0634041968,-9.700243957600001,1.7968510112,0.64312173,2.25751681,-3.72816621,,,
imu,92.507323,0.0693857248,-9.727160833600001,1.7842898024,0.8524752099999999,2.07059406,-3.83284295,,,
imu,92.515797,0.05981528000000001,-9.742114653600002,1.7944584,0.81509066,1.95844041,-3.90013514,,,
imu,92.52427,0.04845037680000001,-9.696655040800001,1.815393748,0.56835263,1.58459491,-4.02724261,,,
imu,92.532744,0.0233279592,-9.6846919848,1.803430692,0.49358353,1.38271834,-3.90013514,,,
imu,92.541218,0.0017944584,-9.715795930400002,1.8100103728,0.66555246,1.38271834,-3.43656672,,,
imu,92.549692,0.007775986400000001,-9.746301723200002,1.8147955952,0.66555246,1.59207182,-3.07767504,,,
imu,92.558165,0.0137575144,-9.711608860800002,1.8046269976,0.56835263,1.79394839,-2.92813684,,,
imu,92.566639,0.023926112,-9.687084596000002,1.7944584,0.53844499,1.82385603,-3.02533667,,,
imu,92.575113,0.0245242648,-9.689477207200001,1.7926639416,0.5010604399999999,1.73413311,-3.31693616,,,
imu,92.583586,0.020935348,-9.703832874400002,1.7944584,0.9048135799999999,1.80890221,-3.52628964,,,
imu,92.59206,0.0065796808,-9.6912716656,1.7878787192,0.97210577,1.94348659,-3.87770441,,,
imu,92.600534,0.008972292000000002,-9.672728928800002,1.7753175104,0.94219813,1.86871749,-4.21416536,,,
imu,92.609008,0.008972292000000002,-9.6703363176,1.7723267464,1.2188438,1.94348659,-4.408565019999999,,,
imu,92.617481,0.0143556672,-9.676317845600002,1.7651489128,1.39828964,2.09302479,-4.37118047,,,
imu,91.14514,,,,,,,-132.1795724,140.6574316,133.7359944
imu,91.246733,,,,,,,-129.286466,140.2912156,134.1022104
imu,91.348387,,,,,,,-131.5325908,141.1335124,133.9191024
imu,91.449827,,,,,,,-129.3108804,139.7418916,131.1114464
imu,91.551359,,,,,,,-131.9964644,140.4132876,133.4796432
imu,91.652983,,,,,,,-131.9232212,140.071486,130.781852
imu,91.754545,,,,,,,-131.849978,140.6940532,133.8458592
imu,91.856108,,,,,,,-131.9598428,140.7550892,133.6261296
imu,92.625955,0.0197390424,-9.685290137600001,1.7717285936,1.41324346,2.09302479,-4.22911918,,,
imu,92.634429,0.0215335008,-9.6876827488,1.7669433712,1.48801256,1.98087114,-4.124442439999999,,,
imu,92.642902,0.0233279592,-9.703832874400002,1.7597655376,1.53287402,1.96591732,-4.04967334,,,
imu,92.651376,0.0251224176,-9.7301515976,1.761559996,1.70484295,1.89862513,-3.83284295,,,
imu,92.65985,0.0340947096,-9.7492924872,1.7621581488,1.85438115,1.77151766,-3.61601256,,,
imu,92.668324,0.0203371952,-9.744507264800001,1.7561766208,1.55530475,1.58459491,-3.67582784,,,
imu,92.676797,0.0167482784,-9.734338667200001,1.743615412,1.57025857,1.53225654,-3.39170526,,,
imu,92.685284,0.0131593616,-9.745703570400002,1.7513913984,1.39828964,1.48739508,-3.17487487,,,
imu,92.69377,0.0155519728,-9.762451848800001,1.7657470656,1.28613599,1.56964109,-3.14496723,,,
imu,92.702257,0.0101685976,-9.761853696000001,1.7501950928,1.23379762,1.47991817,-3.15992105,,,
imu,92.710743,-0.0017944584,-9.7534795568,1.7579710792,1.12164397,1.46496435,-3.1225365,,,
imu,92.719229,-0.0143556672,-9.7540777096,1.7472043288,0.97958268,1.4275798,-3.24964397,,,
imu,92.727716,-0.0221316536,-9.746301723200002,1.7579710792,0.8524752099999999,1.47244126,-3.37675144,,,
imu,92.736202,-0.0245242648,-9.734338667200001,1.7543821624,0.7104139199999999,1.62197946,-3.496382,,,
imu,92.744689,-0.0305057928,-9.7283571392,1.7501950928,0.70293701,1.79394839,-3.61601256,,,
imu,92.753175,-0.0251224176,-9.720581152800001,1.7537840096,0.71789083,2.04068642,-3.81788913,,,
imu,92.761662,-0.0323002512,-9.713403319200001,1.7489987872,0.5982602699999999,2.12293243,-3.89265823,,,
imu,92.770148,-0.0370854736,-9.7086180968,1.7507932456,0.74779847,2.0257326,-3.97490424,,,
imu,92.778634,-0.0245242648,-9.711010708000002,1.755578468,0.8823828499999999,2.07059406,-3.9449966,,,
imu,92.787121,-0.03289840400000001,-9.727758986400001,1.7639526072,0.79265993,2.15284007,-4.06462716,,,
imu,92.795607,-0.0293094872,-9.727160833600001,1.7699341352,0.7702292,2.10797861,-3.96742733,,,
imu,92.804094,-0.0275150288,-9.722375611200002,1.7729248992,0.85995212,2.11545552,-3.81041222,,,
imu,92.81258,-0.0191408896,-9.709814402400001,1.7801027328,0.8823828499999999,2.06311715,-3.48142818,,,
imu,92.821067,-0.0251224176,-9.710412555200001,1.7801027328,0.6954601,1.97339423,-3.32441307,,,
imu,92.829553,-0.0293094872,-9.7151977776,1.7807008856,0.68050628,1.95844041,-3.30945925,,,
imu,92.838039,-0.0227298064,-9.706225485600001,1.7801027328,0.80761375,1.96591732,-3.11505959,,,
imu,92.846526,-0.0281131816,-9.708019944000002,1.7729248992,0.79265993,1.77899457,-3.15244414,,,
imu,92.855012,-0.0323002512,-9.714599624800002,1.7723267464,0.82256757,1.6518871,-3.08515195,,,
imu,92.863499,-0.03887993200000001,-9.724170069600001,1.7717285936,0.9197674,1.58459491,-3.06272122,,,
imu,92.871985,-0.04246884880000001,-9.722973764,1.7699341352,0.9870595899999999,1.59954873,-3.1225365,,,
imu,92.880472,-0.0526374464,-9.7217774584,1.7771119688,1.04687487,1.74908693,-3.01785976,,,
imu,92.888915,-0.04964668240000001,-9.724768222400002,1.7723267464,1.03192105,1.85376367,-3.06272122,,,
imu,92.897358,-0.0532355992,-9.7331423616,1.7573729264,0.9272443100000001,1.86871749,-3.01785976,,,
imu,92.905801,-0.05443190480000001,-9.743310959200002,1.7603636904,0.9347212199999999,2.10797861,-2.95804448,,,
imu,92.914244,-0.04366515440000001,-9.7283571392,1.7537840096,0.8749059399999999,2.16031698,-2.96552139,,,
imu,92.922688,-0.0502448352,-9.723571916800001,1.7609618432,0.8823828499999999,2.36219355,-2.95804448,,,
imu,92.931131,-0.0323002512,-9.713403319200001,1.767541524,0.80761375,2.55659321,-2.8982292,,,
imu,92.939574,-0.0155519728,-9.7122070136,1.7567747736,0.88985976,2.65379304,-2.86084465,,,
imu,92.948017,-0.004785222400000001,-9.711010708000002,1.7603636904,0.8823828499999999,2.66874686,-2.89075229,,,
imu,92.95646,0.0107667504,-9.710412555200001,1.7460080232,0.91229049,2.61640849,-2.8234601,,,
imu,92.964904,0.0191408896,-9.717590388800001,1.7484006344,0.97210577,2.72108523,-2.73373718,,,
imu,92.973347,0.026916876,-9.718786694400002,1.7561766208,0.77770611,2.75099287,-2.81598319,,,
imu,92.98179,0.04187069600000001,-9.724170069600001,1.7484006344,0.88985976,2.63136231,-2.748691,,,
imu,92.990233,0.05562821040000001,-9.7122070136,1.7549803152,0.97958268,2.66126995,-2.68887572,,,
imu,92.998676,0.04725407120000001,-9.706823638400001,1.7484006344,1.00949032,2.63136231,-2.73373718,,,
imu,93.00712,0.05443190480000001,-9.703832874400002,1.7418209536,1.00201341,2.56407012,-2.86832156,,,
imu,93.015563,0.06220789120000001,-9.727758986400001,1.7322505088,1.03939796,2.41453192,-2.93561375,,,
imu,93.024006,0.06101158560000001,-9.744507264800001,1.7274652864,1.04687487,2.35471664,-2.94309066,,,
imu,93.032449,0.0502448352,-9.743310959200002,1.7304560504,1.09173633,2.324809,-2.95056757,,,
imu,93.040892,0.05981528000000001,-9.730749750400001,1.722680064,1.09921324,2.31733209,-3.05524431,,,
imu,93.049336,0.04545961280000001,-9.735534972800002,1.7322505088,1.03939796,2.19770153,-3.22721324,,,
imu,93.057779,0.0442633072,-9.725366375200002,1.7208856056,0.9870595899999999,2.06311715,-3.21973633,,,
imu,93.066222,0.04246884880000001,-9.725964528,1.7250726752,1.07678251,2.26499372,-3.25712088,,,
imu,93.074665,0.0275150288,-9.7283571392,1.7292597448,1.11416706,2.31733209,-3.29450543,,,
imu,93.083108,0.0305057928,-9.740918348000001,1.716698536,0.9571519499999999,2.2500399,-3.36179762,,,
imu,93.09162,0.04127254320000001,-9.740918348000001,1.722680064,0.8375213899999999,2.16031698,-3.38422835,,,
imu,93.100132,0.0352910152,-9.741516500800001,1.737633884,0.67302937,2.15284007,-3.40665908,,,
imu,93.108644,0.03588916800000001,-9.743909112,1.7472043288,0.53844499,2.25751681,-3.45899745,,,
imu,93.117156,0.0340947096,-9.749890640000002,1.7507932456,0.620691,2.34723973,-3.52628964,,,
imu,93.125668,0.03289840400000001,-9.7492924872,1.7478024816,0.55339881,2.33976282,-3.60105874,,,
imu,93.13418,0.0323002512,-9.748096181600001,1.7472043288,0.5982602699999999,2.31733209,-3.48890509,,,
imu,93.142691,0.026916876,-9.745105417600001,1.7244745224,0.58330645,2.26499372,-3.39170526,,,
imu,93.151203,0.0233279592,-9.7122070136,1.7484006344,0.47862971,2.324809,-3.32441307,,,
imu,93.159715,0.0346928624,-9.701440263200002,1.7567747736,0.43376825,2.36219355,-3.24964397,,,
imu,93.168227,0.04127254320000001,-9.730749750400001,1.7651489128,0.44124516,2.27247063,-3.46647436,,,
imu,93.176739,0.0490485296,-9.7193848472,1.7579710792,0.41133752,2.21265535,-3.57862801,,,
imu,93.185251,0.02871133440000001,-9.708019944000002,1.7866824136,0.32909151,2.04068642,-3.78798149,,,
imu,93.193763,0.0143556672,-9.7403201952,1.7998417752,0.16459949,1.85376367,-3.75807385,,,
imu,93.202274,0.005981528000000001,-9.785779808000001,1.8040288448,0.03001510999999998,1.82385603,-3.81041222,,,
imu,93.210786,0.0011963056,-9.772620446400001,1.8076177616,-0.08961545,1.89114822,-3.70573548,,,
imu,93.219298,-0.004785222400000001,-9.714001472000001,1.7998417752,-0.28401511,1.77899457,-3.60853565,,,
imu,93.22781,-0.005981528000000001,-9.6817012208,1.788476872,-0.07466163,1.74908693,-3.41413599,,,
imu,93.236322,-0.0233279592,-9.696655040800001,1.788476872,0.08983038999999998,1.73413311,-3.23469015,,,
imu,93.244834,-0.026916876,-9.709216249600003,1.797449164,0.17955331,1.70422547,-3.09262886,,,
imu,93.253346,-0.03110394560000001,-9.683495679200002,1.7938602472,0.35899915,1.8014253,-3.07019813,,,
imu,93.261857,-0.0323002512,-9.665551095200001,1.7896731776,0.5010604399999999,1.83880985,-3.13001341,,,
imu,93.270369,-0.0293094872,-9.657176956,1.7860842608,0.67302937,1.80890221,-3.29450543,,,
imu,93.278881,-0.0430670016,-9.661962178400001,1.7711304408,0.9646288599999999,1.78647148,-3.32441307,,,
imu,93.287393,-0.0514411408,-9.66016772,1.7693359824,1.0693056,1.9509635,-3.31693616,,,
imu,93.296161,-0.05084298800000001,-9.6703363176,1.767541524,0.9571519499999999,2.22013226,-3.36927453,,,
imu,93.304929,-0.04785222400000001,-9.676317845600002,1.7711304408,1.12912088,2.35471664,-3.33188998,,,
imu,93.313697,-0.0305057928,-9.675121540000001,1.7609618432,1.20388998,2.46687029,-3.14496723,,,
imu,93.322464,-0.017944584,-9.685888290400001,1.7657470656,1.27118217,2.61640849,-2.96552139,,,
imu,93.331232,-0.017944584,-9.704431027200002,1.7609618432,1.31604363,2.66874686,-3.01038285,,,
imu,93.34,-0.0161501256,-9.700243957600001,1.7573729264,1.24127453,2.6986545,-3.04029049,,,
imu,93.348768,-0.0011963056,-9.711010708000002,1.76455076,1.33099745,2.72856214,-2.92813684,,,
imu,93.357536,-0.002990764,-9.725964528,1.7543821624,1.27118217,2.75846978,-2.95804448,,,
imu,93.366304,-0.008374139200000002,-9.751685098400001,1.7603636904,1.24875144,2.96782326,-2.95804448,,,
imu,93.375071,0.0023926112,-9.752881404000002,1.7681396768,1.24127453,2.96782326,-2.89075229,,,
imu,93.383839,0.008972292000000002,-9.761853696000001,1.7621581488,1.11416706,2.90800798,-2.95056757,,,
imu,93.392607,0.0137575144,-9.7540777096,1.7567747736,1.18145925,2.94539253,-2.95804448,,,
imu,93.401375,0.0197390424,-9.759461084800002,1.7603636904,1.0693056,2.87810034,-2.95056757,,,
imu,93.410143,0.0323002512,-9.765442612800001,1.7543821624,1.11416706,2.9229618,-2.94309066,,,
imu,93.418911,0.0293094872,-9.754675862400001,1.7591673848,0.94219813,2.83323888,-2.95804448,,,
imu,93.427678,0.03887993200000001,-9.746301723200002,1.7603636904,1.00201341,2.9229618,-2.77859864,,,
imu,93.436446,0.04725407120000001,-9.741516500800001,1.7513913984,0.78518302,2.81828506,-2.80102937,,,
imu,91.95764,,,,,,,-131.7767348,140.5719812,133.4918504
imu,92.059202,,,,,,,-131.5936268,140.803918,133.589508
imu,92.160765,,,,,,,-131.7767348,140.4254948,132.8448688
imu,92.262388,,,,,,,-131.6912844,140.8283324,134.0411744
imu,92.36389,,,,,,,-129.22543,140.1447292,133.4064
imu,92.465483,,,,,,,-131.7523204,141.1213052,134.1266248
imu,92.567229,,,,,,,-129.1766012,139.7785132,131.4288336
imu,92.668577,,,,,,,-131.5325908,140.4499092,134.0655888
imu,93.445214,0.04605776560000001,-9.728955292000002,1.74959694,0.77770611,2.63136231,-2.79355246,,,
imu,93.453982,0.04366515440000001,-9.693664276800002,1.7723267464,0.68798319,2.56407012,-2.70382954,,,
imu,93.46275,0.06041343280000001,-9.682897526400001,1.7717285936,0.6132140899999999,2.5491163,-2.77112173,,,
imu,93.471517,0.05203929360000001,-9.718188541600002,1.7489987872,0.65059864,2.45191647,-2.88327538,,,
imu,93.480285,0.04187069600000001,-9.731946056000002,1.7549803152,0.57582954,2.28742445,-3.09262886,,,
imu,93.489053,0.0634041968,-9.679308609600001,1.7531858568,0.65059864,2.36219355,-3.07767504,,,
imu,93.497574,0.04007623760000001,-9.6505972752,1.7609618432,0.66555246,2.18274771,-3.05524431,,,
imu,93.506095,0.0293094872,-9.697851346400002,1.7717285936,0.77770611,2.1752708,-2.77859864,,,
imu,93.514615,0.03110394560000001,-9.741516500800001,1.7747193576,0.7403215599999999,2.34723973,-2.54681443,,,
imu,93.523136,0.0340947096,-9.716992236000001,1.7657470656,0.80761375,2.4743472,-2.47952224,,,
imu,93.531657,0.05084298800000001,-9.685290137600001,1.767541524,0.80761375,2.49677793,-2.56176825,,,
imu,93.540178,0.0550300576,-9.688879054400001,1.7651489128,0.9347212199999999,2.4743472,-2.80850628,,,
imu,93.548699,0.04725407120000001,-9.709216249600003,1.7567747736,0.9945364999999999,2.39210119,-3.23469015,,,
imu,93.557219,0.04246884880000001,-9.703832874400002,1.7388301896,1.18893616,2.36219355,-3.54872037,,,
imu,93.56574,0.04246884880000001,-9.684093832000002,1.7460080232,1.13659779,2.40705501,-3.66835093,,,
imu,93.574261,0.04545961280000001,-9.678112304,1.7322505088,1.30108981,2.43696265,-3.70573548,,,
imu,93.582731,0.0502448352,-9.701440263200002,1.7334468144,1.4431511,2.51173175,-3.7206893,,,
imu,93.591252,0.06519865520000001,-9.7217774584,1.7268671336,1.65250458,2.41453192,-3.51881273,,,
imu,93.599773,0.0753672528,-9.727160833600001,1.7238763696,1.65250458,2.28742445,-3.39918217,,,
imu,93.608293,0.07177833600000001,-9.7331423616,1.7101188552,1.65250458,2.19770153,-3.24216706,,,
imu,93.616814,0.06041343280000001,-9.738525736800002,1.7388301896,1.67493531,2.00330187,-3.2720747,,,
imu,93.625335,0.06101158560000001,-9.740918348000001,1.7322505088,1.63007385,1.83880985,-3.23469015,,,
imu,93.633856,0.0502448352,-9.7361331256,1.7262689808,1.50296638,1.74161002,-3.10010577,,,
imu,93.642377,0.03349655680000001,-9.7325442088,1.7292597448,1.27118217,1.71170238,-3.05524431,,,
imu,93.650897,0.023926112,-9.730749750400001,1.722680064,1.24875144,1.66684092,-3.13001341,,,
imu,93.659418,0.0113649032,-9.748694334400001,1.725670828,1.1440747,1.73413311,-3.03281358,,,
imu,93.667939,0.005981528000000001,-9.752283251200002,1.7161003832,1.22632071,1.70422547,-3.13001341,,,
imu,93.67646,-0.003588916800000001,-9.746301723200002,1.7352412728,1.07678251,1.74161002,-3.25712088,,,
imu,93.68498,-0.0017944584,-9.741516500800001,1.7298578976,0.8749059399999999,1.8761944,-3.39918217,,,
imu,93.693501,-0.0011963056,-9.735534972800002,1.7310542032,0.9870595899999999,2.13040934,-3.31693616,,,
imu,93.701932,-0.0023926112,-9.737927584000001,1.7388301896,0.9945364999999999,2.46687029,-3.39170526,,,
imu,93.710362,0.0005981528000000001,-9.736731278400002,1.731652356,1.10669015,2.63883922,-3.43656672,,,
imu,93.718793,0.01495382,-9.736731278400002,1.7304560504,0.80013684,2.65379304,-3.5711511,,,
imu,93.727223,0.007775986400000001,-9.7403201952,1.7382320368,0.7702292,2.87062343,-3.60105874,,,
imu,93.735654,0.03110394560000001,-9.7403201952,1.7388301896,0.68798319,2.83323888,-3.69078166,,,
imu,93.744084,0.02990764000000001,-9.734936820000001,1.7412228008,0.73284465,2.79585433,-3.81041222,,,
imu,93.752514,0.0317020984,-9.738525736800002,1.743615412,0.6954601,2.69117759,-3.82536604,,,
imu,93.760945,0.0275150288,-9.731347903200001,1.7472043288,0.53096808,2.67622377,-3.71321239,,,
imu,93.769375,0.0382817792,-9.731946056000002,1.743615412,0.5982602699999999,2.56407012,-3.57862801,,,
imu,93.777806,0.0293094872,-9.719983000000001,1.737633884,0.64312173,2.48930102,-3.39170526,,,
imu,93.786236,0.0382817792,-9.710412555200001,1.7388301896,0.4861066199999999,2.33976282,-3.30945925,,,
imu,93.794667,0.020935348,-9.693664276800002,1.7430172592,0.53844499,2.16031698,-3.3468438,,,
imu,93.803097,0.0107667504,-9.690075360000002,1.73464312,0.5982602699999999,2.11545552,-3.28702852,,,
imu,93.811528,0.004187069600000001,-9.6918698184,1.7424191064,0.6132140899999999,2.04068642,-3.22721324,,,
imu,93.819958,-0.0011963056,-9.699645804800001,1.7418209536,0.65059864,2.04816333,-3.17487487,,,
imu,93.828389,-0.0113649032,-9.724768222400002,1.7412228008,0.9870595899999999,2.27994754,-3.11505959,,,
imu,93.836819,-0.011963056,-9.725366375200002,1.7573729264,0.94219813,2.37714737,-3.16739796,,,
imu,93.84525,-0.0065796808,-9.715795930400002,1.743615412,0.7403215599999999,2.48930102,-3.21973633,,,
imu,93.85368,-0.007177833600000002,-9.706823638400001,1.743615412,0.6954601,2.66874686,-3.26459779,,,
imu,93.862111,0.0017944584,-9.6912716656,1.743615412,0.64312173,2.87062343,-3.3468438,,,
imu,93.870541,0.0155519728,-9.704431027200002,1.737633884,0.65807555,3.19213056,-3.36927453,,,
imu,93.878972,0.04725407120000001,-9.702038416,1.7196893,0.68798319,3.41643786,-3.37675144,,,
imu,93.887402,0.0681894192,-9.706823638400001,1.7155022304,0.7702292,3.49120696,-3.54872037,,,
imu,93.895833,0.09869521200000002,-9.724170069600001,1.7178948416,0.94967504,3.45382241,-3.59358183,,,
imu,93.904286,0.1142471848,-9.734338667200001,1.7172966888,1.01696723,3.39400713,-3.70573548,,,
imu,93.912739,0.1280046992,-9.745105417600001,1.7238763696,1.08425942,3.34166876,-3.6459202,,,
imu,93.921193,0.1393696024,-9.7504887928,1.725670828,0.97958268,3.13979219,-3.78798149,,,
imu,93.929646,0.143556672,-9.7606573904,1.7334468144,0.80013684,2.73603905,-3.85527368,,,
imu,93.9381,0.140565908,-9.748694334400001,1.70473548,0.9197674,2.36967046,-3.91508896,,,
imu,93.946553,0.1280046992,-9.740918348000001,1.7196893,0.8524752099999999,2.01077878,-3.86275059,,,
imu,93.955006,0.1088638096,-9.731946056000002,1.7232782168,0.78518302,1.55468727,-3.84779677,,,
imu,93.96346,0.09869521200000002,-9.723571916800001,1.707726244,0.79265993,1.26308778,-3.69825857,,,
imu,93.971913,0.0592171272,-9.715795930400002,1.7119133136,0.82256757,1.01634975,-3.56367419,,,
imu,93.980366,0.04486146000000001,-9.7193848472,1.7119133136,0.9571519499999999,0.9565344699999998,-3.4216129,,,
imu,93.98882,0.0137575144,-9.718188541600002,1.722680064,0.82256757,0.9789651999999998,-3.30945925,,,
imu,93.997273,0.0005981528000000001,-9.720581152800001,1.713707772,0.8375213899999999,1.03130357,-3.1973056,,,
imu,94.005726,-0.002990764,-9.711608860800002,1.7083243968,1.02444414,1.13598031,-3.1225365,,,
imu,94.01418,-0.0131593616,-9.7122070136,1.713707772,1.00949032,1.36776452,-3.00290594,,,
imu,94.022633,-0.0173464312,-9.727160833600001,1.7113151608,0.8823828499999999,1.56964109,-3.1973056,,,
imu,94.031087,-0.0143556672,-9.719983000000001,1.7071280912,0.8524752099999999,1.66684092,-3.31693616,,,
imu,94.03954,-0.0107667504,-9.714001472000001,1.7059317856,0.82256757,1.82385603,-3.39170526,,,
imu,94.047993,0.0017944584,-9.724170069600001,1.7178948416,0.7253677399999999,2.03320951,-3.48890509,,,
imu,94.056447,0.0011963056,-9.724768222400002,1.7161003832,0.65059864,2.16031698,-3.56367419,,,
imu,94.0649,0.0011963056,-9.725964528,1.7202874528,0.77770611,2.36967046,-3.69825857,,,
imu,94.073353,0.0101685976,-9.7427128064,1.7196893,0.81509066,2.30985518,-3.72816621,,,
imu,94.081807,0.0221316536,-9.755274015200001,1.7149040776,0.79265993,2.27994754,-3.78798149,,,
imu,94.09026,0.0125612088,-9.741516500800001,1.7113151608,0.80761375,2.25751681,-3.68330475,,,
imu,94.098714,0.01495382,-9.70502918,1.7304560504,0.85995212,2.27247063,-3.40665908,,,
imu,94.107175,0.0346928624,-9.7295534448,1.7250726752,0.9272443100000001,2.19770153,-3.38422835,,,
imu,94.115636,0.03947808480000001,-9.745703570400002,1.722680064,1.10669015,2.0257326,-3.51881273,,,
imu,94.124097,0.03648732080000001,-9.7283571392,1.73464312,0.9197674,1.81637912,-3.6459202,,,
imu,94.132558,0.02871133440000001,-9.709216249600003,1.7501950928,0.60573718,1.63693328,-3.67582784,,,
imu,94.141019,0.003588916800000001,-9.7612555432,1.758569232,0.60573718,1.5023489,-3.76555076,,,
imu,94.14948,-0.002990764,-9.8198745176,1.7759156632,0.5459219,1.37524143,-3.69078166,,,
imu,94.157941,-0.003588916800000001,-9.801929933600002,1.773523052,0.29170696,1.32290306,-3.75059694,,,
imu,94.166402,-0.0131593616,-9.742114653600002,1.755578468,0.02253820000000001,1.42010289,-3.69825857,,,
imu,94.174863,-0.0215335008,-9.708019944000002,1.7549803152,-0.05970781,1.53973345,-3.46647436,,,
imu,94.183324,-0.020935348,-9.716992236000001,1.7597655376,0.01506129,1.70422547,-3.18235178,,,
imu,94.191785,-0.0275150288,-9.714599624800002,1.7531858568,0.16459949,1.83133294,-3.01038285,,,
imu,94.200246,-0.020935348,-9.684093832000002,1.7603636904,0.18703022,1.85376367,-3.10010577,,,
imu,94.208706,-0.01495382,-9.6637566368,1.755578468,0.38142988,2.15284007,-3.05524431,,,
imu,94.217167,-0.01495382,-9.652989886400002,1.7513913984,0.4711528,2.2500399,-3.1973056,,,
imu,94.225628,-0.0161501256,-9.655980650400002,1.7472043288,0.73284465,2.16031698,-3.37675144,,,
imu,94.234089,-0.0191408896,-9.654186192000001,1.7418209536,0.83004448,2.33228591,-3.55619728,,,
imu,94.24255,-0.0203371952,-9.663158484000002,1.7430172592,1.09921324,2.61640849,-3.55619728,,,
imu,94.251011,-0.0011963056,-9.655980650400002,1.7268671336,1.2188438,2.78090051,-3.54872037,,,
imu,92.770094,,,,,,,-131.4471404,139.9860356,131.3555904
imu,92.871687,,,,,,,-131.7156988,140.3278372,133.5406792
imu,92.97325,,,,,,,-131.727906,140.1813508,133.5162648
imu,93.074782,,,,,,,-132.2039868,140.6086028,133.2477064
imu,93.176375,,,,,,,-131.6546628,140.4010804,133.3819856
imu,93.278975,,,,,,,-131.36169,140.6940532,133.1134272
imu,93.379469,,,,,,,-131.8743924,140.3644588,133.5406792
imu,93.481032,,,,,,,-128.7737636,139.6076124,132.2345088
imu,94.259472,0.011963056,-9.667345553600002,1.731652356,1.33099745,3.01268472,-3.51881273,,,
imu,94.267933,0.0221316536,-9.6799067624,1.7119133136,1.42819728,3.02763854,-3.47395127,,,
imu,94.276394,0.0406743904,-9.696056888000001,1.7196893,1.56278166,3.08745382,-3.45899745,,,
imu,94.284855,0.0526374464,-9.7056273328,1.7202874528,1.40576655,3.03511545,-3.51881273,,,
imu,94.293316,0.05742266880000001,-9.711608860800002,1.7155022304,1.42819728,2.81080815,-3.56367419,,,
imu,94.301777,0.06699311360000001,-9.7295534448,1.7143059248,1.47305874,2.8481927,-3.40665908,,,
imu,94.310616,0.07895616960000001,-9.739722042400002,1.7190911472,1.45062801,2.72856214,-3.24964397,,,
imu,94.319454,0.08254508640000002,-9.7576666264,1.713707772,1.49548947,2.6238854,-3.1973056,,,
imu,94.328292,0.080750628,-9.748694334400001,1.7041373272,1.31604363,2.45191647,-3.28702852,,,
imu,94.33713,0.0783580168,-9.756470320800002,1.710717008,1.51044329,2.44443956,-3.22721324,,,
imu,94.345968,0.080750628,-9.7612555432,1.7041373272,1.31604363,2.1752708,-3.45899745,,,
imu,94.354806,0.06699311360000001,-9.764246307200002,1.7065299384,1.31604363,2.06311715,-3.45152054,,,
imu,94.363645,0.0675912664,-9.7570684736,1.7053336328,1.25622835,1.95844041,-3.40665908,,,
imu,94.372483,0.06160973840000001,-9.767237071200002,1.6939687296,1.2188438,1.89862513,-3.43656672,,,
imu,94.381321,0.05562821040000001,-9.764246307200002,1.6963613408,1.15155161,1.76404075,-3.37675144,,,
imu,94.390159,0.04366515440000001,-9.764246307200002,1.6945668824,1.06182869,1.63693328,-3.37675144,,,
imu,94.398997,0.03349655680000001,-9.754675862400001,1.7161003832,1.00949032,1.6518871,-3.35432071,,,
imu,94.407835,0.03887993200000001,-9.738525736800002,1.7292597448,0.8375213899999999,1.61450255,-3.40665908,,,
imu,94.416674,0.0352910152,-9.740918348000001,1.7161003832,0.8823828499999999,1.56216418,-3.52628964,,,
imu,94.425512,0.0203371952,-9.759461084800002,1.7125114664,0.7552753799999999,1.46496435,-3.76555076,,,
imu,94.43435,0.0107667504,-9.740918348000001,1.7149040776,0.620691,1.44253362,-3.84031986,,,
imu,94.443188,0.008374139200000002,-9.694860582400002,1.7071280912,0.3963837,1.32290306,-3.8702275,,,
imu,94.452026,-0.0251224176,-9.6775141512,1.722680064,0.4861066199999999,1.4275798,-3.60105874,,,
imu,94.460864,-0.03349655680000001,-9.709216249600003,1.7095207024,0.56835263,1.53973345,-3.30198234,,,
imu,94.469702,-0.0155519728,-9.731946056000002,1.7274652864,0.70293701,1.82385603,-3.00290594,,,
imu,94.478541,-0.0065796808,-9.711608860800002,1.7268671336,0.68798319,1.96591732,-2.91318302,,,
imu,94.487379,0.0,-9.6918698184,1.7400264952,0.68050628,2.0257326,-3.2720747,,,
imu,94.496217,-0.0023926112,-9.6984494992,1.731652356,0.67302937,1.89114822,-3.61601256,,,
imu,94.505055,-0.008972292000000002,-9.697253193600002,1.7172966888,0.8973366700000001,1.97339423,-3.77302767,,,
imu,94.513512,-0.0185427368,-9.678112304,1.7190911472,0.8749059399999999,2.07807097,-3.98238115,,,
imu,94.521969,-0.0185427368,-9.672728928800002,1.7244745224,1.25622835,2.10797861,-4.124442439999999,,,
imu,94.530427,-0.017944584,-9.6775141512,1.725670828,1.32352054,2.28742445,-4.057150249999999,,,
imu,94.538884,-0.0017944584,-9.688280901600002,1.7113151608,1.28613599,2.23508608,-4.0197657,,,
imu,94.547341,0.0011963056,-9.7056273328,1.7071280912,1.4431511,2.27994754,-3.84779677,,,
imu,94.555798,0.003588916800000001,-9.7217774584,1.7023428688,1.5926893,2.31733209,-3.66087402,,,
imu,94.564255,0.007177833600000002,-9.7403201952,1.7023428688,1.58521239,2.21265535,-3.5711511,,,
imu,94.572713,0.007177833600000002,-9.743310959200002,1.7041373272,1.61512003,2.21265535,-3.39918217,,,
imu,94.58117,0.002990764,-9.748694334400001,1.7083243968,1.50296638,2.08554788,-3.28702852,,,
imu,94.589627,-0.007177833600000002,-9.756470320800002,1.7161003832,1.4431511,1.96591732,-3.14496723,,,
imu,94.598084,-0.0065796808,-9.748694334400001,1.7095207024,1.28613599,1.93600968,-3.1225365,,,
imu,94.606541,-0.003588916800000001,-9.7474980288,1.698753952,1.2188438,2.01077878,-3.04029049,,,
imu,94.614998,-0.008374139200000002,-9.731946056000002,1.6975576464,1.26370526,2.07059406,-2.98795212,,,
imu,94.623456,-0.008972292000000002,-9.7325442088,1.6993521048,1.13659779,2.11545552,-2.94309066,,,
imu,94.631913,-0.0023926112,-9.735534972800002,1.7011465632,1.02444414,2.1752708,-3.01038285,,,
imu,94.64037,-0.0053833752,-9.7403201952,1.6993521048,1.1440747,2.3995781,-3.03281358,,,
imu,94.648827,-0.003588916800000001,-9.739123889600002,1.6975576464,1.09173633,2.56407012,-3.11505959,,,
imu,94.657284,0.007177833600000002,-9.723571916800001,1.695763188,1.15902852,2.67622377,-3.21225942,,,
imu,94.665742,0.0143556672,-9.731946056000002,1.6921742712,1.04687487,2.83323888,-3.2720747,,,
imu,94.67412,0.0281131816,-9.731347903200001,1.6933705768,1.00201341,2.9229618,-3.36179762,,,
imu,94.682577,0.0382817792,-9.745105417600001,1.6993521048,0.82256757,2.71360832,-3.60853565,,,
imu,94.691034,0.0352910152,-9.7283571392,1.695763188,0.7403215599999999,2.6238854,-3.6459202,,,
imu,94.699492,0.04725407120000001,-9.7301515976,1.68978166,0.83004448,2.61640849,-3.61601256,,,
imu,94.707949,0.0532355992,-9.7122070136,1.6861927432,0.7104139199999999,2.4743472,-3.57862801,,,
imu,94.716416,0.05383375200000001,-9.7295534448,1.6843982848,0.7253677399999999,2.48930102,-3.51881273,,,
imu,94.724884,0.0663949608,-9.7265626808,1.6796130624,0.8449983,2.30985518,-3.4216129,,,
imu,94.733351,0.0675912664,-9.7151977776,1.6724352288,0.9646288599999999,2.19022462,-3.33936689,,,
imu,94.741818,0.0592171272,-9.7193848472,1.6784167568,0.8524752099999999,1.98834805,-3.31693616,,,
imu,94.750286,0.0592171272,-9.727758986400001,1.6754259928,0.9870595899999999,1.76404075,-3.24216706,,,
imu,94.758753,0.04486146000000001,-9.7492924872,1.6574814088,1.13659779,1.53973345,-3.1973056,,,
imu,94.76722,0.0340947096,-9.7636481544,1.6682481592,1.13659779,1.46496435,-3.29450543,,,
imu,94.775688,0.020935348,-9.748694334400001,1.6790149096,1.12912088,1.36028761,-3.33936689,,,
imu,94.784155,0.0161501256,-9.7331423616,1.6640610896,1.09173633,1.37524143,-3.3468438,,,
imu,94.792622,-0.0053833752,-9.7325442088,1.6670518536,0.8749059399999999,1.31542615,-3.496382,,,
imu,94.80109,-0.0011963056,-9.739123889600002,1.665855548,0.74779847,1.37524143,-3.52628964,,,
imu,94.809557,-0.008374139200000002,-9.748096181600001,1.6760241456,0.77770611,1.6518871,-3.53376655,,,
imu,94.818024,-0.0065796808,-9.740918348000001,1.6820056736,0.76275229,1.74161002,-3.44404363,,,
imu,94.826492,-0.007775986400000001,-9.7325442088,1.671837076,0.83004448,1.86871749,-3.40665908,,,
imu,94.834959,-0.007775986400000001,-9.737927584000001,1.67482784,0.76275229,1.83133294,-3.39170526,,,
imu,94.843427,-0.0017944584,-9.7492924872,1.6796130624,0.6132140899999999,1.89862513,-3.37675144,,,
imu,94.851894,-0.0017944584,-9.752283251200002,1.6772204512,0.68798319,2.0257326,-3.45899745,,,
imu,94.860361,0.0011963056,-9.7492924872,1.686790896,0.6132140899999999,2.20517844,-3.40665908,,,
imu,94.868829,0.011963056,-9.746301723200002,1.6891835072,0.50853735,2.24256299,-3.44404363,,,
imu,94.877296,0.003588916800000001,-9.749890640000002,1.692772424,0.47862971,2.28742445,-3.45899745,,,
imu,94.885763,0.003588916800000001,-9.7474980288,1.6855945904,0.43376825,2.1752708,-3.44404363,,,
imu,94.894231,0.0107667504,-9.741516500800001,1.7035391744,0.3963837,2.21265535,-3.40665908,,,
imu,94.902698,0.007775986400000001,-9.730749750400001,1.6951650352,0.36647606,2.35471664,-3.27955161,,,
imu,94.911165,0.0125612088,-9.727160833600001,1.695763188,0.3216146,2.27994754,-3.32441307,,,
imu,94.919629,0.017944584,-9.719983000000001,1.7035391744,0.28423005,2.23508608,-3.33188998,,,
imu,94.928092,0.0155519728,-9.717590388800001,1.7011465632,0.30666078,2.11545552,-3.21973633,,,
imu,94.936556,0.0323002512,-9.719983000000001,1.7023428688,0.35899915,1.93600968,-3.21973633,,,
imu,94.94502,0.0293094872,-9.7193848472,1.6975576464,0.35899915,1.89114822,-3.18235178,,,
imu,94.953483,0.02871133440000001,-9.7128051664,1.7053336328,0.46367589,1.86124058,-3.08515195,,,
imu,94.961947,0.0323002512,-9.719983000000001,1.7029410216,0.43376825,1.75656384,-3.15244414,,,
imu,94.97041,0.0376836264,-9.725366375200002,1.7059317856,0.5010604399999999,1.70422547,-3.1225365,,,
imu,94.978874,0.0245242648,-9.7295534448,1.6981557992,0.64312173,1.68927165,-3.06272122,,,
imu,94.987337,0.0323002512,-9.7283571392,1.6981557992,0.56087572,1.48739508,-3.10758268,,,
imu,94.995801,0.023926112,-9.715795930400002,1.7083243968,0.60573718,1.42010289,-3.01785976,,,
imu,95.004264,0.0233279592,-9.709814402400001,1.698753952,0.42629134,1.4275798,-3.04029049,,,
imu,95.012728,0.0143556672,-9.709216249600003,1.68978166,0.6132140899999999,1.36776452,-3.04029049,,,
imu,95.021191,0.0233279592,-9.692467971200001,1.6885853544,0.64312173,1.50982581,-2.95056757,,,
imu,95.029655,0.0143556672,-9.678710456800001,1.692772424,0.73284465,1.43505671,-2.91318302,,,
imu,95.038119,0.0107667504,-9.668541859200001,1.6766222984,0.8823828499999999,1.48739508,-2.95804448,,,
imu,95.046582,0.0131593616,-9.678710456800001,1.6832019792,1.04687487,1.44253362,-3.03281358,,,
imu,95.055046,0.0137575144,-9.703234721600001,1.6849964376,1.18893616,1.53973345,-3.02533667,,,
imu,95.063509,0.0125612088,-9.730749750400001,1.6939687296,1.35342818,1.69674856,-3.04029049,,,
imu,95.071973,0.0245242648,-9.755872168000002,1.692772424,1.37585891,1.6518871,-3.02533667,,,
imu,93.582594,,,,,,,-131.8621852,140.6452244,133.3819856
imu,93.684187,,,,,,,-128.8347996,139.522162,131.0137888
imu,93.785719,,,,,,,-131.8133564,140.4743236,133.0645984
imu,93.887526,,,,,,,-131.8377708,140.3522516,130.7330232
imu,93.988814,,,,,,,-131.8865996,140.3400444,133.0890128
imu,94.090498,,,,,,,-131.9354284,140.4499092,132.9669408
imu,94.192,,,,,,,-131.9598428,140.5475668,133.1866704
imu,94.293562,,,,,,,-131.8865996,140.7184676,132.9425264
imu,95.080436,0.0233279592,-9.7750130576,1.677818604,1.23379762,1.62945637,-3.20478251,,,
imu,95.0889,0.0101685976,-9.748694334400001,1.6796130624,1.1440747,1.76404075,-3.1225365,,,
imu,95.097363,0.003588916800000001,-9.749890640000002,1.68978166,1.09173633,1.76404075,-3.08515195,,,
imu,95.105827,0.0430670016,-9.7815927384,1.6772204512,1.10669015,1.84628676,-3.21973633,,,
imu,95.11429,0.0275150288,-9.7570684736,1.6891835072,0.9870595899999999,1.70422547,-3.42908981,,,
imu,95.122759,0.01495382,-9.7122070136,1.6981557992,0.8375213899999999,1.74908693,-3.6459202,,,
imu,95.131228,0.0065796808,-9.725964528,1.7005484104,0.77770611,1.77899457,-3.6459202,,,
imu,95.139696,0.0011963056,-9.797742864000002,1.7161003832,0.56087572,1.79394839,-3.68330475,,,
imu,95.148165,0.0011963056,-9.824659740000001,1.7238763696,0.53096808,1.97339423,-3.74312003,,,
imu,95.156634,0.009570444800000001,-9.789368724800001,1.7280634392,0.23189168,1.89862513,-3.76555076,,,
imu,95.165102,0.0,-9.7056273328,1.7268671336,0.02253820000000001,1.88367131,-3.54872037,,,
imu,95.173571,-0.0125612088,-9.7128051664,1.7250726752,0.02253820000000001,2.04068642,-3.28702852,,,
imu,95.182039,-0.007775986400000001,-9.749890640000002,1.7244745224,0.08235347999999998,2.13788625,-3.10758268,,,
imu,95.190508,0.0053833752,-9.7337405144,1.7304560504,0.03749201999999999,2.36219355,-3.07767504,,,
imu,95.198977,0.0107667504,-9.675719692800001,1.7202874528,0.12721494,2.27994754,-3.11505959,,,
imu,95.207445,0.0125612088,-9.636839760800001,1.7101188552,0.2468455,2.16031698,-3.26459779,,,
imu,95.215914,0.003588916800000001,-9.640428677600001,1.7089225496,0.56087572,2.00330187,-3.51881273,,,
imu,95.224383,-0.007775986400000001,-9.6523917336,1.7089225496,0.76275229,1.91357895,-3.66835093,,,
imu,95.232851,-0.004187069600000001,-9.644615747200001,1.6945668824,0.91229049,1.95844041,-3.72816621,,,
imu,95.24132,0.0005981528000000001,-9.630260080000001,1.6826038264,1.2936129,2.14536316,-3.68330475,,,
imu,95.249788,0.0005981528000000001,-9.636241608,1.6802112152,1.57773548,2.19770153,-3.63844329,,,
imu,95.258257,0.0167482784,-9.667943706400001,1.6706407704,1.80951969,2.16031698,-3.47395127,,,
imu,95.266726,0.0167482784,-9.6942624296,1.6730333816,1.88428879,2.18274771,-3.36179762,,,
imu,95.275194,0.0107667504,-9.724768222400002,1.680809368,2.04878081,2.21265535,-3.27955161,,,
imu,95.283663,0.0155519728,-9.745703570400002,1.6790149096,1.9665348,2.1752708,-3.24964397,,,
imu,95.292132,0.0161501256,-9.764246307200002,1.6820056736,1.92167334,2.1752708,-3.13749032,,,
imu,95.3006,0.0173464312,-9.783985349600002,1.671837076,1.75718132,2.1752708,-3.06272122,,,
imu,94.395759,,,,,,,-131.4715548,140.4621164,133.040184
imu,94.497322,,,,,,,-129.5061956,139.8151348,132.5152744
imu,94.598884,,,,,,,-132.3626804,140.6452244,133.162256
imu,94.700477,,,,,,,-129.4939884,139.766306,130.4034288
imu,94.802009,,,,,,,-131.3372756,140.803918,132.5885176
imu,94.903602,,,,,,,-131.4105188,140.2790084,130.9771672
imu,95.005104,,,,,,,-131.727906,140.4865308,133.6383368
imu,95.106849,,,,,,,-131.8377708,140.6696388,133.1866704
imu,95.20829,,,,,,,-131.1907892,140.498738,133.894688
