Type,Timestamp,Data Accelerometer X,Data Accelerometer Y,Data Accelerometer Z,Data Gyroscope X,Data Gyroscope Y,Data Gyroscope Z,Data Magnetometer X,Data Magnetometer Y,Data Magnetometer Z
imu,274.986656,0.2308869808,-9.786377960800001,1.5384490016,2.31794957,4.53797436,-3.01785976,,,
imu,274.995175,0.2494297176,-9.815687448000002,1.5366545432,2.01139626,4.17908268,-2.6739219,,,
imu,275.003695,0.251224176,-9.805518850400002,1.5234951816,1.78708896,3.81271409,-2.6739219,,,
imu,275.012214,0.2344758976,-9.803126239200001,1.5169155008,1.71979677,3.32671494,-2.83841392,,,
imu,275.020734,0.2296906752000001,-9.824061587200001,1.5151210424,1.75718132,2.82576197,-3.04029049,,,
imu,275.029253,0.2231109944,-9.8234634344,1.51033582,1.68988913,2.27994754,-3.35432071,,,
imu,275.037773,0.2195220776,-9.8264541984,1.5127284312,1.72727368,1.84628676,-3.72816621,,,
imu,275.046292,0.200381188,-9.805518850400002,1.4899986248,1.83195042,1.29299542,-4.079580979999999,,,
imu,275.054812,0.1776513816,-9.802528086400002,1.4977746112,1.86185806,0.7397040799999997,-4.5431494,,,
imu,275.063331,0.1561178808,-9.803126239200001,1.5091395144,1.86185806,0.3135202100000001,-4.6179185,,,
imu,275.071851,0.1190324072,-9.8294449624,1.5181118064,1.84690424,-0.03041764999999996,-4.84970271,,,
imu,275.08037,0.101685976,-9.861147060800002,1.5211025704,1.87681188,-0.31454023,-4.89456417,,,
imu,275.08889,0.05383375200000001,-9.859950755200002,1.5139247368,1.73475059,-0.5089398900000002,-4.86465653,,,
imu,275.097409,0.0352910152,-9.83961356,1.4846152496,1.53287402,-0.4939860700000001,-4.74502597,,,
imu,275.105928,0.02871133440000001,-9.812098531200002,1.4888023192,1.34595127,-0.2397711300000003,-4.52819558,,,
imu,275.114448,0.0023926112,-9.7995373224,1.498372764,1.01696723,-0.01546383000000029,-4.4683803,,,
imu,275.122967,-0.0011963056,-9.802528086400002,1.5246914872,0.66555246,0.04435144999999974,-4.52071867,,,
imu,275.131487,-0.0113649032,-9.801929933600002,1.5151210424,0.19450713,0.1041667299999998,-4.70016451,,,
imu,275.140006,-0.0251224176,-9.762451848800001,1.519308112,-0.007369440000000005,0.2611818399999999,-4.79736434,,,
imu,275.148526,-0.0281131816,-9.727160833600001,1.5228970288,-0.11952309,0.5527813299999997,-4.70016451,,,
imu,275.157045,-0.0221316536,-9.711608860800002,1.5211025704,-0.02232326000000001,1.11354958,-4.35622665,,,
imu,275.165565,-0.0382817792,-9.716992236000001,1.5031579864,0.07487657,1.49487199,-3.98238115,,,
imu,275.174084,-0.04366515440000001,-9.693664276800002,1.5127284312,0.29918387,1.89862513,-3.75807385,,,
imu,275.182505,-0.0346928624,-9.675121540000001,1.5007653752,0.64312173,2.48182411,-3.55619728,,,
imu,275.190925,-0.0167482784,-9.676317845600002,1.5061487504,0.88985976,2.87810034,-3.55619728,,,
imu,275.199345,-0.0023926112,-9.6745233872,1.4965783056,1.23379762,3.12483837,-3.62348947,,,
imu,275.207766,0.0131593616,-9.6918698184,1.5091395144,1.62259694,3.34914567,-3.84031986,,,
imu,275.216186,0.0185427368,-9.7337405144,1.5085413616,2.05625772,3.57345297,-4.0197657,,,
imu,275.224606,0.0352910152,-9.758264779200001,1.5085413616,2.07868845,3.64822207,-4.169303899999999,,,
imu,275.233027,0.0526374464,-9.772022293600001,1.5169155008,2.25813429,3.73046808,-4.19173463,,,
imu,275.241447,0.062806044,-9.758264779200001,1.5294767096,2.18336519,3.70056044,-4.27398064,,,
imu,275.249867,0.06579680800000001,-9.742114653600002,1.5336637792,2.04878081,3.38653022,-4.33379592,,,
imu,275.258288,0.05682451600000001,-9.790565030400002,1.4840170968,2.13850373,3.34914567,-4.0945348,,,
imu,275.266708,0.05981528000000001,-9.803126239200001,1.4690632768,2.03382699,3.19960747,-3.84779677,,,
imu,275.275128,0.05861897440000001,-9.7845835024,1.4822226384,1.75718132,2.96782326,-3.75807385,,,
imu,275.283548,0.07656355840000001,-9.743310959200002,1.4989709168,1.80204278,2.85566961,-3.67582784,,,
imu,275.291969,0.07775986400000001,-9.752881404000002,1.4708577352,1.93662716,2.6238854,-3.71321239,,,
imu,275.300389,0.07775986400000001,-9.766040765600001,1.456502068,2.06373463,2.35471664,-3.55619728,,,
imu,275.308809,0.0634041968,-9.764246307200002,1.4529131512,2.15345755,2.10797861,-3.40665908,,,
imu,275.31723,0.05203929360000001,-9.76484446,1.462483596,2.31047266,2.04816333,-3.21225942,,,
imu,275.32565,0.05084298800000001,-9.7636481544,1.4660725128,2.43758013,1.94348659,-3.0477674,,,
imu,275.33407,0.0382817792,-9.76484446,1.462483596,2.61702597,1.94348659,-2.55429134,,,
imu,275.342491,0.0317020984,-9.7576666264,1.4756429576,2.51982614,1.88367131,-2.36736859,,,
imu,275.350911,0.020935348,-9.773218599200002,1.4840170968,2.49739541,2.06311715,-2.17296893,,,
imu,275.359331,0.03289840400000001,-9.801929933600002,1.48042818,2.407672489999999,1.99582496,-2.0757691,,,
imu,275.367752,0.0382817792,-9.824061587200001,1.483418944,2.28804193,2.12293243,-2.14306129,,,
imu,275.376172,0.04246884880000001,-9.820472670400001,1.4738484992,2.09364227,2.30985518,-2.24773803,,,
imu,275.384975,0.06400234960000001,-9.8270523512,1.4876060136,2.05625772,2.44443956,-2.32998404,,,
imu,275.393779,0.0783580168,-9.8270523512,1.4840170968,1.92915025,2.44443956,-2.23278421,,,
imu,275.402574,0.09211553120000002,-9.8210708232,1.4816244856,1.57773548,2.31733209,-2.30755331,,,
imu,275.411378,0.09390998960000001,-9.802528086400002,1.4786337216,1.37585891,2.19022462,-2.38232241,,,
imu,275.420181,0.09570444800000001,-9.779798280000001,1.474446652,1.05435178,2.09302479,-2.28512258,,,
imu,275.428985,0.1040785872,-9.764246307200002,1.4720540408,0.82256757,2.15284007,-2.14306129,,,
imu,275.437789,0.1082656568,-9.746301723200002,1.468465124,0.80761375,2.03320951,-2.11315365,,,
imu,275.446592,0.1154434904,-9.725964528,1.4571002208,0.85995212,2.01825569,-1.99352309,,,
imu,275.455396,0.1118545736,-9.7122070136,1.4559039152,1.00201341,1.97339423,-1.94118472,,,
imu,275.4642,0.1190324072,-9.706225485600001,1.4523149984,1.13659779,1.9509635,-1.88136944,,,
imu,275.473003,0.1124527264,-9.724768222400002,1.4600909848,1.36090509,1.97339423,-1.9262309,,,
imu,275.481807,0.1250139352,-9.744507264800001,1.4762411104,1.56278166,2.04816333,-2.03838455,,,
imu,275.490611,0.1339862272,-9.7510869456,1.4792318744,1.80951969,2.00330187,-2.23278421,,,
imu,275.499414,0.1495382,-9.748096181600001,1.4941856944,2.09364227,1.9509635,-2.18792275,,,
imu,275.508218,0.152528964,-9.7750130576,1.48042818,2.20579592,1.98087114,-2.41970696,,,
imu,275.517022,0.1513326584,-9.794752100000002,1.5067469032,2.19831901,1.91357895,-2.62158353,,,
imu,275.525825,0.1591086448,-9.773816752000002,1.5007653752,2.10859609,1.82385603,-2.748691,,,
imu,275.534629,0.1626975616,-9.789368724800001,1.4977746112,2.13850373,1.85376367,-2.56924516,,,
imu,275.543433,0.161501256,-9.805518850400002,1.4768392632,2.03382699,1.83880985,-2.32250713,,,
imu,275.552236,0.1710717008,-9.765442612800001,1.444539012,1.79456587,1.8761944,-2.39727623,,,
imu,275.56104,0.1626975616,-9.7492924872,1.4678669712,1.36090509,1.80890221,-2.62158353,,,
imu,275.569844,0.152528964,-9.7780038216,1.4648762072,1.42072037,1.71917929,-2.92065993,,,
imu,275.578647,0.1477437416,-9.801929933600002,1.429585192,1.51044329,1.58459491,-3.1973056,,,
imu,275.587127,0.1429585192,-9.798341016800002,1.4247999696,1.45810492,1.4275798,-3.36927453,,,
imu,275.595607,0.1208268656,-9.7744149048,1.4200147472,1.5926893,1.53973345,-3.62348947,,,
imu,275.604088,0.116639796,-9.797144711200001,1.4122387608,1.84690424,1.59207182,-3.66835093,,,
imu,275.612568,0.1112564208,-9.803724392000001,1.3919015656,2.09364227,1.6518871,-3.39170526,,,
imu,275.621048,0.1208268656,-9.818678212000002,1.37575144,2.21327283,1.9509635,-2.93561375,,,
imu,275.629528,0.1160416432,-9.8061170032,1.3691717592,2.24318047,2.19770153,-2.83093701,,,
imu,275.638008,0.1154434904,-9.800733628000001,1.3584050088,2.13850373,2.21265535,-2.99542903,,,
imu,275.646488,0.1070693512,-9.794153947200002,1.3434511888,2.07121154,2.18274771,-3.07019813,,,
imu,275.654968,0.1172379488,-9.7959484056,1.3404604248,1.94410407,2.13788625,-3.16739796,,,
imu,275.663448,0.1082656568,-9.785181655200002,1.3296936744,1.76465823,2.0257326,-3.25712088,,,
imu,275.671928,0.1130508792,-9.783985349600002,1.3350770496,1.68988913,2.28742445,-3.13001341,,,
imu,275.680408,0.1022841288,-9.769031529600001,1.3273010632,1.47305874,2.22760917,-3.13749032,,,
imu,275.688888,0.1232194768,-9.769629682400002,1.3296936744,1.36090509,2.22013226,-3.08515195,,,
imu,275.697368,0.1268083936,-9.7576666264,1.3446474944,1.42072037,2.36967046,-2.71878336,,,
imu,275.705848,0.1280046992,-9.7510869456,1.3452456472,1.30856672,2.45191647,-2.36736859,,,
imu,275.714328,0.1262102408,-9.751685098400001,1.3404604248,1.27118217,2.49677793,-2.3000764,,,
imu,275.722809,0.1208268656,-9.7492924872,1.3392641192,1.41324346,2.72108523,-2.27016876,,,
imu,275.731289,0.1172379488,-9.765442612800001,1.348834564,1.55530475,2.73603905,-2.44213769,,,
imu,275.739769,0.1250139352,-9.775611210400001,1.3470401056,1.62259694,2.72108523,-2.83841392,,,
imu,275.748249,0.1100601152,-9.791761336000002,1.3476382584,1.76465823,2.87062343,-2.95056757,,,
imu,275.756729,0.110658268,-9.8049206976,1.3560123976,1.77213514,3.1472691,-3.13749032,,,
imu,275.765209,0.1082656568,-9.835426490400001,1.3631902312,1.82447351,3.25194584,-3.42908981,,,
imu,275.773689,0.1220231712,-9.842006171200001,1.3673773008,1.7422275,3.49120696,-3.48142818,,,
imu,275.782169,0.1280046992,-9.8563618384,1.3805366624,1.60764312,3.69308353,-3.55619728,,,
imu,275.790635,0.1381732968,-9.838417254400001,1.3715643704,1.31604363,3.69308353,-3.78798149,,,
imu,275.799101,0.1471455888,-9.8264541984,1.387714496,1.32352054,3.75289881,-3.80293531,,,
imu,275.807567,0.1579123392,-9.810304072800001,1.3829292736,1.00949032,3.9697292,-3.8702275,,,
imu,275.816033,0.1537252696,-9.800135475200001,1.3793403568,0.65059864,3.98468302,-3.9449966,,,
imu,275.824499,0.161501256,-9.7809945856,1.3691717592,0.70293701,4.01459066,-3.80293531,,,
imu,275.832966,0.1609031032,-9.752283251200002,1.3769477456,0.63564482,3.820191,-4.06462716,,,
imu,275.841432,0.1609031032,-9.716992236000001,1.4062572328,0.74779847,3.88000628,-4.25154991,,,
imu,275.849898,0.1531271168,-9.749890640000002,1.4080516912,0.8674290299999999,3.84262173,-4.29641137,,,
imu,275.858364,0.1447529776,-9.7845835024,1.3643865368,1.00949032,3.5211146,-4.55062631,,,
imu,275.86683,0.1148453376,-9.737927584000001,1.3799385096,1.0693056,3.46877623,-4.87961035,,,
imu,275.875296,0.1148453376,-9.7128051664,1.3978830936,1.39081273,3.36409949,-4.98428709,,,
imu,275.883762,0.125612088,-9.744507264800001,1.4068553856,1.56278166,3.22951511,-4.991764,,,
imu,275.892228,0.1184342544,-9.7714241408,1.3871163432,1.48801256,3.12483837,-4.77493361,,,
imu,275.900694,0.1244157824,-9.779798280000001,1.3763495928,1.57025857,3.03511545,-4.40108811,,,
imu,275.90916,0.125612088,-9.7576666264,1.3811348152,1.63755076,2.96782326,-4.146873169999999,,,
imu,275.917626,0.1208268656,-9.745703570400002,1.37575144,1.58521239,2.81080815,-3.9449966,,,
imu,275.926092,0.1220231712,-9.7570684736,1.3601994672,1.58521239,2.75099287,-3.70573548,,,
imu,275.934559,0.1321917688,-9.7714241408,1.3542179392,1.52539711,2.5491163,-3.496382,,,
imu,275.943025,0.1160416432,-9.7815927384,1.339862272,1.60016621,2.28742445,-3.56367419,,,
imu,275.951491,0.09630260080000001,-9.770825988000002,1.3392641192,1.74970441,1.92105586,-3.75059694,,,
imu,275.959957,0.08194693360000001,-9.786377960800001,1.3446474944,1.93662716,1.89114822,-3.74312003,,,
imu,275.968423,0.0592171272,-9.785181655200002,1.3302918272,1.94410407,2.01825569,-3.85527368,,,
imu,275.976889,0.04246884880000001,-9.783387196800001,1.3302918272,2.01139626,2.07059406,-3.93751969,,,
imu,275.985355,0.0406743904,-9.790565030400002,1.3290955216,1.90671952,2.30237827,-3.88518132,,,
imu,275.993873,0.0376836264,-9.796546558400001,1.3284973688,2.07121154,2.6986545,-3.75059694,,,
imu,276.002392,0.0317020984,-9.800135475200001,1.3177306184,1.95905789,2.97530017,-3.6459202,,,
imu,276.01091,0.04127254320000001,-9.803724392000001,1.3015804928,1.84690424,3.24446893,-3.60105874,,,
imu,276.019428,0.05802082160000001,-9.8168837536,1.2842340616,1.73475059,3.52859151,-3.59358183,,,
imu,276.027946,0.07775986400000001,-9.8300431152,1.268083936,1.82447351,3.88748319,-3.67582784,,,
imu,276.036464,0.08792846160000001,-9.85456738,1.2728691584,1.83942733,3.84262173,-3.81041222,,,
imu,276.044983,0.1052748928,-9.853969227200002,1.2668876304,1.68988913,3.76037572,-4.02724261,,,
imu,276.053501,0.1028822816,-9.861147060800002,1.2764580752,1.60016621,3.79028336,-3.96742733,,,
imu,276.062019,0.1022841288,-9.863539672000002,1.2746636168,1.5179202,3.77532954,-4.012288789999999,,,
imu,276.070537,0.09869521200000002,-9.859950755200002,1.265093172,1.51044329,3.55849915,-3.93004278,,,
imu,276.079055,0.09630260080000001,-9.850978463200002,1.2668876304,1.36090509,3.3715764,-4.012288789999999,,,
imu,275.063395,,,,,,,-123.8420548,145.80887,137.7033344
imu,275.16508,,,,,,,-123.8908836,146.7366172,140.42554
imu,275.26652,,,,,,,-124.1350276,146.7610316,140.1447744
imu,275.368266,,,,,,,-124.1228204,147.1028332,140.0104952
imu,275.469615,,,,,,,-124.3181356,146.9563468,140.2912608
imu,276.087574,0.0861340032,-9.827650504000003,1.274065464,1.04687487,3.02763854,-4.102011709999999,,,
imu,276.096092,0.07656355840000001,-9.831837573600001,1.2902155896,0.8449983,2.9229618,-4.21416536,,,
imu,276.10461,0.06460050240000001,-9.803724392000001,1.3033749512,0.5459219,2.63883922,-4.35622665,,,
imu,276.113128,0.05084298800000001,-9.809107767200002,1.2866266728,0.41133752,2.57154703,-4.34874974,,,
imu,276.121647,0.04127254320000001,-9.817481906400001,1.2985897288,0.19450713,2.54163939,-4.16182699,,,
imu,276.130165,0.0442633072,-9.800733628000001,1.31593616,-0.16438455,2.5491163,-4.07210407,,,
imu,276.138683,0.04366515440000001,-9.772620446400001,1.3296936744,-0.37373803,2.61640849,-3.76555076,,,
imu,276.147201,0.05383375200000001,-9.766040765600001,1.3302918272,-0.40364567,2.8481927,-3.4216129,,,
imu,276.155719,0.07716171120000001,-9.7606573904,1.3464419528,-0.45598404,3.03511545,-3.05524431,,,
imu,276.164238,0.09630260080000001,-9.7786019744,1.3506290224,-0.44850713,3.03511545,-2.86832156,,,
imu,276.172756,0.1190324072,-9.76484446,1.3613957728,-0.26158438,2.99025399,-2.85336774,,,
imu,276.181274,0.1387714496,-9.752881404000002,1.3721625232,-0.29896893,2.82576197,-3.07767504,,,
imu,276.189792,0.1573141864,-9.743310959200002,1.3673773008,-0.07466163,2.58650085,-3.29450543,,,
imu,276.198195,0.1620994088,-9.727160833600001,1.366779148,0.08235347999999998,2.27247063,-3.54124346,,,
imu,276.206597,0.16449202,-9.725964528,1.3512271752,0.20946095,2.0257326,-3.59358183,,,
imu,276.215,0.1543234224,-9.724170069600001,1.3566105504,0.60573718,1.8014253,-3.39170526,,,
imu,276.223402,0.1489400472,-9.731946056000002,1.3590031616,0.7552753799999999,1.52477963,-3.51133582,,,
imu,276.231805,0.1262102408,-9.746301723200002,1.3673773008,1.06182869,1.42010289,-3.75059694,,,
imu,276.240207,0.1202287128,-9.7744149048,1.3763495928,1.22632071,1.31542615,-3.90013514,,,
imu,276.24861,0.1202287128,-9.793555794400001,1.3751532872,1.33099745,1.19579559,-3.8702275,,,
imu,276.257012,0.1268083936,-9.801929933600002,1.3799385096,1.42819728,1.18084177,-3.99733497,,,
imu,276.265415,0.1208268656,-9.821668976000002,1.4008738576,1.23379762,1.15093413,-4.244073,,,
imu,276.273817,0.1094619624,-9.812098531200002,1.4080516912,0.9646288599999999,1.06121121,-4.430995749999999,,,
imu,276.28222,0.1028822816,-9.824061587200001,1.4182202888,0.97210577,1.06868812,-4.25902682,,,
imu,276.290622,0.1010878232,-9.8210708232,1.417622136,0.77770611,1.21074941,-4.07210407,,,
imu,276.299025,0.08972292000000001,-9.7911631832,1.4080516912,0.620691,1.25561087,-3.8702275,,,
imu,276.307427,0.09989151760000002,-9.773218599200002,1.4247999696,0.3216146,1.3528107,-3.95247351,,,
imu,276.31583,0.08254508640000002,-9.789368724800001,1.4373611784,0.17955331,1.38271834,-4.386134289999999,,,
imu,276.324232,0.06041343280000001,-9.786377960800001,1.4080516912,0.25432241,1.30794924,-4.647826139999999,,,
imu,276.332635,0.05443190480000001,-9.742114653600002,1.3960886352,0.13469185,1.21822632,-4.86465653,,,
imu,276.341037,0.0370854736,-9.7122070136,1.3924997184,0.2468455,1.11354958,-5.305794219999999,,,
imu,276.34944,0.0191408896,-9.704431027200002,1.3703680648,0.58330645,1.2780416,-5.38056332,,,
imu,276.357842,-0.007775986400000001,-9.688280901600002,1.3500308696,0.9272443100000001,1.30794924,-5.14877911,,,
imu,276.366245,-0.0167482784,-9.669738164800002,1.3296936744,1.24875144,1.47991817,-4.68521069,,,
imu,276.374647,-0.017944584,-9.661364025600001,1.3207213824,1.72727368,1.58459491,-4.3936112,,,
imu,276.38305,-0.0346928624,-9.668541859200001,1.297991576,2.22074974,1.64441019,-4.13939626,,,
imu,276.391452,-0.03648732080000001,-9.6703363176,1.289019284,2.66188743,1.80890221,-3.97490424,,,
imu,276.400276,-0.0514411408,-9.683495679200002,1.2728691584,3.11797894,1.83880985,-3.81041222,,,
imu,276.4091,-0.0526374464,-9.714001472000001,1.2609061024,3.57407045,1.95844041,-3.69825857,,,
imu,276.417923,-0.06579680800000001,-9.744507264800001,1.253130116,4.00025432,2.15284007,-3.78798149,,,
imu,276.426747,-0.06579680800000001,-9.777405668800002,1.2483448936,3.9853005,2.15284007,-3.74312003,,,
imu,276.43557,-0.0592171272,-9.802528086400002,1.2393726016,3.88810067,2.36967046,-3.31693616,,,
imu,276.444394,-0.05084298800000001,-9.825856045600002,1.2280076984,3.8357623,2.76594669,-2.90570611,,,
imu,276.453217,-0.0376836264,-9.865932283200001,1.2333910736,3.67874719,3.07997691,-2.65896808,,,
imu,276.462041,0.0005981528000000001,-9.8886620896,1.2304003096,3.35724006,3.25194584,-2.54681443,,,
imu,276.470865,0.023926112,-9.9048122152,1.217240948,3.08059439,3.49868387,-2.55429134,,,
imu,276.479688,0.0370854736,-9.938308772000001,1.2178391008,2.6394567,3.42391477,-2.98047521,,,
imu,276.488512,0.06101158560000001,-9.9753942456,1.2184372536,2.17588828,3.40148404,-3.21973633,,,
imu,276.497258,0.06460050240000001,-9.886867631200001,1.2644950192,1.56278166,3.26689966,-3.5711511,,,
imu,276.506082,0.0783580168,-9.866530436000001,1.2674857832,1.09921324,3.21456129,-3.81041222,,,
imu,276.514905,0.1004896704,-9.9197660352,1.2274095456,0.9347212199999999,3.15474601,-3.81041222,,,
imu,276.523729,0.1034804344,-9.917971576800003,1.2040815864,0.5982602699999999,3.21456129,-3.76555076,,,
imu,276.532552,0.1274065464,-9.847389546400002,1.2429615184,0.16459949,3.18465365,-3.75059694,,,
imu,276.541376,0.1333880744,-9.813892989600001,1.2549245744,-0.11204618,3.02016163,-3.84779677,,,
imu,276.5502,0.143556672,-9.8563618384,1.2477467408,-0.16438455,2.84071579,-3.75059694,,,
imu,276.559023,0.140565908,-9.8330338792,1.2399707544,-0.4260764,2.50425484,-3.80293531,,,
imu,276.567847,0.1339862272,-9.803724392000001,1.2638968664,-0.47841477,2.2500399,-3.87770441,,,
imu,276.57667,0.1351825328,-9.7923594888,1.283037756,-0.21672292,1.83880985,-3.96742733,,,
imu,276.585494,0.1160416432,-9.788770572,1.2758599224,-0.08961545,1.45001053,-4.04967334,,,
imu,276.594317,0.1040785872,-9.761853696000001,1.2776543808,0.08983038999999998,1.18831868,-4.169303899999999,,,
imu,276.602795,0.09390998960000001,-9.754675862400001,1.309954632,0.16459949,1.09859576,-3.95995042,,,
imu,276.611272,0.08433954480000001,-9.7474980288,1.3207213824,0.31413769,0.8593346399999997,-3.66087402,,,
imu,276.61975,0.0723764888,-9.743310959200002,1.3296936744,0.26927623,0.6275504299999999,-3.71321239,,,
imu,276.628228,0.0502448352,-9.720581152800001,1.3392641192,0.2468455,0.4256738599999998,-3.57862801,,,
imu,276.636705,0.026916876,-9.70502918,1.3601994672,0.33656842,0.3434278499999999,-3.20478251,,,
imu,276.645183,0.01495382,-9.699645804800001,1.3643865368,0.44124516,0.5453044199999999,-2.77859864,,,
imu,276.65366,0.007177833600000002,-9.727160833600001,1.3655828424,0.59078336,0.8369039099999998,-2.51690679,,,
imu,276.662138,-0.004187069600000001,-9.725964528,1.3590031616,0.66555246,1.12102649,-2.28512258,,,
imu,276.670615,-0.0005981528000000001,-9.739722042400002,1.3775458984,0.80013684,1.50982581,-2.31503022,,,
imu,276.679093,0.0113649032,-9.76484446,1.3775458984,1.07678251,1.85376367,-2.4496146,,,
imu,276.68757,0.026916876,-9.783985349600002,1.3763495928,1.07678251,2.05564024,-2.68139881,,,
imu,276.696048,0.03289840400000001,-9.783985349600002,1.3679754536,1.19641307,2.33228591,-2.89075229,,,
imu,276.704525,0.04785222400000001,-9.783985349600002,1.3613957728,1.19641307,2.51173175,-3.01038285,,,
imu,276.713003,0.0514411408,-9.772620446400001,1.3572087032,1.27865908,2.80333124,-3.32441307,,,
imu,276.72148,0.07118018320000001,-9.766638918400002,1.3422548832,1.34595127,3.03511545,-3.496382,,,
imu,276.729958,0.1184342544,-9.7786019744,1.3356752024,1.33847436,3.32671494,-3.43656672,,,
imu,276.738435,0.1459492832,-9.7702278352,1.3195250768,1.33099745,3.34914567,-3.36927453,,,
imu,276.746913,0.1638938672,-9.772620446400001,1.3093564792,1.33847436,3.30428421,-3.42908981,,,
imu,276.75539,0.1902125904,-9.7780038216,1.30098234,1.18145925,3.12483837,-3.41413599,,,
imu,276.763868,0.203371952,-9.785779808000001,1.2824396032,1.17398234,2.69117759,-3.41413599,,,
imu,276.772346,0.1979885768,-9.7606573904,1.2908137424,1.42072037,2.33976282,-3.54124346,,,
imu,276.780823,0.1985867296,-9.7474980288,1.2656913248,1.51044329,2.01077878,-3.71321239,,,
imu,276.789301,0.176455076,-9.755274015200001,1.2656913248,1.60016621,1.50982581,-3.83284295,,,
imu,276.797778,0.1537252696,-9.765442612800001,1.2603079496,1.80204278,1.18084177,-3.83284295,,,
imu,276.806324,0.1351825328,-9.7815927384,1.2549245744,1.94410407,0.9565344699999998,-3.91508896,,,
imu,276.814871,0.110658268,-9.789966877600001,1.2555227272,2.00391935,0.72475026,-4.04219643,,,
imu,276.823417,0.09510629520000001,-9.801929933600002,1.2579153384,2.10111918,0.7172733499999997,-3.98985806,,,
imu,276.831963,0.0783580168,-9.8043225448,1.2537282688,1.99644244,0.7471809899999999,-4.012288789999999,,,
imu,276.840509,0.08374139200000001,-9.824659740000001,1.2543264216,1.86185806,0.78456554,-4.17678081,,,
imu,276.849055,0.08254508640000002,-9.8563618384,1.2519338104,1.73475059,0.7322271699999998,-4.34874974,,,
imu,276.857601,0.07118018320000001,-9.840809865600002,1.2615042552,1.71231986,0.5752120599999997,-4.5431494,,,
imu,276.866148,0.07058203040000001,-9.810902225600001,1.2698783944,1.54782784,0.4555814999999996,-4.70764142,,,
imu,276.874694,0.1208268656,-9.848585852000001,1.2399707544,1.47305874,0.3284740299999998,-4.73007215,,,
imu,276.88324,0.1268083936,-9.8820824088,1.2124557256,1.38333582,-0.0005100100000001717,-4.44594957,,,
imu,276.891786,0.1148453376,-9.836024643200002,1.2226243232,1.37585891,-0.4939860700000001,-4.25902682,,,
imu,276.900332,0.09570444800000001,-9.815089295200002,1.2339892264,1.12912088,-0.9949390400000002,-4.17678081,,,
imu,275.571177,,,,,,,-123.8908836,147.0540044,139.7297296
imu,275.672801,,,,,,,-124.2693068,146.8831036,140.8039632
imu,275.774333,,,,,,,-121.4860652,146.0652212,139.693108
imu,275.875895,,,,,,,-124.159442,146.6999956,140.9626568
imu,275.977427,,,,,,,-121.90111,145.9797708,138.3014872
imu,276.07902,,,,,,,-124.464622,146.3704012,140.1691888
imu,276.182017,,,,,,,-124.281514,146.1995004,138.2648656
imu,276.282115,,,,,,,-124.34255,146.5290948,140.364504
imu,276.908879,0.08493769760000001,-9.808509614400002,1.2309984624,1.18145925,-1.43607673,-3.80293531,,,
imu,276.917425,0.04785222400000001,-9.802528086400002,1.2244187816,1.12912088,-1.66786094,-3.56367419,,,
imu,276.925971,0.0263187232,-9.793555794400001,1.238176296,1.06182869,-1.87721442,-3.51133582,,,
imu,276.934517,-0.009570444800000001,-9.800135475200001,1.247148588,0.91229049,-2.03422953,-3.36927453,,,
imu,276.943063,-0.0382817792,-9.802528086400002,1.2304003096,0.66555246,-2.019275710000001,-3.1973056,,,
imu,276.95161,-0.0592171272,-9.809107767200002,1.2345873792,0.56835263,-1.83982987,-3.24216706,,,
imu,276.960156,-0.07596540560000001,-9.80970592,1.2268113928,0.57582954,-1.34635381,-3.35432071,,,
imu,276.968702,-0.08374139200000001,-9.8132948368,1.2298021568,0.6281679099999999,-0.88278539,-3.70573548,,,
imu,276.977248,-0.08433954480000001,-9.805518850400002,1.223222476,0.53844499,-0.4266938800000002,-3.87770441,,,
imu,276.985794,-0.08433954480000001,-9.803126239200001,1.2220261704,0.58330645,0.1041667299999998,-4.034719519999999,,,
imu,276.994341,-0.08972292000000001,-9.812098531200002,1.22621324,0.56087572,0.44062768,-4.22911918,,,
imu,277.002887,-0.08673215600000002,-9.8228652816,1.2250169344,0.56835263,0.7546578999999998,-4.30388828,,,
imu,277.011261,-0.08433954480000001,-9.837819101600003,1.2399707544,0.5010604399999999,1.12102649,-4.363703559999999,,,
imu,277.019636,-0.07297464160000001,-9.836024643200002,1.2375781432,0.60573718,1.39019525,-4.19921154,,,
imu,277.02801,-0.05981528000000001,-9.842604324000002,1.2489430464,0.50853735,1.79394839,-4.13939626,,,
imu,277.036385,-0.0526374464,-9.844996935200001,1.2513356576,0.43376825,2.05564024,-3.81041222,,,
imu,277.044759,-0.017944584,-9.849184004800001,1.25612088,0.27675314,2.26499372,-3.496382,,,
imu,277.053134,0.0107667504,-9.853371074400002,1.2585134912,0.04496892999999999,2.25751681,-3.30945925,,,
imu,277.061508,0.0305057928,-9.8270523512,1.2734673112,-0.16438455,2.0257326,-3.31693616,,,
imu,277.069883,0.03947808480000001,-9.818678212000002,1.2704765472,-0.52327623,1.8014253,-3.21225942,,,
imu,277.078258,0.04366515440000001,-9.806715156000001,1.2543264216,-0.58309151,1.52477963,-2.95804448,,,
imu,277.086632,0.05383375200000001,-9.782789044000001,1.2609061024,-0.74758353,1.11354958,-2.79355246,,,
imu,277.095007,0.0376836264,-9.7821908912,1.289019284,-0.82235263,0.7097964399999999,-2.99542903,,,
imu,277.103381,0.0185427368,-9.801929933600002,1.3015804928,-0.77001426,0.3882893099999998,-3.24216706,,,
imu,277.111756,0.0107667504,-9.800733628000001,1.28602852,-0.82982954,0.2013665599999999,-3.37675144,,,
imu,277.12013,-0.0011963056,-9.788172419200002,1.2961971176,-0.61299915,-0.01546383000000029,-3.21973633,,,
imu,277.128505,-0.0323002512,-9.797742864000002,1.3147398544,-0.33635348,-0.07527911000000032,-3.20478251,,,
imu,277.136879,-0.07297464160000001,-9.803724392000001,1.3087583264,-0.17933837,0.11164364,-2.86832156,,,
imu,277.145254,-0.101685976,-9.809107767200002,1.3081601736,0.01506129,0.3733354899999997,-2.08324601,,,
imu,277.153628,-0.09211553120000002,-9.8013317808,1.3147398544,0.06739966,0.8294269999999999,-1.52995467,,,
imu,277.162003,-0.09630260080000001,-9.7809945856,1.3237121464,-0.07466163,1.34533379,-1.56733922,,,
imu,277.170377,-0.09390998960000001,-9.786976113600002,1.3404604248,-0.007369440000000005,1.92853277,-1.72435433,,,
imu,277.178752,-0.0723764888,-9.7636481544,1.3380678136,0.08235347999999998,2.35471664,-1.84398489,,,
imu,277.187126,-0.05443190480000001,-9.746899876,1.3362733552,-0.11204618,2.66874686,-2.25521494,,,
imu,277.195501,-0.06041343280000001,-9.743909112,1.351825328,-0.32887657,3.13979219,-2.65896808,,,
imu,277.203876,-0.04246884880000001,-9.727160833600001,1.3596013144,-0.31392275,3.64074516,-2.90570611,,,
imu,277.212356,-0.0352910152,-9.727758986400001,1.3643865368,-0.43355331,4.126744309999999,-2.9729983,,,
imu,277.220836,-0.007177833600000002,-9.714599624800002,1.3721625232,-0.33635348,4.62022037,-2.88327538,,,
imu,277.229316,0.0323002512,-9.685888290400001,1.3811348152,-0.30644584,5.158557889999999,-2.95804448,,,
imu,277.237796,0.03887993200000001,-9.714001472000001,1.3506290224,0.06739966,5.48006502,-2.8982292,,,
imu,277.246276,0.04007623760000001,-9.741516500800001,1.3255066048,0.29170696,5.67446468,-3.09262886,,,
imu,277.254756,0.0340947096,-9.7086180968,1.3440493416,0.3963837,5.88381816,-3.48890509,,,
imu,277.263236,0.0245242648,-9.686486443200002,1.3679754536,0.6954601,6.23523293,-3.80293531,,,
imu,277.271716,0.020935348,-9.719983000000001,1.3380678136,1.16650543,6.39224804,-4.07210407,,,
imu,277.280196,0.03349655680000001,-9.741516500800001,1.3458438,1.46558183,6.65393989,-4.19921154,,,
imu,277.288676,0.0532355992,-9.748694334400001,1.36079762,1.69736604,6.83338573,-4.17678081,,,
imu,277.297156,0.05802082160000001,-9.759461084800002,1.3434511888,2.04878081,6.96797011,-4.15435008,,,
imu,277.305636,0.0747691,-9.7809945856,1.339862272,2.31047266,7.06516994,-4.034719519999999,,,
imu,277.314116,0.0741709472,-9.796546558400001,1.3332825912,2.36281103,7.012831569999999,-3.7954584,,,
imu,277.322597,0.07297464160000001,-9.7959484056,1.327899216,2.19831901,7.07264685,-3.54124346,,,
imu,277.331077,0.07118018320000001,-9.810304072800001,1.327899216,2.0413039,7.1100314,-3.26459779,,,
imu,277.339557,0.08733030880000002,-9.80970592,1.3105527848,1.8917657,7.057693029999999,-3.04029049,,,
imu,277.348037,0.07955432240000002,-9.802528086400002,1.2896174368,1.89924261,6.82590882,-3.04029049,,,
imu,277.356517,0.08254508640000002,-9.796546558400001,1.2722710056,1.75718132,6.72123208,-3.08515195,,,
imu,277.364997,0.0980970592,-9.770825988000002,1.2489430464,1.90671952,6.67637062,-2.9729983,,,
imu,277.373477,0.1040785872,-9.7714241408,1.2429615184,1.97401171,6.63898607,-3.02533667,,,
imu,277.381957,0.1118545736,-9.7714241408,1.2549245744,2.07868845,6.564216969999999,-3.04029049,,,
imu,277.390437,0.1088638096,-9.797144711200001,1.2662894776,2.07121154,6.444586409999999,-2.96552139,,,
imu,277.398917,0.1190324072,-9.789368724800001,1.2447559768,2.05625772,6.17541765,-3.18235178,,,
imu,277.407397,0.116639796,-9.7702278352,1.2483448936,2.01887317,5.831479789999999,-3.42908981,,,
imu,277.416208,0.1262102408,-9.769031529600001,1.2609061024,1.76465823,5.34548064,-3.8702275,,,
imu,277.425018,0.1303973104,-9.7995373224,1.2483448936,1.92167334,5.03145042,-4.00481188,,,
imu,277.433828,0.1357806856,-9.7995373224,1.2399707544,1.86185806,4.77723548,-3.7954584,,,
imu,277.442638,0.1573141864,-9.785779808000001,1.235185532,1.67493531,4.4183438,-3.83284295,,,
imu,277.451449,0.1459492832,-9.7989391696,1.2423633656,1.76465823,4.13422122,-3.83284295,,,
imu,277.460259,0.1429585192,-9.803126239200001,1.2333910736,1.6674584,3.6706528,-4.04219643,,,
imu,277.469069,0.1507345056,-9.802528086400002,1.2184372536,1.5926893,3.30428421,-4.04219643,,,
imu,277.47788,0.1333880744,-9.792957641600001,1.2196335592,1.6674584,2.93043871,-4.18425772,,,
imu,277.48669,0.1142471848,-9.785181655200002,1.1986982112,1.80951969,2.45191647,-4.29641137,,,
imu,277.4955,0.09630260080000001,-9.789368724800001,1.2058760448,1.85438115,2.18274771,-4.430995749999999,,,
imu,277.50431,0.08972292000000001,-9.7821908912,1.1807536272,2.20579592,1.97339423,-4.37118047,,,
imu,277.513121,0.08374139200000001,-9.770825988000002,1.1837443912,2.46748777,1.81637912,-4.19173463,,,
imu,277.521931,0.07596540560000001,-9.7636481544,1.175370252,2.54225687,1.74908693,-4.034719519999999,,,
imu,277.530741,0.07118018320000001,-9.777405668800002,1.1580238208,2.5646876,1.77899457,-3.89265823,,,
imu,277.539552,0.05981528000000001,-9.815089295200002,1.1293124864,2.59459524,1.53973345,-3.69078166,,,
imu,277.548362,0.0352910152,-9.7845835024,1.1622108904,2.63197979,1.32290306,-3.62348947,,,
imu,277.557172,0.0221316536,-9.719983000000001,1.2190354064,2.60954906,1.2780416,-3.62348947,,,
imu,277.565983,0.0191408896,-9.684093832000002,1.1747720992,2.74413344,1.06121121,-3.7954584,,,
imu,277.574793,0.0143556672,-9.8144911424,1.1215365,2.93105619,0.98644211,-3.85527368,,,
imu,277.583603,0.004785222400000001,-9.901821451200002,1.118545736,2.89367164,0.9939190199999999,-3.98985806,,,
imu,277.592317,-0.007177833600000002,-9.8527729216,1.1777628632,2.57964142,1.00887284,-3.95995042,,,
imu,277.601127,-0.020935348,-9.836622796,1.1981000584,2.30299575,1.18084177,-3.91508896,,,
imu,277.609938,-0.0191408896,-9.8629415192,1.1640053488,1.99644244,1.2780416,-3.8702275,,,
imu,277.618411,-0.03947808480000001,-9.862343366400001,1.1969037528,1.70484295,1.49487199,-3.84031986,,,
imu,277.626885,-0.02990764000000001,-9.880287950400001,1.2298021568,1.22632071,1.79394839,-3.85527368,,,
imu,277.635359,-0.0251224176,-9.8713156584,1.205277892,0.8749059399999999,2.03320951,-3.99733497,,,
imu,277.643832,-0.0293094872,-9.858754449600001,1.2088668088,0.46367589,2.25751681,-4.341272829999999,,,
imu,277.652306,-0.0466559184,-9.877297186400002,1.2286058512,0.3889067899999999,2.43696265,-4.8422258,,,
imu,277.66078,-0.0502448352,-9.901821451200002,1.208268656,0.43376825,2.50425484,-5.44785551,,,
imu,277.669254,-0.0382817792,-9.897036228800001,1.2034834336,0.29918387,2.3995781,-5.97871612,,,
imu,277.677727,-0.0502448352,-9.886269478400003,1.2178391008,0.31413769,2.34723973,-6.292746339999999,,,
imu,277.686201,-0.0562263632,-9.899428840000002,1.232194768,0.29170696,2.48930102,-6.44976145,,,
imu,277.694675,-0.068787572,-9.892849159200003,1.2214280176,0.20198404,2.53416248,-6.532007459999999,,,
imu,277.703148,-0.0861340032,-9.873708269600002,1.2208298648,0.03749201999999999,2.42200883,-6.382469260000001,,,
imu,277.711622,-0.08254508640000002,-9.839015407200002,1.2333910736,-0.13447691,2.38462428,-6.1880696,,,
imu,277.720096,-0.1040785872,-9.803724392000001,1.232194768,-0.15690764,2.39210119,-5.86656247,,,
imu,276.383553,,,,,,,-124.3669644,146.297158,140.2180176
imu,276.485115,,,,,,,-124.1716492,146.2239148,140.4621616
imu,276.5868,,,,,,,-124.3181356,146.1872932,140.5354048
imu,276.68824,,,,,,,-123.8664692,146.1384644,140.0471168
imu,276.789803,,,,,,,-122.3649836,145.5525188,140.059324
imu,276.891396,,,,,,,-123.793226,146.2483292,140.2912608
imu,276.992958,,,,,,,-121.4372364,145.3694108,137.7887848
imu,277.094521,,,,,,,-123.793226,146.297158,140.7185128
imu,277.72857,-0.1034804344,-9.777405668800002,1.2280076984,-0.16438455,2.30985518,-5.58243989,,,
imu,277.737043,-0.1208268656,-9.7504887928,1.2226243232,-0.36626112,2.21265535,-5.1413022,,,
imu,277.745517,-0.1327899216,-9.7474980288,1.238176296,-0.30644584,2.22013226,-4.65530305,,,
imu,277.753991,-0.140565908,-9.7534795568,1.2405689072,-0.32887657,2.3995781,-4.17678081,,,
imu,277.762464,-0.1447529776,-9.762451848800001,1.2453541296,-0.14195382,2.64631613,-3.61601256,,,
imu,277.770938,-0.1597067976,-9.754675862400001,1.2543264216,0.11973803,3.05006927,-2.96552139,,,
imu,277.779412,-0.1567160336,-9.749890640000002,1.2507375048,0.2468455,3.46877623,-2.36736859,,,
imu,277.787886,-0.1387714496,-9.725964528,1.24116706,0.34404533,3.95477538,-1.90380017,,,
imu,277.796359,-0.1184342544,-9.739722042400002,1.2495411992,0.49358353,4.51554363,-1.75426197,,,
imu,277.804833,-0.09630260080000001,-9.748694334400001,1.238176296,0.76275229,5.18098862,-1.43275484,,,
imu,277.813307,-0.05682451600000001,-9.745105417600001,1.2339892264,0.91229049,5.57726485,-1.41780102,,,
imu,277.821775,-0.011963056,-9.7474980288,1.235185532,1.07678251,5.9137258,-1.64958523,,,
imu,277.830244,0.0107667504,-9.7606573904,1.2453541296,1.09173633,6.17541765,-2.02343073,,,
imu,277.838713,0.06160973840000001,-9.7780038216,1.2453541296,1.28613599,6.19037147,-2.39727623,,,
imu,277.847181,0.09211553120000002,-9.785779808000001,1.2465504352,1.24127453,6.063264,-2.8234601,,,
imu,277.85565,0.1327899216,-9.793555794400001,1.2495411992,1.08425942,5.89129507,-3.24216706,,,
imu,277.864118,0.1441548248,-9.8013317808,1.2603079496,1.00949032,5.285665359999999,-3.83284295,,,
imu,277.872587,0.1393696024,-9.796546558400001,1.2627005608,0.9197674,4.84452767,-4.02724261,,,
imu,277.881056,0.1088638096,-9.783387196800001,1.2776543808,0.91229049,4.56040509,-4.012288789999999,,,
imu,277.889524,0.09690075360000001,-9.779798280000001,1.2662894776,0.7552753799999999,4.18655959,-3.98985806,,,
imu,277.897993,0.08733030880000002,-9.7786019744,1.244157824,0.76275229,3.8949601,-3.87770441,,,
imu,277.906462,0.07058203040000001,-9.758264779200001,1.2459522824,0.8524752099999999,3.32671494,-3.93004278,,,
imu,277.91493,0.0502448352,-9.756470320800002,1.2692802416,1.07678251,3.02016163,-4.04219643,,,
imu,277.923399,0.020935348,-9.7959484056,1.2656913248,1.45062801,2.57902394,-4.3936112,,,
imu,277.931867,0.0023926112,-9.8061170032,1.247148588,1.75718132,2.12293243,-4.51324176,,,
imu,277.940336,-0.0191408896,-9.8132948368,1.250139352,1.92915025,1.71170238,-4.59548777,,,
imu,277.948805,-0.05203929360000001,-9.815089295200002,1.2489430464,1.91419643,1.36776452,-4.57305704,,,
imu,277.957273,-0.0741709472,-9.8234634344,1.2405689072,2.10111918,1.37524143,-4.27398064,,,
imu,277.965742,-0.0980970592,-9.8629415192,1.2100631144,2.4151494,1.45748744,-3.56367419,,,
imu,277.974211,-0.1232194768,-9.8497821576,1.2028852808,2.67684125,1.77899457,-3.03281358,,,
imu,277.982679,-0.1399677552,-9.797144711200001,1.2094649616,2.45253395,2.0257326,-2.77859864,,,
imu,277.991148,-0.1399677552,-9.760059237600002,1.2046797392,2.37776485,2.27247063,-2.70382954,,,
imu,277.999617,-0.1297991576,-9.755872168000002,1.1729776408,2.66188743,2.52668557,-2.56924516,,,
imu,278.008085,-0.1357806856,-9.749890640000002,1.16639796,2.72170271,2.81828506,-2.59167589,,,
imu,278.016554,-0.1303973104,-9.746899876,1.1616127376,2.7889949,3.15474601,-2.62158353,,,
imu,278.025011,-0.1190324072,-9.7534795568,1.1472570704,2.78151799,3.42391477,-2.75616791,,,
imu,278.033468,-0.09390998960000001,-9.7606573904,1.1472570704,2.83385636,3.62579134,-2.74121409,,,
imu,278.041925,-0.08314323920000001,-9.802528086400002,1.1352940144,2.77404108,3.85009864,-2.58419898,,,
imu,278.050383,-0.05861897440000001,-9.834828337600001,1.1281161808,2.75908726,3.99963684,-2.50942988,,,
imu,278.05884,-0.0263187232,-9.849184004800001,1.1299106392,2.62450288,4.09683667,-2.35241477,,,
imu,278.067297,-0.0125612088,-9.8563618384,1.1233309584,2.53477996,4.13422122,-2.35241477,,,
imu,278.075754,0.0053833752,-9.857558144000002,1.1233309584,2.36281103,3.99963684,-2.4496146,,,
imu,278.084211,0.0143556672,-9.880886103200002,1.1173494304,2.06373463,3.80523718,-2.49447606,,,
imu,278.092668,0.03289840400000001,-9.901821451200002,1.1101715968,1.71979677,3.70056044,-2.47952224,,,
imu,278.101126,0.04246884880000001,-9.903615909600001,1.1083771384,1.47305874,3.49120696,-2.34493786,,,
imu,278.109583,0.05383375200000001,-9.899428840000002,1.1017974576,1.30856672,3.35662258,-2.21035348,,,
imu,278.11804,0.06519865520000001,-9.893447312000001,1.1101715968,1.2188438,3.1472691,-2.16549202,,,
imu,278.126497,0.06699311360000001,-9.897634381600001,1.1215365,0.8823828499999999,2.78837742,-2.09072292,,,
imu,278.134954,0.08733030880000002,-9.880886103200002,1.1197420416,0.59078336,2.52668557,-2.11315365,,,
imu,278.143412,0.0855358504,-9.8593526024,1.1197420416,0.27675314,2.29490136,-2.23278421,,,
imu,278.151869,0.07955432240000002,-9.845595088000001,1.130508792,0.05244583999999999,2.22760917,-2.18792275,,,
imu,278.160326,0.0693857248,-9.828846809600002,1.1251254168,-0.17186146,2.2500399,-2.20287657,,,
imu,278.168783,0.0634041968,-9.8294449624,1.127518028,-0.3513073,2.22013226,-2.0757691,,,
imu,278.17724,0.0382817792,-9.8300431152,1.1239291112,-0.36626112,2.37714737,-2.23278421,,,
imu,278.185697,0.0005981528000000001,-9.8270523512,1.1329014032,-0.49336859,2.51173175,-2.49447606,,,
imu,278.194155,-0.0340947096,-9.806715156000001,1.1562293624,-0.7401066199999999,2.86314652,-2.83841392,,,
imu,278.202612,-0.0693857248,-9.835426490400001,1.1849406968,-0.8672140899999999,3.5211146,-3.10010577,,,
imu,278.211069,-0.0933118368,-9.855763685600001,1.178361016,-1.23358268,4.14169813,-3.56367419,,,
imu,278.219526,-0.1656883256,-9.818080059200001,1.1622108904,-1.59995127,4.807143119999999,-4.15435008,,,
imu,278.228006,-0.1836329096,-9.803724392000001,1.190324072,-1.83921239,5.88381816,-4.52819558,,,
imu,278.236486,-0.2009793408,-9.8210708232,1.2130538784,-1.83921239,7.20723123,-4.59548777,,,
imu,278.244966,-0.2590001624000001,-9.858754449600001,1.208268656,-1.90650458,8.373629189999999,-4.58801086,,,
imu,278.253446,-0.3212080536,-9.879689797600001,1.2369799904,-2.25044244,9.824149729999998,-4.85717962,,,
imu,278.261927,-0.4486146000000001,-9.940701383200002,1.2668876304,-2.66167249,11.65599268,-4.954379449999999,,,
imu,278.270407,-0.6160973840000001,-9.992740676800002,1.280046992,-3.2673022,13.69718911,-5.10391765,,,
imu,278.278887,-0.7512799168000001,-9.977786856800002,1.2363818376,-4.26173123,16.61318401,-5.31327113,,,
imu,278.287367,-0.7991321408000002,-9.986759148800001,1.2603079496,-4.986991499999999,19.83573222,-6.075915950000001,,,
imu,278.295847,-0.9020144224000001,-10.0770802216,1.324908452,-5.83188233,23.10314189,-7.77317452,,,
imu,278.304327,-1.1071808328,-10.1524474744,1.3141417016,-7.12538776,26.75187397,-9.94147842,,,
imu,278.312807,-1.295000812,-10.1428770296,1.3057675624,-8.63572358,31.25297379,-11.58639862,,,
imu,278.321287,-1.4337722616,-10.096819264,1.2788506864,-10.36288979,36.47933388,-12.94719624,,,
imu,278.329767,-1.5725437112,-10.0782765272,1.2513356576,-11.82088724,42.22160075999999,-14.65940863,,,
imu,278.338247,-1.6437238944,-10.090837736,1.2543264216,-13.30879233,48.76389700999999,-16.71555888,,,
imu,278.346727,-1.609031032,-10.1081841672,1.2208298648,-14.94623562,55.32862399,-18.64460166,,,
imu,278.355207,-1.597067976,-10.1123712368,1.1921185304,-16.47152526,61.56436693,-20.30447568,,,
imu,278.363687,-1.5904882952,-10.1614197664,1.1807536272,-17.93699962,67.65057167,-22.14379554,,,
imu,278.372167,-1.5318693208,-10.0471725816,1.127518028,-19.3426587,73.62462276000001,-23.99806922,,,
imu,278.380648,-1.4134350664,-9.954458897600002,1.0970122352,-20.34456464,79.49399711000001,-25.3289592,,,
imu,278.389128,-1.2304003096,-9.904214062400001,1.1131623608,-20.72588705,84.80260321,-26.05421947,,,
imu,278.397608,-1.0174579128,-9.866530436000001,1.142471848,-21.05487109,88.98219590000001,-26.93649485,,,
imu,278.406088,-0.7925524600000001,-9.8049206976,1.169388724,-20.95767126,92.11502119000001,-27.75895495,,,
imu,278.414568,-0.5419264368000001,-9.699047652,1.2106612672,-20.74831778,94.32818655,-28.29729247,,,
imu,278.423048,-0.2972819416,-9.561472508000001,1.259111644,-20.22493408,95.15064665,-28.33467702,,,
imu,278.431844,-0.0382817792,-9.408345391200001,1.3380678136,-19.05853612,95.15812356,-27.5720322,,,
imu,278.440639,0.1902125904,-9.325202152000001,1.3799385096,-17.19678553,93.85714122,-27.07855614,,,
imu,278.449435,0.3493212352000001,-9.238469996000001,1.423603664,-15.43223477,91.55425294,-27.18323288,,,
imu,278.458231,0.4276792520000001,-9.207964203200001,1.4403519424,-13.39851525,88.45133529,-26.05421947,,,
imu,278.467026,0.5574784096000001,-9.1511396872,1.4822226384,-11.08815006,85.13158725000001,-23.41487024,,,
imu,278.475822,0.6884738728,-9.107474532800001,1.5528046688,-8.64320049,81.23611714,-20.96244376,,,
imu,278.484618,0.7123999848000001,-9.086539184800001,1.5976661288,-5.95151289,76.70510968,-19.78856889,,,
imu,278.493413,0.6561736216000001,-9.107474532800001,1.6323589912,-3.16262546,72.20400986,-18.450202,,,
imu,278.502209,0.6113121616,-9.194206688800001,1.6736315344,-0.5307531400000001,67.95712498,-16.3566672,,,
imu,278.511005,0.663949608,-9.33118368,1.7172966888,1.75718132,63.85230138999999,-14.12107111,,,
imu,278.519801,0.7291482632,-9.477132963200003,1.7729248992,3.611455,59.55307814,-12.468674,,,
imu,278.528596,0.7560651392000002,-9.5740337168,1.8100103728,4.86009897,54.70804046,-11.75836755,,,
imu,278.537392,0.7399150136000001,-9.636241608,1.8297494152,5.63769761,49.8031875,-11.25741458,,,
imu,277.196053,,,,,,,-123.6955684,145.4304468,138.6677032
imu,277.297615,,,,,,,-123.7688116,145.80887,140.8039632
imu,277.399178,,,,,,,-124.1716492,146.0652212,139.9250448
imu,277.50306,,,,,,,-124.1716492,146.2117076,140.1691888
imu,277.602364,,,,,,,-123.8786764,145.2229244,140.2546392
imu,277.703926,,,,,,,-123.9030908,145.320582,139.9860808
imu,277.80555,,,,,,,-124.4768292,145.8821132,139.6442792
imu,277.90699,,,,,,,-122.0720108,145.1618884,139.3390992
imu,278.546188,0.744700236,-9.711010708000002,1.8554699856,6.40034243,44.84599617,-10.42000066,,,
imu,278.554983,0.7548688336000001,-9.76484446,1.8590589024,6.77418793,39.79160501,-9.52277146,,,
imu,278.563779,0.7339334856000002,-9.803126239200001,1.848292152,6.96858759,34.70730621,-8.96948012,,,
imu,278.572575,0.6657440664000001,-9.801929933600002,1.806421456,6.91624922,29.74263797,-8.52086552,,,
imu,278.58137,0.5784137576,-9.791761336000002,1.788476872,6.70689574,24.93498484,-8.04982019,,,
imu,278.590166,0.481513004,-9.7995373224,1.7723267464,6.79661866,20.58342322,-7.37689829,,,
imu,278.598962,0.3570972216000001,-9.812696684000002,1.7334468144,7.05831051,16.79262985,-6.71893021,,,
imu,278.607758,0.2326814392,-9.8234634344,1.7238763696,7.16298725,13.34577434,-5.97123921,,,
imu,278.616553,0.1232194768,-9.8479876992,1.7328486616,7.14055652,10.44473326,-5.4403786,,,
imu,278.625349,0.03289840400000001,-9.902419604000002,1.7089225496,6.84148012,8.10446043,-5.12634838,,,
imu,278.633832,0.0065796808,-9.938906924800001,1.68978166,6.5274499,6.49692478,-4.386134289999999,,,
imu,278.642314,0.0155519728,-9.9401032304,1.6622666312,6.06388148,4.72489711,-3.67582784,,,
imu,278.650797,0.004187069600000001,-9.893447312000001,1.626975616,5.5554516,2.6986545,-3.51133582,,,
imu,278.659279,-0.0293094872,-9.861147060800002,1.5916846008,5.22646756,0.8593346399999997,-3.45152054,,,
imu,278.667762,-0.06400234960000001,-9.8402117128,1.5683566416,4.8077606,-0.8379239300000001,-3.29450543,,,
imu,278.676245,-0.08314323920000001,-9.801929933600002,1.5205044176,4.62831476,-2.50527486,-2.81598319,,,
imu,278.684683,-0.1531271168,-9.7911631832,1.4995690696,4.60588403,-3.82121102,-2.50195297,,,
imu,278.693165,-0.1938015072,-9.788770572,1.4672688184,4.66569931,-4.95770134,-2.24026112,,,
imu,278.701648,-0.242251884,-9.779200127200001,1.447529776,4.74046841,-6.056807109999999,-2.06829219,,,
imu,278.710131,-0.2787392048,-9.7744149048,1.4720540408,4.94234498,-6.83440575,-1.91875399,,,
imu,278.718613,-0.290104108,-9.8402117128,1.4882041664,5.00216026,-7.55966602,-1.82155416,,,
imu,278.727096,-0.2930948720000001,-9.897036228800001,1.453511304,4.90496043,-8.22511101,-1.6271545,,,
imu,278.735578,-0.3014690112,-9.8820824088,1.4337722616,4.5834533,-8.89803291,-1.56733922,,,
imu,278.744061,-0.2566075512,-9.860548908000002,1.4361648728,4.38157673,-9.53357026,-1.45518557,,,
imu,278.752544,-0.1495382,-9.892849159200003,1.438557484,4.31428454,-10.13919997,-1.1785399,,,
imu,278.761026,-0.0227298064,-9.870119352800002,1.4068553856,4.08250033,-11.22335192,-0.5056179999999999,,,
imu,278.769509,0.0550300576,-9.822267128800002,1.4074535384,4.09745415,-12.91313358,0.3542266500000002,,,
imu,278.777992,0.101685976,-9.789368724800001,1.4002757048,4.08250033,-14.872084,1.10939456,,,
imu,278.786474,0.08493769760000001,-9.786976113600002,1.3673773008,4.27689999,-16.9656188,2.1113005,,,
imu,278.794957,0.03887993200000001,-9.798341016800002,1.3829292736,4.69560695,-19.04419978,3.27022155,,,
imu,278.803439,-0.0406743904,-9.828248656800001,1.4104443024,4.94234498,-20.86856582,4.28708131,,,
imu,278.811922,-0.1429585192,-9.831837573600001,1.4349685672,4.74794532,-22.36394782,5.00486467,,,
imu,278.820405,-0.2326814392,-9.837220948800002,1.4361648728,4.57597639,-23.49296123,5.76750949,,,
imu,278.828887,-0.2984782472,-9.88447502,1.3924997184,4.41148437,-24.09111403,6.53015431,,,
imu,278.837356,-0.2889078024000001,-9.914382660000001,1.3763495928,4.11988488,-24.33785206,7.03858419,,,
imu,278.845824,-0.2781410520000001,-9.9048122152,1.3500308696,3.61893191,-24.45748262,7.285322220000001,,,
imu,278.854293,-0.2530186344000001,-9.879091644800003,1.366779148,3.11050203,-24.59954391,7.307752950000001,,,
imu,278.862762,-0.161501256,-9.824659740000001,1.3733588288,2.75908726,-24.79394357,7.247937670000001,,,
imu,278.87123,-0.1148453376,-9.7923594888,1.3811348152,2.6394567,-25.33228109,7.3451375,,,
imu,278.879699,-0.1190324072,-9.7845835024,1.381732968,2.72917962,-26.10987973,7.352614410000001,,,
imu,278.888168,-0.09690075360000001,-9.805518850400002,1.3673773008,3.04320984,-26.89495528,7.569444800000001,,,
imu,278.896636,-0.080750628,-9.818080059200001,1.3619939256,3.39462461,-27.51553881,7.838613560000001,,,
imu,278.905105,-0.07596540560000001,-9.819276364800002,1.3972849408,3.71613174,-28.16602998,8.30965889,,,
imu,278.913573,-0.09630260080000001,-9.849184004800001,1.429585192,3.88810067,-28.89876716,8.21245906,,,
imu,278.922042,-0.1178361016,-9.879689797600001,1.4409500952,3.94043904,-29.6015967,8.13021305,,,
imu,278.930511,-0.161501256,-9.8886620896,1.4576983736,3.80585466,-30.00534984,7.861044290000001,,,
imu,278.938979,-0.1770532288,-9.8880639368,1.4600909848,3.40957843,-30.26704169,7.38999896,,,
imu,278.947448,-0.1609031032,-9.849184004800001,1.4523149984,2.84881018,-30.35676461,6.75446161,,,
imu,278.955917,-0.1788476872,-9.803724392000001,1.459492832,2.27308811,-30.52125663,5.98433988,,,
imu,278.964385,-0.1830347568,-9.7809945856,1.459492832,1.71231986,-30.73061011,4.795511189999999,,,
imu,278.972854,-0.1800439928,-9.761853696000001,1.4636799016,1.25622835,-30.70817938,3.76369761,,,
imu,278.981322,-0.2141387024,-9.710412555200001,1.4427445536,1.18893616,-30.85024067,2.77674549,,,
imu,278.989791,-0.2536167872,-9.6912716656,1.447529776,1.02444414,-30.82780994,1.78231646,,,
imu,278.99826,-0.2924967192,-9.710412555200001,1.4606891376,1.24127453,-30.47639517,1.2888404,,,
imu,279.006728,-0.3116376088,-9.731946056000002,1.46547436,1.39828964,-29.91562692,1.15425602,,,
imu,279.015197,-0.3415452488,-9.725366375200002,1.4553057624,1.39828964,-29.1529821,1.15425602,,,
imu,279.023666,-0.3469286240000001,-9.710412555200001,1.4762411104,1.5179202,-28.26322981,1.31127113,,,
imu,279.032134,-0.3893974728000001,-9.697253193600002,1.4917930832,1.67493531,-27.30618533,1.70007045,,,
imu,279.040586,-0.4103328208,-9.713403319200001,1.5049524448,1.70484295,-26.05754136,2.27579252,,,
imu,279.049038,-0.4103328208,-9.743310959200002,1.4876060136,1.95158098,-24.5172979,3.15059099,,,
imu,279.057491,-0.3899956256000001,-9.797144711200001,1.4995690696,2.21327283,-23.04434663,3.98800491,,,
imu,279.065943,-0.3798270280000001,-9.818678212000002,1.5031579864,2.13850373,-21.601303,4.399234959999999,,,
imu,279.074395,-0.3451341656,-9.824061587200001,1.4816244856,2.08616536,-20.22555156,4.885234110000001,,,
imu,279.082847,-0.3259932760000001,-9.805518850400002,1.4630817488,2.13850373,-19.0591536,5.214218150000001,,,
imu,279.091299,-0.323002512,-9.805518850400002,1.462483596,2.16093446,-18.0123862,5.363756349999999,,,
imu,279.099751,-0.2918985664000001,-9.802528086400002,1.4529131512,2.22822665,-17.04786481,5.09458759,,,
imu,279.108203,-0.251224176,-9.767237071200002,1.4343704144,2.31794957,-16.13568179,4.728218999999999,,,
imu,279.116655,-0.2225128416,-9.7163940832,1.4307814976,2.30299575,-15.32817551,4.39175805,,,
imu,279.125107,-0.19439966,-9.667943706400001,1.4319778032,2.17588828,-14.52814614,3.96557418,,,
imu,279.133559,-0.173464312,-9.6505972752,1.4319778032,2.32542648,-13.73559368,3.86837435,,,
imu,279.142012,-0.1507345056,-9.657775108800001,1.429585192,2.40019558,-12.97294886,3.77117452,,,
imu,279.150464,-0.1579123392,-9.682299373600001,1.4307814976,2.20579592,-12.06076584,3.48705194,,,
imu,279.158916,-0.1531271168,-9.718786694400002,1.4421464008,2.24318047,-11.18596737,3.26274464,,,
imu,279.167368,-0.1333880744,-9.7474980288,1.4451371648,2.43758013,-10.24387671,2.91132987,,,
imu,279.17582,-0.1292010048,-9.760059237600002,1.4301833448,2.60954906,-9.4139397,2.38046926,,,
imu,279.184272,-0.1214250184,-9.785779808000001,1.441548248,2.60954906,-8.73354089,1.52810152,,,
imu,279.192724,-0.09869521200000002,-9.803126239200001,1.4427445536,2.75908726,-8.0680959,0.64582614,,,
imu,279.201176,-0.07118018320000001,-9.794153947200002,1.4283888864,2.90114855,-7.544712199999999,-0.17663396,,,
imu,279.209628,-0.0592171272,-9.780396432800002,1.4253981224,2.99087147,-7.05123614,-0.8046943999999998,,,
imu,279.21808,-0.0514411408,-9.7510869456,1.4032664688,3.07311748,-6.714775189999999,-1.50004703,,,
imu,279.226533,-0.0161501256,-9.737927584000001,1.3919015656,3.2376095,-6.213822220000001,-2.09072292,,,
imu,279.234985,0.0017944584,-9.739123889600002,1.369769912,3.26751714,-5.772684529999999,-2.49447606,,,
imu,279.243447,0.0143556672,-9.730749750400001,1.3613957728,3.47687062,-5.533423409999999,-2.63653735,,,
imu,279.251909,0.023926112,-9.745703570400002,1.3554142448,3.73856247,-5.21939319,-2.77859864,,,
imu,279.260371,0.0155519728,-9.777405668800002,1.3572087032,3.88810067,-5.03994735,-2.72626027,,,
imu,279.268834,0.008972292000000002,-9.803724392000001,1.3619939256,3.99277741,-4.91283988,-2.77859864,,,
imu,279.277296,-0.0005981528000000001,-9.836622796,1.366779148,4.16474634,-4.53151747,-2.79355246,,,
imu,279.285758,-0.0023926112,-9.844996935200001,1.3769477456,4.1348387,-4.16514888,-2.83093701,,,
imu,279.294221,-0.005981528000000001,-9.8617452136,1.3763495928,4.17970016,-3.83616484,-3.02533667,,,
imu,279.302683,-0.0131593616,-9.8402117128,1.3661809952,4.08250033,-3.76887265,-3.21973633,,,
imu,279.311145,-0.023926112,-9.822267128800002,1.3625920784,4.04511578,-3.62681136,-3.39170526,,,
imu,279.319607,-0.02871133440000001,-9.803126239200001,1.3434511888,3.9105314,-3.64176518,-3.75059694,,,
imu,279.32807,-0.0382817792,-9.802528086400002,1.3452456472,3.65631646,-3.61185754,-4.06462716,,,
imu,279.336532,-0.0406743904,-9.7959484056,1.3356752024,3.31985551,-3.56699608,-4.30388828,,,
imu,279.344994,-0.0376836264,-9.794752100000002,1.342853036,3.11050203,-3.52213462,-4.408565019999999,,,
imu,279.353456,-0.0251224176,-9.802528086400002,1.342853036,2.78151799,-3.3576426,-4.363703559999999,,,
imu,278.008482,,,,,,,-124.1472348,145.7966628,139.9616664
imu,278.110044,,,,,,,-122.4626412,144.8811228,137.7643704
imu,278.211637,,,,,,,-124.4768292,145.442654,140.0959456
imu,278.3132,,,,,,,-124.9773244,145.4792756,137.739956
imu,278.414762,,,,,,,-127.0769628,146.5779236,138.655496
imu,278.516325,,,,,,,-131.8988068,147.6521572,135.1032008
imu,278.617857,,,,,,,-134.41349,148.128238,132.5152744
imu,278.719694,,,,,,,-134.6820484,148.4090036,132.5763104
imu,279.361919,-0.0107667504,-9.810304072800001,1.3596013144,2.51982614,-3.17819676,-4.13191935,,,
imu,279.370381,0.0011963056,-9.827650504000003,1.3542179392,2.25813429,-3.05108929,-3.87770441,,,
imu,279.378843,0.007775986400000001,-9.811500378400002,1.3464419528,1.83195042,-2.99875092,-3.56367419,,,
imu,279.387305,0.03289840400000001,-9.800135475200001,1.3470401056,1.7422275,-2.73705907,-3.07767504,,,
imu,279.395768,0.03289840400000001,-9.7750130576,1.3404604248,1.63755076,-2.48284413,-2.54681443,,,
imu,279.40423,0.04366515440000001,-9.7534795568,1.3326844384,1.60016621,-2.25105992,-2.11315365,,,
imu,279.412692,0.07177833600000001,-9.7283571392,1.3231139936,1.65998149,-1.95946043,-1.7766927,,,
imu,279.421155,0.07656355840000001,-9.718188541600002,1.3153380072,1.91419643,-1.86973751,-1.64210832,,,
imu,279.429617,0.08314323920000001,-9.724768222400002,1.3135435488,2.15345755,-1.89216824,-1.6271545,,,
imu,279.438079,0.09690075360000001,-9.742114653600002,1.3171324656,2.37028794,-1.94450661,-1.84398489,,,
imu,279.446899,0.1082656568,-9.7714241408,1.3117490904,2.81142563,-1.98936807,-2.00847691,,,
imu,279.455718,0.1238176296,-9.789966877600001,1.3201232296,3.10302512,-2.18376773,-2.42718387,,,
imu,279.464538,0.1100601152,-9.794752100000002,1.3243102992,3.27499405,-2.34825975,-2.86084465,,,
imu,279.473357,0.10467674,-9.803126239200001,1.3225158408,3.24508641,-2.58004396,-3.29450543,,,
imu,279.482177,0.080750628,-9.8043225448,1.333880744,3.23013259,-2.63238233,-3.71321239,,,
imu,279.490997,0.06220789120000001,-9.840809865600002,1.3446474944,3.04320984,-2.73705907,-4.06462716,,,
imu,279.499816,0.0317020984,-9.848585852000001,1.3536197864,2.92357928,-2.80435126,-4.30388828,,,
imu,279.508636,0.0011963056,-9.865932283200001,1.3452456472,2.7889949,-2.72210525,-4.52819558,,,
imu,279.517455,-0.0221316536,-9.861147060800002,1.366779148,2.5646876,-2.71462834,-4.82727198,,,
imu,279.526275,-0.05084298800000001,-9.8778953392,1.363788384,2.07868845,-2.59499778,-5.16373293,,,
imu,279.535094,-0.08015247520000002,-9.8719138112,1.3386659664,1.72727368,-2.40807503,-5.47028624,,,
imu,279.543914,-0.1070693512,-9.8294449624,1.3177306184,1.54782784,-2.22862919,-5.8142241,,,
imu,279.552734,-0.1184342544,-9.8013317808,1.2997860344,1.4431511,-1.99684498,-5.829177919999999,,,
imu,279.561553,-0.1501363528,-9.802528086400002,1.2938045064,1.32352054,-1.77253768,-5.46280933,,,
imu,279.570373,-0.1567160336,-9.801929933600002,1.277056228,1.45810492,-1.16690797,-4.625395409999999,,,
imu,279.579192,-0.1519308112,-9.789368724800001,1.2656913248,1.39081273,-0.6285704500000002,-3.93751969,,,
imu,279.588012,-0.1399677552,-9.7576666264,1.2842340616,1.42819728,-0.1799558500000003,-3.47395127,,,
imu,279.596832,-0.122621324,-9.711010708000002,1.2758599224,1.60016621,0.3284740299999998,-3.01785976,,,
imu,279.605651,-0.09749890640000002,-9.7295534448,1.2573171856,1.58521239,0.7995193599999997,-2.64401426,,,
imu,279.614471,-0.0562263632,-9.745105417600001,1.2507375048,1.60764312,1.03878048,-2.5243837,,,
imu,279.62329,-0.0514411408,-9.725964528,1.2603079496,1.53287402,1.08364194,-2.71130645,,,
imu,279.63211,-0.0550300576,-9.7074217912,1.2794488392,1.56278166,1.19579559,-2.85336774,,,
imu,279.640929,-0.04366515440000001,-9.740918348000001,1.2728691584,1.78708896,1.48739508,-3.06272122,,,
imu,279.649406,-0.0251224176,-9.770825988000002,1.2752617696,1.87681188,1.6518871,-3.11505959,,,
imu,279.657882,0.0017944584,-9.770825988000002,1.274065464,1.92167334,1.68927165,-3.18235178,,,
imu,279.666358,0.004785222400000001,-9.7606573904,1.2644950192,1.8917657,1.8761944,-3.18235178,,,
imu,279.674834,0.0065796808,-9.769629682400002,1.2603079496,1.84690424,1.93600968,-3.18235178,,,
imu,279.683311,0.007775986400000001,-9.785779808000001,1.2507375048,1.80204278,1.9509635,-3.10758268,,,
imu,279.691787,0.02990764000000001,-9.8049206976,1.2417652128,1.89924261,2.08554788,-3.26459779,,,
imu,279.700263,0.0197390424,-9.827650504000003,1.2459522824,2.03382699,2.16779389,-3.31693616,,,
imu,279.70874,0.03110394560000001,-9.858754449600001,1.2429615184,1.92915025,2.04816333,-3.66087402,,,
imu,279.717216,0.0442633072,-9.8629415192,1.24116706,2.03382699,2.0257326,-4.00481188,,,
imu,279.725692,0.0466559184,-9.867128588800002,1.220231712,2.1908421,1.9509635,-4.453426479999999,,,
imu,279.734168,0.02990764000000001,-9.863539672000002,1.2148483368,2.30299575,1.64441019,-4.80484125,,,
imu,279.742645,0.03648732080000001,-9.8629415192,1.2040815864,2.37028794,1.29299542,-4.909517989999999,,,
imu,279.751121,0.03648732080000001,-9.8497821576,1.2034834336,2.20579592,1.17336486,-5.021671639999999,,,
imu,279.759597,0.0173464312,-9.8270523512,1.2124557256,2.15345755,0.8518577299999999,-5.044102369999999,,,
imu,279.768073,0.009570444800000001,-9.815687448000002,1.1986982112,1.98896553,0.5752120599999997,-5.05157928,,,
imu,279.776492,-0.009570444800000001,-9.802528086400002,1.1915203776,1.83195042,0.2312741999999997,-4.96185636,,,
imu,279.784968,-0.03887993200000001,-9.803126239200001,1.1861370024,1.91419643,0.02192071999999978,-4.75250288,,,
imu,279.793444,-0.04964668240000001,-9.793555794400001,1.1879314608,1.82447351,-0.2023865800000002,-4.53567249,,,
imu,279.801921,-0.08314323920000001,-9.777405668800002,1.1747720992,1.65998149,-0.2472480400000001,-4.28893446,,,
imu,279.810397,-0.09151737840000002,-9.785181655200002,1.2046797392,1.63755076,-0.2397711300000003,-3.98985806,,,
imu,279.818873,-0.1058730456,-9.807313308800001,1.2070723504,1.52539711,-0.0005100100000001717,-3.71321239,,,
imu,279.827349,-0.1118545736,-9.820472670400001,1.1969037528,1.49548947,0.2387511099999999,-3.60105874,,,
imu,279.835826,-0.1172379488,-9.809107767200002,1.202287128,1.28613599,0.3209971199999999,-3.60853565,,,
imu,279.844302,-0.1028822816,-9.806715156000001,1.2130538784,1.22632071,0.4929660499999997,-3.56367419,,,
imu,279.852766,-0.09749890640000002,-9.815089295200002,1.1951092944,1.40576655,0.8294269999999999,-3.45899745,,,
imu,279.861229,-0.09091922560000001,-9.8228652816,1.2118575728,1.19641307,1.09859576,-3.18982869,,,
imu,279.869693,-0.0903210728,-9.830641268,1.2148483368,0.94967504,1.36776452,-3.11505959,,,
imu,279.878156,-0.08374139200000001,-9.824659740000001,1.2016889752,0.82256757,1.68927165,-3.26459779,,,
imu,279.88662,-0.07118018320000001,-9.827650504000003,1.214250184,0.80761375,1.66684092,-3.39170526,,,
imu,279.895083,-0.05562821040000001,-9.843800629600002,1.2160446424,0.68798319,1.67431783,-3.69078166,,,
imu,279.903547,-0.05562821040000001,-9.848585852000001,1.217240948,0.65059864,1.61450255,-3.91508896,,,
imu,279.91201,-0.05084298800000001,-9.8527729216,1.2124557256,0.47862971,1.59954873,-4.034719519999999,,,
imu,279.920474,-0.04545961280000001,-9.839015407200002,1.2094649616,0.18703022,1.49487199,-4.30388828,,,
imu,279.928937,-0.0532355992,-9.810902225600001,1.2274095456,0.20946095,1.39767216,-4.19173463,,,
imu,279.937401,-0.0352910152,-9.7750130576,1.2459522824,0.15712258,1.2032725,-4.13939626,,,
imu,279.945864,-0.03289840400000001,-9.737329431200001,1.265093172,0.12721494,1.09111885,-4.034719519999999,,,
imu,279.954328,-0.0442633072,-9.803126239200001,1.2190354064,0.41133752,1.13598031,-3.81041222,,,
imu,279.962792,-0.0550300576,-9.832435726400002,1.1705850296,0.3216146,1.06868812,-3.66087402,,,
imu,279.971255,-0.05742266880000001,-9.7995373224,1.2004926696,0.42629134,1.15841104,-3.43656672,,,
imu,279.979719,-0.06160973840000001,-9.7337405144,1.2459522824,0.4711528,1.15093413,-3.31693616,,,
imu,278.821104,,,,,,,-133.8153372,148.067202,132.7472112
imu,278.922606,,,,,,,-132.521374,147.456842,134.2242824
imu,279.024412,,,,,,,-128.5418268,146.7976532,134.6515344
imu,279.125669,,,,,,,-129.652682,147.2493196,136.6901368
imu,279.227262,,,,,,,-126.417774,146.2483292,134.8468496
imu,279.328825,,,,,,,-128.2610612,147.2981484,137.9963072
imu,279.430357,,,,,,,-128.2732684,146.7488244,135.3229304
imu,279.532072,,,,,,,-127.7483588,146.5657164,138.2770728
imu,279.633398,,,,,,,-127.6873228,146.602338,139.1681984
imu,279.734961,,,,,,,-127.5896652,146.0041852,138.7043248
imu,279.836523,,,,,,,-126.8206116,145.9065276,138.1550008
imu,279.938055,,,,,,,-126.9426836,145.8454916,138.5456312
