Type,Timestamp,Data Accelerometer X,Data Accelerometer Y,Data Accelerometer Z,Data Gyroscope X,Data Gyroscope Y,Data Gyroscope Z,Data Magnetometer X,Data Magnetometer Y,Data Magnetometer Z
imu,368.695592,1.0090837736,-10.1763735864,1.193314836,2.66936434,32.20254136,-10.61440032,,,
imu,368.704105,1.01685976,-10.1781680448,1.1598182792,1.15902852,29.15196208,-12.07987468,,,
imu,368.712527,1.0007096344,-10.1333065848,1.1191438888,-0.33635348,26.06399825,-13.15654972,,,
imu,368.720948,0.9217534648000001,-10.0687060824,1.0874417904,-1.57752054,22.96855751,-13.79956398,,,
imu,368.72937,0.8110951968000001,-9.9430939944,1.034804344,-2.72896468,20.41145429,-14.08368656,,,
imu,368.737792,0.7082129152000001,-9.853371074400002,0.9791761336000001,-3.34954821,18.31791949,-14.16593257,,,
imu,368.746213,0.6149010784000001,-9.809107767200002,0.9175663952000002,-3.43927113,16.62066092,-13.79208707,,,
imu,368.754635,0.5341504504000001,-9.709216249600003,0.9062014920000001,-3.40188658,15.05050982,-13.22384191,,,
imu,368.763056,0.4264829464000001,-9.609324732000001,0.9229497704,-2.87102597,14.14580371,-12.43128945,,,
imu,368.771478,0.3433397072,-9.595567217600001,0.9708019944000001,-1.91398149,13.36820507,-11.69855227,,,
imu,368.779899,0.2691687600000001,-9.631456385600002,0.9678112304000002,-0.91955246,13.04669794,-10.89104599,,,
imu,368.788321,0.2308869808,-9.627269316000001,0.9905410368000002,-0.21672292,12.79995991,-10.11344735,,,
imu,368.796743,0.2165313136,-9.644615747200001,1.0354024968,0.63564482,12.83734446,-9.41061781,,,
imu,368.805164,0.1955959656,-9.6912716656,1.0898344016,1.21136689,12.73266772,-8.92461866,,,
imu,368.813586,0.1842310624,-9.680504915200002,1.1071808328,1.62259694,12.68780626,-8.27412749,,,
imu,368.822007,0.2171294664,-9.743310959200002,1.1801554744,1.79456587,12.85229828,-7.317083009999999,,,
imu,368.830429,0.2398592728,-9.7845835024,1.1837443912,1.60764312,12.82986755,-6.42733072,,,
imu,368.83885,0.2470371064,-9.7570684736,1.142471848,1.30108981,12.42611441,-5.74693191,,,
imu,368.847272,0.2697669128,-9.728955292000002,1.1388829312,0.83004448,11.93263835,-5.38804023,,,
imu,368.855694,0.3152265256,-9.7702278352,1.1382847784,0.71789083,11.41673156,-5.00671782,,,
imu,368.864115,0.3325729568,-9.8210708232,1.127518028,0.68798319,10.66904056,-4.55810322,,,
imu,368.872537,0.3463304712,-9.863539672000002,1.115554972,0.53096808,9.63722698,-4.29641137,,,
imu,368.880958,0.3116376088,-9.9000269928,1.1203401944,0.41881443,8.9044898,-4.19921154,,,
imu,368.88938,0.2805336632,-9.9239531048,1.082656568,0.41133752,8.47830593,-3.7206893,,,
imu,368.897802,0.2649816904,-9.939505077600002,1.058730456,0.41133752,8.19418335,-3.03281358,,,
imu,368.906223,0.2775428992,-9.9448884528,1.0389914136,0.52349117,8.08950661,-2.50942988,,,
imu,368.915033,0.3547046104000001,-9.962234884,1.0419821776,0.50853735,7.99230678,-2.16549202,,,
imu,368.923844,0.5138132552000001,-9.9628330368,1.0342061912,0.34404533,7.65584583,-1.97856927,,,
imu,368.932654,0.6448087184,-9.9269438688,1.0144671488,0.007584380000000002,6.444586409999999,-1.85893871,,,
imu,368.941464,0.7010350816000002,-9.903615909600001,1.019850524,-0.24663056,4.51554363,-2.32250713,,,
imu,368.950275,0.7040258456,-9.929336480000002,1.0162616072,-0.38869185,2.33976282,-3.08515195,,,
imu,368.959085,0.6980443176000002,-9.9167752712,1.0204486768,-0.62047606,0.2237972899999998,-3.25712088,,,
imu,368.967895,0.7752060288000001,-9.911391896000003,1.0419821776,-1.03170611,-1.83982987,-3.17487487,,,
imu,368.976705,0.9235479232000001,-9.9066066736,1.082656568,-1.42050543,-4.05299523,-3.24216706,,,
imu,368.985516,1.0970122352,-9.869521200000003,1.0730861232,-1.96631986,-6.998897769999999,-3.21225942,,,
imu,368.994326,1.1777628632,-9.802528086400002,1.1017974576,-2.49718047,-10.93922934,-3.13001341,,,
imu,369.003136,1.2603079496,-9.785181655200002,1.1293124864,-2.76634923,-15.20106804,-2.99542903,,,
imu,369.011947,1.3135435488,-9.764246307200002,1.1221346528,-2.94579507,-19.79189078,-2.85336774,,,
imu,369.020757,1.3392641192,-9.751685098400001,1.13649032,-3.20001001,-24.93600486,-2.69635263,,,
imu,369.029567,1.4337722616,-9.785779808000001,1.1831462384,-3.05794872,-30.0502113,-2.08324601,,,
imu,369.038377,1.7214837584,-9.777405668800002,1.1478552232,-2.94579507,-35.50087869,-1.1037708,,,
imu,369.047188,2.0743939104,-9.758862932000001,1.1598182792,-3.08037945,-42.10299022,-0.11681868,,,
imu,369.055998,2.450632021600001,-9.758264779200001,1.1568275152,-3.30468675,-50.67900599,0.6533030499999999,,,
imu,369.064808,2.730567532,-9.762451848800001,1.0330098856,-3.46917877,-60.72049612,1.13182529,,,
imu,369.073619,2.7562881024,-9.796546558400001,0.9684093832000001,-3.52899405,-72.41438335999999,1.89447011,,,
imu,369.082429,2.6169185,-9.796546558400001,0.9223516176000001,-3.64862461,-84.1082706,3.32255992,,,
imu,369.091239,2.413546548,-9.7301515976,0.8924439776000002,-3.34954821,-94.74043662,5.85723241,,,
imu,369.10005,2.13839626,-9.743909112,0.9373054376000002,-2.8186876,-104.15386631,8.97510388,,,
imu,369.10886,1.8548718328,-9.7325442088,0.8786864632000002,-2.39998064,-112.071914,12.6537436,,,
imu,369.117332,1.4648762072,-9.7845835024,0.9325202152000002,-1.92893531,-118.93571738,16.33238332,,,
imu,369.125805,0.9917373424000001,-9.9030177568,1.0054948568,-1.74201256,-124.13216983,19.65960827,,,
imu,369.134277,0.6005454112,-9.9747960928,0.9995133288000001,-2.05604278,-127.60893298,22.16437312,,,
imu,369.14275,0.2135405496,-9.945486605600001,0.9875502728000001,-2.75139541,-129.33609919,23.47283237,,,
imu,369.151222,-0.1034804344,-9.891054700800002,0.9995133288000001,-3.28973293,-129.47068357,23.97378534,,,
imu,369.159694,-0.3098431504,-9.8593526024,0.9941299536000001,-4.05985466,-128.30428561,23.44292473,,,
imu,369.168167,-0.4641665728000001,-9.779798280000001,0.9582407856000001,-4.62062291,-126.11355098,22.3737266,,,
imu,369.176639,-0.6053306336000001,-9.725366375200002,0.9534555632000001,-4.986991499999999,-123.24989445,21.11012881,,,
imu,369.185112,-0.7913561544000001,-9.743909112,0.9953262592000002,-4.90474549,-119.46657799,19.52502389,,,
imu,369.193584,-0.9654186192,-9.7636481544,1.0449729416,-4.71782274,-114.71126323,17.87262678,,,
imu,369.202057,-1.1317050976,-9.7576666264,1.1346958616,-4.18696213,-108.87927343,16.4669677,,,
imu,369.210529,-1.2315966152,-9.782789044000001,1.208268656,-3.68600916,-102.0528546,15.58469232,,,
imu,369.219002,-1.2519338104,-9.786377960800001,1.2573171856,-2.98317962,-94.36659112,15.76413816,,,
imu,369.227474,-1.2034834336,-9.723571916800001,1.3267029104,-2.50465738,-86.70275837,15.87629181,,,
imu,369.235946,-1.223222476,-9.728955292000002,1.3739569816,-1.89155076,-78.95667961,15.4202003,,,
imu,369.244419,-1.217240948,-9.787574266400002,1.4098461496,-1.1737674,-71.13583175,14.63512475,,,
imu,369.252891,-1.2555227272,-9.803126239200001,1.4319778032,-0.40364567,-63.63649102,14.08931032,,,
imu,369.261364,-1.2244187816,-9.8982325344,1.5575898912,0.20946095,-56.02499664,13.26685022,,,
imu,369.269836,-1.2070723504,-9.939505077600002,1.6156107128,0.46367589,-48.42845608,11.84623732,,,
imu,369.278309,-1.0862454848,-9.9688145648,1.6604721728,0.09730729999999999,-41.1160381,9.453626120000001,,,
imu,369.286781,-0.9977188704000002,-9.942495841600001,1.6694444648,-0.60552224,-34.1625118,7.008676550000001,,,
imu,369.295254,-0.8601437264,-9.934719855200001,1.6514998808,-1.45788998,-27.64264628,4.75812664,,,
imu,369.303726,-0.6789034280000001,-9.9365143136,1.6126199488,-2.65419558,-21.68354901,2.43280763,,,
imu,369.312198,-0.5102243384,-9.889260242400002,1.5874975312,-3.73834753,-16.24035853,0.6308723199999999,,,
imu,369.320666,-0.3391526376000001,-9.8563618384,1.6012550456,-4.41126943,-11.27569029,-0.8121713099999999,,,
imu,369.329133,-0.182436604,-9.803724392000001,1.6138162544,-4.613146,-6.886744119999999,-1.93370781,,,
imu,369.337601,0.002990764,-9.765442612800001,1.6491072696,-4.6879151,-3.06604311,-2.65896808,,,
imu,369.346068,0.1902125904,-9.715795930400002,1.6855945904,-4.583238359999999,0.1490281899999997,-3.35432071,,,
imu,369.354535,0.3373581792000001,-9.669140012000002,1.728661592,-4.47108471,2.83323888,-3.78798149,,,
imu,369.363003,0.4151180432000001,-9.671532623200001,1.7968510112,-4.12714685,4.9417275,-3.82536604,,,
imu,369.371549,0.3977716120000001,-9.690673512800002,1.8381235544,-3.82059354,6.728708989999999,-3.31693616,,,
imu,369.380016,0.4199032656,-9.633848996800001,1.8369272488,-3.78320899,8.485782839999999,-2.96552139,,,
imu,369.388484,0.4366515440000001,-9.530368562400001,1.8411143184,-3.5663786,10.1755645,-2.86832156,,,
imu,369.396951,0.4683536424000001,-9.464571754400001,1.8189826648,-3.18505619,12.03731509,-2.65149117,,,
imu,369.405418,0.6412198016000001,-9.533359326400001,1.7627563016,-2.33268845,14.05608079,-2.0757691,,,
imu,369.413886,0.9289312984000001,-9.6499991224,1.7549803152,-1.83921239,15.43183223,-2.06081528,,,
imu,369.422353,1.2309984624,-9.6745233872,1.752587704,-1.57752054,15.52903206,-3.39170526,,,
imu,369.43082,1.4971764584,-9.678112304,1.758569232,-1.27096723,14.16823444,-6.08339286,,,
imu,369.439288,1.6407331304,-9.676915998400002,1.7567747736,-0.93450628,11.91020762,-9.23864888,,,
imu,369.447755,1.7196893,-9.6775141512,1.7567747736,-0.45598404,9.1287971,-11.84061356,,,
imu,369.456222,1.7609618432,-9.668541859200001,1.7908694832,-0.19429219,6.063264,-13.79956398,,,
imu,369.46469,1.7962528584,-9.687084596000002,1.8608533608,-0.02980017,3.1472691,-15.56411474,,,
imu,369.473157,1.7896731776,-9.787574266400002,1.8895646952,0.09730729999999999,0.1714589200000001,-16.89500472,,,
imu,369.481624,1.7412228008,-9.7959484056,1.8656385832,-0.17933837,-2.84173581,-17.56792662,,,
imu,369.490092,1.6383405192,-9.7427128064,1.8614515136,-0.81487572,-5.93717655,-17.69503409,,,
imu,369.498559,1.5061487504,-9.6912716656,1.8584607496,-1.29339796,-8.70363325,-17.38848078,,,
imu,369.507027,1.3296936744,-9.639232372,1.8608533608,-1.4728438,-10.97661389,-16.96229691,,,
imu,369.515494,1.0994048464,-9.614109954400002,1.8536755272,-1.41302852,-13.01033341,-16.2818981,,,
imu,369.523957,0.8954347416000001,-9.591978300800001,1.857264444,-1.26349032,-14.53562305,-15.88562187,,,
imu,369.532421,0.6113121616,-9.5638651192,1.8578625968,-0.90459864,-15.32817551,-15.78094513,,,
imu,369.540885,0.2978800944000001,-9.553696521600001,1.9009295984,-0.5980453299999999,-15.55248281,-15.54916092,,,
imu,369.549348,0.0221316536,-9.616502565600001,1.9607448784,0.11973803,-14.60291524,-15.06316177,,,
imu,369.557812,-0.1531271168,-9.666149248000002,1.9667264064,0.41133752,-12.74116465,-14.66688554,,,
imu,369.566275,-0.218325772,-9.721179305600002,1.9834746848,0.44872207,-10.79716805,-14.64445481,,,
imu,369.574739,-0.1997830352,-9.680504915200002,1.9487818224,0.21693786,-8.80083308,-14.7865161,,,
imu,369.583202,-0.1788476872,-9.662560331200002,1.9577541144,0.10478421,-7.088620690000001,-14.67436245,,,
imu,369.591666,-0.2476352592,-9.710412555200001,1.985867296,0.03001510999999998,-5.89231509,-14.6369779,,,
imu,369.600129,-0.370854736,-9.769629682400002,1.9643337952,-0.03727708,-4.86050151,-15.0108234,,,
imu,369.608593,-0.5162058664000001,-9.7714241408,1.9176778768,-0.30644584,-3.51465771,-15.81832968,,,
imu,369.617056,-0.6154992312,-9.7403201952,1.9134908072,-0.5756146,-1.70524549,-16.10245226,,,
imu,369.62552,-0.5849934384000001,-9.724170069600001,1.935024308,-0.69524516,0.52287369,-15.58654547,,,
imu,369.633983,-0.5036446576000001,-9.6846919848,1.8985369872,-0.6503837,2.88557725,-14.8612852,,,
imu,368.6952,,,,,,,-117.445482,143.3430156,143.0256736
imu,368.796701,,,,,,,-118.8248956,143.123286,142.7937368
imu,368.898355,,,,,,,-119.642778,143.184322,142.1833768
imu,368.999857,,,,,,,-120.3385884,143.733646,142.8547728
imu,369.642447,-0.2883096496000001,-9.620689635200002,1.8937517648,-0.77749117,4.694989469999999,-14.13602493,,,
imu,369.650911,-0.05981528000000001,-9.6009505928,1.8955462232,-0.80739881,5.659510859999999,-13.2911341,,,
imu,369.659374,0.07656355840000001,-9.6224840936,1.8823868616,-0.17933837,5.69689541,-12.79765804,,,
imu,369.667838,0.1118545736,-9.6284656216,1.8979388344,0.46367589,4.93425059,-12.79018113,,,
imu,369.676301,0.1088638096,-9.595567217600001,1.8955462232,0.9571519499999999,3.820191,-13.19393427,,,
imu,369.684765,0.0592171272,-9.627269316000001,1.9583522672,1.70484295,2.86314652,-13.5154414,,,
imu,369.693228,-0.0233279592,-9.7301515976,2.0085971024,2.00391935,2.34723973,-13.80704089,,,
imu,369.701692,-0.143556672,-9.809107767200002,2.0163730888,1.6674584,2.24256299,-13.43319539,,,
imu,369.710155,-0.131593616,-9.849184004800001,2.030728756,1.22632071,2.36219355,-12.70045821,,,
imu,369.718619,-0.007177833600000002,-9.879689797600001,2.0229527696,0.12721494,2.33228591,-12.35652035,,,
imu,369.727086,0.1082656568,-9.832435726400002,1.9637356424,-0.88964482,1.90610204,-12.08735159,,,
imu,369.735554,0.230288828,-9.7911631832,1.949978128,-1.65976655,0.9041961000000001,-11.4966757,,,
imu,369.744021,0.3882011672000001,-9.6499991224,1.8997332928,-1.9214584,-0.8154932000000001,-10.49476976,,,
imu,369.752488,0.4773259344000001,-9.571042952800001,1.8548718328,-1.93641222,-3.26791968,-10.04615516,,,
imu,369.760956,0.5443190480000001,-9.573435564,1.7872805664,-1.6971511,-6.55776008,-10.19569336,,,
imu,369.769423,0.4868963792000001,-9.514218436800002,1.7681396768,-1.20367504,-9.997138679999999,-10.21064718,,,
imu,369.77789,0.3564990688,-9.467562518400001,1.7836916496,-0.5681376899999999,-13.6757784,-10.05363207,,,
imu,369.786358,0.1692772424,-9.446627170400001,1.773523052,0.20946095,-16.67401931,-9.60501747,,,
imu,369.794825,-0.0675912664,-9.470553282400001,1.7717285936,1.06182869,-18.9843845,-8.96948012,,,
imu,369.803292,-0.3008708584000001,-9.557883591200001,1.7992436224,1.97401171,-20.74145835,-8.07225092,,,
imu,369.81176,-0.5317578392000001,-9.591380148,1.7789064272,2.37028794,-21.58634918,-7.212406269999999,,,
imu,369.820227,-0.708811068,-9.642223136000002,1.8285531096,2.79647181,-21.71345665,-6.21050033,,,
imu,369.828695,-0.8493769760000001,-9.657775108800001,1.8321420264,2.78151799,-21.3769957,-5.05157928,,,
imu,369.837162,-0.9971207176000002,-9.684093832000002,1.8219734288,2.95348692,-20.51715105,-3.95247351,,,
imu,369.845629,-1.085647332,-9.704431027200002,1.8082159144,3.17031731,-19.2086918,-3.07019813,,,
imu,369.854097,-1.169388724,-9.6984494992,1.7807008856,3.14788658,-17.80303272,-2.51690679,,,
imu,369.862564,-1.2405689072,-9.742114653600002,1.7830934968,3.20770186,-16.09082033,-2.001,,,
imu,369.871031,-1.28602852,-9.806715156000001,1.7890750248,3.3123786,-14.01971626,-1.35050883,,,
imu,369.879499,-1.3123472432,-9.8162856008,1.7591673848,3.43948607,-11.67944343,-0.76730985,,,
imu,369.887966,-1.3751532872,-9.828248656800001,1.752587704,3.42453225,-9.12981712,-0.2289723299999999,,,
imu,369.896433,-1.3458438,-9.810304072800001,1.770532288,3.3123786,-6.348406600000001,0.5336724899999998,,,
imu,369.904901,-1.2632987136,-9.807313308800001,1.7741212048,3.20770186,-3.44736552,1.26640967,,,
imu,369.913368,-1.1897259192,-9.832435726400002,1.752587704,3.26004023,-0.6510011800000002,1.81970101,,,
imu,369.921835,-1.0712916648,-9.827650504000003,1.7388301896,3.17031731,1.8761944,1.93185466,,,
imu,369.930654,-1.0240375936,-9.821668976000002,1.7149040776,3.05816366,3.96225229,1.55053225,,,
imu,369.939472,-1.004896704,-9.807313308800001,1.716698536,2.47496468,6.010925629999999,0.7355490599999999,,,
imu,369.94829,-1.0240375936,-9.802528086400002,1.7424191064,2.07121154,7.954922229999999,-0.08691103999999994,,,
imu,369.957108,-1.0282246632,-9.8432024768,1.7484006344,1.71231986,10.07088776,-1.16358608,,,
imu,369.965927,-1.007887468,-9.882680561600003,1.740624648,0.9646288599999999,12.40368368,-2.56176825,,,
imu,369.974745,-0.8565548096000002,-9.938308772000001,1.7597655376,0.10478421,14.63927977,-3.75807385,,,
imu,369.983563,-0.6543791632000001,-9.9365143136,1.7460080232,-0.8672140899999999,16.54589182,-5.044102369999999,,,
imu,369.992381,-0.5251781584,-9.921560493600001,1.7352412728,-2.01118132,17.64499759,-6.65163802,,,
imu,370.0012,-0.5072335744,-9.941299536000002,1.7777101216,-3.28973293,18.21324275,-8.13954311,,,
imu,370.010018,-0.6376308848000001,-9.9933388296,1.7908694832,-4.134623759999999,18.84130319,-8.984433939999999,,,
imu,370.018836,-0.8194693360000002,-10.0154704832,1.8141974424,-5.00194532,20.01517806,-9.59754056,,,
imu,370.027654,-1.0467674,-10.0017129688,1.8435069296,-6.01132817,22.10123595,-9.747078759999999,,,
imu,370.036473,-1.363788384,-9.977786856800002,1.866236736,-6.57957333,25.19667669,-9.35827944,,,
imu,370.045291,-1.6975576464,-9.900625145600001,1.8165900536,-7.402033429999999,29.37626938,-9.03677231,,,
imu,370.054109,-1.98885806,-9.766040765600001,1.7501950928,-7.9029864,35.08862861999999,-9.03677231,,,
imu,370.062928,-2.1850521784,-9.6428212888,1.7262689808,-7.708586739999999,41.90009362999999,-9.507817639999999,,,
imu,370.071746,-2.353731268,-9.562070660800002,1.695763188,-6.84126518,49.75832604,-10.03867825,,,
imu,370.080564,-2.4931008704,-9.474142199200001,1.6694444648,-5.72720559,57.75114283,-11.16021475,,,
imu,370.089382,-2.5935905408,-9.358100556000002,1.6138162544,-4.441177069999999,66.28229714,-13.65002578,,,
imu,370.098201,-2.689893141600001,-9.372456223200002,1.6610703256,-2.58690339,75.42655807,-16.54358995,,,
imu,370.107019,-2.9004429272,-9.523190728800001,1.6610703256,-1.03170611,85.13906416,-19.17546227,,,
imu,370.115837,-3.0260550152,-9.594370912,1.5240933344,0.50853735,95.88338383,-21.13441269,,,
imu,370.124655,-2.975810180000001,-9.6954587352,1.4541094568,1.83195042,107.87634747,-22.54007177,,,
imu,370.133184,-2.8448147168,-9.687084596000002,1.324908452,2.60954906,119.97398785,-23.74385428,,,
imu,370.141712,-2.6982672808,-9.672130776000001,1.2076705032,3.26751714,131.6005829,-24.61865275,,,
imu,370.15024,-2.4566135496,-9.666149248000002,1.0730861232,3.95539286,142.46453313,-25.58317414,,,
imu,370.158769,-2.1258350512,-9.709814402400001,1.0114763848,4.57597639,152.07983939,-26.95892558,,,
imu,370.167297,-1.8070196088,-9.8079114616,0.9719983000000001,5.12179082,160.48388623,-28.45430758,,,
imu,370.175826,-1.441548248,-9.926345716,0.9654186192,5.24142138,167.25048978,-29.63565936,,,
imu,370.184354,-1.0354024968,-10.0806691384,0.9749890640000002,4.76289914,172.36469622,-30.77214968,,,
imu,370.192882,-0.7153907488000001,-10.0866506664,0.9091922560000001,3.58154736,175.8638901,-31.51984068,,,
imu,370.201411,-0.4234921824,-9.997525899200001,0.8302360864000001,2.19831901,177.84527125,-32.03574747,,,
imu,370.209939,-0.2237091472,-9.983170232,0.8128896552000001,0.7253677399999999,178.51071624,-32.2824855,,,
imu,370.218468,-0.06519865520000001,-9.874306422400002,0.723764888,-0.64290679,178.45090096,-31.90864,,,
imu,370.226996,0.092713684,-9.810304072800001,0.7076147624000001,-1.74201256,177.47142575,-31.34039484,,,
imu,370.235524,0.1363788384,-9.7995373224,0.7141944432000001,-2.16819643,175.8638901,-30.95907243,,,
imu,370.244053,0.2177276192,-9.768433376800001,0.6872775672000001,-2.33268845,174.08438552,-31.13104136,,,
imu,370.252581,0.4091365152000001,-9.943692147200002,0.8194693360000002,-2.1457657,172.37217313,-30.99645698,,,
imu,370.26111,0.6238733704,-10.147662252,0.9450814240000001,-2.39998064,169.97208502,-30.06184323,,,
imu,370.269638,0.8535640456000001,-10.177569892,0.9911391896000001,-3.25982529,166.45046041,-29.00012201,,,
imu,370.278166,1.0204486768,-10.1374936544,1.0455710944,-4.32902342,161.59794582,-28.22252337,,,
imu,370.286695,1.097610388,-9.980179468000001,1.0545433864,-5.21877571,155.86315585,-27.99821607,,,
imu,370.295223,1.148453376,-9.742114653600002,1.0216449824,-5.532805929999999,149.57507454,-27.65427821,,,
imu,370.303751,1.1986982112,-9.527975951200002,0.9845595088000001,-5.23372953,143.10754739,-27.00378704,,,
imu,370.31228,1.235185532,-9.4280844336,1.0072893152,-4.1645314,136.40823603,-26.12898857,,,
imu,370.320808,1.2543264216,-9.452010545600002,1.070693512,-2.47474974,129.60424793,-25.32148229,,,
imu,370.329337,1.2513356576,-9.605735815200001,1.2399707544,-0.97189083,122.75539837,-24.90277533,,,
imu,370.337779,1.2375781432,-9.8330338792,1.4044627744,0.08983038999999998,116.10094847,-24.19994579,,,
imu,370.346221,1.2585134912,-9.9305327856,1.5037561392,0.55339881,109.78295952,-22.8615789,,,
imu,370.354662,1.2866266728,-9.904214062400001,1.5456268352,0.18703022,103.07617125,-21.76995004,,,
imu,370.363104,1.2764580752,-9.752283251200002,1.582114156,-0.25410747,96.16002950000001,-20.8428132,,,
imu,370.371546,1.2184372536,-9.693066124000001,1.5863012256,-0.07466163,88.98219590000001,-20.13998366,,,
imu,370.379988,1.079665804,-9.638634219200002,1.5240933344,0.27675314,82.11839252,-20.10259911,,,
imu,370.38843,0.9301276040000002,-9.5776226336,1.489400472,0.7552753799999999,75.75554211000001,-19.60164614,,,
imu,370.396872,0.8236564056000001,-9.5184055064,1.5240933344,1.62259694,69.97589068,-18.06140268,,,
imu,370.405314,0.8206656416,-9.540537160000001,1.6006568928,2.7889949,64.94393025,-16.76789725,,,
imu,370.413756,0.8374139200000001,-9.661962178400001,1.6855945904,4.16474634,59.94935436999999,-16.34171338,,,
imu,370.422198,0.8278434752000001,-9.746899876,1.70473548,5.23394447,54.82767102,-16.09497535,,,
imu,370.43064,0.7817857096,-9.745105417600001,1.7448117176,5.75732817,49.36204980999999,-15.30242289,,,
imu,370.439082,0.6998387760000001,-9.696655040800001,1.7591673848,6.39286552,44.14316663,-14.01639437,,,
imu,370.447524,0.5640580904000001,-9.6775141512,1.7567747736,6.93867995,39.29812895,-12.81261186,,,
imu,370.455966,0.424688488,-9.638036066400002,1.7041373272,7.29757163,34.90918278,-11.8705212,,,
imu,369.101466,,,,,,,-116.6275996,143.5017092,140.7551344
imu,369.203028,,,,,,,-112.2940436,144.0266188,142.9768448
imu,369.30453,,,,,,,-103.2485084,143.8068892,138.1916224
imu,369.406123,,,,,,,-103.1996796,145.0520236,139.4611712
imu,369.507655,,,,,,,-103.3583732,144.9421588,139.2902704
imu,369.609492,,,,,,,-103.3095444,146.3459868,138.777568
imu,369.710871,,,,,,,-102.3451756,147.090626,138.4357664
imu,369.812434,,,,,,,-102.4794548,147.7986436,137.7521632
imu,370.464474,0.3218062064,-9.652989886400002,1.710717008,7.75366314,31.28288143,-10.83870762,,,
imu,370.472916,0.2673743016,-9.727758986400001,1.752587704,8.03030881,28.17996378,-9.73212494,,,
imu,370.481358,0.2278962168,-9.734936820000001,1.7250726752,8.0228319,25.17424596,-8.73769591,,,
imu,370.4898,0.1836329096,-9.6775141512,1.7083243968,8.105077909999999,22.40031235,-7.6086825,,,
imu,370.498242,0.1357806856,-9.6296619272,1.73464312,8.583600149999999,19.63385565,-6.61425347,,,
imu,370.506684,0.1052748928,-9.600352440000002,1.7543821624,9.151845309999999,17.06179861,-5.68711663,,,
imu,370.515126,0.07716171120000001,-9.658373261600001,1.7268671336,9.77242884,14.72900269,-5.01419473,,,
imu,370.523568,0.08254508640000002,-9.779200127200001,1.7621581488,10.27338181,12.044792,-4.58053395,,,
imu,370.53201,0.0903210728,-9.845595088000001,1.8046269976,10.31076636,9.62975007,-4.146873169999999,,,
imu,370.54048,0.0861340032,-9.866530436000001,1.8429087768,10.08645906,7.102554489999999,-3.54124346,,,
imu,370.54895,0.0550300576,-9.861147060800002,1.8261604984,9.62289064,4.35105161,-3.07019813,,,
imu,370.557419,0.0131593616,-9.864137824800002,1.7998417752,9.16679913,1.78647148,-2.56176825,,,
imu,370.565889,-0.068787572,-9.897634381600001,1.767541524,8.718184529999998,-0.5463244400000002,-2.05333837,,,
imu,370.574359,-0.161501256,-9.900625145600001,1.7304560504,8.142462459999999,-2.27349065,-1.20097063,,,
imu,370.582829,-0.248233412,-9.880886103200002,1.6933705768,7.69384786,-3.38007333,-0.28878761,,,
imu,370.591299,-0.3212080536,-9.833632032,1.662864784,7.2003718,-4.17262579,0.4514264799999999,,,
imu,370.599769,-0.3804251808,-9.860548908000002,1.6586777144,6.87886467,-4.54647129,1.17668675,,,
imu,370.608239,-0.4043512928,-9.876699033600001,1.6413312832,6.5274499,-4.48665601,1.64025517,,,
imu,370.616709,-0.4187069600000001,-9.837819101600003,1.6203959352,6.04892766,-4.53899438,1.93185466,,,
imu,370.625179,-0.4342589328000001,-9.801929933600002,1.6018531984,5.59283615,-4.4791791,1.87951629,,,
imu,370.633649,-0.4408386136,-9.803126239200001,1.6048439624,5.47320559,-4.26234871,1.65520899,,,
imu,370.642118,-0.4240903352000001,-9.8144911424,1.597067976,5.37600576,-4.06047214,1.48324006,,,
imu,370.650588,-0.3929863896,-9.834828337600001,1.5809178504,4.99468335,-3.97822613,1.29631731,,,
imu,370.659058,-0.3780325696000001,-9.813892989600001,1.5689547944,4.52363802,-3.8062572,1.15425602,,,
imu,370.667528,-0.3594898328000001,-9.803724392000001,1.5647677248,4.14231561,-3.8062572,0.83274889,,,
imu,370.675998,-0.3535083048,-9.828846809600002,1.5665621832,3.76847011,-3.62681136,0.5336724899999998,,,
imu,370.684468,-0.3499193880000001,-9.825257892800002,1.531271168,3.4619168,-3.55204226,0.1523500800000002,,,
imu,370.692938,-0.3648732080000001,-9.819276364800002,1.5414397656,3.02077911,-3.40998097,-0.1616801399999999,,,
imu,370.701408,-0.3559009160000001,-9.802528086400002,1.5599825024,2.7142258,-3.25296586,-0.6402023799999998,,,
imu,370.709878,-0.3475267768,-9.824659740000001,1.5665621832,2.35533412,-3.01370474,-1.18601681,,,
imu,370.718348,-0.3541064576,-9.85456738,1.5217007232,2.29551884,-2.77444362,-1.41780102,,,
imu,370.726817,-0.331974804,-9.842604324000002,1.5121302784,1.94410407,-2.3856443,-1.50004703,,,
imu,370.735287,-0.3134320672,-9.746899876,1.5246914872,1.63755076,-2.09404481,-1.71687742,,,
imu,370.74407,-0.3134320672,-9.689477207200001,1.5468231408,1.60016621,-1.79496841,-1.85893871,,,
imu,370.752852,-0.3164228312,-9.709216249600003,1.5145228896,1.74970441,-1.51832274,-1.93370781,,,
imu,370.761635,-0.3182172896000001,-9.786377960800001,1.5276822512,2.10859609,-1.07718505,-1.8514618,,,
imu,370.770417,-0.3014690112,-9.809107767200002,1.5384490016,2.13850373,-0.53884753,-1.66453905,,,
imu,370.779199,-0.2883096496000001,-9.817481906400001,1.528280404,2.116073,-0.2472480400000001,-1.54490849,,,
imu,370.787982,-0.2823281216,-9.838417254400001,1.522298876,2.00391935,-0.1350943900000003,-1.61967759,,,
imu,370.796764,-0.2673743016,-9.8402117128,1.4929893888,2.06373463,0.08173599999999981,-1.75426197,,,
imu,370.805547,-0.236270356,-9.8049206976,1.48042818,2.06373463,0.2088434699999997,-1.88136944,,,
imu,370.814329,-0.221316536,-9.788770572,1.489400472,1.97401171,0.08921290999999965,-2.18044584,,,
imu,370.823112,-0.2171294664,-9.768433376800001,1.4840170968,2.01139626,-0.04537147000000008,-2.43466078,,,
imu,370.831894,-0.2045682576000001,-9.767237071200002,1.4971764584,1.86185806,-0.4117400600000001,-2.76364482,,,
imu,370.840676,-0.2189239248,-9.755872168000002,1.4995690696,1.95905789,-0.59866281,-2.81598319,,,
imu,370.849459,-0.2237091472,-9.7122070136,1.5079432088,1.89924261,-0.82297011,-2.8234601,,,
imu,370.858241,-0.236270356,-9.711608860800002,1.52528964,2.01887317,-1.09213887,-2.86084465,,,
imu,370.867024,-0.2637853848,-9.730749750400001,1.5151210424,2.00391935,-1.21924634,-2.75616791,,,
imu,370.875806,-0.296085636,-9.7325442088,1.5264859456,2.16841137,-1.12952342,-2.55429134,,,
imu,370.884589,-0.3128339144,-9.745703570400002,1.519308112,2.31794957,-1.04727741,-2.4496146,,,
imu,370.893371,-0.3176191368,-9.800135475200001,1.5378508488,2.46748777,-0.8154932000000001,-2.30755331,,,
imu,370.902153,-0.2948893304,-9.824659740000001,1.5175136536,2.91610237,-0.4865091600000002,-2.27016876,,,
imu,370.910936,-0.260196468,-9.815089295200002,1.4971764584,3.35724006,-0.31454023,-2.28512258,,,
imu,370.919718,-0.2607946208,-9.758264779200001,1.4965783056,3.6862241,-0.43417079,-2.47952224,,,
imu,370.928501,-0.2733558296,-9.745703570400002,1.4995690696,3.925485220000001,-0.68090882,-2.73373718,,,
imu,370.937283,-0.2703650656,-9.764246307200002,1.4750448048,4.09745415,-0.8977392100000001,-2.80102937,,,
imu,370.945759,-0.2703650656,-9.789368724800001,1.4559039152,4.17222325,-1.08466196,-2.62158353,,,
imu,370.954236,-0.2584020096,-9.788770572,1.4361648728,4.08250033,-1.15195415,-2.19539966,,,
imu,370.962712,-0.2344758976,-9.767237071200002,1.417622136,4.18717707,-1.27158471,-1.82903107,,,
imu,370.971188,-0.1949978128,-9.7911631832,1.4050609272,4.14979252,-1.51832274,-1.4028472,,,
imu,370.979664,-0.1656883256,-9.827650504000003,1.417622136,4.25446926,-1.88469133,-0.8645096799999998,,,
imu,370.988141,-0.1399677552,-9.820472670400001,1.4158276776,4.089977240000001,-2.31835211,-0.5280487299999999,,,
imu,370.996617,-0.1932033544,-9.835426490400001,1.4020701632,3.57407045,-3.16324294,-0.7299252999999999,,,
imu,371.005093,-0.218325772,-9.843800629600002,1.3859200376,3.37219388,-3.66419591,-0.4158950799999999,,,
imu,371.01357,-0.2494297176,-9.88447502,1.4002757048,3.10302512,-4.02308759,-0.3112183399999999,,,
imu,371.022046,-0.3104413032000001,-9.873708269600002,1.3913034128,2.72917962,-4.33711781,-0.3859874399999998,,,
imu,371.030522,-0.3367600264,-9.864137824800002,1.40565908,2.32542648,-4.4791791,-0.7000176599999999,,,
imu,371.038998,-0.376836264,-9.8629415192,1.4140332192,2.08616536,-4.39693309,-0.91684805,,,
imu,371.047475,-0.3774344168000001,-9.883278714400001,1.4289870392,1.63007385,-4.16514888,-0.99161715,,,
imu,371.055951,-0.3744436528,-9.870717505600002,1.4541094568,1.07678251,-3.94084158,-1.32060119,,,
imu,371.064427,-0.3582935272000001,-9.862343366400001,1.5001672224,0.5982602699999999,-3.656719,-1.70940051,,,
imu,371.072903,-0.3672658192000001,-9.845595088000001,1.528280404,0.31413769,-3.45484243,-1.97856927,,,
imu,371.08138,-0.3732473472,-9.7923594888,1.5569917384,0.22441477,-3.15576603,-2.06081528,,,
imu,371.089856,-0.3810233336,-9.743909112,1.5468231408,0.1720764,-2.9837971,-2.12063056,,,
imu,371.098332,-0.3905937784,-9.735534972800002,1.4995690696,0.3216146,-2.65481306,-2.09072292,,,
imu,371.106808,-0.3738455000000001,-9.669140012000002,1.5199062648,0.41133752,-2.19124464,-2.18792275,,,
imu,371.115285,-0.3535083048,-9.617100718400001,1.5988624344,0.77770611,-1.81739914,-2.12063056,,,
imu,371.123761,-0.3564990688,-9.61530626,1.6425275888,1.02444414,-1.286538530000001,-1.97109236,,,
imu,371.132237,-0.3672658192000001,-9.657176956,1.635947908,1.54782784,-0.76315483,-1.6271545,,,
imu,371.140713,-0.3553027632,-9.706823638400001,1.597067976,1.89924261,-0.2023865800000002,-1.51500085,,,
imu,371.1492,-0.3582935272000001,-9.7086180968,1.5874975312,2.27308811,0.47801223,-1.51500085,,,
imu,371.157686,-0.3624805968,-9.718188541600002,1.5928809064,2.66188743,0.8219500899999996,-1.84398489,,,
imu,371.166173,-0.3792288752000001,-9.7008421104,1.558188044,2.96844074,1.39767216,-2.01595382,,,
imu,371.174659,-0.35889168,-9.704431027200002,1.5426360712,3.31985551,1.92105586,-2.31503022,,,
imu,371.183146,-0.3636769024000001,-9.722973764,1.5097376672,3.66379337,2.31733209,-2.86832156,,,
imu,371.191632,-0.3397507904000001,-9.714001472000001,1.4882041664,4.06754651,2.59397776,-3.37675144,,,
imu,371.200118,-0.3259932760000001,-9.689477207200001,1.4582965264,4.55354566,2.82576197,-3.74312003,,,
imu,371.208605,-0.3032634696000001,-9.673925234400002,1.453511304,5.12179082,3.10240764,-3.90013514,,,
imu,371.217091,-0.2865151912,-9.6876827488,1.4427445536,5.76480508,3.19213056,-4.012288789999999,,,
imu,371.225578,-0.2895059552,-9.720581152800001,1.4307814976,6.1536044,3.10240764,-3.95995042,,,
imu,371.234064,-0.2823281216,-9.738525736800002,1.4212110528,6.20594277,3.16969983,-3.84031986,,,
imu,371.242551,-0.3002727056,-9.7403201952,1.4104443024,6.29566569,3.35662258,-3.57862801,,,
imu,371.251037,-0.2942911776,-9.7504887928,1.3919015656,6.0788353,3.3715764,-3.1973056,,,
imu,371.259523,-0.287113344,-9.785181655200002,1.3853218848,5.92182019,3.37905331,-2.78607555,,,
imu,371.26801,-0.2859170384,-9.802528086400002,1.351825328,5.78723581,3.37905331,-2.44213769,,,
imu,371.276496,-0.2883096496000001,-9.803126239200001,1.3207213824,5.15917537,3.27437657,-2.35989168,,,
imu,369.914088,,,,,,,-101.515086,148.677562,137.0319384
imu,370.015528,,,,,,,-101.8568876,148.3235532,137.6545056
imu,370.11706,,,,,,,-102.4550404,147.212698,137.0929744
imu,370.218592,,,,,,,-115.5411588,146.5046804,143.2576104
imu,370.320185,,,,,,,-123.3415596,145.7966628,138.8752256
imu,370.421748,,,,,,,-130.812366,146.9197252,138.9850904
imu,370.523341,,,,,,,-131.8865996,146.4070228,137.0197312
imu,370.624873,,,,,,,-132.1185364,146.5779236,136.8610376
imu,371.284983,-0.3092449976000001,-9.8013317808,1.3081601736,4.75542223,3.34166876,-2.03838455,,,
imu,371.293469,-0.3116376088,-9.755274015200001,1.2914118952,4.52363802,3.54354533,-1.81407725,,,
imu,371.301956,-0.296085636,-9.7301515976,1.2728691584,4.32176145,3.61083752,-1.50752394,,,
imu,371.310442,-0.287113344,-9.704431027200002,1.2555227272,4.45634583,3.84262173,-1.44770866,,,
imu,371.318928,-0.2835244272,-9.6912716656,1.2525319632,4.69560695,3.99963684,-1.48509321,,,
imu,371.327415,-0.2763465936,-9.693066124000001,1.2579153384,4.91243734,4.126744309999999,-1.41780102,,,
imu,371.335901,-0.2727576768,-9.780396432800002,1.2447559768,5.44329795,4.39591307,-1.21592445,,,
imu,371.344388,-0.2703650656,-9.851576616000001,1.2274095456,5.98163547,4.68751256,-1.14863226,,,
imu,371.352877,-0.2739539824000001,-9.870119352800002,1.2357836848,6.01154311,4.92677368,-1.4028472,,,
imu,371.361366,-0.266177996,-9.8886620896,1.2345873792,5.87695873,5.36791137,-1.67201596,,,
imu,371.369855,-0.2207183832,-9.9401032304,1.238176296,5.839574180000001,5.62960322,-1.78416961,,,
imu,371.378344,-0.1758569232,-9.964029342400002,1.21125942,5.47320559,5.8389567,-1.85893871,,,
imu,371.386833,-0.1507345056,-9.9885536072,1.193314836,4.89000661,5.7641876,-2.02343073,,,
imu,371.395322,-0.1351825328,-9.9969277464,1.1747720992,4.359146,5.6894185,-2.04586146,,,
imu,371.403811,-0.1064711984,-9.9789831624,1.1520422928,3.62640882,5.58474176,-2.00847691,,,
imu,371.412299,-0.08314323920000001,-9.934719855200001,1.1771647104,2.85628709,5.27071154,-2.12810747,,,
imu,371.420788,-0.06998387760000001,-9.915578965600002,1.1687905712,2.35533412,4.93425059,-2.26269185,,,
imu,371.429277,-0.05203929360000001,-9.931729091200001,1.1711831824,1.95158098,4.478159079999999,-2.47204533,,,
imu,371.437766,-0.0466559184,-9.876699033600001,1.1562293624,1.48053565,4.01459066,-2.84589083,,,
imu,371.446255,-0.08374139200000001,-9.83961356,1.1819499328,1.33847436,3.50616078,-2.99542903,,,
imu,371.454744,-0.122621324,-9.8497821576,1.1831462384,1.38333582,3.15474601,-2.98795212,,,
imu,371.463233,-0.1501363528,-9.8270523512,1.1586219736,1.37585891,3.16222292,-2.75616791,,,
imu,371.471722,-0.1698753952,-9.822267128800002,1.1652016544,1.54782784,3.2220382,-2.51690679,,,
imu,371.480211,-0.2027737992,-9.803126239200001,1.1777628632,1.69736604,3.43139168,-2.55429134,,,
imu,371.4887,-0.2159331608,-9.769629682400002,1.1699868768,1.98896553,3.820191,-2.81598319,,,
imu,371.497189,-0.2249054528,-9.743310959200002,1.1580238208,2.2656112,4.08188285,-3.15244414,,,
imu,371.505678,-0.2398592728,-9.709814402400001,1.1681924184,2.44505704,4.44077453,-3.45152054,,,
imu,371.514167,-0.2524204816,-9.693066124000001,1.1592201264,2.75908726,4.82209694,-3.53376655,,,
imu,371.522656,-0.2733558296,-9.668541859200001,1.1406773896,2.863764,5.375388279999999,-3.77302767,,,
imu,371.531145,-0.2936930248,-9.658373261600001,1.1508459872,3.02825602,5.99597181,-4.07210407,,,
imu,371.539634,-0.3170209840000001,-9.662560331200002,1.148453376,3.1628404,6.78852427,-4.06462716,,,
imu,371.548123,-0.3194135952000001,-9.693066124000001,1.1329014032,3.282470959999999,7.767999479999999,-4.0945348,,,
imu,371.5566,-0.3092449976000001,-9.766638918400002,1.1562293624,3.3123786,8.43344447,-4.244073,,,
imu,371.565009,-0.3074505392,-9.836024643200002,1.1580238208,3.34976315,9.21852002,-4.49828794,,,
imu,371.573418,-0.2990764,-9.880886103200002,1.1687905712,3.09554821,9.846580459999998,-4.887087259999999,,,
imu,371.581827,-0.3337692624,-9.898830687200002,1.1717813352,2.80394872,10.48959472,-5.27588658,,,
imu,371.590236,-0.3469286240000001,-9.919167882400002,1.1705850296,2.42262631,11.12513207,-5.70207045,,,
imu,371.598645,-0.3732473472,-9.922158646400002,1.1496496816,2.04878081,11.92516144,-6.10582359,,,
imu,371.607053,-0.4773259344000001,-9.935318008000001,1.1358921672,1.60764312,12.62051407,-6.53948437,,,
imu,371.615462,-0.6143029256000001,-9.9335235496,1.1418736952,1.15902852,13.83177349,-6.80865313,,,
imu,371.623871,-0.7399150136000001,-9.918569729600001,1.145462612,0.9048135799999999,15.83558537,-6.85351459,,,
imu,371.63228,-0.9223516176000001,-9.878493492,1.163407196,0.53096808,18.23567348,-6.928283689999999,,,
imu,371.640689,-1.10658268,-9.953262592000002,1.1550330568,0.09730729999999999,21.40588332,-7.24231391,,,
imu,371.649098,-1.2124557256,-10.0884451248,1.1269198752,-0.24663056,25.18919978,-7.3096061,,,
imu,371.657507,-1.1711831824,-10.147662252,1.1370884728,-0.9943215599999999,29.30150028,-7.780651429999999,,,
imu,371.665915,-1.0802639568,-10.0591356376,1.1921185304,-1.90650458,33.26426258,-8.69283445,,,
imu,371.674324,-0.963026008,-9.970010870400001,1.2393726016,-2.5943803,36.66625663,-9.96390915,,,
imu,371.682733,-0.7991321408000002,-9.903615909600001,1.2256150872,-2.92336434,39.35794422999999,-11.1975993,,,
imu,371.691142,-0.6645477608,-9.861147060800002,1.1891277664,-3.23739456,41.25707937,-12.2443667,,,
imu,371.699551,-0.5191966304000001,-9.803126239200001,1.2094649616,-3.63367079,42.58049244,-12.97710388,,,
imu,371.70796,-0.3654713608,-9.782789044000001,1.2250169344,-3.84302427,43.24593743,-13.37338011,,,
imu,371.716369,-0.248233412,-9.779798280000001,1.193314836,-3.87293191,43.40295253999999,-13.35842629,,,
imu,371.724778,-0.1387714496,-9.737329431200001,1.1616127376,-3.78320899,43.0739685,-13.11168826,,,
imu,371.733186,-0.06460050240000001,-9.669738164800002,1.1759684048,-3.618716969999999,42.15430857,-12.7677504,,,
imu,371.741595,-0.005981528000000001,-9.6494009696,1.178361016,-3.22991765,41.01781825,-12.33408962,,,
imu,371.750004,0.0173464312,-9.645213900000002,1.1640053488,-2.70653395,39.69440518,-11.65369081,,,
imu,371.758821,0.026916876,-9.6775141512,1.1687905712,-2.16819643,38.04200806999999,-10.95086127,,,
imu,371.767638,0.05802082160000001,-9.690673512800002,1.1610145848,-1.50275144,36.43447242,-10.16578572,,,
imu,371.776455,0.0723764888,-9.734338667200001,1.1771647104,-1.06161375,34.78955222,-9.73960185,,,
imu,371.785272,0.1214250184,-9.7510869456,1.1705850296,-0.6279529699999999,32.98014,-9.29098725,,,
imu,371.794089,0.1800439928,-9.807313308800001,1.2100631144,-0.2017691,30.75949773,-9.01434158,,,
imu,371.802906,0.2380648144,-9.825856045600002,1.2214280176,0.13469185,28.44913254,-8.61806535,,,
imu,371.811723,0.2386629672,-9.8402117128,1.2268113928,0.14964567,25.73501421,-8.25169676,,,
imu,371.82054,0.2189239248,-9.843800629600002,1.214250184,0.07487657,22.90874223,-8.02738946,,,
imu,371.829356,0.1656883256,-9.840809865600002,1.2327929208,0.15712258,19.92545514,-7.75074379,,,
imu,371.838173,0.07775986400000001,-9.803126239200001,1.235185532,-0.08961545,17.09918316,-7.406805929999999,,,
imu,371.84699,-0.0131593616,-9.7325442088,1.2154464896,-0.24663056,14.63927977,-7.11520644,,,
imu,371.855807,-0.1238176296,-9.7403201952,1.250139352,-0.04475399000000001,12.61303716,-6.67406875,,,
imu,371.864624,-0.2368685088,-9.748096181600001,1.2447559768,0.29170696,10.98307078,-5.99366994,,,
imu,371.873441,-0.3158246784000001,-9.731347903200001,1.2537282688,0.41881443,9.69704226,-5.2908404,,,
imu,371.882258,-0.4258847936,-9.727160833600001,1.2656913248,0.5982602699999999,9.03907418,-4.49828794,,,
imu,371.891075,-0.5239818528000001,-9.696056888000001,1.2363818376,0.9347212199999999,8.81476688,-3.7206893,,,
imu,371.899892,-0.5299633808,-9.686486443200002,1.2447559768,1.5179202,9.054027999999999,-3.08515195,,,
imu,371.908709,-0.5586747152,-9.690075360000002,1.2525319632,2.03382699,9.554980969999999,-2.64401426,,,
imu,371.917526,-0.5724322296000001,-9.7750130576,1.2794488392,2.35533412,9.7269499,-2.35989168,,,
imu,371.926343,-0.5760211464000001,-9.709216249600003,1.214250184,2.78151799,10.13070304,-2.17296893,,,
imu,371.93516,-0.5837971328000001,-9.776209363200001,1.280046992,3.26004023,10.75876348,-2.43466078,,,
imu,371.943977,-0.5562821040000001,-9.837220948800002,1.2728691584,3.54416281,11.25971645,-2.78607555,,,
imu,371.952793,-0.4874945320000001,-9.872511964000001,1.2363818376,3.7609932,11.60365431,-3.14496723,,,
imu,371.961352,-0.4037531400000001,-9.931130938400003,1.2824396032,3.57407045,11.61113122,-3.52628964,,,
imu,371.969911,-0.3164228312,-9.980179468000001,1.3147398544,3.19274804,11.31953173,-4.012288789999999,,,
imu,371.97847,-0.2111479384,-10.0118815664,1.3195250768,2.47496468,10.49707163,-4.29641137,,,
imu,371.987029,-0.1130508792,-9.976590551200001,1.3093564792,1.80204278,9.278335299999998,-4.28893446,,,
imu,371.995588,-0.0370854736,-9.9012232984,1.3207213824,0.9945364999999999,7.49135381,-4.08705789,,,
imu,372.004147,-0.0227298064,-9.8886620896,1.3320862856,0.23189168,5.547357209999999,-3.6459202,,,
imu,372.012706,0.05802082160000001,-9.7815927384,1.2842340616,-0.07466163,3.39400713,-2.85336774,,,
imu,372.021265,0.06160973840000001,-9.706225485600001,1.259111644,-0.26158438,0.8518577299999999,-2.51690679,,,
imu,372.029824,0.0430670016,-9.683495679200002,1.18135178,0.2468455,-1.69776858,-2.12063056,,,
imu,372.038383,0.0592171272,-9.689477207200001,1.1083771384,1.03192105,-4.00065686,-1.253309,,,
imu,372.046941,0.04605776560000001,-9.684093832000002,1.0952177768,2.09364227,-6.35588351,0.0626271599999999,,,
imu,372.0555,0.0317020984,-9.651793580800001,1.1239291112,3.06564057,-8.75597162,1.33370186,,,
imu,372.064059,-0.0167482784,-9.6846919848,1.127518028,3.93296213,-10.69249131,2.50757673,,,
imu,372.072618,-0.068787572,-9.7576666264,1.0730861232,4.61336094,-12.37479606,3.86837435,,,
imu,372.081177,-0.1034804344,-9.8049206976,1.0569359976,5.0320679,-13.73559368,4.989910849999999,,,
imu,372.089736,-0.1351825328,-9.8886620896,1.1113679024,4.964775710000001,-14.85713018,5.93947842,,,
imu,372.098295,-0.1208268656,-9.9305327856,1.1293124864,4.69560695,-15.79174393,6.75446161,,,
imu,370.726607,,,,,,,-131.422726,146.4070228,137.5080192
imu,370.828078,,,,,,,-131.3983116,146.3826084,138.167208
imu,370.929701,,,,,,,-131.2762396,146.0896356,137.7155416
imu,371.031233,,,,,,,-130.75133,146.1872932,137.434776
imu,371.132887,,,,,,,-130.5804292,146.0163924,138.4479736
imu,371.234297,,,,,,,-128.5418268,145.1863028,136.4704072
imu,371.33589,,,,,,,-130.8001588,145.6013476,138.1916224
imu,371.437422,,,,,,,-128.00471,144.8567084,134.9200928
imu,372.106854,-0.137575144,-9.920962340800001,1.082656568,4.0600696,-16.75626532,7.21803003,,,
imu,372.115413,-0.1561178808,-9.8653341304,1.055739692,3.33480933,-17.80303272,7.15073784,,,
imu,372.123972,-0.1830347568,-9.859950755200002,1.06172122,2.83385636,-18.72269265,6.5974465,,,
imu,372.132531,-0.215335008,-9.898830687200002,1.0491600112,2.79647181,-19.19373798,6.216124090000001,,,
imu,372.141089,-0.245242648,-9.926345716,1.0294209688,2.43010322,-19.64982949,5.89461696,,,
imu,372.149648,-0.2416537312,-9.928140174400001,1.03181358,2.17588828,-19.66478331,5.670309659999999,,,
imu,372.158207,-0.245242648,-9.898830687200002,1.0294209688,1.95158098,-19.44047601,5.08711068,,,
imu,372.166596,-0.2667761488000001,-9.878493492,1.0120745376,1.82447351,-19.41056837,4.73569591,,,
imu,372.174984,-0.2548130928,-9.900625145600001,1.0581323032,1.58521239,-19.14887652,4.56372698,,,
imu,372.183373,-0.2428500368,-9.8946436176,1.0503563168,1.61512003,-18.66287737,4.47400406,,,
imu,372.191761,-0.2488315648,-9.877297186400002,1.0521507752,1.4431511,-18.07220148,4.750649729999999,,,
imu,372.20015,-0.2518223288000001,-9.867726741600002,1.0581323032,1.03192105,-17.30207975,4.78055737,,,
imu,372.208538,-0.2350740504,-9.864137824800002,1.049758164,0.81509066,-16.45718892,4.840372649999999,,,
imu,372.216927,-0.2225128416,-9.855165532800001,1.0461692472,0.29918387,-15.68706719,4.668403720000001,,,
imu,372.225315,-0.2249054528,-9.8234634344,1.0641138312,0.21693786,-14.76740726,4.660926809999999,,,
imu,372.233704,-0.2135405496,-9.831837573600001,1.112564208,-0.13447691,-13.80288587,4.56372698,,,
imu,372.242092,-0.2021756464,-9.8270523512,1.1508459872,-0.65786061,-12.83088757,4.511388609999999,,,
imu,372.250481,-0.1878199792,-9.886269478400003,1.2238206288,-1.33078251,-11.97851983,4.361850410000001,,,
imu,372.258869,-0.1519308112,-9.932327244000001,1.2866266728,-2.16819643,-11.11119827,4.204835299999999,,,
imu,372.267258,-0.1082656568,-9.939505077600002,1.3332825912,-3.22991765,-10.27378435,4.04034328,,,
imu,372.275647,-0.05802082160000001,-9.8982325344,1.4128369136,-4.658007459999999,-9.72049301,3.94314345,,,
imu,372.284035,-0.0370854736,-9.8946436176,1.4343704144,-5.764590139999999,-9.144770939999999,3.97305109,,,
imu,372.292424,0.0137575144,-9.9012232984,1.4032664688,-6.68425007,-8.72606398,3.93566654,,,
imu,372.300812,0.07058203040000001,-9.8210708232,1.4200147472,-7.469325619999999,-8.38212612,3.77117452,,,
imu,372.309201,0.08493769760000001,-9.722375611200002,1.4373611784,-7.701109829999999,-8.30735702,3.50200576,,,
imu,372.317589,0.1202287128,-9.6499991224,1.4134350664,-7.17024922,-8.26997247,3.05339116,,,
imu,372.325978,0.1327899216,-9.636241608,1.4224073584,-6.355266029999999,-8.44941831,2.58982274,,,
imu,372.334366,0.1549215752,-9.6326526912,1.4271925808,-5.271114079999999,-8.60643342,2.1860696,,,
imu,372.342755,0.1776513816,-9.623082246400001,1.423603664,-3.902839549999999,-8.49427977,2.05896213,,,
imu,372.351143,0.1985867296,-9.571641105600001,1.4128369136,-2.5196112,-8.34474157,1.9617623,,,
imu,372.359532,0.2009793408,-9.5154147424,1.4110424552,-1.07656757,-8.12791118,2.15616196,,,
imu,372.36799,0.1872218264,-9.457393920800001,1.4218092056,0.11226112,-7.93351152,2.45523836,,,
imu,372.376449,0.1638938672,-9.4555994624,1.4247999696,1.36090509,-7.79892714,2.32065398,,,
imu,372.384907,0.1447529776,-9.4962738528,1.4247999696,2.51982614,-7.31292799,2.1113005,,,
imu,372.393366,0.1100601152,-9.547116840800001,1.4307814976,3.34976315,-6.78954429,1.70007045,,,
imu,372.401824,0.09749890640000002,-9.617100718400001,1.4373611784,3.54416281,-6.370837330000001,0.9598563599999999,,,
imu,372.410282,0.08433954480000001,-9.690075360000002,1.4194165944,3.74603938,-5.83249981,0.2046884499999999,,,
imu,372.418741,0.09749890640000002,-9.731347903200001,1.3799385096,3.70865483,-5.24182392,-0.66263311,,,
imu,372.427199,0.1052748928,-9.727160833600001,1.354816092,3.41705534,-4.83807078,-1.58976995,,,
imu,372.435658,0.1244157824,-9.746301723200002,1.3458438,3.07311748,-4.46422528,-2.48699915,,,
imu,372.444116,0.1489400472,-9.791761336000002,1.3302918272,2.89367164,-4.18757961,-2.9729983,,,
imu,372.452575,0.1495382,-9.800733628000001,1.3021786456,2.51234923,-3.87354939,-3.37675144,,,
imu,372.461033,0.1692772424,-9.773816752000002,1.2734673112,2.54973378,-3.68662664,-3.58610492,,,
imu,372.469492,0.1507345056,-9.770825988000002,1.2662894776,2.46748777,-3.60438063,-3.97490424,,,
imu,372.47795,0.1453511304,-9.815089295200002,1.2567190328,2.407672489999999,-3.62681136,-4.22164227,,,
imu,372.486409,0.1130508792,-9.8653341304,1.2399707544,2.35533412,-3.66419591,-4.33379592,,,
imu,372.494867,0.1118545736,-9.889260242400002,1.2214280176,2.36281103,-3.56699608,-4.318842099999999,,,
imu,372.503325,0.08015247520000002,-9.858754449600001,1.1998945168,2.17588828,-3.5819499,-4.430995749999999,,,
imu,372.511784,0.04187069600000001,-9.841408018400001,1.1891277664,1.94410407,-3.61185754,-4.692687599999999,,,
imu,372.520242,0.0197390424,-9.8432024768,1.1909222248,2.08616536,-3.41745788,-4.602964679999999,,,
imu,372.528701,-0.004785222400000001,-9.8916528536,1.193314836,2.08616536,-3.29035041,-4.43847266,,,
imu,372.537159,-0.0382817792,-9.9066066736,1.1831462384,1.78708896,-2.95388946,-4.37118047,,,
imu,372.545618,-0.07955432240000002,-9.8749045752,1.1789591688,1.48801256,-2.55761323,-4.25902682,,,
imu,372.554076,-0.08015247520000002,-9.8629415192,1.1897259192,1.37585891,-2.07161408,-4.04219643,,,
imu,372.562535,-0.09151737840000002,-9.8647359776,1.1819499328,1.31604363,-1.68281476,-3.84031986,,,
imu,372.570996,-0.09749890640000002,-9.9078029792,1.193314836,1.01696723,-1.45103055,-3.80293531,,,
imu,372.579457,-0.1112564208,-9.917373424,1.2130538784,0.79265993,-1.02484668,-3.84779677,,,
imu,372.587918,-0.10467674,-9.878493492,1.2375781432,0.65059864,-0.59866281,-3.86275059,,,
imu,372.596379,-0.09989151760000002,-9.812098531200002,1.277056228,0.41133752,-0.3220171400000003,-4.22911918,,,
imu,372.60484,-0.1040785872,-9.796546558400001,1.2597097968,0.50853735,-0.1799558500000003,-4.53567249,,,
imu,372.613301,-0.07955432240000002,-9.851576616000001,1.1945111416,0.64312173,0.0368745399999999,-4.78241052,,,
imu,372.621762,-0.09091922560000001,-9.789966877600001,1.1293124864,0.56835263,0.1041667299999998,-5.05157928,,,
imu,372.630223,-0.0783580168,-9.749890640000002,1.1777628632,0.5459219,0.1639820099999998,-4.991764,,,
imu,372.638684,-0.0675912664,-9.8132948368,1.2106612672,0.68050628,0.5378275100000001,-4.6179185,,,
imu,372.647032,-0.0681894192,-9.825257892800002,1.1945111416,0.64312173,0.8369039099999998,-4.0197657,,,
imu,372.655493,-0.04545961280000001,-9.8168837536,1.2256150872,0.23936859,1.09111885,-3.39918217,,,
imu,372.663954,-0.04486146000000001,-9.859950755200002,1.2579153384,0.25432241,1.41262598,-2.95056757,,,
imu,372.672415,-0.0442633072,-9.867726741600002,1.2603079496,0.1720764,1.5023489,-2.70382954,,,
imu,372.680876,-0.0352910152,-9.8043225448,1.2274095456,-0.15690764,1.64441019,-2.68887572,,,
imu,372.689337,-0.0430670016,-9.818678212000002,1.2393726016,-0.45598404,1.69674856,-2.75616791,,,
imu,372.697798,-0.026916876,-10.0076944968,1.2567190328,-0.50832241,1.77151766,-2.71878336,,,
imu,372.706259,-0.0011963056,-10.2637038952,1.3476382584,-0.94198319,1.76404075,-2.6739219,,,
imu,372.71472,0.026916876,-10.3408656064,1.3195250768,-2.39250373,1.68179474,-2.69635263,,,
imu,372.723181,0.0263187232,-10.3546231208,1.3913034128,-4.26920814,1.63693328,-2.50195297,,,
imu,372.731642,0.03289840400000001,-10.2654983536,1.4361648728,-6.48985041,1.55468727,-2.02343073,,,
imu,372.740103,0.06400234960000001,-10.1943181704,1.4618854432,-8.83760015,1.31542615,-1.29817046,,,
imu,372.748564,0.06460050240000001,-10.1638123776,1.5438323768,-11.4171341,0.6275504299999999,-1.08134007,,,
imu,372.757025,0.09989151760000002,-10.0585374848,1.5689547944,-13.70506856,0.01444380999999995,-0.9617095099999999,,,
imu,372.765486,0.08433954480000001,-9.867128588800002,1.531271168,-15.76869572,-0.4640784300000003,-0.34860289,,,
imu,372.774305,0.1112564208,-9.6775141512,1.5868993784,-16.97247823,-0.8154932000000001,0.8776103499999999,,,
imu,372.783123,0.113649032,-9.596165370400001,1.701744716,-17.6977385,-0.8080162900000003,2.14868505,,,
imu,372.791941,0.1082656568,-9.550705757600001,1.7238763696,-17.66783086,-0.4640784300000003,3.62163632,,,
imu,372.800759,0.1178361016,-9.52558334,1.7591673848,-17.5482003,-0.1126636599999999,5.318894889999999,,,
imu,372.809578,0.173464312,-9.4633754488,1.7848879552,-17.22669317,0.33595094,6.64978487,,,
imu,372.818396,0.2261017584,-9.456197615200002,1.8189826648,-16.34441779,0.8593346399999997,7.44981424,,,
imu,372.827214,0.2566075512,-9.450814240000001,1.8417124712,-15.07334309,1.14345722,7.91338266,,,
imu,372.836032,0.3080486920000001,-9.448421628800002,1.8817887088,-13.60039182,1.47244126,8.578827650000001,,,
imu,372.844851,0.3493212352000001,-9.396980488,1.8793960976,-11.93304089,1.55468727,8.85547332,,,
imu,372.853669,0.3923882368,-9.3927934184,1.8674330416,-10.01147502,1.25561087,8.227412880000001,,,
imu,372.862487,0.4139217376000001,-9.3688673064,1.7908694832,-7.50671017,0.9041961000000001,7.08344565,,,
imu,372.871305,0.4408386136,-9.264788719200002,1.6885853544,-4.74025347,0.3135202100000001,5.72264803,,,
imu,372.880124,0.481513004,-9.224712481600001,1.6915761184,-1.42050543,-0.09023292999999999,4.421665689999999,,,
imu,372.888942,0.4958686712000001,-9.1858325496,1.6503035752,2.09364227,-0.6510011800000002,3.00105279,,,
imu,372.89776,0.4922797544,-9.132596950400002,1.5444305296,5.4806825,-1.51084583,1.44585551,,,
imu,372.906578,0.4713444064,-9.167887965600002,1.4277907336,8.97239947,-2.37816739,-0.01961884999999985,,,
imu,372.915397,0.4420349192,-9.146952617600002,1.3440493416,12.12765549,-3.39502715,-1.50752394,,,
imu,371.539687,,,,,,,-130.75133,145.9797708,138.0939648
imu,371.640517,,,,,,,-130.7269156,145.9553564,137.3493256
imu,371.74211,,,,,,,-131.97205,146.3337796,136.8488304
imu,371.843703,,,,,,,-133.6444364,146.785446,134.8224352
imu,371.945235,,,,,,,-134.1327244,146.9319324,134.6393272
imu,372.04695,,,,,,,-134.4623188,147.090626,134.382976
imu,372.149275,,,,,,,-132.5457884,147.2859412,133.528472
imu,372.249922,,,,,,,-133.009662,147.7864364,135.2741016
imu,372.924215,0.4384460024000001,-9.163102743200001,1.3494327168,14.95392747,-4.09785669,-2.78607555,,,
imu,372.933033,0.3923882368,-9.325202152000001,1.3859200376,17.2194312,-4.965178249999999,-3.70573548,,,
imu,372.941852,0.3433397072,-9.454403156800002,1.309954632,18.61761337,-5.72034616,-4.42351884,,,
imu,372.95067,0.2799355104,-9.591380148,1.2967952704,19.11856634,-6.24372986,-4.999240909999999,,,
imu,372.959488,0.2284943696,-9.710412555200001,1.2309984624,18.99893578,-6.50542171,-5.53010152,,,
imu,372.968306,0.1501363528,-9.865932283200001,1.1586219736,18.43816753,-6.632529180000001,-6.225454149999999,,,
imu,372.976783,0.113649032,-9.979581315200003,1.0922270128,17.45121541,-6.7970212,-6.838560769999999,,,
imu,372.985259,0.05861897440000001,-10.0405929008,1.0365988024,16.31472509,-6.59514463,-7.20492936,,,
imu,372.993735,0.04545961280000001,-10.1195490704,1.010878232,15.05860421,-6.213822220000001,-7.30212919,,,
imu,373.002211,0.017944584,-10.2128609072,1.0007096344,13.76509878,-5.84745363,-7.13763717,,,
imu,373.010688,-0.0005981528000000001,-10.2481519224,0.9857558144000002,12.04540948,-5.23434701,-6.73388403,,,
imu,373.019164,-0.0023926112,-10.2122627544,0.9343146736000002,10.10141288,-4.42684073,-6.25536179,,,
imu,373.02764,-0.02990764000000001,-10.1135675424,0.9498666464000002,8.37424667,-3.64924209,-5.62730135,,,
imu,373.036116,-0.0257205704,-10.1225398344,1.0162616072,6.96111068,-2.96884328,-4.90204108,,,
imu,373.044593,-0.0173464312,-10.1691957528,1.028822816,5.51806705,-2.02675262,-4.00481188,,,
imu,373.053069,-0.0173464312,-10.2308054912,1.1000029992,3.95539286,-1.12204651,-3.07767504,,,
imu,373.061545,0.0137575144,-10.240375936,1.1520422928,2.10111918,-0.2622018600000002,-2.38232241,,,
imu,373.070021,0.03648732080000001,-10.1937200176,1.2124557256,0.3889067899999999,0.4929660499999997,-1.89632326,,,
imu,373.078498,0.0592171272,-10.204486768,1.3027767984,-1.0242292,1.07616503,-1.61220068,,,
imu,373.086974,0.09510629520000001,-10.1614197664,1.3141417016,-2.52708811,1.41262598,-1.51500085,,,
imu,373.09545,0.1471455888,-10.072893152,1.3021786456,-3.760778259999999,1.76404075,-1.51500085,,,
imu,373.103926,0.1908107432,-10.060930096,1.3703680648,-4.613146,1.79394839,-1.73930815,,,
imu,373.112403,0.2296906752000001,-10.022050164,1.4194165944,-5.21877571,1.78647148,-1.96361545,,,
imu,373.120879,0.2691687600000001,-9.9747960928,1.4828207912,-5.71225177,1.53225654,-1.93370781,,,
imu,373.129355,0.2494297176,-9.901821451200002,1.495382,-6.25058929,1.15093413,-2.2253073,,,
imu,373.137831,0.2500278704,-9.876100880800003,1.5187099592,-6.57957333,0.9939190199999999,-2.48699915,,,
imu,373.146308,0.2607946208,-9.7989391696,1.5528046688,-6.87117282,0.76213481,-2.35989168,,,
imu,373.154784,0.2584020096,-9.6984494992,1.6215922408,-6.93846501,0.4630584099999999,-2.15801511,,,
imu,373.16326,0.2817299688000001,-9.682897526400001,1.6670518536,-6.72163462,0.3882893099999998,-2.05333837,,,
imu,373.171736,0.2667761488000001,-9.760059237600002,1.686790896,-6.669296249999999,0.2836125699999998,-1.7766927,,,
imu,373.180215,0.2673743016,-9.737927584000001,1.6891835072,-6.84126518,0.11164364,-1.13367844,,,
imu,373.188694,0.2865151912,-9.702636568800001,1.7268671336,-7.10295703,0.1415512799999998,-0.4458027199999999,,,
imu,373.197173,0.290104108,-9.567454036,1.6909779656,-7.3796027,0.33595094,-0.09438795,,,
imu,373.205652,0.2889078024000001,-9.4753385048,1.6981557992,-7.207633769999999,0.29856639,0.3168421000000001,,,
imu,373.21413,0.2877114968,-9.533957479200001,1.7310542032,-6.669296249999999,0.08173599999999981,0.2794575500000001,,,
imu,373.222609,0.290104108,-9.617698871200002,1.7119133136,-6.04123581,-0.1201405700000002,0.21964227,,,
imu,373.231088,0.2709632184,-9.604539509600002,1.6790149096,-5.60757503,-0.3818324200000003,0.07010407000000018,,,
imu,373.239567,0.2787392048,-9.567454036,1.6652573952,-5.226252619999999,-0.6136166300000001,-0.26635688,,,
imu,373.248046,0.2829262744000001,-9.561472508000001,1.632957144,-4.67296128,-0.8454008399999999,-0.6551562,,,
imu,373.256524,0.2763465936,-9.568650341600001,1.588095684,-4.00751629,-1.06223123,-0.99161715,,,
imu,373.265003,0.2494297176,-9.5423316184,1.552206516,-3.31964057,-1.29401544,-1.01404788,,,
imu,373.273482,0.2506260232,-9.548313146400002,1.5557954328,-2.47474974,-1.33139999,-1.15610917,,,
imu,373.281961,0.242251884,-9.605735815200001,1.5749363224,-1.65228964,-1.40616909,-1.36546265,,,
imu,373.29044,0.2578038568000001,-9.7283571392,1.612021796,-0.91955246,-1.45850746,-1.56733922,,,
imu,373.298918,0.2494297176,-9.752881404000002,1.5952735176,-0.68029134,-1.51832274,-1.58229304,,,
imu,373.307397,0.2045682576000001,-9.685888290400001,1.5659640304,-0.6279529699999999,-1.49589201,-1.4776163,,,
imu,373.315876,0.2296906752000001,-9.6051376624,1.519308112,-0.51579932,-1.37626145,-1.48509321,,,
imu,373.324355,0.2201202304,-9.648802816800002,1.5378508488,-0.11204618,-1.1893387,-1.58229304,,,
imu,373.332834,0.1985867296,-9.754675862400001,1.5306730152,0.12721494,-0.9874621299999999,-1.7019236,,,
imu,373.341312,0.1860255208,-9.796546558400001,1.543234224,0.13469185,-0.53884753,-1.52995467,,,
imu,373.349791,0.1938015072,-9.755274015200001,1.5127284312,-0.03727708,-0.08275602000000015,-1.16358608,,,
imu,373.35827,0.2057645632,-9.7008421104,1.513326584,-0.11204618,0.2686587499999997,-1.21592445,,,
imu,373.366749,0.221316536,-9.752881404000002,1.5420379184,-0.09709236,0.7397040799999997,-1.41032411,,,
imu,373.375228,0.2207183832,-9.801929933600002,1.5306730152,-0.007369440000000005,1.15841104,-1.58229304,,,
imu,373.383682,0.2440463424,-9.749890640000002,1.4822226384,0.0001074699999999984,1.50982581,-1.34303192,,,
imu,373.392137,0.2177276192,-9.638634219200002,1.4738484992,-0.02232326000000001,1.7266562,-1.49257012,,,
imu,373.400592,0.251224176,-9.6159044128,1.4959801528,0.23936859,1.92105586,-2.13558438,,,
imu,373.409046,0.2829262744000001,-9.668541859200001,1.5061487504,0.60573718,2.04068642,-2.66644499,,,
imu,373.417501,0.2781410520000001,-9.6643547896,1.4929893888,0.9197674,2.1005017,-2.83841392,,,
imu,373.425955,0.2859170384,-9.611119190400002,1.552206516,1.18145925,2.11545552,-2.92065993,,,
imu,373.43441,0.2440463424,-9.636241608,1.6162088656,1.64502767,2.3995781,-3.01038285,,,
imu,373.442865,0.233279592,-9.667345553600002,1.6347516024,1.8169966,2.44443956,-3.22721324,,,
imu,373.451319,0.2775428992,-9.7427128064,1.6634629368,2.1908421,2.48930102,-3.36179762,,,
imu,373.459774,0.31403022,-9.749890640000002,1.6168070184,2.407672489999999,2.80333124,-3.39918217,,,
imu,373.468229,0.2865151912,-9.740918348000001,1.6275737688,2.61702597,2.75846978,-3.21225942,,,
imu,373.476683,0.3660695136000001,-9.7492924872,1.65987402,2.863764,2.64631613,-2.94309066,,,
imu,373.485138,0.3660695136000001,-9.7504887928,1.6461165056,2.96844074,2.59397776,-2.81598319,,,
imu,373.493593,0.3535083048,-9.7821908912,1.6347516024,3.15536349,2.41453192,-2.83841392,,,
imu,373.502047,0.3594898328000001,-9.7570684736,1.5946753648,3.49182444,2.20517844,-2.63653735,,,
imu,373.510502,0.4205014184,-9.752881404000002,1.6138162544,3.79090084,1.88367131,-2.18792275,,,
imu,373.518957,0.4611758088,-9.792957641600001,1.6341534496,3.91800831,1.77151766,-1.76173888,,,
imu,373.527411,0.4809148512,-9.767237071200002,1.6245830048,4.05259269,1.42010289,-1.04395552,,,
imu,373.535866,0.5413282840000001,-9.7427128064,1.6197977824,4.02268505,0.7770886299999997,-0.52057182,,,
imu,373.54432,0.5359449088000001,-9.803126239200001,1.6473128112,3.88062376,0.02192071999999978,-0.32617216,,,
imu,373.552775,0.5556839512000001,-9.840809865600002,1.662864784,3.54416281,-0.7930624700000002,-0.08691103999999994,,,
imu,373.56123,0.5670488544000001,-9.870717505600002,1.6473128112,3.0880713,-1.63047639,0.5112417599999999,,,
imu,373.569684,0.5784137576,-9.837220948800002,1.5982642816,2.13102682,-2.40059812,0.9374256299999999,,,
imu,373.578139,0.5497024232000001,-9.803126239200001,1.5617769608,1.22632071,-3.31278114,1.22902512,,,
imu,373.586605,0.5269726168000001,-9.793555794400001,1.543234224,0.42629134,-3.97074922,1.78231646,,,
imu,373.595071,0.4976631296000001,-9.792957641600001,1.5474212936,-0.21672292,-4.41936382,2.56739201,,,
imu,373.603537,0.4743351704000001,-9.764246307200002,1.5270840984,-0.58309151,-4.59880966,3.37489829,,,
imu,373.612003,0.4510072112,-9.727160833600001,1.5438323768,-0.71767589,-4.67357876,3.87585126,,,
imu,373.620469,0.4498109056,-9.727758986400001,1.5743381696,-0.84478336,-4.56142511,4.28708131,,,
imu,373.628936,0.4522035168,-9.70502918,1.5725437112,-0.9644139199999999,-4.54647129,4.63101917,,,
imu,373.637402,0.4378478496000001,-9.6918698184,1.579123392,-1.09152139,-4.31468708,4.922618659999999,,,
imu,373.645868,0.439642308,-9.727160833600001,1.6048439624,-1.10647521,-3.76887265,5.274033429999999,,,
imu,373.654334,0.4390441552000001,-9.762451848800001,1.5946753648,-1.31582869,-3.2828735,5.46095618,,,
imu,373.6628,0.4438293776000001,-9.756470320800002,1.5187099592,-1.50275144,-2.67724379,5.43852545,,,
imu,373.671266,0.4581850448000001,-9.715795930400002,1.5175136536,-1.40555161,-2.13890627,5.16187978,,,
imu,373.679732,0.5042428104000001,-9.6846919848,1.5199062648,-1.45041307,-1.65290712,4.645972990000001,,,
imu,373.688198,0.5233837000000001,-9.669140012000002,1.5121302784,-1.09152139,-1.428599820000001,3.71883615,,,
imu,372.351743,,,,,,,-129.5672316,146.8708964,133.5040576
imu,372.453183,,,,,,,-131.3494828,147.8596796,136.1774344
imu,372.554715,,,,,,,-128.8836284,147.0173828,133.162256
imu,372.656278,,,,,,,-130.6536724,147.090626,136.6779296
imu,372.75781,,,,,,,-130.8978164,147.212698,137.0929744
imu,372.859464,,,,,,,-131.05651,147.517878,135.7013536
imu,372.960965,,,,,,,-130.7879516,147.8596796,135.969912
imu,373.062558,,,,,,,-130.2752492,147.1150404,136.9098664
imu,373.16409,,,,,,,-128.7127276,147.9817516,135.7135608
imu,373.26666,,,,,,,-129.9334476,147.8352652,136.4948216
imu,373.367582,,,,,,,-127.1746204,147.090626,133.8824808
imu,373.468747,,,,,,,-129.4817812,148.5676972,136.6657224
imu,373.570401,,,,,,,-127.150206,147.4080132,134.01676
imu,373.671872,,,,,,,-129.0667364,148.6043188,136.5680648
