Type,Timestamp,Data Accelerometer X,Data Accelerometer Y,Data Accelerometer Z,Data Gyroscope X,Data Gyroscope Y,Data Gyroscope Z,Data Magnetometer X,Data Magnetometer Y,Data Magnetometer Z
imu,511.512731,-0.0203371952,-9.408345391200001,1.7926639416,-0.25410747,32.40441793,-6.38994617,,,
imu,511.521207,-0.0137575144,-9.444832712,1.7519895512,1.20388998,30.0641451,-5.59739371,,,
imu,511.529683,-0.008972292000000002,-9.495077547200001,1.7220819112,2.49739541,27.79116446,-5.13382529,,,
imu,511.538152,-0.004785222400000001,-9.514218436800002,1.6981557992,4.00025432,25.70510657,-4.9169949,,,
imu,511.54662,-0.0155519728,-9.477731116000001,1.6646592424,4.91991425,23.45455666,-4.670256869999999,,,
imu,511.555089,-0.026916876,-9.4801237272,1.6724352288,5.84705109,21.27129894,-4.28145755,,,
imu,511.563558,-0.0442633072,-9.539939007200001,1.6915761184,6.87138776,19.33477925,-4.06462716,,,
imu,511.572026,-0.158510492,-9.651793580800001,1.70473548,7.76114005,17.53284394,-3.67582784,,,
imu,511.580495,-0.2446444952,-9.699645804800001,1.6700426176,8.29200066,15.97016975,-3.29450543,,,
imu,511.588964,-0.28412258,-9.850978463200002,1.7304560504,8.2471392,14.74395651,-2.85336774,,,
imu,511.597432,-0.2775428992,-10.0621264016,1.7005484104,7.86581679,13.95140405,-2.40475314,,,
imu,511.605901,-0.2757484408,-10.1285213624,1.6257793104,6.9012954,12.98688266,-2.10567674,,,
imu,511.614369,-0.311039456,-10.054948568,1.61501256,5.49563632,11.8204847,-2.26269185,,,
imu,511.622838,-0.3134320672,-9.975992398400003,1.5803196976,4.40400746,10.84100949,-2.44213769,,,
imu,511.631307,-0.3128339144,-9.941299536000002,1.5157191952,3.46939371,9.85405737,-2.41970696,,,
imu,511.639775,-0.3104413032000001,-9.9197660352,1.4708577352,2.83385636,9.121320189999999,-2.25521494,,,
imu,511.648244,-0.3146283728000001,-9.882680561600003,1.4349685672,2.43010322,8.2315679,-2.24773803,,,
imu,511.656713,-0.2996745528,-9.818080059200001,1.4152295248,2.20579592,7.409107799999999,-2.12810747,,,
imu,511.665181,-0.2966837888,-9.773816752000002,1.4014720104,2.28804193,6.564216969999999,-1.97856927,,,
imu,511.67365,-0.2859170384,-9.7403201952,1.3942941768,2.63197979,5.659510859999999,-1.71687742,,,
imu,511.682118,-0.2715613712,-9.716992236000001,1.3613957728,2.94601001,4.85200458,-1.59724686,,,
imu,511.690587,-0.2619909264,-9.70502918,1.3596013144,3.40957843,3.91739083,-1.36546265,,,
imu,511.699056,-0.251224176,-9.706823638400001,1.3596013144,3.86566994,2.97530017,-1.15610917,,,
imu,511.707524,-0.2476352592,-9.684093832000002,1.3362733552,4.38905364,1.8761944,-0.8196482199999999,,,
imu,511.715993,-0.2613927736,-9.710412555200001,1.3625920784,4.72551459,0.9116730099999999,-0.6102947399999998,,,
imu,511.724462,-0.281131816,-9.755274015200001,1.3643865368,4.93486807,-0.23229422,-0.4757103599999999,,,
imu,511.73293,-0.3355637208,-9.7540777096,1.3470401056,5.106837000000001,-0.9126930300000002,-0.04952648999999987,,,
imu,511.741391,-0.370854736,-9.745703570400002,1.327899216,5.17412919,-1.33139999,0.44394957,,,
imu,511.749852,-0.400762376,-9.7504887928,1.318926924,5.34609812,-1.67533785,0.5561032200000002,,,
imu,511.758313,-0.4199032656,-9.794153947200002,1.324908452,5.28628284,-1.8622606,0.3542266500000002,,,
imu,511.766774,-0.4276792520000001,-9.810902225600001,1.3296936744,5.53302087,-1.8622606,0.4663803,,,
imu,511.775235,-0.4187069600000001,-9.786976113600002,1.3560123976,5.2563752,-1.86973751,0.2645037299999999,,,
imu,511.783696,-0.3971734592000001,-9.731946056000002,1.3314881328,5.37600576,-1.76506077,0.13739626,,,
imu,511.792157,-0.3852104032000001,-9.794153947200002,1.2932063536,5.51059014,-1.79496841,-0.1018648599999998,,,
imu,511.800618,-0.4031549872,-9.767835224,1.2824396032,5.6302207,-1.83235296,-0.3037414299999999,,,
imu,511.809079,-0.3720510416,-9.7427128064,1.2938045064,5.80218963,-1.6379533,-0.4532796299999999,,,
imu,511.81754,-0.370854736,-9.709216249600003,1.3506290224,6.03397384,-1.57813802,-0.46075654,,,
imu,511.826001,-0.3636769024000001,-9.714599624800002,1.3572087032,6.44520389,-1.45103055,-0.4308489,,,
imu,511.834462,-0.3463304712,-9.737329431200001,1.3554142448,6.6769881,-1.39121527,-0.4158950799999999,,,
imu,511.842923,-0.3469286240000001,-9.807313308800001,1.414631372,6.89381849,-1.20429252,-0.46075654,,,
imu,511.851384,-0.3385544848000001,-9.901821451200002,1.4588946792,6.53492681,-1.01736977,-0.8346020399999998,,,
imu,511.859845,-0.3170209840000001,-9.964029342400002,1.4882041664,6.14612749,-0.90521612,-1.04395552,,,
imu,511.868306,-0.2344758976,-10.0064981912,1.4947838472,5.51806705,-0.9799852200000005,-1.21592445,,,
imu,511.876767,-0.1292010048,-9.949075522400001,1.4439408592,4.67317622,-1.24167707,-1.54490849,,,
imu,511.885228,-0.06400234960000001,-9.920962340800001,1.4182202888,4.0600696,-2.17629082,-1.83650798,,,
imu,511.893689,-0.0101685976,-9.8946436176,1.3739569816,3.62640882,-3.32025805,-1.98604618,,,
imu,511.90215,0.04486146000000001,-9.8563618384,1.3374696608,3.4619168,-4.71844022,-1.87389253,,,
imu,511.910611,0.1549215752,-9.800733628000001,1.3261047576,3.79837775,-6.02689947,-1.253309,,,
imu,511.919072,0.2404574256,-9.802528086400002,1.3177306184,3.947915950000001,-8.0680959,-1.1037708,,,
imu,511.927533,0.3469286240000001,-9.769629682400002,1.259111644,4.07502342,-10.54295311,-0.7598329399999999,,,
imu,511.935994,0.4755314760000001,-9.739123889600002,1.2208298648,4.54606875,-13.34679436,0.1747808100000001,,,
imu,511.94446,0.5820026744000001,-9.716992236000001,1.208268656,5.12926773,-16.56186566,1.33370186,,,
imu,511.952926,0.6693329832000001,-9.676915998400002,1.178361016,5.69003598,-20.50219723,2.34308471,,,
imu,511.961392,0.7034276928000001,-9.639830524800002,1.160416432,6.3031426,-24.77898975,3.30012919,,,
imu,511.969859,0.7225685824,-9.634447149600001,1.1945111416,7.24523326,-29.25765884,4.45905024,,,
imu,511.978325,0.7399150136000001,-9.666149248000002,1.1717813352,7.888247519999999,-33.66903574,5.89461696,,,
imu,511.986791,0.6789034280000001,-9.8162856008,1.1269198752,8.538738689999999,-38.11032028,7.315229860000001,,,
imu,511.995257,0.5347486032000001,-9.9305327856,1.0718898176,8.46396959,-42.48431263,8.44424327,,,
imu,512.003723,0.3816214864,-9.937710619200002,1.0389914136,8.254616109999999,-46.14052162,9.6629796,,,
imu,512.012189,0.2470371064,-9.908999284800002,1.0461692472,7.69384786,-48.93688596,10.43310133,,,
imu,512.020655,0.08792846160000001,-9.907204826400001,1.0126726904,7.02840287,-51.30706643,10.709747,,,
imu,512.029121,-0.04246884880000001,-9.970010870400001,0.9492684936000001,6.57231136,-52.94450972,10.99386958,,,
imu,512.037587,-0.1327899216,-9.9789831624,0.8966310472000002,5.98911238,-53.78940055,11.39014581,,,
imu,512.046053,-0.2219146888,-9.921560493600001,0.8840698384000001,5.57788233,-54.40250717,11.59202238,,,
imu,512.054519,-0.2847207328,-9.8880639368,0.9139774784000001,5.36105194,-54.49223009,11.42753036,,,
imu,512.062985,-0.2924967192,-9.865932283200001,0.9193608536000001,5.27132902,-54.32026116,11.19574615,,,
imu,512.071452,-0.3307784984000001,-9.867726741600002,0.9175663952000002,5.36852885,-53.89407729,10.88919284,,,
imu,512.079918,-0.3624805968,-9.9305327856,0.9624278552000001,5.4059134,-53.42303196,10.6349779,,,
imu,512.088384,-0.4169125016,-9.962234884,0.9875502728000001,5.1816061,-52.7052486,10.04430201,,,
imu,512.09685,-0.4647647256,-9.975992398400003,1.0072893152,4.74794532,-51.82297322,9.20688809,,,
imu,512.105316,-0.4958686712000001,-9.9747960928,1.0246357464,4.24699235,-50.56685234,8.294705070000001,,,
imu,512.113782,-0.5407301312,-9.995133288000002,1.0174579128,3.82080848,-49.17614708,7.42738351,,,
imu,512.122248,-0.5156077136000001,-9.9915443712,0.9995133288000001,3.23013259,-47.32935031,6.57501577,,,
imu,512.130714,-0.502448352,-9.970010870400001,1.0072893152,2.52730305,-45.62461483,5.68526348,,,
imu,512.13918,-0.4916816016,-9.942495841600001,1.0204486768,2.00391935,-43.86754098,4.922618659999999,,,
imu,512.147995,-0.4659610312,-9.904214062400001,1.0156634544,1.42819728,-42.14785168,4.19735839,,,
imu,512.156809,-0.4300718632,-9.873708269600002,1.0222431352,1.18893616,-40.3683471,3.74874379,,,
imu,512.165623,-0.3995660704000001,-9.820472670400001,1.025832052,0.83004448,-38.67856544,3.24779082,,,
imu,512.174437,-0.3911919312,-9.775611210400001,1.0503563168,0.620691,-37.22056799,2.80665313,,,
imu,512.183252,-0.3816214864,-9.749890640000002,1.0593286088,0.65059864,-35.76257054,2.50009982,,,
imu,512.192066,-0.3648732080000001,-9.777405668800002,1.0772731928,0.82256757,-34.11017343,2.485146,,,
imu,512.20088,-0.3403489432000001,-9.800135475200001,1.1047882216,0.76275229,-32.58488379,2.55243819,,,
imu,512.209694,-0.3134320672,-9.802528086400002,1.1251254168,0.9870595899999999,-31.20165544,2.8589915,,,
imu,512.218509,-0.3020671640000001,-9.801929933600002,1.1472570704,0.8749059399999999,-29.76608872,2.76926858,,,
imu,512.227323,-0.2374666616,-9.8270523512,1.1687905712,0.9571519499999999,-28.4052911,2.485146,,,
imu,512.236137,-0.1692772424,-9.815089295200002,1.1430700008,0.76275229,-27.17907786,2.35803853,,,
imu,512.244952,-0.1351825328,-9.797144711200001,1.1460607648,0.58330645,-26.4612945,2.08886977,,,
imu,512.253766,-0.10467674,-9.772022293600001,1.1466589176,0.63564482,-25.98277226,1.67016281,,,
imu,512.26258,-0.0741709472,-9.752283251200002,1.1388829312,0.77770611,-25.45938856,1.33370186,,,
imu,512.271394,-0.05861897440000001,-9.730749750400001,1.1466589176,0.9347212199999999,-24.99582014,0.95237945,,,
imu,512.280209,-0.017944584,-9.7128051664,1.1418736952,1.17398234,-24.53225172,0.8402258000000002,,,
imu,512.289023,-0.0011963056,-9.7086180968,1.1562293624,1.45810492,-24.13597549,0.7953643399999999,,,
imu,512.297837,0.0263187232,-9.720581152800001,1.1628090432,1.82447351,-24.00139111,0.8477027100000001,,,
imu,512.306651,0.0562263632,-9.70502918,1.1628090432,2.2656112,-23.82942218,0.9299487200000001,,,
imu,512.315466,0.03588916800000001,-9.727160833600001,1.1891277664,2.52730305,-23.77708381,1.08696383,,,
imu,512.32428,0.026916876,-9.745703570400002,1.1819499328,2.75908726,-23.56773033,1.22154821,,,
imu,512.333094,0.023926112,-9.782789044000001,1.2058760448,2.863764,-23.38828449,1.34117877,,,
imu,512.341909,0.07177833600000001,-9.803724392000001,1.1957074472,2.90114855,-23.01443899,1.49819388,,,
imu,512.350386,0.1423603664,-9.800135475200001,1.2106612672,2.88619473,-22.93219298,1.45333242,,,
imu,512.358864,0.2069608688,-9.767237071200002,1.2214280176,2.91610237,-23.26865393,1.10191765,,,
imu,512.367341,0.2727576768,-9.802528086400002,1.1711831824,3.02077911,-23.79951454,0.7953643399999999,,,
imu,512.375819,0.3122357616,-9.815687448000002,1.1466589176,2.90862546,-24.68178992,0.7205952400000002,,,
imu,512.384296,0.3176191368,-9.801929933600002,1.1556312096,2.73665653,-25.79584951,0.6757337799999998,,,
imu,512.392774,0.2918985664000001,-9.741516500800001,1.160416432,2.84881018,-26.73046326,0.78788743,,,
imu,512.401251,0.2446444952,-9.7570684736,1.175370252,2.998348379999999,-27.50058499,1.04210237,,,
imu,512.409729,0.1848292152,-9.7606573904,1.1640053488,3.08059439,-28.12116852,1.09444074,,,
imu,512.418206,0.1094619624,-9.772022293600001,1.1562293624,3.31985551,-28.48753711,1.39351714,,,
imu,512.426684,0.07118018320000001,-9.761853696000001,1.1448644592,3.48434753,-28.33799891,1.64773208,,,
imu,512.435161,0.0562263632,-9.749890640000002,1.1526404456,3.63388573,-28.00901487,1.84960865,,,
imu,512.443639,0.01495382,-9.770825988000002,1.145462612,3.87314685,-27.60526173,1.99914685,,,
imu,512.452116,-0.01495382,-9.767835224,1.1442663064,3.99277741,-27.17907786,1.75240882,,,
imu,512.460594,-0.0215335008,-9.766638918400002,1.1317050976,3.925485220000001,-26.56597124,1.5131477,,,
imu,512.469071,0.0191408896,-9.779200127200001,1.142471848,3.96286977,-25.91548007,1.29631731,,,
imu,512.477549,0.0855358504,-9.8049206976,1.1400792368,4.12736179,-25.339758,1.22902512,,,
imu,512.486026,0.1519308112,-9.802528086400002,1.1263217224,3.8357623,-25.31732727,0.7056414200000001,,,
imu,512.494504,0.1752587704,-9.803724392000001,1.1257235696,3.81333157,-25.39209637,0.2869344599999999,,,
imu,512.502982,0.1662864784,-9.803126239200001,1.1077789856,3.67874719,-25.76594187,-0.02709575999999991,,,
imu,512.511586,0.1447529776,-9.803126239200001,1.097610388,3.69370101,-25.94538771,0.05515025000000007,,,
imu,512.520064,0.1058730456,-9.803126239200001,1.0862454848,3.70117792,-25.82575715,0.21964227,,,
imu,512.528541,0.05084298800000001,-9.8061170032,1.0862454848,3.5366859,-25.69117277,0.2570268200000001,,,
imu,512.537019,0.06101158560000001,-9.853969227200002,1.1017974576,3.7609932,-25.25003508,0.4140419300000002,,,
imu,512.545497,0.155519728,-9.864137824800002,1.1011993048,3.44696298,-24.79394357,0.5785339500000002,,,
imu,512.553959,0.2578038568000001,-9.8647359776,1.0772731928,3.11050203,-24.59954391,0.58601086,,,
imu,512.562421,0.3367600264,-9.8719138112,1.0683009008,2.76656417,-25.05563542,0.2794575500000001,,,
imu,512.570883,0.4115291264,-9.876100880800003,1.0533470808,2.31794957,-25.97529535,-0.01214194000000002,,,
imu,512.579346,0.4384460024000001,-9.872511964000001,1.0240375936,2.02635008,-27.11926258,-0.1018648599999998,,,
imu,512.587808,0.4282774048000001,-9.861147060800002,1.0312154272,1.83942733,-28.21089144,-0.01214194000000002,,,
imu,512.59627,0.5012520464000001,-9.862343366400001,1.0485618584,1.77961205,-29.34738176,0.04767334000000023,,,
imu,512.604732,0.6316493568000001,-9.8300431152,1.0336080384,1.54782784,-30.55864118,0.3168421000000001,,,
imu,512.613195,0.6998387760000001,-9.803724392000001,1.034804344,1.38333582,-32.30076121,0.81031816,,,
imu,512.621657,0.7327371800000001,-9.7989391696,1.043776636,1.16650543,-34.55131112,1.27388658,,,
imu,512.630119,0.7518780696000001,-9.797144711200001,1.0282246632,1.2936129,-36.67475356,2.08886977,,,
imu,512.638582,0.7907580016000001,-9.794153947200002,1.0330098856,1.35342818,-38.91782656,3.11320644,,,
imu,511.521639,,,,,,,-133.49795,146.9319324,130.903924
imu,511.623232,,,,,,,-136.488714,147.6033284,131.8682928
imu,511.724764,,,,,,,-136.0980836,147.3713916,129.0972584
imu,511.826357,,,,,,,-136.1957412,148.0427876,131.697392
imu,511.92795,,,,,,,-136.0370476,148.128238,131.7218064
imu,512.029696,,,,,,,-136.24457,147.9329228,132.4542384
imu,512.647044,0.8589474208000002,-9.787574266400002,1.0694972064,1.24875144,-41.33286849,3.88332817,,,
imu,512.655506,0.9642223136000001,-9.791761336000002,1.0449729416,1.37585891,-43.82267952,4.47400406,,,
imu,512.663968,0.9911391896000001,-9.834230184800003,1.0126726904,1.48053565,-47.03027391,4.78055737,,,
imu,512.672431,1.112564208,-9.825856045600002,0.9971207176000002,1.5179202,-50.42479105,5.191787420000001,,,
imu,512.680893,1.1412755424,-9.802528086400002,0.9935318008000001,1.45810492,-54.08100004,5.65535584,,,
imu,512.689355,1.085647332,-9.7750130576,0.9905410368000002,1.65998149,-57.96899324,6.216124090000001,,,
imu,512.697817,1.0025040928,-9.783387196800001,0.9953262592000002,1.89924261,-61.40837183999999,7.08344565,,,
imu,512.70628,0.86732156,-9.837819101600003,1.0365988024,1.93662716,-64.24959763999999,8.04796704,,,
imu,512.714742,0.7638411256000001,-9.8629415192,1.0240375936,1.77961205,-66.47771682,8.9152886,,,
imu,512.723204,0.6920627896000001,-9.824659740000001,1.0419821776,1.57025857,-68.10020628999999,9.80504089,,,
imu,512.731667,0.5514968816000001,-9.811500378400002,1.055739692,1.42072037,-69.3039888,10.61254717,,,
imu,512.740129,0.4868963792000001,-9.810902225600001,1.0360006496,1.12912088,-70.02924906999999,11.00134649,,,
imu,512.748591,0.4091365152000001,-9.802528086400002,1.0282246632,0.8823828499999999,-70.28346400999999,10.82190065,,,
imu,512.75706,0.2655798432,-9.789368724800001,1.0270283576,0.63564482,-70.35075619999999,10.5602088,,,
imu,512.765528,0.143556672,-9.785181655200002,1.0246357464,0.43376825,-69.87223395999999,10.29851695,,,
imu,512.773997,0.03110394560000001,-9.8264541984,1.0461692472,0.04496892999999999,-68.88528183999999,10.01439437,,,
imu,512.782466,-0.08792846160000001,-9.850380310400002,1.0491600112,-0.0522309,-67.30765382999999,9.53587213,,,
imu,512.790934,-0.1997830352,-9.8749045752,1.0802639568,-0.11952309,-65.04215009999999,9.13211899,,,
imu,512.799403,-0.2930948720000001,-9.8563618384,1.09162886,-0.52327623,-62.3504625,8.511535460000001,,,
imu,512.807871,-0.3630787496,-9.8264541984,1.1059845272,-0.68776825,-59.1353912,8.10030541,,,
imu,512.81634,-0.4061457512000001,-9.815687448000002,1.1311069448,-0.91207555,-55.50161294,7.614306260000001,,,
imu,512.824809,-0.4342589328000001,-9.841408018400001,1.139481084,-1.08404448,-51.62857356,7.180645480000001,,,
imu,512.833277,-0.3744436528,-9.841408018400001,1.1418736952,-1.31582869,-47.71067272,6.717077060000001,,,
imu,512.841746,-0.3612842912,-9.8061170032,1.1526404456,-1.41302852,-44.01707918,5.81237095,,,
imu,512.850215,-0.3606861384,-9.80970592,1.1777628632,-1.26349032,-40.27114727,4.85532647,,,
imu,512.858683,-0.2930948720000001,-9.8132948368,1.1819499328,-1.33825942,-36.74204575,4.04034328,,,
imu,512.867152,-0.1842310624,-9.794153947200002,1.1879314608,-1.44293616,-33.35500552,3.232837,,,
imu,512.87562,-0.125612088,-9.7744149048,1.2064741976,-1.35321324,-30.38667225,2.46271527,,,
imu,512.884089,-0.04366515440000001,-9.761853696000001,1.2088668088,-1.07656757,-27.61273864,1.90942393,,,
imu,512.892558,0.0191408896,-9.779200127200001,1.2435596712,-1.03170611,-25.38461946,1.22154821,,,
imu,512.901026,0.1082656568,-9.7911631832,1.2465504352,-0.7401066199999999,-23.14902337,0.6308723199999999,,,
imu,512.909495,0.1710717008,-9.758264779200001,1.2405689072,-0.48589168,-21.29474969,0.2944113700000002,,,
imu,512.917964,0.2255036056,-9.727160833600001,1.25612088,-0.19429219,-19.66478331,0.1299193500000002,,,
imu,512.926432,0.2673743016,-9.701440263200002,1.2776543808,0.007584380000000002,-18.35632406,0.1149655300000001,,,
imu,512.934901,0.3104413032000001,-9.669738164800002,1.2842340616,0.3963837,-16.98057262,0.09253480000000014,,,
imu,512.943369,0.3642750552,-9.657176956,1.2752617696,0.71789083,-15.75435938,-0.02709575999999991,,,
imu,512.951838,0.3947808480000001,-9.678112304,1.2662894776,0.83004448,-14.93189928,-0.2514030599999999,,,
imu,512.960302,0.4384460024000001,-9.667345553600002,1.283037756,1.17398234,-14.33374648,-0.4308489,,,
imu,512.968765,0.490485296,-9.621287788000002,1.3021786456,1.15155161,-14.09448536,-0.7598329399999999,,,
imu,512.977229,0.4713444064,-9.660765872800003,1.3195250768,1.26370526,-14.00476244,-1.11872462,,,
imu,512.985692,0.4569887392,-9.7331423616,1.339862272,1.42819728,-13.92999334,-1.47013939,,,
imu,512.994156,0.4444275304,-9.746899876,1.3530216336,1.42819728,-13.66082458,-1.79912343,,,
imu,513.002619,0.4175106544000001,-9.7702278352,1.402668316,1.39081273,-13.34679436,-1.8514618,,,
imu,513.011083,0.3648732080000001,-9.790565030400002,1.3942941768,1.12912088,-12.88322594,-1.80660034,,,
imu,513.019546,0.3247969704000001,-9.8013317808,1.4182202888,1.08425942,-12.06076584,-1.50752394,,,
imu,513.02801,0.3152265256,-9.8264541984,1.4373611784,1.0693056,-10.92427552,-1.33555501,,,
imu,513.036474,0.3301803456000001,-9.886867631200001,1.456502068,0.91229049,-9.90741576,-1.4776163,,,
imu,513.044937,0.4324644744,-9.858754449600001,1.3972849408,0.66555246,-8.95037128,-1.41032411,,,
imu,513.053401,0.4958686712000001,-9.852174768800001,1.4020701632,0.4711528,-8.67372561,-1.82155416,,,
imu,513.061864,0.5102243384,-9.868923047200001,1.411640608,0.12721494,-8.88307909,-2.5991528,,,
imu,513.070328,0.481513004,-9.9066066736,1.4200147472,-0.127,-9.21206313,-3.39170526,,,
imu,513.078791,0.4085383624000001,-9.892251006400002,1.4313796504,-0.63542988,-9.45132425,-4.00481188,,,
imu,513.087255,0.3451341656,-9.830641268,1.4511186928,-0.88964482,-9.38403206,-4.318842099999999,,,
imu,513.095718,0.2500278704,-9.794153947200002,1.4457353176,-0.9494601,-8.5914796,-4.29641137,,,
imu,513.104182,0.1662864784,-9.770825988000002,1.4708577352,-0.9943215599999999,-7.454989279999999,-4.04219643,,,
imu,513.112645,0.1244157824,-9.719983000000001,1.4678669712,-1.06161375,-6.07176093,-3.83284295,,,
imu,513.121109,0.1034804344,-9.668541859200001,1.4648762072,-1.0242292,-4.35207163,-3.78050458,,,
imu,513.129572,0.1088638096,-9.6248767048,1.4553057624,-0.7251528,-2.5351825,-3.72816621,,,
imu,513.138036,0.10467674,-9.614708107200002,1.4541094568,-0.44103022,-0.8528777500000002,-3.73564312,,,
imu,513.1465,0.1429585192,-9.627867468800002,1.4738484992,-0.05970781,0.72475026,-3.81788913,,,
imu,513.154963,0.2117460912,-9.630260080000001,1.471455888,0.27675314,2.23508608,-4.034719519999999,,,
imu,513.163777,0.2649816904,-9.6075302736,1.4732503464,0.50853735,3.27437657,-4.341272829999999,,,
imu,513.172592,0.3283858872000001,-9.625474857600002,1.4816244856,0.82256757,4.05945212,-4.65530305,,,
imu,513.181406,0.361882444,-9.709216249600003,1.519308112,1.03939796,4.65012801,-4.909517989999999,,,
imu,513.19022,0.323002512,-9.769031529600001,1.5187099592,1.09921324,5.08378879,-4.83474889,,,
imu,513.199034,0.2817299688000001,-9.7427128064,1.534261932,1.06182869,5.69689541,-4.954379449999999,,,
imu,513.207849,0.2314851336,-9.715795930400002,1.52528964,1.0693056,6.52683242,-4.86465653,,,
imu,513.216663,0.1656883256,-9.748096181600001,1.5187099592,1.07678251,7.87267622,-4.55062631,,,
imu,513.225477,0.1172379488,-9.751685098400001,1.477437416,1.2188438,9.56993479,-4.10948862,,,
imu,513.234292,0.0526374464,-9.740918348000001,1.4439408592,1.45062801,11.40177774,-4.11696553,,,
imu,513.243106,-0.0005981528000000001,-9.714599624800002,1.4457353176,1.6674584,13.48783563,-4.55062631,,,
imu,513.25192,-0.008374139200000002,-9.702636568800001,1.4271925808,2.17588828,15.91035447,-4.81231816,,,
imu,513.260734,0.0017944584,-9.703832874400002,1.4104443024,2.54973378,18.08613528,-5.350655679999999,,,
imu,513.269549,0.004785222400000001,-9.708019944000002,1.3859200376,2.67684125,20.33668519,-6.360038530000001,,,
imu,513.278363,-0.011963056,-9.7283571392,1.3889108016,3.02077911,22.4376969,-7.32455992,,,
imu,513.287177,-0.0346928624,-9.745105417600001,1.3835274264,3.36471697,24.44150878,-8.042343279999999,,,
imu,513.295991,-0.0502448352,-9.794752100000002,1.3745551344,3.4619168,26.63224341,-8.53581934,,,
imu,513.304806,-0.1100601152,-9.8210708232,1.366779148,3.39462461,28.91270096,-8.81246501,,,
imu,513.31362,-0.1620994088,-9.838417254400001,1.351825328,3.24508641,31.49223491,-9.00686467,,,
imu,513.322434,-0.2189239248,-9.818080059200001,1.3290955216,3.02825602,34.3259838,-9.14892596,,,
imu,513.331249,-0.2578038568000001,-9.787574266400002,1.3356752024,2.68431816,37.27936325,-9.23117197,,,
imu,513.340063,-0.2954874832,-9.752283251200002,1.3237121464,2.61702597,40.61406511,-9.16387978,,,
imu,513.348877,-0.3224043592,-9.8294449624,1.2483448936,2.47496468,43.92633624,-9.552679099999999,,,
imu,513.357691,-0.3325729568,-9.840809865600002,1.2238206288,2.30299575,47.25356119,-9.93400151,,,
imu,513.366201,-0.2530186344000001,-9.833632032,1.223222476,1.95158098,50.5508785,-10.33027774,,,
imu,513.37471,-0.167482784,-9.815089295200002,1.199296364,1.82447351,53.68370379,-10.77141543,,,
imu,513.383219,-0.0903210728,-9.8144911424,1.193314836,1.60764312,56.0090228,-11.48919879,,,
imu,513.391729,-0.005981528000000001,-9.825257892800002,1.1741739464,1.26370526,57.75114283,-12.46119709,,,
imu,513.400238,0.0681894192,-9.8294449624,1.1628090432,1.02444414,59.15680191,-13.3659032,,,
imu,513.408747,0.1052748928,-9.834828337600001,1.1460607648,0.56835263,60.15123094,-14.1135942,,,
imu,513.417257,0.140565908,-9.844398782400003,1.154434904,0.38142988,61.07089087,-14.35285532,,,
imu,513.425766,0.1812402984,-9.8479876992,1.1532385984,0.28423005,61.94568933999999,-14.58463953,,,
imu,513.434275,0.2225128416,-9.8432024768,1.163407196,0.007584380000000002,62.63356506,-14.50239352,,,
imu,513.442785,0.2625890792,-9.853371074400002,1.157425668,-0.35878421,63.13451803,-14.42762442,,,
imu,513.451294,0.3068523864000001,-9.812696684000002,1.1508459872,-0.69524516,63.64294791,-13.94910218,,,
imu,513.459803,0.3553027632,-9.8168837536,1.160416432,-0.95693701,63.73267083,-13.56777977,,,
imu,512.131204,,,,,,,-134.1205172,147.7864364,134.1754536
imu,512.232767,,,,,,,-131.4593476,146.663374,136.8732448
imu,512.334268,,,,,,,-126.5520532,145.7356268,137.9963072
imu,512.435861,,,,,,,-127.455386,145.7356268,140.1691888
imu,512.537393,,,,,,,-123.549082,144.1853124,137.8986496
imu,512.638925,,,,,,,-124.1838564,144.7224292,141.1945936
imu,512.740518,,,,,,,-120.0822372,143.4650876,140.0349096
imu,512.842081,,,,,,,-116.2613836,143.6970244,143.1355384
imu,513.468313,0.3959771536000001,-9.833632032,1.1699868768,-1.30087487,63.55322499,-13.32104174,,,
imu,513.476822,0.4264829464000001,-9.866530436000001,1.1592201264,-1.64481273,63.08965657,-13.17150354,,,
imu,513.485331,0.4982612824000001,-9.855763685600001,1.1652016544,-1.86164312,62.40925776,-12.87990405,,,
imu,513.49384,0.5826008272000001,-9.8264541984,1.1550330568,-2.02613514,61.48212092,-12.53596619,,,
imu,513.50235,0.6364345792000001,-9.8049206976,1.133499556,-2.04108896,60.09889257,-12.18455142,,,
imu,513.510859,0.6920627896000001,-9.803126239200001,1.133499556,-2.10090424,58.45397237,-11.90042884,,,
imu,513.519368,0.7578595976000001,-9.794153947200002,1.1161531248,-1.68967419,56.83895981,-11.22750694,,,
imu,513.527878,0.8170767248000002,-9.7786019744,1.1209383472,-1.30835178,54.95477849,-10.36018538,,,
imu,513.536387,0.8685178656000001,-9.761853696000001,1.1376866256,-1.31582869,52.65189021,-9.82932477,,,
imu,513.544896,0.9103885616000001,-9.7265626808,1.1358921672,-1.05413684,50.12469462999999,-9.49286382,,,
imu,513.553406,0.9157719368000001,-9.708019944000002,1.1418736952,-0.6503837,47.44048394,-8.96948012,,,
imu,513.561915,0.8978273528000001,-9.7074217912,1.1508459872,-0.52327623,44.53196595,-8.40123496,,,
imu,513.570445,0.8565548096000002,-9.683495679200002,1.1442663064,-0.01484635000000001,41.8776629,-7.87785126,,,
imu,513.578974,0.8176748776000001,-9.6667474008,1.1388829312,0.29170696,39.2607444,-7.735789969999999,,,
imu,513.587504,0.7680281952000001,-9.667943706400001,1.15144414,0.60573718,36.93542539,-7.556344129999999,,,
imu,513.596034,0.7165870544000001,-9.669140012000002,1.1526404456,1.19641307,34.6998293,-7.13016026,,,
imu,513.604659,0.6645477608,-9.666149248000002,1.1562293624,1.54782784,32.76330961,-7.09277571,,,
imu,513.613188,0.6214807592000001,-9.7122070136,1.1801554744,1.87681188,31.19315851,-7.01800661,,,
imu,513.621718,0.6166955368000001,-9.772022293600001,1.2028852808,2.05625772,29.70525342,-7.04791425,,,
imu,513.630248,0.6424161072,-9.819276364800002,1.1998945168,2.04878081,28.3444558,-7.032960429999999,,,
imu,513.638777,0.681894192,-9.8402117128,1.202287128,1.8917657,26.70701251,-7.0852988,,,
imu,513.647307,0.6926609424000001,-9.883876867200001,1.202287128,1.39081273,24.69572372,-7.33203683,,,
imu,513.655837,0.7064184568,-9.904214062400001,1.1825480856,0.9347212199999999,22.67695802,-7.63859014,,,
imu,513.664366,0.7135962904,-9.911391896000003,1.1699868768,0.5982602699999999,20.58342322,-7.59372868,,,
imu,513.672896,0.7034276928000001,-9.8982325344,1.1610145848,0.31413769,18.65438044,-7.279698460000001,,,
imu,513.681426,0.6711274416,-9.873708269600002,1.1592201264,-0.0522309,16.73281457,-6.988098969999999,,,
imu,513.689955,0.6244715232,-9.863539672000002,1.1448644592,0.05244583999999999,15.02060218,-6.43480763,,,
imu,513.698485,0.5760211464000001,-9.841408018400001,1.124527264,-0.02232326000000001,13.45792799,-5.8889932,,,
imu,513.707015,0.5287670752,-9.825856045600002,1.1233309584,0.35152224,12.1943302,-5.044102369999999,,,
imu,513.715544,0.4797185456,-9.8061170032,1.1352940144,0.59078336,11.16999353,-4.43847266,,,
imu,513.724074,0.4348570856000001,-9.772022293600001,1.1269198752,0.71789083,10.24285669,-3.85527368,,,
imu,513.732604,0.3911919312,-9.8079114616,1.0784694984,1.02444414,9.54750406,-3.32441307,,,
imu,513.741133,0.3864067088000001,-9.818678212000002,1.0832547208,1.33099745,9.11384328,-2.90570611,,,
imu,513.749663,0.3720510416,-9.736731278400002,1.139481084,1.34595127,8.54559812,-2.65149117,,,
imu,513.758193,0.3463304712,-9.7301515976,1.148453376,1.4431511,8.06707588,-2.53186061,,,
imu,513.766722,0.382817792,-9.800135475200001,1.145462612,1.62259694,7.581076729999999,-2.68139881,,,
imu,513.775087,0.4743351704000001,-9.803126239200001,1.1197420416,1.58521239,6.97544702,-2.75616791,,,
imu,513.783451,0.5467116592000001,-9.776209363200001,1.15144414,1.42072037,5.90624889,-2.9729983,,,
imu,513.791815,0.5718340768000001,-9.789368724800001,1.1622108904,1.10669015,4.500589809999999,-3.22721324,,,
imu,513.80018,0.5921712720000001,-9.802528086400002,1.1496496816,0.8973366700000001,3.15474601,-3.15244414,,,
imu,513.808544,0.5915731192000001,-9.803126239200001,1.1508459872,0.57582954,1.83133294,-2.65896808,,,
imu,513.816908,0.5610673264,-9.788172419200002,1.1472570704,0.53096808,0.6125966099999998,-2.12810747,,,
imu,513.825273,0.5096261856000001,-9.7989391696,1.1562293624,0.18703022,-0.6435242699999999,-1.99352309,,,
imu,513.833637,0.451605364,-9.783387196800001,1.1388829312,0.19450713,-1.43607673,-1.54490849,,,
imu,513.842001,0.4193051128000001,-9.751685098400001,1.1430700008,0.36647606,-1.96693734,-1.09629389,,,
imu,513.850366,0.4444275304,-9.764246307200002,1.1412755424,0.50853735,-2.28096756,-0.9243249599999999,,,
imu,513.85873,0.4599795032,-9.764246307200002,1.1281161808,0.67302937,-2.75201289,-1.04395552,,,
imu,513.867095,0.4408386136,-9.745703570400002,1.1340977088,0.6954601,-3.4324117,-1.52247776,,,
imu,513.875459,0.4091365152000001,-9.7576666264,1.148453376,0.91229049,-4.08290287,-1.85893871,,,
imu,513.883823,0.370854736,-9.772022293600001,1.1346958616,1.30108981,-4.4791791,-1.97856927,,,
imu,513.892188,0.3421434016,-9.786976113600002,1.1430700008,1.63755076,-4.68105567,-2.12810747,,,
imu,513.900552,0.3086468448,-9.772620446400001,1.163407196,1.68241222,-4.7782555,-2.41970696,,,
imu,513.908916,0.3176191368,-9.787574266400002,1.1711831824,1.72727368,-4.7782555,-2.5243837,,,
imu,513.917281,0.3247969704000001,-9.794752100000002,1.1681924184,1.80204278,-4.80816314,-2.57672207,,,
imu,513.925645,0.3038616224,-9.793555794400001,1.1586219736,1.69736604,-4.83059387,-2.77859864,,,
imu,513.934009,0.275150288,-9.800733628000001,1.1622108904,1.63755076,-4.80068623,-3.02533667,,,
imu,513.942374,0.2374666616,-9.803126239200001,1.1699868768,1.50296638,-4.81564005,-3.31693616,,,
imu,513.950738,0.1955959656,-9.819276364800002,1.1699868768,1.41324346,-4.56142511,-3.51133582,,,
imu,513.959103,0.1507345056,-9.8228652816,1.178361016,1.34595127,-4.23244107,-3.65339711,,,
imu,513.967467,0.1058730456,-9.8162856008,1.1681924184,1.28613599,-3.63428827,-3.7954584,,,
imu,513.975937,0.0693857248,-9.8228652816,1.1771647104,1.06182869,-2.92398182,-4.06462716,,,
imu,513.984407,0.03110394560000001,-9.818678212000002,1.193314836,0.8524752099999999,-2.07161408,-4.32631901,,,
imu,513.992877,-0.008374139200000002,-9.803724392000001,1.2046797392,0.67302937,-1.17438488,-4.58801086,,,
imu,514.001346,-0.03289840400000001,-9.788770572,1.2088668088,0.65807555,0.05930526999999985,-4.70016451,,,
imu,514.009816,-0.0502448352,-9.803724392000001,1.1963056,0.53844499,1.30794924,-4.85717962,,,
imu,514.018286,-0.04127254320000001,-9.8049206976,1.2220261704,0.25432241,2.63136231,-4.999240909999999,,,
imu,514.026756,0.0011963056,-9.800733628000001,1.2453541296,0.23189168,3.820191,-5.216071299999999,,,
imu,514.035226,0.05742266880000001,-9.789966877600001,1.2519338104,0.14964567,4.91181986,-5.260932759999999,,,
imu,514.043696,0.1238176296,-9.7845835024,1.2585134912,0.14964567,5.71184923,-5.25345585,,,
imu,514.052166,0.1848292152,-9.797144711200001,1.268083936,-0.06718472,5.921202709999999,-5.27588658,,,
imu,514.060636,0.2554112456,-9.773218599200002,1.253130116,-0.26158438,6.04831018,-5.16373293,,,
imu,514.069106,0.3236006648,-9.743310959200002,1.25612088,-0.17186146,5.88381816,-4.67773378,,,
imu,514.077576,0.3559009160000001,-9.7151977776,1.2579153384,-0.11952309,5.49501884,-4.42351884,,,
imu,514.086045,0.4420349192,-9.709814402400001,1.2369799904,0.26927623,4.9417275,-4.00481188,,,
imu,514.094515,0.5437208952000001,-9.710412555200001,1.2339892264,0.56087572,3.99215993,-3.58610492,,,
imu,514.102985,0.6083213976,-9.7122070136,1.2465504352,0.88985976,2.72856214,-3.2720747,,,
imu,514.111455,0.7058203040000001,-9.706225485600001,1.2393726016,1.15155161,1.02382666,-2.96552139,,,
imu,514.119925,0.771617112,-9.675719692800001,1.2226243232,1.80204278,-0.9949390400000002,-2.42718387,,,
imu,514.128395,0.8284416280000001,-9.6745233872,1.2274095456,2.10111918,-3.47727316,-2.09819983,,,
imu,514.136865,0.9696056888000001,-9.694860582400002,1.2208298648,2.58711833,-5.974561100000001,-1.51500085,,,
imu,514.145335,1.1520422928,-9.669738164800002,1.1951092944,3.06564057,-9.01018656,-0.7000176599999999,,,
imu,514.153805,1.3123472432,-9.635643455200002,1.1717813352,3.45443989,-12.95799504,-0.3112183399999999,,,
imu,514.162275,1.5199062648,-9.655382497600002,1.16639796,3.82828539,-17.61610997,0.10001171,,,
imu,514.170744,1.7681396768,-9.702038416,1.15144414,4.33671527,-23.17893101,0.8850872600000002,,,
imu,514.179563,2.0002229632,-9.741516500800001,1.1173494304,4.86009897,-29.77356563,1.8869932,,,
imu,514.188381,2.1587334552,-9.752881404000002,1.1053863744,5.17412919,-37.35515237,2.62720729,,,
imu,514.197199,2.2753732512,-9.748096181600001,1.085647332,5.4059134,-45.41526135,3.44966739,,,
imu,514.206017,2.4847267312,-9.76484446,1.019850524,5.5554516,-54.02118476,4.43661951,,,
imu,514.214836,2.783204978400001,-9.770825988000002,0.9133793256000001,5.65265143,-63.24021479,5.94695533,,,
imu,514.223654,3.017082723200001,-9.860548908000002,0.9020144224000001,5.7049898,-73.60321205,7.748890640000001,,,
imu,514.232472,3.1839673544,-9.834828337600001,0.7674300424000001,5.27880593,-85.3045762,9.23679573,,,
imu,514.241291,3.237801106400001,-9.803724392000001,0.6681366776000001,5.03954481,-97.67886225,10.44805515,,,
imu,514.250109,3.059551572000001,-9.803126239200001,0.5760211464000001,4.78532987,-110.10548667,11.8312835,,,
imu,514.258927,2.7897846592,-9.821668976000002,0.4851019208000001,4.71803768,-121.6423588,13.61826499,,,
imu,514.267745,2.508652843200001,-9.802528086400002,0.4318663216,5.03954481,-131.22028051,16.54921371,,,
imu,514.276564,2.2992993632,-9.914382660000001,0.4432312248,5.12179082,-139.26543567,19.91382321,,,
imu,512.943643,,,,,,,-114.1007092,143.8801324,143.0134664
imu,513.045206,,,,,,,-112.6602596,143.9289612,142.6106288
imu,513.146768,,,,,,,-111.9156204,144.6369788,142.622836
imu,513.248514,,,,,,,-112.318458,144.1486908,143.2209888
imu,513.349893,,,,,,,-113.539178,144.0510332,143.355268
imu,513.451486,,,,,,,-115.1383212,144.6125644,142.5984216
imu,513.553018,,,,,,,-121.412822,144.6247716,142.195584
imu,513.654611,,,,,,,-120.7902548,144.0754476,138.960676
imu,514.285382,2.0570474792,-9.9299346328,0.3714528888,4.94234498,-146.37597708,23.24852507,,,
imu,514.2942,1.65987402,-10.0537522624,0.4181088072000001,4.61336094,-152.76873513,26.01498177,,,
imu,514.303018,1.1687905712,-10.2212350464,0.4970649768000001,4.02268505,-157.35208096,27.74214798,,,
imu,514.311837,0.8326286976000001,-10.2457593112,0.4731388648000001,2.81890254,-159.8493689,29.03565341,,,
imu,514.320655,0.6071250920000001,-10.294209688,0.4868963792000001,1.33099745,-160.65687518,30.24691283,,,
imu,514.329473,0.4270810992000001,-10.2116646016,0.4252866408000001,-0.44103022,-160.23069131,30.92731164,,,
imu,514.338291,0.2942911776,-10.1153620008,0.4438293776000001,-1.82425857,-158.92223206,30.83758872,,,
imu,514.34711,0.04964668240000001,-10.0932303472,0.4713444064,-3.27477911,-157.15020439,29.79829823,,,
imu,514.355928,-0.200381188,-10.042985512,0.4910834488,-4.35893106,-154.19682494,28.8038692,,,
imu,514.364746,-0.4827093096,-9.993936982400001,0.5461135064000001,-5.15896043,-150.03218607,28.17580876,,,
imu,514.373564,-0.6992406232000001,-9.968216412,0.6878757200000001,-5.480467559999999,-144.46188812,27.58513287,,,
imu,514.382034,-0.8589474208000002,-9.867726741600002,0.8087025856000001,-5.38326773,-138.0915608,26.21685834,,,
imu,514.390504,-1.0862454848,-9.817481906400001,0.903210728,-5.2112988,-130.93615793,24.05603135,,,
imu,514.398974,-1.274065464,-9.743909112,0.9618297024000001,-4.97203768,-122.75641839,22.26157295,,,
imu,514.407444,-1.4014720104,-9.709814402400001,1.085647332,-4.17200831,-113.68692656,21.14003645,,,
imu,514.415914,-1.4648762072,-9.697253193600002,1.1765665576,-3.25234838,-104.25106614,19.71942355,,,
imu,514.424384,-1.4852134024,-9.620091482400001,1.2357836848,-2.43736519,-94.56846768999999,17.32681235,,,
imu,514.432854,-1.5563935856,-9.5459205352,1.3147398544,-1.53265908,-84.58679283999999,14.50054037,,,
imu,514.441324,-1.6138162544,-9.5656595776,1.426594428,-0.59056842,-74.66493326999999,11.89857569,,,
imu,514.449793,-1.5809178504,-9.621287788000002,1.4816244856,0.36647606,-64.41408965999999,9.57325668,,,
imu,514.458263,-1.4977746112,-9.631456385600002,1.5348600848,1.04687487,-54.31278425,6.978768909999999,,,
imu,514.466733,-1.3619939256,-9.6667474008,1.5952735176,1.2936129,-44.66009344,4.055297100000001,,,
imu,514.475203,-1.163407196,-9.719983000000001,1.6610703256,1.58521239,-35.32143285,1.26640967,,,
imu,514.483673,-0.9193608536000001,-9.800733628000001,1.6921742712,1.54035093,-26.94729365,-1.21592445,,,
imu,514.492143,-0.6448087184,-9.802528086400002,1.677818604,1.23379762,-19.51524511,-3.84779677,,,
imu,514.500613,-0.4019586816,-9.805518850400002,1.6790149096,1.03192105,-13.27202526,-6.382469260000001,,,
imu,514.509083,-0.1991848824,-9.8629415192,1.7053336328,0.28423005,-8.10548045,-8.588157709999999,,,
imu,514.517553,0.0065796808,-9.853969227200002,1.6754259928,-0.45598404,-3.75391883,-10.18073954,,,
imu,514.526022,0.2057645632,-9.8049206976,1.6520980336,-0.97189083,-0.1051867500000001,-11.36209132,,,
imu,514.534492,0.3313766512,-9.802528086400002,1.6730333816,-1.33825942,2.63136231,-12.42381254,,,
imu,514.542962,0.4324644744,-9.8228652816,1.6903798128,-1.42798234,5.023973509999999,-12.70045821,,,
imu,514.551432,0.5287670752,-9.802528086400002,1.6550887976,-1.74948947,6.97544702,-12.44624327,,,
imu,514.559902,0.6125084672000001,-9.763050001600002,1.6796130624,-2.10090424,8.575505759999999,-11.90042884,,,
imu,514.568372,0.6735200528,-9.8079114616,1.7442135648,-2.43736519,9.58488861,-11.50415261,,,
imu,514.576842,0.7303445688000001,-9.800733628000001,1.7089225496,-2.65419558,10.34005652,-10.96581509,,,
imu,514.585332,0.7650374312,-9.754675862400001,1.710717008,-2.91588743,10.81857876,-10.53215431,,,
imu,514.593822,0.7315408744,-9.6912716656,1.7274652864,-3.14019473,10.97559387,-10.02372443,,,
imu,514.602313,0.6968480120000001,-9.646410205600002,1.7513913984,-3.14767164,11.27467027,-9.52277146,,,
imu,514.610803,0.6753145112000001,-9.637437913600001,1.7651489128,-2.8934567,11.6709465,-8.66292681,,,
imu,514.619293,0.708811068,-9.613511801600001,1.7783082744,-2.42988828,12.11208419,-7.847943620000001,,,
imu,514.627783,0.7452983888000001,-9.593772759200002,1.803430692,-1.93641222,12.35134531,-7.3096061,,,
imu,514.636274,0.8272453224,-9.597361676,1.8046269976,-1.44293616,12.46349896,-7.0852988,,,
imu,514.644764,0.900219964,-9.585398620000001,1.7932620944,-1.03170611,12.06722273,-7.189975539999999,,,
imu,514.653254,0.9217534648000001,-9.551902063200002,1.791467636,-0.61299915,11.30457791,-7.57129795,,,
imu,514.661744,0.9175663952000002,-9.5656595776,1.8052251504,-0.08961545,10.33257961,-8.18440457,,,
imu,514.670235,0.8715086296000001,-9.551303910400001,1.785486108,0.65059864,9.622273159999999,-8.77508046,,,
imu,514.678725,0.8158804192000001,-9.535153784800002,1.8016362336,1.2936129,8.91944362,-9.4031409,,,
imu,514.687215,0.7542706808000001,-9.602745051200001,1.8584607496,1.97401171,8.52316739,-9.724648029999999,,,
imu,514.695577,0.7470928472,-9.633250844,1.8644422776,2.43010322,8.16427571,-9.73212494,,,
imu,514.704068,0.7100073736000001,-9.672130776000001,1.8859757784,2.79647181,7.8577224,-9.94895533,,,
imu,514.712558,0.6932590952000001,-9.7128051664,1.9087055848,2.84881018,7.73809184,-10.225601,,,
imu,514.721048,0.7016332344,-9.755872168000002,1.896144376,2.81142563,7.603507459999999,-10.1508319,,,
imu,514.729538,0.6938572480000001,-9.7744149048,1.8823868616,2.37776485,7.2595696,-10.25550864,,,
imu,514.738029,0.7106055264000001,-9.7510869456,1.866236736,1.84690424,6.76609354,-10.45738521,,,
imu,514.746519,0.6789034280000001,-9.751685098400001,1.8429087768,1.43567419,6.227756019999999,-10.53215431,,,
imu,514.755009,0.6370327320000001,-9.746899876,1.8375254016,1.15902852,5.71932614,-10.36766229,,,
imu,514.763499,0.5694414656000001,-9.725964528,1.8267586512,0.8375213899999999,5.3903421,-10.03120134,,,
imu,514.771989,0.5012520464000001,-9.694860582400002,1.8476939992,0.78518302,5.09874261,-9.67230966,,,
imu,514.78048,0.4456238360000001,-9.744507264800001,1.8793960976,0.88985976,5.136127159999999,-9.14144905,,,
imu,514.788931,0.4569887392,-9.738525736800002,1.8644422776,0.85995212,5.43520356,-8.5059117,,,
imu,514.797381,0.4821111568000001,-9.725366375200002,1.8626478192,0.5982602699999999,5.45763429,-8.04982019,,,
imu,514.805832,0.4874945320000001,-9.721179305600002,1.8674330416,0.56087572,5.48754193,-7.67597469,,,
imu,514.814283,0.4504090584,-9.739123889600002,1.8560681384,0.35152224,5.308096089999999,-7.52643649,,,
imu,514.822734,0.3971734592000001,-9.727160833600001,1.8387217072,0.22441477,5.12117334,-7.33203683,,,
imu,514.831185,0.370854736,-9.692467971200001,1.845301388,0.05992275,5.27818845,-7.10772953,,,
imu,514.839636,0.3026653168,-9.657775108800001,1.851282916,0.03001510999999998,5.60717249,-6.80117622,,,
imu,514.848086,0.3098431504,-9.593772759200002,1.8219734288,0.05244583999999999,6.01840254,-6.56939201,,,
imu,514.856537,0.3313766512,-9.543527924000001,1.7998417752,0.3963837,6.579170789999999,-6.292746339999999,,,
imu,514.864988,0.3098431504,-9.545322382400002,1.7908694832,1.04687487,7.13993904,-6.15068505,,,
imu,514.873439,0.1979885768,-9.596763523200002,1.8118048312,1.70484295,7.45396926,-6.49462291,,,
imu,514.88189,-0.0011963056,-9.630260080000001,1.8082159144,2.23570356,8.32876773,-6.83108386,,,
imu,514.89034,-0.20935348,-9.638036066400002,1.815393748,2.80394872,10.19799523,-7.09277571,,,
imu,514.898791,-0.3774344168000001,-9.627867468800002,1.797449164,3.282470959999999,13.06165176,-7.451667389999999,,,
imu,514.907242,-0.4737370176,-9.7074217912,1.8052251504,3.76847011,16.79262985,-7.780651429999999,,,
imu,514.915693,-0.4803166984,-9.776209363200001,1.776513816,4.17222325,21.23391439,-8.48348097,,,
imu,514.924144,-0.3786307224000001,-9.883278714400001,1.8327401792,4.32923836,25.4284609,-9.37323326,,,
imu,514.932595,-0.155519728,-9.952066286400001,1.788476872,3.731085559999999,29.27159264,-10.6742156,,,
imu,514.941045,0.1220231712,-9.905410368000002,1.7310542032,3.09554821,31.94084951,-12.22193597,,,
imu,514.949496,0.3511156936,-9.885671325600002,1.692772424,2.13102682,33.21940112,-14.15845566,,,
imu,514.957947,0.5808063688,-9.892849159200003,1.6449202,0.8375213899999999,33.42127769,-16.1323599,,,
imu,514.966398,0.7530743752000001,-9.9095974376,1.6138162544,-0.23167674,32.87546326,-17.71746482,,,
imu,514.974849,0.8691160184000001,-9.925149410400001,1.5934790592,-1.30835178,31.42494272,-18.70441694,,,
imu,514.9833,0.9558481744000001,-9.881484256,1.5982642816,-2.13081188,29.62300741,-19.08573935,,,
imu,514.991744,0.9857558144000002,-9.879091644800003,1.626975616,-2.60185721,27.66405699,-18.91377042,,,
imu,515.000189,1.0276265104,-9.855763685600001,1.6275737688,-2.87850288,25.44341472,-17.8520492,,,
imu,515.008633,1.049758164,-9.791761336000002,1.6203959352,-3.16262546,23.1106188,-16.40900557,,,
imu,515.017077,0.9851576616000001,-9.745105417600001,1.6431257416,-3.28225602,20.74043833,-15.00334649,,,
imu,515.025522,0.8523677400000002,-9.743310959200002,1.6652573952,-3.05047181,18.33287331,-13.50796449,,,
imu,515.033966,0.6531828576,-9.693066124000001,1.6616684784,-2.78877996,16.32158452,-11.69855227,,,
imu,515.042411,0.4569887392,-9.639830524800002,1.683800132,-2.25791935,15.07294055,-9.791940219999999,,,
imu,515.050855,0.2243073,-9.5985579816,1.7089225496,-1.79435093,14.66918741,-8.23674294,,,
imu,515.0593,-0.0352910152,-9.572837411200002,1.7125114664,-1.19619813,15.16266347,-6.711453300000001,,,
imu,515.067744,-0.2470371064,-9.4962738528,1.6951650352,-0.26158438,16.55336873,-5.39551714,,,
imu,515.076189,-0.4474182944000001,-9.438851184,1.6939687296,1.10669015,18.79644173,-4.692687599999999,,,
imu,515.084633,-0.6591643856000001,-9.398176793600001,1.686790896,2.69927198,21.87692865,-4.30388828,,,
imu,515.093078,-0.8069081272,-9.4107380024,1.7262689808,4.38157673,25.69015275,-3.95247351,,,
imu,513.756018,,,,,,,-124.0739916,144.8811228,141.3532872
imu,513.857581,,,,,,,-123.6833612,144.3928348,138.7531536
imu,513.959113,,,,,,,-124.2326852,145.625762,141.6828816
imu,514.060706,,,,,,,-124.03737,144.832294,141.9148184
imu,514.162268,,,,,,,-124.464622,144.9055372,141.5119808
imu,514.263861,,,,,,,-123.42701,145.3327892,141.9636472
imu,514.365393,,,,,,,-114.4058892,144.4782852,143.0134664
imu,514.467139,,,,,,,-104.5180572,144.5026996,141.0236928
imu,515.101522,-0.8906495192000001,-9.495077547200001,1.7531858568,5.97415856,30.16134493,-3.52628964,,,
imu,515.109967,-0.9289312984000001,-9.479525574400002,1.7717285936,7.45458674,35.03629025,-3.10010577,,,
imu,515.118411,-0.9534555632000001,-9.454403156800002,1.7651489128,9.09950694,39.79908192,-3.1225365,,,
imu,515.126856,-1.0102800792,-9.435860420000001,1.7065299384,10.60984276,44.84599617,-3.07767504,,,
imu,515.1353,-1.052748928,-9.450814240000001,1.6652573952,12.03045566,50.2518021,-2.748691,,,
imu,515.143744,-1.0718898176,-9.4843107968,1.5958716704,13.44359165,55.66508494,-2.14306129,,,
imu,515.152189,-1.0473655528,-9.454403156800002,1.543234224,14.69223562,61.35501344999999,-1.96361545,,,
imu,515.160633,-0.9995133288000001,-9.557883591200001,1.519308112,15.55955718,66.66361954999999,-2.64401426,,,
imu,515.169078,-0.9875502728000001,-9.739123889600002,1.5318693208,16.05303324,71.43388813,-4.079580979999999,,,
imu,515.177522,-0.9791761336000001,-9.9335235496,1.5270840984,16.04555633,75.91255722,-6.532007459999999,,,
imu,515.185967,-0.9791761336000001,-10.016068636,1.4750448048,14.9763582,80.43608777,-9.56015601,,,
imu,515.194789,-0.9259405344000001,-10.1273250568,1.4397537896,13.15199216,85.28112545,-12.28175125,,,
imu,515.203611,-0.8009265992000001,-10.2451611584,1.3524234808,10.95378062,89.88690201,-14.46500897,,,
imu,515.212434,-0.6065269392000001,-10.3534268152,1.2525319632,8.321908299999999,93.85714122,-16.40900557,,,
imu,515.221256,-0.3887993200000001,-10.3923067472,1.160416432,5.71246671,97.11707398,-18.50254037,,,
imu,515.230078,-0.1650901728,-10.4084568728,1.1101715968,3.1628404,99.55454664,-20.62598281,,,
imu,515.2389,0.092713684,-10.3677824824,1.0461692472,0.65059864,100.92282117,-22.27837992,,,
imu,515.247722,0.3660695136000001,-10.2678909648,0.9815687448000001,-1.35321324,101.27423594,-23.2354244,,,
imu,515.256545,0.5628617848,-10.1817569616,0.9313239096000001,-3.0429949,100.50411421,-23.97563849,,,
imu,515.265367,0.7052221512000001,-10.0621264016,0.9044070336000001,-4.22434668,98.90405547,-24.34200708,,,
imu,515.274189,0.8051136688,-9.994535135200001,0.9079959504000001,-5.09914515,96.66845938,-23.92330012,,,
imu,515.283011,0.8523677400000002,-9.899428840000002,0.9038088808000001,-5.719728679999999,94.12630998,-23.04102474,,,
imu,515.291834,0.9379035904000002,-9.833632032,0.9085941032000001,-6.05618963,91.38976092,-21.78490386,,,
imu,515.300656,1.043776636,-9.803724392000001,0.9648204664000001,-6.09357418,88.66068877000001,-20.03530692,,,
imu,515.309478,1.13649032,-9.787574266400002,1.0216449824,-6.048712719999999,85.38580219,-18.05392577,,,
imu,515.3183,1.1831462384,-9.765442612800001,1.06172122,-6.071143449999999,81.6548241,-16.19217518,,,
imu,515.327123,1.1675942656,-9.739722042400002,1.1000029992,-6.07862036,77.44532377,-14.62950099,,,
imu,515.335945,1.1131623608,-9.687084596000002,1.118545736,-5.89169761,73.07880833,-13.10421135,,,
imu,515.344767,1.0467674,-9.635045302400002,1.1460607648,-5.70477486,68.97398474,-11.81818283,,,
imu,515.353589,0.9564463272000002,-9.606932120800002,1.1765665576,-5.390744639999999,65.10842227,-10.80879998,,,
imu,515.362411,0.8655271016000001,-9.556089132800002,1.1735757936,-4.94960695,61.66904366999999,-10.01624752,,,
imu,515.371234,0.7997302936000001,-9.51062952,1.1735757936,-4.28416196,58.49883383,-9.4031409,,,
imu,515.380056,0.7261574992000001,-9.467562518400001,1.1801554744,-3.4168404,55.65760803,-8.97695703,,,
imu,515.388878,0.6519865520000001,-9.4735440464,1.2130538784,-2.11585806,53.10798172,-8.655449899999999,,,
imu,515.397363,0.6202844536000002,-9.535153784800002,1.247148588,-0.76253735,50.7751858,-8.59563462,,,
imu,515.405849,0.6615569968000001,-9.602745051200001,1.265093172,0.30666078,48.66669718,-8.45357333,,,
imu,515.414334,0.6986424704000002,-9.617698871200002,1.2627005608,1.11416706,46.24417834,-8.52086552,,,
imu,515.422819,0.7016332344,-9.657176956,1.2926082008,1.75718132,43.46276782,-8.64797299,,,
imu,515.431304,0.6477994824000001,-9.687084596000002,1.2866266728,2.33290339,40.84584932,-9.00686467,,,
imu,515.439789,0.6041343280000001,-9.7504887928,1.3021786456,2.87124091,38.22893082,-9.20874124,,,
imu,515.448274,0.5251781584,-9.797144711200001,1.303973104,3.14788658,35.8961349,-9.08911068,,,
imu,515.456759,0.4701481008,-9.802528086400002,1.3057675624,3.1628404,33.88484611,-8.88723411,,,
imu,515.465245,0.4151180432000001,-9.8234634344,1.3237121464,2.84133327,32.29226428,-8.67040372,,,
imu,515.47373,0.3744436528,-9.839015407200002,1.3255066048,2.68431816,30.93146666,-8.37880423,,,
imu,515.482215,0.352910152,-9.873708269600002,1.3201232296,2.51234923,29.58562286,-8.09468165,,,
imu,515.4907,0.3606861384,-9.912588201600002,1.3410585776,2.05625772,28.40427108,-7.930189629999999,,,
imu,515.499185,0.3224043592,-9.917373424,1.3392641192,1.8169966,27.1481502,-7.840466709999999,,,
imu,515.50767,0.3008708584000001,-9.915578965600002,1.3524234808,1.53287402,25.9518446,-7.72083615,,,
imu,515.516156,0.272159524,-9.906008520800002,1.3422548832,0.91229049,24.84526192,-7.48905194,,,
imu,515.524641,0.2027737992,-9.897036228800001,1.3350770496,0.41881443,23.72372542,-7.34699065,,,
imu,515.533126,0.1519308112,-9.877297186400002,1.3362733552,0.12721494,22.95360369,-7.04791425,,,
imu,515.541611,0.1124527264,-9.8234634344,1.3374696608,-0.43355331,22.51994291,-6.76379167,,,
imu,515.550096,0.0741709472,-9.803724392000001,1.2752617696,-0.92702937,22.13114359,-6.45723836,,,
imu,515.558581,0.0143556672,-9.8061170032,1.2250169344,-1.10647521,22.01898994,-6.10582359,,,
imu,515.567067,-0.0161501256,-9.715795930400002,1.2190354064,-0.9644139199999999,22.24329724,-5.72450118,,,
imu,515.575552,-0.03289840400000001,-9.614708107200002,1.2148483368,-0.8672140899999999,22.72929639,-5.41047096,,,
imu,515.584037,-0.0346928624,-9.612913648800001,1.2058760448,-0.56066078,23.38726447,-5.05905619,,,
imu,515.592522,-0.0323002512,-9.6039413568,1.1568275152,0.14964567,23.99289418,-4.94690254,,,
imu,515.600977,-0.007775986400000001,-9.609324732000001,1.1460607648,0.85995212,24.63590844,-4.75250288,,,
imu,515.609431,0.0317020984,-9.668541859200001,1.1807536272,1.70484295,25.21910742,-4.70016451,,,
imu,515.617886,0.07118018320000001,-9.685888290400001,1.1616127376,2.54225687,25.70510657,-4.79736434,,,
imu,515.626341,0.1202287128,-9.675121540000001,1.1562293624,2.998348379999999,25.81726022,-5.11887147,,,
imu,515.634795,0.1812402984,-9.7056273328,1.1532385984,3.4619168,25.70510657,-5.37308641,,,
imu,515.64325,0.2231109944,-9.7504887928,1.1400792368,3.78342393,25.27144579,-5.73197809,,,
imu,515.651704,0.2470371064,-9.789966877600001,1.139481084,3.90305449,24.52375479,-6.21050033,,,
imu,515.660159,0.2649816904,-9.8294449624,1.1777628632,3.7609932,23.91064817,-6.666591840000001,,,
imu,515.668614,0.281131816,-9.872511964000001,1.21125942,3.40957843,23.0358497,-7.20492936,,,
imu,515.677068,0.2697669128,-9.9000269928,1.2369799904,2.998348379999999,21.99655921,-7.85542053,,,
imu,515.685523,0.2506260232,-9.945486605600001,1.2896174368,2.40019558,20.98717636,-8.33394277,,,
imu,515.693978,0.2655798432,-9.997525899200001,1.3380678136,1.84690424,20.14976244,-8.51338861,,,
imu,515.702432,0.2584020096,-10.0029092744,1.3440493416,0.9048135799999999,19.27496397,-8.74517282,,,
imu,515.710887,0.2500278704,-9.986759148800001,1.366779148,0.16459949,18.51231915,-9.03677231,,,
imu,515.719342,0.2249054528,-9.9688145648,1.3685736064,-0.52327623,17.63752068,-9.05920304,,,
imu,515.727796,0.20935348,-9.919167882400002,1.3733588288,-0.92702937,16.92721423,-8.894711019999999,,,
imu,515.736251,0.1938015072,-9.8778953392,1.3823311208,-1.46536689,16.21690778,-8.73769591,,,
imu,515.744706,0.1489400472,-9.8467913936,1.3811348152,-1.74948947,15.59632425,-8.52834243,,,
imu,515.75316,0.09869521200000002,-9.824061587200001,1.3625920784,-1.98875059,15.10284819,-8.33394277,,,
imu,515.761615,0.0490485296,-9.801929933600002,1.3512271752,-2.11585806,14.76638724,-8.01243564,,,
imu,515.770069,0.0197390424,-9.7815927384,1.3380678136,-2.25044244,14.53460303,-7.81055907,,,
imu,515.778524,-0.0065796808,-9.7576666264,1.3314881328,-2.51213429,14.37758792,-7.758220699999999,,,
imu,515.786833,-0.04007623760000001,-9.7427128064,1.3350770496,-2.4448421,14.47478775,-7.44419048,,,
imu,515.795288,-0.04785222400000001,-9.7056273328,1.3350770496,-2.19810407,14.49721848,-7.272221549999999,,,
imu,515.803937,-0.04845037680000001,-9.690673512800002,1.3237121464,-1.92893531,14.44488011,-7.0852988,,,
imu,515.812586,-0.0251224176,-9.6912716656,1.3458438,-1.60742818,14.3626341,-7.10772953,,,
imu,515.821235,0.0011963056,-9.690673512800002,1.3494327168,-1.40555161,14.10094225,-7.18249863,,,
imu,515.829885,0.023926112,-9.669140012000002,1.3470401056,-1.03170611,13.62989692,-6.965668239999999,,,
imu,515.838534,0.0281131816,-9.648802816800002,1.3625920784,-0.68029134,13.03174412,-6.83108386,,,
imu,515.847183,0.05203929360000001,-9.658971414400002,1.3613957728,-0.20924601,12.15694565,-6.726407119999999,,,
imu,515.855832,0.03648732080000001,-9.673925234400002,1.3464419528,0.007584380000000002,11.16251662,-6.65163802,,,
imu,515.864481,0.04605776560000001,-9.703234721600001,1.3566105504,0.42629134,10.20547214,-6.21050033,,,
imu,515.87313,0.0346928624,-9.6942624296,1.3434511888,0.9272443100000001,9.28581221,-5.64973208,,,
imu,515.88178,0.0137575144,-9.706823638400001,1.3476382584,1.39828964,8.26895245,-5.17120984,,,
imu,515.890429,-0.023926112,-9.7128051664,1.357806856,1.93662716,7.51378454,-4.58053395,,,
imu,515.899078,-0.04845037680000001,-9.7283571392,1.339862272,2.2656112,6.85581646,-3.93751969,,,
imu,515.907727,-0.0753672528,-9.748694334400001,1.324908452,2.47496468,6.250186749999999,-3.51881273,,,
imu,515.916376,-0.1088638096,-9.775611210400001,1.3273010632,2.84133327,5.86886434,-3.13749032,,,
imu,514.568518,,,,,,,-99.439862,145.015402,137.67892
imu,514.670111,,,,,,,-101.7226084,145.1008524,138.7653608
imu,514.771643,,,,,,,-100.1845012,144.221934,136.397164
imu,514.873206,,,,,,,-103.0287788,145.1252668,138.5456312
imu,514.974829,,,,,,,-101.5639148,144.9421588,136.9098664
imu,515.076697,,,,,,,-104.81103,145.381618,140.3522968
imu,515.177863,,,,,,,-106.1294076,145.5769332,140.3767112
imu,515.279608,,,,,,,-109.266658,145.0031948,142.195584
imu,515.925026,-0.1387714496,-9.7612555432,1.3135435488,2.98339456,5.592218669999999,-2.77859864,,,
imu,515.933675,-0.1609031032,-9.7606573904,1.3075620208,3.20770186,5.34548064,-2.56924516,,,
imu,515.942324,-0.1752587704,-9.785779808000001,1.2902155896,3.3123786,5.12865025,-2.5243837,,,
imu,515.950973,-0.19439966,-9.777405668800002,1.2734673112,3.55163972,5.18098862,-2.49447606,,,
imu,515.959622,-0.2081571744,-9.794153947200002,1.2764580752,3.73856247,5.18846553,-2.48699915,,,
imu,515.968272,-0.2081571744,-9.8061170032,1.2698783944,3.85071612,5.068834969999999,-2.58419898,,,
imu,515.976921,-0.2111479384,-9.855763685600001,1.268083936,3.91800831,5.03145042,-2.69635263,,,
imu,515.98557,-0.1991848824,-9.898830687200002,1.262102408,3.85819303,5.06135806,-2.66644499,,,
imu,515.994219,-0.2075590216,-9.9101955904,1.2638968664,3.76847011,5.21089626,-2.42718387,,,
imu,516.002868,-0.2009793408,-9.901821451200002,1.259111644,3.36471697,5.420249739999999,-2.27016876,,,
imu,516.011148,-0.2081571744,-9.9000269928,1.2549245744,2.89367164,5.73427996,-2.02343073,,,
imu,516.019427,-0.1979885768,-9.88447502,1.2489430464,2.53477996,5.89129507,-1.86641562,,,
imu,516.027706,-0.1752587704,-9.856959991200002,1.2477467408,2.16093446,6.24270984,-1.61220068,,,
imu,516.035985,-0.1788476872,-9.817481906400001,1.2220261704,1.65998149,6.489447869999999,-1.45518557,,,
imu,516.044264,-0.1692772424,-9.800733628000001,1.2154464896,1.30856672,6.751139719999999,-1.29069355,,,
imu,516.052543,-0.1507345056,-9.7504887928,1.1945111416,1.18893616,6.98292393,-1.26826282,,,
imu,516.060822,-0.1303973104,-9.734936820000001,1.2214280176,1.07678251,7.08760067,-1.48509321,,,
imu,516.069102,-0.1381732968,-9.761853696000001,1.2154464896,1.15155161,7.244615779999999,-1.58229304,,,
imu,516.077381,-0.1309954632,-9.797144711200001,1.2250169344,1.1440747,7.49883072,-1.67201596,,,
imu,516.08566,-0.1244157824,-9.779200127200001,1.2214280176,1.12912088,7.812860939999999,-1.7766927,,,
imu,516.093939,-0.1321917688,-9.769031529600001,1.2298021568,1.20388998,8.119414249999998,-1.82903107,,,
imu,516.102218,-0.1501363528,-9.797742864000002,1.208268656,1.40576655,8.485782839999999,-1.97109236,,,
imu,516.110497,-0.1477437416,-9.800733628000001,1.1951092944,1.68988913,9.009166539999999,-1.96361545,,,
imu,516.118777,-0.1459492832,-9.801929933600002,1.193314836,1.91419643,9.80919591,-1.84398489,,,
imu,516.127056,-0.1567160336,-9.8061170032,1.1837443912,1.91419643,10.44473326,-2.00847691,,,
imu,516.135335,-0.1686790896,-9.806715156000001,1.175370252,1.82447351,11.14008589,-2.18044584,,,
imu,516.143614,-0.1609031032,-9.797144711200001,1.1849406968,1.77961205,11.8204847,-2.44213769,,,
imu,516.151893,-0.1896144376,-9.8043225448,1.2004926696,1.61512003,12.51583733,-2.74121409,,,
imu,516.160172,-0.2338777448,-9.836622796,1.2154464896,1.63755076,13.05417485,-3.23469015,,,
imu,516.168452,-0.2793373576,-9.872511964000001,1.2244187816,1.36090509,13.89158877,-3.92256587,,,
imu,516.176731,-0.323002512,-9.876699033600001,1.2333910736,0.94219813,14.85611016,-4.602964679999999,,,
imu,516.18501,-0.3331711096,-9.893447312000001,1.265093172,0.3739529699999999,16.12718486,-5.23102512,,,
imu,516.193289,-0.3170209840000001,-9.9048122152,1.2549245744,-0.2765382,17.39078265,-5.74693191,,,
imu,516.201568,-0.2829262744000001,-9.892251006400002,1.253130116,-0.77001426,18.53474988,-6.2628387,,,
imu,516.210401,-0.2889078024000001,-9.897036228800001,1.2632987136,-1.30835178,19.70862475,-6.83108386,,,
imu,516.219234,-0.3158246784000001,-9.866530436000001,1.268083936,-1.8466893,20.7927767,-7.3096061,,,
imu,516.228067,-0.361882444,-9.88447502,1.25612088,-2.19810407,21.98160539,-7.870374350000001,,,
imu,516.2369,-0.385808556,-9.914980812800001,1.2256150872,-2.67662631,23.45455666,-8.22178912,,,
imu,516.245733,-0.4258847936,-9.9137845072,1.2088668088,-3.31964057,25.2041536,-8.33394277,,,
imu,516.254565,-0.4857000736000001,-9.9365143136,1.2040815864,-3.91779337,27.02104273,-8.610588439999999,,,
imu,516.263398,-0.5245800056000001,-9.962234884,1.2130538784,-4.71034583,29.08466989,-8.84237265,,,
imu,516.272231,-0.6705292888000001,-9.9999185104,1.2220261704,-5.63748267,31.11838941,-9.38071017,,,
imu,516.281064,-0.8021229048,-9.959842272800001,1.1777628632,-6.65434243,33.86989229,-10.03867825,,,
imu,516.289897,-0.9139774784000001,-10.0094889552,1.2034834336,-7.67120219,37.12234814,-10.75646161,,,
imu,516.29873,-1.040785872,-10.0507614984,1.1897259192,-8.89741543,40.68135729999999,-11.80322901,,,
imu,516.307562,-1.139481084,-10.0513596512,1.1640053488,-10.09372103,44.56187359,-13.14907281,,,
imu,516.316395,-1.2447559768,-10.054948568,1.1855388496,-11.18534989,48.95829667,-14.59959335,,,
imu,516.325228,-1.333880744,-10.1183527648,1.1759684048,-12.4639015,53.73604216,-16.05011389,,,
imu,516.334061,-1.3763495928,-10.0914358888,1.094619624,-13.90694513,58.83529478,-17.56792662,,,
imu,516.342894,-1.3763495928,-10.0244427752,1.037795108,-15.08829691,64.01679341,-18.77170913,,,
imu,516.351727,-1.3261047576,-9.9101955904,1.0210468296,-15.85841864,69.04127693000001,-19.78856889,,,
imu,516.36056,-1.1909222248,-9.803126239200001,1.0844510264,-16.32198706,73.82649933,-20.57364444,,,
imu,516.369392,-1.0862454848,-9.725366375200002,1.097610388,-16.03038757,77.99113820000001,-21.77742695,,,
imu,516.378225,-1.0306172744,-9.657775108800001,1.0934233184,-15.72383426,81.35574770000001,-23.39243951,,,
imu,516.387058,-0.9241460760000001,-9.5776226336,1.0934233184,-15.32008112,84.63063428000001,-23.81114647,,,
imu,516.395891,-0.7470928472,-9.501657228000001,1.133499556,-14.39294428,87.59896755,-22.87653272,,,
imu,516.404724,-0.5329541448,-9.5082369088,1.2016889752,-13.25645396,89.80465600000001,-21.83724223,,,
imu,516.413185,-0.3122357616,-9.537546396000002,1.2543264216,-12.17977892,91.1504998,-21.41853527,,,
imu,516.421646,-0.0933118368,-9.504647992000002,1.3117490904,-11.08067315,91.45705311,-20.9923514,,,
imu,516.430107,0.125612088,-9.4496179344,1.369769912,-9.97409047,90.72431593,-20.14746057,,,
imu,516.438568,0.3469286240000001,-9.453805004000001,1.4224073584,-8.411416280000001,89.03453427000001,-19.28761592,,,
imu,516.447029,0.5102243384,-9.4962738528,1.471455888,-6.87117282,86.29798521000001,-18.60721711,,,
imu,516.45549,0.6190881480000001,-9.505246144800001,1.4702595824,-5.248683349999999,82.79131442,-18.17355633,,,
imu,516.463951,0.6717255944000001,-9.519601812000001,1.4571002208,-3.62619388,78.70892156000001,-17.34361932,,,
imu,516.472412,0.6812960392000001,-9.530966715200002,1.4648762072,-2.10838115,74.26016011,-16.56602068,,,
imu,516.480873,0.6890720256,-9.578818939200001,1.4959801528,-0.77749117,69.93850613000001,-15.84823732,,,
imu,516.489334,0.7058203040000001,-9.631456385600002,1.5205044176,0.28423005,65.49722159,-14.75660846,,,
imu,516.497795,0.7165870544000001,-9.693066124000001,1.5510102104,1.09921324,61.11575233,-13.56777977,,,
imu,516.506256,0.6968480120000001,-9.767237071200002,1.6096291848,1.79456587,56.78662144,-12.22941288,,,
imu,515.38106,,,,,,,-119.8625076,144.649186,141.9392328
imu,515.482622,,,,,,,-122.7434068,144.7468436,142.1223408
imu,515.584307,,,,,,,-121.6691732,145.4548612,140.3278824
imu,515.685839,,,,,,,-124.8064236,145.1496812,140.8649992
imu,515.78734,,,,,,,-123.0241724,144.8811228,137.9352712
imu,515.888872,,,,,,,-126.2834948,145.4182396,140.3767112
imu,515.990435,,,,,,,-124.9162884,145.4304468,138.533424
imu,516.091967,,,,,,,-126.5154316,145.381618,140.1691888
imu,516.19359,,,,,,,-127.2966924,145.8454916,140.0959456
imu,516.295214,,,,,,,-128.7859708,146.0041852,138.838604
imu,516.396715,,,,,,,-131.483762,147.1028332,136.6291008
imu,516.498278,,,,,,,-134.535562,147.823058,133.2965352
