Type,Timestamp,Data Accelerometer X,Data Accelerometer Y,Data Accelerometer Z,Data Gyroscope X,Data Gyroscope Y,Data Gyroscope Z,Data Magnetometer X,Data Magnetometer Y,Data Magnetometer Z
imu,498.735864,-0.8421991424,-9.5249851872,2.8358424248,1.61512003,0.64250425,-3.15244414,,,
imu,498.744337,-0.8499751288000001,-9.530368562400001,2.843020258400001,1.45062801,0.8219500899999996,-3.17487487,,,
imu,498.752811,-0.8427972952,-9.532163020800002,2.8436184112,1.35342818,0.9939190199999999,-3.07019813,,,
imu,498.761283,-0.8416009896000001,-9.5184055064,2.8280664384,1.27118217,0.9789651999999998,-2.9729983,,,
imu,498.769756,-0.8410028368000001,-9.5148165896,2.8328516608,1.23379762,1.24065705,-2.96552139,,,
imu,498.778228,-0.8314323920000001,-9.516012895200001,2.8208886048,1.36090509,1.28551851,-2.98795212,,,
imu,498.786701,-0.8134878080000001,-9.5082369088,2.8268701328,1.38333582,1.39767216,-3.22721324,,,
imu,498.795173,-0.7967395296000002,-9.5237888816,2.831655355200001,1.31604363,1.33037997,-3.54124346,,,
imu,498.803646,-0.7997302936000001,-9.541733465600002,2.8274682856,1.39081273,1.39767216,-3.7954584,,,
imu,498.812118,-0.7835801680000001,-9.535153784800002,2.8208886048,1.30108981,1.32290306,-4.012288789999999,,,
imu,498.820591,-0.7817857096,-9.528574104,2.8119163128,1.33099745,1.16588795,-4.102011709999999,,,
imu,498.829063,-0.7841783208,-9.520798117600002,2.817299688,1.42072037,1.14345722,-4.244073,,,
imu,498.837535,-0.7901598488000001,-9.5184055064,2.8131126184,1.50296638,0.9116730099999999,-4.318842099999999,,,
imu,498.846008,-0.7973376824000001,-9.5184055064,2.8071310904,1.45062801,0.72475026,-4.22911918,,,
imu,498.85448,-0.8069081272,-9.505246144800001,2.7951680344,1.48801256,0.7097964399999999,-4.11696553,,,
imu,498.862953,-0.8200674888,-9.498666464000001,2.804140326400001,1.41324346,0.52287369,-3.97490424,,,
imu,498.871425,-0.8290397808000001,-9.493283088800002,2.8047384792,1.54035093,0.6275504299999999,-3.62348947,,,
imu,498.879898,-0.8302360864000001,-9.484908949600001,2.8011495624,1.63755076,0.58268897,-3.496382,,,
imu,498.88837,-0.8356194616000001,-9.5423316184,2.792177270400001,1.85438115,0.6275504299999999,-3.22721324,,,
imu,498.896842,-0.8427972952,-9.5357519376,2.789186506400001,1.84690424,0.6499811599999998,-3.15992105,,,
imu,498.905315,-0.8356194616000001,-9.520798117600002,2.7951680344,1.80951969,0.5079198699999998,-3.21973633,,,
imu,498.913787,-0.8122915024000001,-9.536948243200001,2.7826068256,1.75718132,0.6350273399999997,-3.18235178,,,
imu,498.92226,-0.7997302936000001,-9.5501076048,2.780812367200001,1.74970441,0.6275504299999999,-3.24216706,,,
imu,498.930732,-0.780589404,-9.547714993600001,2.7867938952,1.71979677,0.6948426199999997,-3.26459779,,,
imu,498.939205,-0.7482891528000001,-9.539939007200001,2.7820086728,1.86933497,0.6798887999999996,-3.23469015,,,
imu,498.947677,-0.7189796656000002,-9.553098368800002,2.7861957424,1.64502767,0.4555814999999996,-3.30945925,,,
imu,498.95615,-0.7147925960000001,-9.557285438400001,2.7772234504,1.65250458,0.2013665599999999,-3.24964397,,,
imu,498.964612,-0.7010350816000002,-9.571641105600001,2.783204978400001,1.83195042,-0.08275602000000015,-3.3468438,,,
imu,498.973074,-0.70282954,-9.568052188800001,2.7820086728,1.77213514,-0.5014629800000003,-3.45152054,,,
imu,498.981536,-0.7243630408,-9.5602762024,2.7927754232,1.36090509,-0.8379239300000001,-3.84031986,,,
imu,498.989999,-0.7345316384000001,-9.557883591200001,2.794569881600001,1.36090509,-1.00241595,-3.84031986,,,
imu,498.998461,-0.7506817640000001,-9.557883591200001,2.798756951200001,1.15902852,-1.19681561,-3.8702275,,,
imu,499.006923,-0.7752060288000001,-9.562668813600002,2.7879902008,1.06182869,-1.53327656,-4.102011709999999,,,
imu,499.015385,-0.7997302936000001,-9.554892827200002,2.7975606456,0.9197674,-1.54075347,-4.27398064,,,
imu,499.023848,-0.8093007384,-9.516012895200001,2.7957661872,0.7552753799999999,-1.65290712,-4.50576485,,,
imu,499.03231,-0.8302360864000001,-9.504647992000002,2.805934784800001,0.8375213899999999,-1.50336892,-4.602964679999999,,,
imu,499.040772,-0.8457880592000001,-9.516611048000001,2.805336632,1.00201341,-1.31644617,-4.68521069,,,
imu,499.049235,-0.8589474208000002,-9.519003659200001,2.801747715200001,1.06182869,-1.22672325,-4.77493361,,,
imu,499.057697,-0.8691160184000001,-9.5082369088,2.817299688,0.91229049,-1.00989286,-4.85717962,,,
imu,499.066159,-0.885266144,-9.485507102400002,2.833449813600001,0.9272443100000001,-0.8154932000000001,-4.90204108,,,
imu,499.074621,-0.8966310472000002,-9.495077547200001,2.825075674400001,1.09173633,-0.59866281,-4.98428709,,,
imu,499.083084,-0.8990236584000001,-9.516611048000001,2.819692299200001,1.27118217,-0.37435551,-5.10391765,,,
imu,499.091546,-0.8966310472000002,-9.520199964800002,2.823281216,1.24127453,-0.2248173100000002,-5.1413022,,,
imu,499.100008,-0.8984255056000002,-9.5118258256,2.8268701328,1.34595127,0.07425908999999997,-5.0665331,,,
imu,499.10847,-0.8960328944000001,-9.5154147424,2.8226830632,1.42072037,0.1864127399999997,-5.03662546,,,
imu,499.116933,-0.8894532136000001,-9.5213962704,2.82627198,1.56278166,0.4331507699999997,-5.021671639999999,,,
imu,499.125395,-0.8864624496000001,-9.546518688,2.829262744000001,1.54782784,0.7097964399999999,-4.976810179999999,,,
imu,499.133857,-0.8870606024000001,-9.554892827200002,2.825075674400001,1.53287402,0.7471809899999999,-4.931948719999999,,,
imu,499.14232,-0.8709104768000001,-9.572239258400002,2.804140326400001,1.51044329,0.7322271699999998,-4.692687599999999,,,
imu,499.150782,-0.8625363376,-9.554892827200002,2.8029440208,1.40576655,0.8294269999999999,-4.5431494,,,
imu,499.159244,-0.8691160184000001,-9.5213962704,2.81131816,1.27118217,1.02382666,-4.35622665,,,
imu,499.168064,-0.8655271016000001,-9.520798117600002,2.8011495624,1.37585891,1.12102649,-4.17678081,,,
imu,499.176883,-0.8625363376,-9.526779645600001,2.801747715200001,1.27118217,1.13598031,-4.20668845,,,
imu,499.185703,-0.8649289488,-9.520199964800002,2.8035421736,1.33099745,1.06121121,-4.28893446,,,
imu,499.194522,-0.8679197128000001,-9.513620284000002,2.7867938952,1.45062801,0.98644211,-4.453426479999999,,,
imu,499.203342,-0.8583492680000002,-9.493283088800002,2.7915791176,1.368382,1.03130357,-4.49081103,,,
imu,499.212162,-0.8733030880000001,-9.4980683112,2.7975606456,1.46558183,0.9041961000000001,-4.4683803,,,
imu,499.220981,-0.8846679912000001,-9.4962738528,2.7957661872,1.45810492,0.8742884599999998,-4.52819558,,,
imu,499.229801,-0.8846679912000001,-9.5004609224,2.783204978400001,1.5926893,0.8518577299999999,-4.3936112,,,
imu,499.23862,-0.8840698384000001,-9.5154147424,2.802345868,1.65250458,0.8518577299999999,-4.22164227,,,
imu,499.24744,-0.8918458248000001,-9.508835061600001,2.7742326864,1.68241222,0.6873657099999999,-4.30388828,,,
imu,499.256259,-0.9020144224000001,-9.496872005600002,2.7838031312,1.65250458,0.7097964399999999,-4.28893446,,,
imu,499.265079,-0.9169682424000002,-9.495077547200001,2.7802142144,1.82447351,0.7546578999999998,-4.22164227,,,
imu,499.273899,-0.9247442288000001,-9.508835061600001,2.78141052,1.99644244,0.98644211,-4.20668845,,,
imu,499.282718,-0.9420906600000001,-9.52558334,2.7820086728,2.07121154,1.00887284,-3.98985806,,,
imu,499.291538,-0.9420906600000001,-9.522592576000001,2.763465936,2.30299575,1.22570323,-3.84779677,,,
imu,499.300357,-0.9546518688000002,-9.523190728800001,2.763465936,2.36281103,1.55468727,-3.88518132,,,
imu,499.309177,-0.9426888128,-9.5423316184,2.7646622416,2.42262631,1.71170238,-3.85527368,,,
imu,499.317997,-0.9414925072000001,-9.550705757600001,2.769447464,2.46001086,1.93600968,-3.69078166,,,
imu,499.326816,-0.9301276040000002,-9.577024480800002,2.754493644000001,2.43010322,2.19770153,-3.70573548,,,
imu,499.335636,-0.9277349928000002,-9.5985579816,2.746119504800001,2.30299575,2.41453192,-3.66087402,,,
imu,499.344455,-0.9235479232000001,-9.609324732000001,2.75150288,1.9665348,2.45939338,-3.75807385,,,
imu,499.353275,-0.9014162696000001,-9.5800152448,2.7610733248,1.79456587,2.6986545,-3.63844329,,,
imu,499.362094,-0.8816772272000001,-9.585398620000001,2.7670548528,1.52539711,2.88557725,-3.80293531,,,
imu,499.370564,-0.8655271016000001,-9.602146898400001,2.7586807136,1.42072037,2.8481927,-3.85527368,,,
imu,499.379034,-0.8529658928000001,-9.606932120800002,2.757484408000001,1.28613599,2.87062343,-3.69078166,,,
imu,499.387504,-0.8517695872000001,-9.592576453600001,2.7580825608,1.03939796,2.75846978,-3.69825857,,,
imu,499.395974,-0.8410028368000001,-9.5704448,2.745521352,0.97958268,2.76594669,-3.60853565,,,
imu,499.404444,-0.8248527112,-9.562668813600002,2.7467176576,0.77770611,2.65379304,-3.54124346,,,
imu,499.412914,-0.8122915024000001,-9.548313146400002,2.7628677832,0.78518302,2.57902394,-3.58610492,,,
imu,499.421384,-0.8194693360000002,-9.530368562400001,2.7682511584,0.7702292,2.38462428,-3.69825857,,,
imu,499.429854,-0.8338250032000001,-9.5154147424,2.7706437696,0.7403215599999999,2.29490136,-3.60853565,,,
imu,499.438324,-0.8224601,-9.5172092008,2.7646622416,0.80761375,2.28742445,-3.54872037,,,
imu,499.446793,-0.8188711832000002,-9.532163020800002,2.7580825608,1.03939796,2.2500399,-3.56367419,,,
imu,499.455263,-0.8182730304000002,-9.5447242296,2.7568862552,1.15902852,2.24256299,-3.55619728,,,
imu,499.463733,-0.8176748776000001,-9.530966715200002,2.757484408000001,1.21136689,2.36219355,-3.42908981,,,
imu,499.472203,-0.8122915024000001,-9.52558334,2.7772234504,1.18145925,2.23508608,-3.47395127,,,
imu,499.480673,-0.8015247520000001,-9.559678049600002,2.780812367200001,1.12912088,2.01825569,-3.7954584,,,
imu,499.489143,-0.8230582528,-9.610521037600002,2.789186506400001,1.17398234,1.89114822,-4.02724261,,,
imu,499.497613,-0.8182730304000002,-9.6159044128,2.7939717288,0.8749059399999999,1.75656384,-3.98238115,,,
imu,499.506083,-0.8230582528,-9.587193078400002,2.7957661872,0.7104139199999999,1.78647148,-3.95995042,,,
imu,499.514553,-0.8308342392000001,-9.549509452,2.7957661872,0.43376825,1.68179474,-3.82536604,,,
imu,499.523023,-0.8421991424,-9.551902063200002,2.794569881600001,0.41133752,1.61450255,-3.45152054,,,
imu,499.531492,-0.8589474208000002,-9.533957479200001,2.789186506400001,0.36647606,1.67431783,-3.29450543,,,
imu,499.539962,-0.8559566568000001,-9.5291722568,2.7802142144,0.30666078,1.66684092,-3.3468438,,,
imu,499.548432,-0.8463862120000001,-9.507040603200002,2.7867938952,0.38142988,1.62197946,-3.496382,,,
imu,499.556902,-0.8547603512000002,-9.5219944232,2.7861957424,0.26927623,1.7266562,-3.70573548,,,
imu,499.565372,-0.8595455736000001,-9.526779645600001,2.784401284,0.42629134,1.7266562,-3.84779677,,,
imu,499.573897,-0.8750975464000001,-9.5237888816,2.7718400752,0.44872207,1.59954873,-3.93004278,,,
imu,499.582421,-0.8727049352000001,-9.513620284000002,2.7927754232,0.40386061,1.48739508,-4.06462716,,,
imu,499.590946,-0.8798827688,-9.513022131200001,2.7909809648,0.50853735,1.71170238,-3.97490424,,,
imu,499.59947,-0.8966310472000002,-9.516012895200001,2.7879902008,0.41881443,1.71170238,-4.00481188,,,
imu,499.607995,-0.8996218112000001,-9.513620284000002,2.784401284,0.52349117,1.76404075,-3.84779677,,,
imu,499.616519,-0.8930421304000001,-9.508835061600001,2.790382812,0.59078336,1.81637912,-3.72816621,,,
imu,499.625044,-0.8912476720000001,-9.51062952,2.7760271448,0.70293701,1.83133294,-3.52628964,,,
imu,499.633569,-0.8840698384000001,-9.503451686400002,2.7861957424,0.80761375,1.82385603,-3.44404363,,,
imu,499.642093,-0.8703123240000001,-9.498666464000001,2.7802142144,0.7253677399999999,1.89114822,-3.40665908,,,
imu,499.650618,-0.8703123240000001,-9.51062952,2.7885883536,0.9272443100000001,1.92105586,-3.31693616,,,
imu,499.659142,-0.8744993936000002,-9.527975951200002,2.787392048000001,0.9048135799999999,1.7266562,-3.30198234,,,
imu,499.667667,-0.8739012408000001,-9.557883591200001,2.796962492800001,0.7104139199999999,1.7266562,-3.1973056,,,
imu,499.676192,-0.8649289488,-9.581809703200001,2.8065329376,0.7403215599999999,1.70422547,-3.15244414,,,
imu,499.684716,-0.8912476720000001,-9.5949690648,2.805934784800001,0.64312173,1.77899457,-3.11505959,,,
imu,499.693241,-0.8918458248000001,-9.596165370400001,2.799355104,0.43376825,1.78647148,-2.9729983,,,
imu,499.70171,-0.8966310472000002,-9.5800152448,2.7981587984,0.26927623,1.93600968,-2.99542903,,,
imu,499.710235,-0.9091922560000001,-9.606932120800002,2.789186506400001,-0.007369440000000005,2.13040934,-2.9729983,,,
imu,499.718759,-0.9121830200000002,-9.633848996800001,2.801747715200001,-0.19429219,2.45191647,-2.93561375,,,
imu,499.727284,-0.9073977976000001,-9.6326526912,2.819692299200001,-0.2765382,2.5491163,-2.83093701,,,
imu,499.735808,-0.9313239096000001,-9.660765872800003,2.8244775216,-0.7550604399999999,2.7734236,-2.93561375,,,
imu,499.744333,-0.9426888128,-9.668541859200001,2.81131816,-1.19619813,3.27437657,-3.18982869,,,
imu,499.752857,-0.9265386872000001,-9.654784344800001,2.814308924,-1.57752054,3.65569898,-3.35432071,,,
imu,499.761382,-0.9038088808000001,-9.636839760800001,2.815505229600001,-1.92893531,4.1192674,-3.39918217,,,
imu,499.769907,-0.8948365888000002,-9.646410205600002,2.835244272,-2.370073,4.388436159999999,-3.37675144,,,
imu,499.778307,-0.8900513664000002,-9.6505972752,2.831655355200001,-2.83364142,4.6426511,-3.39170526,,,
imu,499.786707,-0.8529658928000001,-9.6009505928,2.817299688,-3.22991765,4.88938913,-3.30945925,,,
imu,499.795107,-0.8087025856000001,-9.554294674400001,2.817299688,-3.52151714,4.85948149,-3.51881273,,,
imu,499.803507,-0.7859727792000001,-9.5040498392,2.8107200072,-3.70096298,4.94920441,-3.63844329,,,
imu,499.811906,-0.7656355840000001,-9.454403156800002,2.817299688,-3.55890169,4.95668132,-3.6459202,,,
imu,499.820306,-0.7500836112000001,-9.4412437952,2.8256738272,-3.3420713,4.672558739999999,-3.51133582,,,
imu,499.828706,-0.7488873056,-9.419112141600001,2.8370387304,-3.09533327,4.388436159999999,-3.45899745,,,
imu,499.837106,-0.7183815128000002,-9.409541696800002,2.8537870088,-2.84111833,4.08188285,-3.25712088,,,
imu,499.845506,-0.723764888,-9.419710294400002,2.8657500648,-2.40745755,3.75289881,-3.13001341,,,
imu,499.853906,-0.7429057776,-9.4454308648,2.9016392328,-2.13081188,3.48373005,-3.17487487,,,
imu,499.862306,-0.7530743752000001,-9.482516338400002,2.905228149600001,-2.10090424,3.2968073,-3.04029049,,,
imu,499.870706,-0.7686263480000001,-9.496872005600002,2.914798594400001,-2.05604278,3.00520781,-3.11505959,,,
imu,499.879106,-0.7758041816000001,-9.4831144912,2.914798594400001,-2.00370441,2.85566961,-3.07767504,,,
imu,499.887506,-0.7734115704000001,-9.451412392800002,2.9183875112,-1.95136604,2.75846978,-3.03281358,,,
imu,499.895906,-0.7817857096,-9.437056725600002,2.9387247064,-1.80930475,2.85566961,-3.14496723,,,
imu,499.904306,-0.7644392784,-9.423897364000002,2.939921012000001,-1.63733582,2.72856214,-3.36179762,,,
imu,499.912706,-0.7411113192000001,-9.405952780000002,2.939921012000001,-1.46536689,2.63883922,-3.45899745,,,
imu,499.921106,-0.7441020832,-9.399971252000002,2.9482951512,-1.28592105,2.38462428,-3.48890509,,,
imu,499.929506,-0.7429057776,-9.3904008072,2.9704268048,-1.03170611,2.40705501,-3.41413599,,,
imu,499.937906,-0.7452983888000001,-9.438851184,2.9770064856,-0.8672140899999999,2.24256299,-3.39170526,,,
imu,499.946306,-0.7500836112000001,-9.448421628800002,2.981791708,-0.56066078,2.15284007,-3.21225942,,,
imu,499.954706,-0.7644392784,-9.465169907200002,3.0122975008,-0.47841477,1.93600968,-3.16739796,,,
imu,499.963106,-0.7829820152,-9.4873015608,3.002727056,-0.32887657,1.88367131,-3.20478251,,,
imu,498.744322,,,,,,,75.41607079999999,-0.9582956000000031,-9.637569600000006
imu,498.845915,,,,,,,73.3286396,-0.9582956000000031,-7.354823200000005
imu,498.947599,,,,,,,74.6226028,-1.190232400000002,-10.12585760000001
imu,499.049101,,,,,,,73.7436844,-0.75077320000001,-7.391444800000002
imu,499.150694,,,,,,,74.07327880000001,-0.8728452000000164,-7.049643200000011
imu,499.971506,-0.7686263480000001,-9.4735440464,2.9943529168,-0.30644584,1.69674856,-3.39170526,,,
imu,499.980005,-0.7632429728000001,-9.435262267200002,2.9841843192,-0.11204618,1.63693328,-3.42908981,,,
imu,499.988504,-0.7799912512000001,-9.372456223200002,2.982389860800001,-0.02232326000000001,1.5023489,-3.40665908,,,
imu,499.997003,-0.7668318896,-9.3658765424,2.9811935552,0.35899915,1.63693328,-3.1973056,,,
imu,500.005502,-0.7650374312,-9.387410043200001,2.971024957600001,0.64312173,1.577118,-3.23469015,,,
imu,500.014002,-0.771617112,-9.4173176832,2.9776046384,1.08425942,1.51730272,-3.30945925,,,
imu,500.022501,-0.7686263480000001,-9.440645642400002,2.984782472,1.39828964,1.42010289,-3.3468438,,,
imu,500.031,-0.7746078760000001,-9.447225323200001,2.9764083328,1.57025857,1.38271834,-3.52628964,,,
imu,500.039499,-0.7859727792000001,-9.453805004000001,2.980595402400001,1.63007385,1.33785688,-3.6459202,,,
imu,500.047998,-0.7877672376000001,-9.4633754488,2.969828652,1.84690424,1.36028761,-3.67582784,,,
imu,500.056497,-0.7985339880000002,-9.457393920800001,2.9746138744,1.94410407,1.48739508,-3.59358183,,,
imu,500.064996,-0.8027210576,-9.463973601600001,2.9752120272,1.94410407,1.61450255,-3.50385891,,,
imu,500.073496,-0.7985339880000002,-9.46576806,2.971024957600001,2.04878081,1.6518871,-3.48142818,,,
imu,500.081995,-0.7925524600000001,-9.472347740800002,2.96085636,2.02635008,1.7266562,-3.51133582,,,
imu,500.090494,-0.7787949456000002,-9.472347740800002,2.9650434296,1.98148862,1.77151766,-3.54872037,,,
imu,500.098993,-0.7746078760000001,-9.4831144912,2.9566692904,1.90671952,1.56964109,-3.85527368,,,
imu,500.107492,-0.7770004872000001,-9.4908904776,2.9680341936,1.91419643,1.56964109,-3.93751969,,,
imu,500.115991,-0.7764023344000002,-9.499862769600002,2.972819416000001,2.116073,1.67431783,-3.84779677,,,
imu,500.12449,-0.7680281952000001,-9.5040498392,2.9746138744,2.10859609,1.63693328,-3.95247351,,,
imu,500.13299,-0.771617112,-9.510031367200002,2.9716231104,1.8917657,1.41262598,-4.057150249999999,,,
imu,500.141489,-0.771617112,-9.502255380800001,2.966239735200001,1.94410407,1.44253362,-3.93751969,,,
imu,500.149988,-0.7704208064000001,-9.496872005600002,2.957865596,1.8169966,1.30794924,-4.0197657,,,
imu,500.158487,-0.7758041816000001,-9.4974701584,2.949491456800001,1.70484295,1.14345722,-4.0197657,,,
imu,500.166986,-0.7841783208,-9.511227672800002,2.942911776,1.78708896,1.03130357,-3.92256587,,,
imu,500.175485,-0.7865709320000001,-9.503451686400002,2.9333413312,1.83195042,1.1285034,-3.87770441,,,
imu,500.184269,-0.7722152648000001,-9.479525574400002,2.9303505672,1.95158098,1.16588795,-3.75059694,,,
imu,500.193053,-0.780589404,-9.474740352000001,2.936930248,2.1908421,0.98644211,-3.66835093,,,
imu,500.201837,-0.7692245008,-9.492684936000002,2.9482951512,2.23570356,0.8742884599999998,-3.51133582,,,
imu,500.21062,-0.7764023344000002,-9.516012895200001,2.945304387200001,2.21327283,0.7920424499999998,-3.72816621,,,
imu,500.219404,-0.7722152648000001,-9.5172092008,2.9375284008,2.14598064,0.66493498,-3.84031986,,,
imu,500.228188,-0.7614485144,-9.4944793944,2.9333413312,2.116073,0.50044296,-3.67582784,,,
imu,500.236972,-0.7650374312,-9.474142199200001,2.936930248,2.14598064,0.52287369,-3.60105874,,,
imu,500.245755,-0.7662337368000001,-9.499264616800001,2.918985664,2.19831901,0.4929660499999997,-3.4216129,,,
imu,500.254539,-0.7829820152,-9.4962738528,2.9142004416,2.32542648,0.3957662200000001,-3.24964397,,,
imu,500.263323,-0.8063099744000001,-9.509433214400001,2.917789358400001,2.44505704,0.4555814999999996,-3.21973633,,,
imu,500.272107,-0.7889635432000001,-9.517807353600002,2.9058263024,2.33290339,0.4481045899999998,-3.36179762,,,
imu,500.28089,-0.7853746264000001,-9.5213962704,2.901041080000001,2.28804193,0.47801223,-3.43656672,,,
imu,500.289674,-0.7895616960000001,-9.5357519376,2.895657704800001,2.20579592,0.5976427899999996,-3.53376655,,,
imu,500.298458,-0.8104970440000001,-9.5429297712,2.8932650936,2.07868845,0.70231953,-3.68330475,,,
imu,500.307242,-0.8063099744000001,-9.533359326400001,2.8944613992,2.09364227,0.7322271699999998,-3.86275059,,,
imu,500.316025,-0.8063099744000001,-9.5082369088,2.8753205096,1.97401171,0.8294269999999999,-3.93004278,,,
imu,500.324809,-0.7985339880000002,-9.502255380800001,2.8807038848,1.86185806,0.94905756,-4.04219643,,,
imu,500.333593,-0.7859727792000001,-9.516012895200001,2.8854891072,1.85438115,0.98644211,-4.07210407,,,
imu,500.342377,-0.7913561544000001,-9.516611048000001,2.8926669408,1.78708896,1.17336486,-3.99733497,,,
imu,500.35116,-0.7895616960000001,-9.522592576000001,2.891470635200001,1.80204278,1.33037997,-3.84031986,,,
imu,500.359944,-0.7835801680000001,-9.5172092008,2.8944613992,1.67493531,1.21822632,-3.89265823,,,
imu,500.368728,-0.7853746264000001,-9.5237888816,2.9046299968,1.71231986,1.14345722,-3.81788913,,,
imu,500.377512,-0.7907580016000001,-9.526181492800001,2.892068788,1.58521239,1.17336486,-3.93004278,,,
imu,500.385987,-0.7877672376000001,-9.516611048000001,2.896854010400001,1.30108981,0.9640113799999996,-4.102011709999999,,,
imu,500.394462,-0.7943469184000002,-9.505246144800001,2.9004429272,1.36090509,0.94905756,-4.04967334,,,
imu,500.402937,-0.8009265992000001,-9.504647992000002,2.896854010400001,1.33847436,0.9714882899999999,-4.08705789,,,
imu,500.411412,-0.7943469184000002,-9.499264616800001,2.8824983432,1.368382,0.9565344699999998,-3.95995042,,,
imu,500.419887,-0.7865709320000001,-9.507638756,2.896854010400001,1.4431511,0.9341037399999998,-3.88518132,,,
imu,500.428362,-0.7925524600000001,-9.51062952,2.8974521632,1.48801256,0.98644211,-3.86275059,,,
imu,500.436837,-0.7979358352000001,-9.522592576000001,2.9088170664,1.61512003,0.8144731799999998,-3.90761205,,,
imu,500.445312,-0.7907580016000001,-9.526779645600001,2.910611524800001,1.60016621,0.8967191899999998,-3.7954584,,,
imu,500.453787,-0.7847764736,-9.520199964800002,2.9207801224,1.43567419,0.7471809899999999,-3.86275059,,,
imu,500.462262,-0.7877672376000001,-9.519601812000001,2.910611524800001,1.48801256,0.70231953,-3.81788913,,,
imu,500.470736,-0.7919543072000002,-9.514218436800002,2.9159949,1.64502767,0.6574580699999997,-3.87770441,,,
imu,500.479211,-0.7967395296000002,-9.499264616800001,2.907022608,1.54782784,0.4705353199999998,-3.91508896,,,
imu,500.487686,-0.8057118216000001,-9.4980683112,2.9028355384,1.45810492,0.4929660499999997,-3.7954584,,,
imu,500.496161,-0.8128896552000001,-9.498666464000001,2.914798594400001,1.49548947,0.4555814999999996,-3.87770441,,,
imu,500.504636,-0.8104970440000001,-9.486105255200002,2.9076207608,1.54035093,0.44062768,-3.78798149,,,
imu,500.513111,-0.8116933496000001,-9.48072188,2.895657704800001,1.71979677,0.4630584099999999,-3.81041222,,,
imu,500.521586,-0.8242545584000001,-9.4699551296,2.8944613992,1.77213514,0.5153967799999997,-3.58610492,,,
imu,500.530061,-0.8188711832000002,-9.4699551296,2.9016392328,1.90671952,0.4032431299999999,-3.496382,,,
imu,500.538536,-0.8158804192000001,-9.477132963200003,2.896854010400001,1.89924261,0.6275504299999999,-3.39918217,,,
imu,500.547011,-0.8110951968000001,-9.4908904776,2.889078024,2.04878081,0.7471809899999999,-3.36179762,,,
imu,500.555486,-0.8140859608000002,-9.505844297600001,2.8878817184,2.25065738,0.7397040799999997,-3.26459779,,,
imu,500.563961,-0.8075062800000001,-9.512423978400001,2.877713120800001,2.22074974,0.8294269999999999,-3.52628964,,,
imu,500.572436,-0.7937487656000001,-9.516611048000001,2.883096496000001,2.10111918,0.8294269999999999,-3.62348947,,,
imu,500.580911,-0.8003284464,-9.5154147424,2.8854891072,2.01139626,0.8294269999999999,-3.60105874,,,
imu,500.589377,-0.7871690848,-9.520199964800002,2.8783112736,2.07121154,0.92662683,-3.54872037,,,
imu,500.597843,-0.7847764736,-9.539939007200001,2.8603666896,2.10111918,1.00887284,-3.60853565,,,
imu,500.60631,-0.7859727792000001,-9.540537160000001,2.87113344,2.09364227,1.0537343,-3.6459202,,,
imu,500.614776,-0.7787949456000002,-9.534555632000002,2.8693389816,1.91419643,1.11354958,-3.69825857,,,
imu,500.623242,-0.771617112,-9.533957479200001,2.863955606400001,1.8917657,1.09859576,-3.77302767,,,
imu,500.631708,-0.7823838624,-9.5447242296,2.8723297456,1.76465823,1.07616503,-3.89265823,,,
imu,500.640174,-0.7793930984000002,-9.553098368800002,2.8693389816,1.61512003,1.02382666,-3.92256587,,,
imu,500.64864,-0.7644392784,-9.5381445488,2.8633574536,1.39081273,0.9041961000000001,-4.079580979999999,,,
imu,499.252131,,,,,,,73.6704412,-0.7019444000000208,-6.256175200000003
imu,499.353724,,,,,,,73.7314772,-0.3479356000000156,-7.208336800000003
imu,499.455317,,,,,,,73.5849908,-0.5676652000000226,-6.597976800000005
imu,499.556849,,,,,,,73.6826484,-0.8118092000000132,-6.659012800000008
imu,499.658411,,,,,,,76.2095388,-0.470007600000022,-7.367030400000008
imu,499.760859,,,,,,,73.70706279999999,-0.8850524000000082,-6.866535200000001
imu,499.861475,,,,,,,76.0264308,-1.519826800000001,-9.173696000000009
imu,499.963068,,,,,,,73.36526119999999,-0.6775300000000151,-6.451490400000004
imu,500.657106,-0.7704208064000001,-9.527975951200002,2.8729278984,1.52539711,0.9341037399999998,-4.034719519999999,,,
imu,500.665572,-0.7746078760000001,-9.538742701600002,2.8699371344,1.51044329,0.8892422799999999,-4.07210407,,,
imu,500.674038,-0.7811875568000001,-9.541733465600002,2.865151912,1.52539711,0.8294269999999999,-4.15435008,,,
imu,500.682504,-0.7787949456000002,-9.524387034400002,2.862161148000001,1.46558183,0.76213481,-4.34874974,,,
imu,500.69097,-0.7847764736,-9.507040603200002,2.859768536800001,1.25622835,0.7546578999999998,-4.42351884,,,
imu,500.699436,-0.7895616960000001,-9.510031367200002,2.873526051200001,1.22632071,0.66493498,-4.31136519,,,
imu,500.707903,-0.8015247520000001,-9.5219944232,2.875918662400001,1.39081273,0.7172733499999997,-4.22911918,,,
imu,500.716369,-0.8254508640000001,-9.526779645600001,2.8693389816,1.2936129,0.62007352,-4.28893446,,,
imu,500.724835,-0.8206656416,-9.519601812000001,2.8729278984,1.19641307,0.4481045899999998,-4.37865738,,,
imu,500.733301,-0.8380120728000001,-9.5010590752,2.865151912,1.18893616,0.4705353199999998,-4.29641137,,,
imu,500.741767,-0.8421991424,-9.48072188,2.8585722312,1.17398234,0.5901658799999998,-4.23659609,,,
imu,500.750233,-0.8547603512000002,-9.475936657600002,2.8436184112,1.40576655,0.7770886299999997,-4.21416536,,,
imu,500.758699,-0.8649289488,-9.472347740800002,2.8406276472,1.60016621,0.92662683,-4.0197657,,,
imu,500.767165,-0.8637326432000001,-9.485507102400002,2.841225800000001,1.70484295,1.06868812,-3.93751969,,,
imu,500.775631,-0.8571529624000002,-9.493283088800002,2.8358424248,1.71979677,1.21822632,-3.95995042,,,
imu,500.784097,-0.8559566568000001,-9.495675700000001,2.8484036336,1.83942733,1.37524143,-3.93751969,,,
imu,500.792876,-0.8410028368000001,-9.5004609224,2.8448147168,1.83195042,1.56964109,-4.20668845,,,
imu,500.801338,-0.8326286976000001,-9.522592576000001,2.853188856,1.8169966,1.59954873,-4.318842099999999,,,
imu,500.809801,-0.8266471696000001,-9.524387034400002,2.8579740784,1.85438115,1.69674856,-4.32631901,,,
imu,500.818263,-0.8188711832000002,-9.519003659200001,2.853188856,1.67493531,1.76404075,-4.37865738,,,
imu,500.826725,-0.8087025856000001,-9.5010590752,2.8495999392,1.56278166,1.7266562,-4.34874974,,,
imu,500.835187,-0.8021229048,-9.503451686400002,2.8543851616,1.64502767,1.68927165,-4.13191935,,,
imu,500.84365,-0.7889635432000001,-9.511227672800002,2.859170384,1.5179202,1.65936401,-3.92256587,,,
imu,500.852112,-0.7901598488000001,-9.516012895200001,2.853188856,1.37585891,1.50982581,-3.88518132,,,
imu,500.860574,-0.7829820152,-9.516611048000001,2.8723297456,1.42819728,1.52477963,-3.7206893,,,
imu,500.869036,-0.7865709320000001,-9.526181492800001,2.8783112736,1.368382,1.39019525,-3.66087402,,,
imu,500.877499,-0.7985339880000002,-9.541135312800002,2.8723297456,1.31604363,1.31542615,-3.57862801,,,
imu,500.885961,-0.8009265992000001,-9.5357519376,2.8783112736,1.24127453,1.27056469,-3.496382,,,
imu,500.894423,-0.8015247520000001,-9.539939007200001,2.875918662400001,1.08425942,1.24813396,-3.54872037,,,
imu,500.902886,-0.7955432240000001,-9.527377798400002,2.88608726,0.91229049,1.23318014,-3.55619728,,,
imu,500.911348,-0.8015247520000001,-9.5148165896,2.8884798712,1.02444414,1.02382666,-3.54872037,,,
imu,500.91981,-0.7931506128000001,-9.496872005600002,2.8717315928,1.06182869,1.13598031,-3.63096638,,,
imu,500.928272,-0.7985339880000002,-9.489096019200002,2.877114968,0.88985976,1.03130357,-3.7206893,,,
imu,500.936735,-0.8098988912000001,-9.4801237272,2.866348217600001,1.03939796,1.0537343,-3.60853565,,,
imu,500.945197,-0.8063099744000001,-9.474740352000001,2.863955606400001,1.30108981,1.00139593,-3.51881273,,,
imu,500.953659,-0.8087025856000001,-9.4621791432,2.8460110224,1.48801256,1.12102649,-3.56367419,,,
imu,500.962121,-0.8003284464,-9.4555994624,2.8603666896,1.61512003,1.01634975,-3.60853565,,,
imu,500.970584,-0.7823838624,-9.495077547200001,2.8836946488,1.73475059,0.9714882899999999,-3.53376655,,,
imu,500.979046,-0.780589404,-9.522592576000001,2.8789094264,1.75718132,0.8369039099999998,-3.80293531,,,
imu,500.987508,-0.7955432240000001,-9.516012895200001,2.8836946488,1.71979677,0.70231953,-3.7206893,,,
imu,500.995971,-0.7841783208,-9.4944793944,2.877713120800001,1.70484295,0.6724118899999998,-3.63844329,,,
imu,501.004433,-0.7781967928000002,-9.5447242296,2.8603666896,1.8169966,0.7322271699999998,-3.54124346,,,
imu,501.012895,-0.8081044328000001,-9.557285438400001,2.864553759200001,1.79456587,0.76213481,-3.54124346,,,
imu,501.021357,-0.8128896552000001,-9.556089132800002,2.8448147168,1.45810492,0.5677351499999999,-3.66087402,,,
imu,501.02982,-0.8158804192000001,-9.519601812000001,2.854983314400001,1.33099745,0.6574580699999997,-3.62348947,,,
imu,501.038282,-0.8188711832000002,-9.516012895200001,2.8627593008,1.368382,0.7546578999999998,-3.61601256,,,
imu,501.046744,-0.8176748776000001,-9.516012895200001,2.85617962,1.368382,0.70231953,-3.69825857,,,
imu,501.055206,-0.8128896552000001,-9.501657228000001,2.8555814672,1.35342818,0.7397040799999997,-3.72816621,,,
imu,501.063669,-0.8344231560000002,-9.545322382400002,2.8579740784,1.37585891,0.76213481,-3.9449966,,,
imu,501.072131,-0.8511714344000001,-9.539939007200001,2.8424221056,1.28613599,0.6948426199999997,-4.04219643,,,
imu,501.080593,-0.8529658928000001,-9.516012895200001,2.8394313416,1.34595127,0.72475026,-4.034719519999999,,,
imu,501.089056,-0.8583492680000002,-9.4980683112,2.8513943976,1.47305874,0.9415806499999997,-3.95247351,,,
imu,501.097518,-0.8637326432000001,-9.496872005600002,2.8495999392,1.43567419,1.0537343,-4.012288789999999,,,
imu,501.10598,-0.8637326432000001,-9.502853533600002,2.837636883200001,1.5179202,0.8892422799999999,-3.92256587,,,
imu,501.114442,-0.8709104768000001,-9.504647992000002,2.831655355200001,1.61512003,1.03878048,-3.69825857,,,
imu,501.122905,-0.8691160184000001,-9.492086783200001,2.831655355200001,1.56278166,1.18831868,-3.52628964,,,
imu,501.131367,-0.86732156,-9.486703408,2.8238793688,1.63007385,1.30794924,-3.33936689,,,
imu,501.139829,-0.8589474208000002,-9.48072188,2.8161033824,1.80951969,1.45748744,-3.24216706,,,
imu,501.148291,-0.8529658928000001,-9.48072188,2.8047384792,1.93662716,1.64441019,-3.17487487,,,
imu,501.156754,-0.8451899064,-9.491488630400001,2.796962492800001,1.85438115,1.75656384,-3.01785976,,,
imu,501.165216,-0.8254508640000001,-9.5213962704,2.802345868,1.92915025,1.86124058,-3.01038285,,,
imu,501.173678,-0.8182730304000002,-9.554892827200002,2.8161033824,2.01139626,1.91357895,-3.13001341,,,
imu,501.18214,-0.8098988912000001,-9.575828175200002,2.8161033824,1.95158098,2.01077878,-3.39918217,,,
imu,501.190603,-0.8104970440000001,-9.593174606400002,2.8089255488,1.90671952,2.16031698,-3.55619728,,,
imu,501.199463,-0.8027210576,-9.5842023144,2.8089255488,1.71231986,2.27247063,-3.69825857,,,
imu,501.208324,-0.7967395296000002,-9.591380148,2.804140326400001,1.46558183,2.30985518,-3.84779677,,,
imu,501.217185,-0.7835801680000001,-9.591978300800001,2.801747715200001,1.24875144,2.12293243,-4.13939626,,,
imu,501.226046,-0.7758041816000001,-9.583604161600002,2.8035421736,1.03939796,2.15284007,-4.25902682,,,
imu,501.234906,-0.7698226536000001,-9.553098368800002,2.8089255488,0.81509066,2.16031698,-4.08705789,,,
imu,501.243767,-0.76264482,-9.533957479200001,2.804140326400001,0.68050628,2.07059406,-4.16182699,,,
imu,501.252628,-0.7536725280000001,-9.5154147424,2.804140326400001,0.56835263,1.84628676,-4.341272829999999,,,
imu,501.261488,-0.7614485144,-9.512423978400001,2.7909809648,0.73284465,1.80890221,-4.33379592,,,
imu,501.270349,-0.7578595976000001,-9.5213962704,2.8137107712,0.78518302,1.68927165,-4.28893446,,,
imu,501.27921,-0.7692245008,-9.531564868,2.8107200072,0.9197674,1.4275798,-4.35622665,,,
imu,501.288071,-0.7793930984000002,-9.5249851872,2.8137107712,0.8375213899999999,1.30047233,-4.33379592,,,
imu,501.296931,-0.7955432240000001,-9.548313146400002,2.843020258400001,0.8449983,1.32290306,-4.28145755,,,
imu,501.305792,-0.8063099744000001,-9.557883591200001,2.8346461192,0.67302937,1.3528107,-4.37865738,,,
imu,501.314653,-0.8152822664000001,-9.557285438400001,2.8286645912,0.64312173,1.32290306,-4.3936112,,,
imu,501.323513,-0.8224601,-9.5602762024,2.831655355200001,0.80013684,1.37524143,-4.34874974,,,
imu,501.332374,-0.8374139200000001,-9.5459205352,2.838235036,0.6132140899999999,1.53973345,-4.17678081,,,
imu,501.341235,-0.8356194616000001,-9.535153784800002,2.8466091752,0.25432241,1.47991817,-4.10948862,,,
imu,501.350096,-0.8146841136000001,-9.530368562400001,2.841225800000001,0.23189168,1.60702564,-3.92256587,,,
imu,501.358956,-0.8075062800000001,-9.526181492800001,2.845412869600001,0.14964567,1.71917929,-3.87770441,,,
imu,501.367817,-0.8027210576,-9.516012895200001,2.845412869600001,0.04496892999999999,1.51730272,-3.89265823,,,
imu,501.376678,-0.8015247520000001,-9.517807353600002,2.850198092000001,-0.02980017,1.59954873,-4.057150249999999,,,
imu,501.385538,-0.7985339880000002,-9.499862769600002,2.8484036336,0.07487657,1.36776452,-4.0945348,,,
imu,501.394399,-0.7943469184000002,-9.499862769600002,2.859170384,0.07487657,1.25561087,-4.02724261,,,
imu,501.402837,-0.8122915024000001,-9.517807353600002,2.8657500648,0.10478421,1.1285034,-4.08705789,,,
imu,501.411275,-0.8200674888,-9.530966715200002,2.864553759200001,0.08235347999999998,1.21074941,-4.034719519999999,,,
imu,501.419713,-0.8230582528,-9.526181492800001,2.863955606400001,0.11226112,1.03878048,-4.04967334,,,
imu,501.428152,-0.8344231560000002,-9.519601812000001,2.8627593008,0.12721494,0.98644211,-3.95247351,,,
imu,501.43659,-0.8416009896000001,-9.5219944232,2.873526051200001,0.27675314,1.06121121,-3.71321239,,,
imu,501.445028,-0.8416009896000001,-9.527975951200002,2.8848909544,0.41133752,1.08364194,-3.48890509,,,
imu,501.453466,-0.8380120728000001,-9.530368562400001,2.8938632464,0.29918387,1.08364194,-3.60853565,,,
imu,501.461904,-0.8374139200000001,-9.5184055064,2.8765168152,0.1720764,1.03130357,-3.73564312,,,
imu,501.470342,-0.8392083784000002,-9.502255380800001,2.8998447744,-0.007369440000000005,1.21822632,-3.66835093,,,
imu,500.064631,,,,,,,75.794494,-1.446583600000007,-10.1380648
imu,500.166224,,,,,,,73.6704412,-0.6409084000000176,-7.391444800000002
imu,500.267939,,,,,,,73.8169276,-0.6531156000000093,-7.220544000000007
imu,500.369318,,,,,,,73.27981079999999,-0.4944220000000055,-7.647796000000007
imu,500.470911,,,,,,,73.59719799999999,-0.4944220000000055,-6.842120800000007
imu,500.572443,,,,,,,73.78030600000001,-0.5798724000000144,-7.074057600000005
imu,500.674097,,,,,,,75.2085484,-0.384557200000013,-7.00081440000001
imu,500.775599,,,,,,,73.82913479999999,-1.153610800000004,-7.318201600000007
imu,501.47878,-0.8332268504000001,-9.514218436800002,2.9028355384,-0.06718472,1.21822632,-3.62348947,,,
imu,501.487218,-0.8284416280000001,-9.5154147424,2.9159949,-0.0522309,1.01634975,-3.71321239,,,
imu,501.495656,-0.8284416280000001,-9.516611048000001,2.9153967472,-0.127,0.9939190199999999,-3.78050458,,,
imu,501.504095,-0.8236564056000001,-9.5082369088,2.901041080000001,-0.08961545,1.00139593,-3.73564312,,,
imu,501.512533,-0.8218619472,-9.477132963200003,2.8807038848,-0.09709236,1.00887284,-3.66835093,,,
imu,501.520971,-0.8158804192000001,-9.446627170400001,2.8729278984,-0.10456927,0.98644211,-3.81041222,,,
imu,501.529409,-0.8254508640000001,-9.446627170400001,2.8902743296,0.03001510999999998,0.9415806499999997,-3.67582784,,,
imu,501.537847,-0.8356194616000001,-9.461580990400002,2.8854891072,0.44872207,0.8967191899999998,-3.75059694,,,
imu,501.546285,-0.8332268504000001,-9.4843107968,2.8854891072,0.67302937,0.8742884599999998,-3.92256587,,,
imu,501.554723,-0.8134878080000001,-9.478329268800001,2.8836946488,0.82256757,0.80699627,-4.19173463,,,
imu,501.563161,-0.8344231560000002,-9.4944793944,2.8938632464,0.8823828499999999,0.76213481,-4.34874974,,,
imu,501.571599,-0.8272453224,-9.510031367200002,2.8944613992,1.00949032,0.7696117199999999,-4.386134289999999,,,
imu,501.580038,-0.8362176144000002,-9.5154147424,2.9094152192,1.24127453,0.76213481,-4.23659609,,,
imu,501.588476,-0.8374139200000001,-9.519003659200001,2.9076207608,1.20388998,0.7770886299999997,-4.16182699,,,
imu,501.596914,-0.8481806704000001,-9.519601812000001,2.9004429272,1.21136689,0.9191499199999997,-3.88518132,,,
imu,501.605417,-0.8469843648000001,-9.519003659200001,2.9004429272,1.17398234,0.7397040799999997,-3.60853565,,,
imu,501.61392,-0.8475825176000001,-9.517807353600002,2.8944613992,1.18893616,0.7546578999999998,-3.30945925,,,
imu,501.622423,-0.8499751288000001,-9.5184055064,2.875918662400001,1.11416706,0.8742884599999998,-3.17487487,,,
imu,501.630926,-0.8553585040000001,-9.520199964800002,2.874124204,0.97958268,0.9714882899999999,-3.09262886,,,
imu,501.639429,-0.8649289488,-9.510031367200002,2.8699371344,0.80761375,0.98644211,-3.06272122,,,
imu,501.647932,-0.8691160184000001,-9.486105255200002,2.856777772800001,0.74779847,1.00139593,-3.13749032,,,
imu,501.656435,-0.8679197128000001,-9.4621791432,2.8537870088,0.6281679099999999,1.06868812,-3.00290594,,,
imu,501.664937,-0.8493769760000001,-9.4454308648,2.8615629952,0.620691,1.3528107,-2.88327538,,,
imu,501.67344,-0.8416009896000001,-9.465169907200002,2.8633574536,0.77770611,1.59207182,-2.75616791,,,
imu,501.681943,-0.8296379336000002,-9.4663662128,2.8699371344,1.02444414,1.79394839,-2.71878336,,,
imu,501.690446,-0.7901598488000001,-9.4735440464,2.874124204,0.9347212199999999,1.73413311,-2.95804448,,,
imu,501.698949,-0.8176748776000001,-9.540537160000001,2.8842928016,1.06182869,1.97339423,-3.1225365,,,
imu,501.707452,-0.8057118216000001,-9.546518688,2.8699371344,1.15902852,1.9509635,-3.10758268,,,
imu,501.715955,-0.7925524600000001,-9.533957479200001,2.8854891072,1.11416706,2.04816333,-3.04029049,,,
imu,501.724458,-0.7811875568000001,-9.548313146400002,2.8848909544,1.25622835,2.19022462,-2.94309066,,,
imu,501.732961,-0.7524762224000001,-9.5459205352,2.8908724824,1.22632071,1.96591732,-3.11505959,,,
imu,501.741464,-0.7662337368000001,-9.571641105600001,2.88608726,1.0693056,1.81637912,-3.24964397,,,
imu,501.749967,-0.7560651392000002,-9.594370912,2.883096496000001,0.97210577,1.74161002,-3.29450543,,,
imu,501.75847,-0.7542706808000001,-9.574631869600001,2.874124204,0.8823828499999999,1.60702564,-3.28702852,,,
imu,501.766973,-0.7674300424000001,-9.556089132800002,2.8747223568,0.79265993,1.53225654,-3.24964397,,,
imu,501.775476,-0.7752060288000001,-9.553696521600001,2.8824983432,0.7104139199999999,1.56216418,-3.23469015,,,
imu,501.783979,-0.7973376824000001,-9.5459205352,2.877713120800001,0.58330645,1.56216418,-2.99542903,,,
imu,501.792482,-0.7907580016000001,-9.5393408544,2.8573759256,0.49358353,1.37524143,-3.0477674,,,
imu,501.800985,-0.7758041816000001,-9.533359326400001,2.843020258400001,0.35152224,1.49487199,-3.26459779,,,
imu,501.809408,-0.7752060288000001,-9.524387034400002,2.8537870088,0.21693786,1.62197946,-3.54872037,,,
imu,501.817831,-0.7775986400000001,-9.519601812000001,2.864553759200001,0.25432241,1.67431783,-3.60853565,,,
imu,501.826253,-0.7787949456000002,-9.513620284000002,2.8795075792,0.07487657,1.68927165,-3.66087402,,,
imu,501.834676,-0.7871690848,-9.505844297600001,2.883096496000001,0.10478421,1.7266562,-3.81788913,,,
imu,501.843099,-0.7835801680000001,-9.504647992000002,2.874124204,0.23936859,1.71917929,-3.95247351,,,
imu,501.851522,-0.7758041816000001,-9.5154147424,2.8765168152,0.17955331,1.77151766,-4.0945348,,,
imu,501.859945,-0.7847764736,-9.519003659200001,2.8848909544,0.18703022,1.74161002,-4.124442439999999,,,
imu,501.868368,-0.7722152648000001,-9.524387034400002,2.896854010400001,0.03749201999999999,1.71170238,-4.31136519,,,
imu,501.876791,-0.7644392784,-9.522592576000001,2.8836946488,-0.05970781,1.6518871,-4.169303899999999,,,
imu,501.885416,-0.771617112,-9.513620284000002,2.8819001904,-0.04475399000000001,1.63693328,-4.102011709999999,,,
imu,501.893838,-0.7787949456000002,-9.51062952,2.895059552,-0.24663056,1.54721036,-4.07210407,,,
imu,501.902261,-0.7787949456000002,-9.513620284000002,2.904031844000001,-0.17933837,1.46496435,-3.82536604,,,
imu,501.910684,-0.7913561544000001,-9.5291722568,2.8962558576,-0.17186146,1.33785688,-4.04967334,,,
imu,501.919107,-0.8015247520000001,-9.5357519376,2.928556108800001,-0.31392275,1.31542615,-3.98238115,,,
imu,501.92753,-0.8098988912000001,-9.536350090400001,2.9393228592,-0.30644584,1.29299542,-3.98238115,,,
imu,501.935953,-0.8098988912000001,-9.5172092008,2.935733942400001,-0.26906129,1.10607267,-3.87770441,,,
imu,501.944376,-0.8170767248000002,-9.505844297600001,2.948893304,-0.36626112,1.06868812,-3.81041222,,,
imu,501.952798,-0.8224601,-9.498666464000001,2.9500896096,-0.34383039,1.13598031,-3.63096638,,,
imu,501.961221,-0.8278434752000001,-9.492086783200001,2.9596600544,-0.47093786,1.15093413,-3.51881273,,,
imu,501.969644,-0.8278434752000001,-9.468160671200001,2.9650434296,-0.35878421,1.27056469,-3.2720747,,,
imu,501.978067,-0.8176748776000001,-9.479525574400002,2.9740157216,-0.40364567,1.30047233,-3.30198234,,,
imu,501.98649,-0.8230582528,-9.4633754488,2.9680341936,-0.3513073,1.27056469,-3.27955161,,,
imu,501.994913,-0.8236564056000001,-9.457393920800001,2.9859787776,-0.30644584,1.4275798,-3.31693616,,,
imu,502.003336,-0.8218619472,-9.451412392800002,2.981791708,-0.2765382,1.45001053,-3.38422835,,,
imu,502.0118,-0.8116933496000001,-9.441841948000002,2.9973436808,-0.09709236,1.41262598,-3.45152054,,,
imu,502.020265,-0.8176748776000001,-9.429878892000001,2.9955492224,-0.127,1.47244126,-3.58610492,,,
imu,502.02873,-0.8164785720000002,-9.427486280800002,3.0021289032,0.02253820000000001,1.60702564,-3.52628964,,,
imu,502.037195,-0.8140859608000002,-9.423897364000002,3.001530750400001,0.35152224,1.59954873,-3.52628964,,,
imu,502.04566,-0.8057118216000001,-9.422701058400001,3.0021289032,0.57582954,1.67431783,-3.496382,,,
imu,502.054124,-0.7985339880000002,-9.4280844336,3.005717820000001,0.80761375,1.70422547,-3.496382,,,
imu,502.062589,-0.7877672376000001,-9.420906600000002,3.007512278400001,0.94219813,1.7266562,-3.48142818,,,
imu,502.071054,-0.7853746264000001,-9.422701058400001,3.002727056,1.13659779,1.59207182,-3.54872037,,,
imu,502.079519,-0.7817857096,-9.440645642400002,2.9931566112,1.368382,1.60702564,-3.46647436,,,
imu,502.087984,-0.7764023344000002,-9.4496179344,2.9913621528,1.49548947,1.56964109,-3.39918217,,,
imu,502.096449,-0.7728134176000001,-9.462777296000002,2.9883713888,1.48053565,1.47991817,-3.47395127,,,
imu,502.104913,-0.7770004872000001,-9.460982837600001,2.9853806248,1.58521239,1.33785688,-3.47395127,,,
imu,502.113378,-0.7793930984000002,-9.469356976800002,2.982389860800001,1.77961205,1.32290306,-3.39918217,,,
imu,502.121843,-0.7770004872000001,-9.4621791432,2.975810180000001,1.78708896,1.39767216,-3.43656672,,,
imu,502.130308,-0.7698226536000001,-9.457992073600002,2.975810180000001,1.92915025,1.25561087,-3.33936689,,,
imu,502.138773,-0.7632429728000001,-9.451412392800002,2.966837888,1.76465823,1.29299542,-3.4216129,,,
imu,502.147237,-0.7644392784,-9.448421628800002,2.9674360408,1.98148862,1.36776452,-3.50385891,,,
imu,502.155702,-0.7554669864000001,-9.465169907200002,2.9584637488,2.13102682,1.42010289,-3.55619728,,,
imu,502.164167,-0.7602522088000001,-9.468758824,2.9500896096,1.98148862,1.25561087,-3.81041222,,,
imu,502.172632,-0.7668318896,-9.4765348104,2.9560711376,1.98896553,1.24813396,-3.90013514,,,
imu,502.181097,-0.7650374312,-9.481320032800001,2.96085636,2.15345755,1.22570323,-3.97490424,,,
imu,502.189561,-0.7722152648000001,-9.502255380800001,2.9405191648,2.1908421,0.9939190199999999,-3.99733497,,,
imu,502.198026,-0.7746078760000001,-9.519003659200001,2.9375284008,2.20579592,0.9939190199999999,-4.00481188,,,
imu,502.206491,-0.7817857096,-9.517807353600002,2.9405191648,1.98896553,0.86681155,-3.99733497,,,
imu,502.215308,-0.7865709320000001,-9.5004609224,2.93094872,2.07868845,0.8294269999999999,-3.93004278,,,
imu,502.224125,-0.7877672376000001,-9.513022131200001,2.910013372,2.19831901,0.7546578999999998,-3.95247351,,,
imu,502.232942,-0.7913561544000001,-9.513022131200001,2.9004429272,2.31047266,0.6724118899999998,-3.89265823,,,
imu,502.241759,-0.7889635432000001,-9.519003659200001,2.8998447744,2.19831901,0.66493498,-3.83284295,,,
imu,502.250576,-0.7985339880000002,-9.532163020800002,2.889676176800001,2.2656112,0.6948426199999997,-3.66835093,,,
imu,502.259393,-0.7907580016000001,-9.536350090400001,2.8747223568,2.25813429,0.6724118899999998,-3.56367419,,,
imu,502.26821,-0.7913561544000001,-9.550705757600001,2.8783112736,2.0413039,0.64250425,-3.56367419,,,
imu,502.277026,-0.7919543072000002,-9.549509452,2.868142676,2.12354991,0.64250425,-3.59358183,,,
imu,502.285843,-0.8033192104000001,-9.541733465600002,2.875918662400001,2.00391935,0.52287369,-3.5711511,,,
imu,500.877403,,,,,,,75.9043588,-1.556448400000021,-9.588740800000007
imu,500.978966,,,,,,,73.59719799999999,-0.7629804000000018,-6.890949600000007
imu,501.080498,,,,,,,75.916566,-1.532034000000015,-9.820677600000005
imu,501.18206,,,,,,,74.146522,-0.8606380000000025,-6.866535200000001
imu,501.283653,,,,,,,73.42629720000001,-0.7141516000000125,-6.634598400000002
imu,501.385185,,,,,,,73.42629720000001,-0.7385660000000183,-6.109688800000002
imu,501.48687,,,,,,,73.5849908,-0.4822148000000137,-7.159508000000003
imu,501.588371,,,,,,,73.89017079999999,-0.7996020000000215,-6.805499200000009
imu,502.29466,-0.8069081272,-9.541135312800002,2.8693389816,1.98148862,0.62007352,-3.3468438,,,
imu,502.303477,-0.8188711832000002,-9.537546396000002,2.8627593008,1.98896553,0.6499811599999998,-3.26459779,,,
imu,502.312294,-0.8140859608000002,-9.550705757600001,2.868142676,1.85438115,0.72475026,-3.10758268,,,
imu,502.321111,-0.8206656416,-9.550705757600001,2.8573759256,1.60764312,0.80699627,-3.02533667,,,
imu,502.329928,-0.8182730304000002,-9.5590798968,2.863955606400001,1.51044329,0.8967191899999998,-3.01785976,,,
imu,502.338745,-0.8033192104000001,-9.569248494400002,2.865151912,1.34595127,0.9939190199999999,-2.96552139,,,
imu,502.347562,-0.8003284464,-9.573435564,2.8747223568,1.2936129,1.12102649,-2.77112173,,,
imu,502.356379,-0.7889635432000001,-9.569248494400002,2.87113344,1.19641307,1.21822632,-2.6739219,,,
imu,502.365196,-0.7799912512000001,-9.5740337168,2.880105732000001,1.03939796,1.26308778,-2.86084465,,,
imu,502.374013,-0.7752060288000001,-9.578818939200001,2.8854891072,0.8375213899999999,1.25561087,-2.85336774,,,
imu,502.38283,-0.771617112,-9.572837411200002,2.889078024,0.7104139199999999,1.18084177,-2.83841392,,,
imu,502.391647,-0.76264482,-9.557285438400001,2.895657704800001,0.53844499,1.25561087,-2.86832156,,,
imu,502.400463,-0.7680281952000001,-9.5357519376,2.898050316,0.26927623,1.22570323,-2.87579847,,,
imu,502.40928,-0.7614485144,-9.5219944232,2.899246621600001,0.26927623,1.36776452,-2.79355246,,,
imu,502.417762,-0.7644392784,-9.513022131200001,2.9016392328,0.25432241,1.28551851,-2.86084465,,,
imu,502.426243,-0.7710189592000001,-9.4873015608,2.8938632464,0.05992275,1.32290306,-2.90570611,,,
imu,502.434724,-0.7692245008,-9.4633754488,2.9124059832,0.05992275,1.30794924,-2.77112173,,,
imu,502.443206,-0.7578595976000001,-9.474142199200001,2.9273598032,0.05244583999999999,1.39019525,-2.78607555,,,
imu,502.451687,-0.7644392784,-9.493283088800002,2.9267616504,0.11226112,1.34533379,-2.93561375,,,
imu,502.460168,-0.7692245008,-9.5010590752,2.9297524144,0.19450713,1.28551851,-3.17487487,,,
imu,502.46865,-0.7638411256000001,-9.478927421600002,2.933939484000001,0.25432241,1.2780416,-3.18982869,,,
imu,502.477131,-0.7722152648000001,-9.4591883792,2.943509928800001,0.28423005,1.34533379,-3.29450543,,,
imu,502.485612,-0.7787949456000002,-9.4526086984,2.943509928800001,0.52349117,1.47244126,-3.11505959,,,
imu,502.494094,-0.7758041816000001,-9.4633754488,2.943509928800001,0.68050628,1.63693328,-3.00290594,,,
imu,502.502575,-0.7668318896,-9.471151435200001,2.9393228592,0.85995212,1.74161002,-2.92813684,,,
imu,502.511057,-0.7530743752000001,-9.4801237272,2.9387247064,0.8375213899999999,1.74161002,-3.10010577,,,
imu,502.519538,-0.7393168608000001,-9.489694172,2.942911776,1.00949032,1.94348659,-3.21225942,,,
imu,502.528019,-0.7255593464000001,-9.5118258256,2.9512859152,1.08425942,1.80890221,-3.48890509,,,
imu,502.536501,-0.7189796656000002,-9.503451686400002,2.942911776,0.9571519499999999,1.56216418,-3.69825857,,,
imu,502.544982,-0.7171852072000001,-9.505844297600001,2.9500896096,0.97210577,1.58459491,-3.95247351,,,
imu,502.553463,-0.7225685824,-9.502853533600002,2.9470988456,0.9347212199999999,1.62945637,-3.93751969,,,
imu,502.561945,-0.7249611936,-9.490292324800002,2.942911776,0.8823828499999999,1.48739508,-4.0197657,,,
imu,502.570426,-0.7441020832,-9.477731116000001,2.9333413312,0.9347212199999999,1.36776452,-4.012288789999999,,,
imu,502.578907,-0.7321390272000001,-9.48072188,2.9405191648,1.00949032,1.36028761,-3.86275059,,,
imu,502.587389,-0.7321390272000001,-9.463973601600001,2.938126553600001,0.9646288599999999,1.36028761,-3.80293531,,,
imu,502.59587,-0.7273538048000001,-9.475936657600002,2.943509928800001,1.15902852,1.39767216,-3.70573548,,,
imu,502.604351,-0.7327371800000001,-9.489694172,2.9500896096,1.2188438,1.4275798,-3.74312003,,,
imu,502.612833,-0.7321390272000001,-9.503451686400002,2.9470988456,1.27118217,1.4275798,-3.87770441,,,
imu,502.621416,-0.7345316384000001,-9.519601812000001,2.957267443200001,1.30856672,1.3528107,-3.75807385,,,
imu,502.629999,-0.7375224024000001,-9.533359326400001,2.947696998400001,1.39081273,1.40514907,-3.74312003,,,
imu,502.638582,-0.7429057776,-9.529770409600001,2.9596600544,1.33847436,1.36028761,-3.78798149,,,
imu,502.647165,-0.7405131664000002,-9.517807353600002,2.9500896096,1.27118217,1.24065705,-4.02724261,,,
imu,502.655748,-0.7464946944,-9.4980683112,2.9441080816,1.21136689,1.39767216,-4.04219643,,,
imu,502.664331,-0.7506817640000001,-9.483712644000002,2.9327431784,1.17398234,1.47244126,-4.00481188,,,
imu,502.672914,-0.7596540560000001,-9.4831144912,2.9321450256,1.19641307,1.42010289,-3.9449966,,,
imu,502.681497,-0.7608503616000001,-9.479525574400002,2.9237708864,1.01696723,1.38271834,-3.85527368,,,
imu,502.69008,-0.7590559032000002,-9.4801237272,2.931546872800001,1.16650543,1.3528107,-3.81788913,,,
imu,502.698663,-0.76264482,-9.477731116000001,2.9417154704,1.09921324,1.32290306,-4.02724261,,,
imu,502.707246,-0.7560651392000002,-9.482516338400002,2.9387247064,1.08425942,1.33037997,-3.84779677,,,
imu,502.715829,-0.7608503616000001,-9.483712644000002,2.9405191648,1.07678251,1.3528107,-3.75059694,,,
imu,502.724413,-0.7775986400000001,-9.484908949600001,2.9387247064,1.06182869,1.31542615,-3.71321239,,,
imu,502.732996,-0.7698226536000001,-9.477731116000001,2.9345376368,1.09173633,1.4275798,-3.66087402,,,
imu,502.741579,-0.7674300424000001,-9.471749588000002,2.9261634976,1.25622835,1.44253362,-3.65339711,,,
imu,502.750162,-0.7775986400000001,-9.453805004000001,2.920181969600001,1.18145925,1.36776452,-3.75807385,,,
imu,502.758745,-0.7674300424000001,-9.450814240000001,2.917789358400001,1.15155161,1.42010289,-3.86275059,,,
imu,502.767328,-0.7686263480000001,-9.463973601600001,2.921976428000001,1.39081273,1.48739508,-3.92256587,,,
imu,502.775911,-0.7817857096,-9.4831144912,2.9165930528,1.50296638,1.49487199,-4.057150249999999,,,
imu,502.784494,-0.7823838624,-9.499264616800001,2.9423136232,1.65998149,1.77151766,-4.034719519999999,,,
imu,502.793077,-0.7811875568000001,-9.516611048000001,2.9423136232,1.71231986,1.69674856,-4.17678081,,,
imu,502.80166,-0.7775986400000001,-9.519003659200001,2.9447062344,1.91419643,1.74161002,-4.26650373,,,
imu,502.810243,-0.7686263480000001,-9.527975951200002,2.952482220800001,1.60764312,1.78647148,-4.42351884,,,
imu,502.818826,-0.7698226536000001,-9.5447242296,2.9566692904,1.61512003,1.64441019,-4.49081103,,,
imu,502.827164,-0.7740097232000002,-9.573435564,2.9482951512,1.52539711,1.60702564,-4.26650373,,,
imu,502.835502,-0.7793930984000002,-9.553696521600001,2.9393228592,1.2188438,1.59954873,-4.32631901,,,
imu,502.843839,-0.7775986400000001,-9.501657228000001,2.949491456800001,0.9272443100000001,1.577118,-4.22164227,,,
imu,502.852177,-0.7752060288000001,-9.481320032800001,2.9542766792,0.9197674,1.59207182,-4.13191935,,,
imu,502.860515,-0.7895616960000001,-9.5184055064,2.9506877624,0.9945364999999999,1.47991817,-4.10948862,,,
imu,502.868852,-0.7871690848,-9.524387034400002,2.943509928800001,1.10669015,1.58459491,-4.0945348,,,
imu,502.87719,-0.7752060288000001,-9.493283088800002,2.938126553600001,0.94219813,1.77151766,-4.28893446,,,
imu,502.885528,-0.7662337368000001,-9.454403156800002,2.9447062344,0.8749059399999999,1.82385603,-4.30388828,,,
imu,502.893865,-0.7710189592000001,-9.46576806,2.9333413312,0.8823828499999999,1.85376367,-4.244073,,,
imu,502.902203,-0.7608503616000001,-9.474740352000001,2.936930248,0.88985976,2.03320951,-4.19173463,,,
imu,502.910541,-0.7662337368000001,-9.488497866400001,2.9470988456,0.9945364999999999,2.09302479,-4.318842099999999,,,
imu,502.918878,-0.7584577504000002,-9.489096019200002,2.9470988456,1.12912088,2.22760917,-4.52819558,,,
imu,502.927216,-0.7423076248,-9.491488630400001,2.949491456800001,1.30856672,2.27247063,-4.57305704,,,
imu,502.935553,-0.7464946944,-9.48072188,2.9255653448,1.41324346,2.22760917,-4.670256869999999,,,
imu,502.943891,-0.7494854584000001,-9.489096019200002,2.936930248,1.48053565,2.14536316,-4.81231816,,,
imu,502.952229,-0.7488873056,-9.502255380800001,2.9267616504,1.5926893,2.1752708,-4.87213344,,,
imu,502.960566,-0.7482891528000001,-9.510031367200002,2.904031844000001,1.60764312,2.1005017,-5.17120984,,,
imu,502.968904,-0.7458965416000001,-9.5040498392,2.8986484688,1.65250458,2.07807097,-5.27588658,,,
imu,502.977146,-0.7441020832,-9.506442450400002,2.9136022888,1.71979677,1.95844041,-5.305794219999999,,,
imu,502.985483,-0.7536725280000001,-9.495077547200001,2.8962558576,1.64502767,1.83880985,-5.44785551,,,
imu,502.993821,-0.7620466672,-9.507040603200002,2.8932650936,1.83942733,1.86124058,-5.283363489999999,,,
imu,503.002159,-0.7775986400000001,-9.503451686400002,2.8962558576,1.89924261,1.79394839,-5.216071299999999,,,
imu,503.010496,-0.7752060288000001,-9.509433214400001,2.901041080000001,1.85438115,1.80890221,-5.1413022,,,
imu,503.018834,-0.7859727792000001,-9.5148165896,2.895657704800001,1.71231986,1.77899457,-5.15625602,,,
imu,503.02735,-0.7877672376000001,-9.531564868,2.907022608,1.57773548,1.69674856,-5.238502029999999,,,
imu,503.035865,-0.804515516,-9.550705757600001,2.908218913600001,1.48801256,1.82385603,-5.16373293,,,
imu,503.044381,-0.8230582528,-9.546518688,2.8986484688,1.39828964,1.92853277,-4.92447181,,,
imu,503.052897,-0.8260490168000001,-9.537546396000002,2.891470635200001,1.22632071,1.93600968,-4.85717962,,,
imu,503.061412,-0.8236564056000001,-9.5489112992,2.8938632464,1.04687487,2.1005017,-4.92447181,,,
imu,503.069928,-0.8260490168000001,-9.5327611736,2.8962558576,0.8973366700000001,2.11545552,-4.70016451,,,
imu,503.078444,-0.8152822664000001,-9.5429297712,2.9046299968,0.60573718,1.88367131,-4.72259524,,,
imu,503.086959,-0.8057118216000001,-9.552500216,2.904031844000001,0.41133752,1.78647148,-4.94690254,,,
imu,503.095475,-0.7865709320000001,-9.553696521600001,2.9118078304,0.3216146,1.83133294,-4.9169949,,,
imu,503.103991,-0.7943469184000002,-9.541135312800002,2.904031844000001,0.17955331,1.65936401,-4.79736434,,,
imu,501.689903,,,,,,,73.8779636,-0.8362236000000189,-7.391444800000002
imu,501.791435,,,,,,,74.23197239999999,-0.5798724000000144,-7.476895200000011
imu,501.892998,,,,,,,73.658234,-0.6531156000000093,-7.196129600000011
imu,501.994591,,,,,,,76.0264308,-1.324511600000022,-10.4310376
imu,502.096153,,,,,,,73.7314772,-0.457800400000008,-7.110679200000003
imu,502.197716,,,,,,,75.81890840000001,-1.434376400000015,-9.723020000000005
imu,502.29937,,,,,,,74.02445,-1.287890000000003,-7.025228800000005
imu,502.400841,,,,,,,73.9878284,-0.3235212000000098,-7.574552800000012
imu,503.112506,-0.7883653904000001,-9.528574104,2.8998447744,0.06739966,1.577118,-4.78241052,,,
imu,503.121022,-0.7943469184000002,-9.5219944232,2.9028355384,0.10478421,1.43505671,-4.73007215,,,
imu,503.129538,-0.7931506128000001,-9.507040603200002,2.896854010400001,-0.02980017,1.16588795,-4.6179185,,,
imu,503.138053,-0.7913561544000001,-9.478329268800001,2.901041080000001,-0.08213854000000001,1.15841104,-4.48333412,,,
imu,503.146569,-0.8027210576,-9.4801237272,2.9094152192,-0.11204618,1.13598031,-4.52071867,,,
imu,503.155085,-0.8093007384,-9.5148165896,2.9261634976,0.11973803,0.9789651999999998,-4.386134289999999,,,
imu,503.1636,-0.8230582528,-9.524387034400002,2.924967192,0.17955331,0.7097964399999999,-4.37865738,,,
imu,503.172116,-0.8278434752000001,-9.534555632000002,2.9207801224,0.0001074699999999984,0.6275504299999999,-4.49081103,,,
imu,503.180632,-0.8152822664000001,-9.531564868,2.9375284008,0.04496892999999999,0.64250425,-4.23659609,,,
imu,503.189148,-0.8493769760000001,-9.520798117600002,2.9470988456,-0.11952309,0.5303505999999998,-4.02724261,,,
imu,503.197663,-0.8667234072000001,-9.495675700000001,2.931546872800001,-0.2765382,0.70231953,-3.84779677,,,
imu,503.206179,-0.8529658928000001,-9.475936657600002,2.9417154704,-0.32139966,0.9041961000000001,-3.41413599,,,
imu,503.214695,-0.8565548096000002,-9.477132963200003,2.9267616504,-0.20924601,0.98644211,-3.26459779,,,
imu,503.22321,-0.8661252544000001,-9.472347740800002,2.9261634976,-0.14943073,1.15841104,-3.25712088,,,
imu,503.232005,-0.8487788232000001,-9.4962738528,2.9351357896,-0.2017691,1.16588795,-3.36179762,,,
imu,503.240799,-0.8362176144000002,-9.505844297600001,2.9363320952,-0.26906129,1.18831868,-3.51133582,,,
imu,503.249593,-0.8338250032000001,-9.488497866400001,2.9441080816,-0.2765382,1.45748744,-3.60853565,,,
imu,503.258388,-0.8374139200000001,-9.493283088800002,2.9482951512,-0.15690764,1.62197946,-3.78050458,,,
imu,503.267182,-0.8296379336000002,-9.4801237272,2.9560711376,-0.13447691,1.71170238,-3.90013514,,,
imu,503.275976,-0.8266471696000001,-9.477132963200003,2.9512859152,-0.15690764,1.71170238,-4.079580979999999,,,
imu,503.284771,-0.8081044328000001,-9.471151435200001,2.945304387200001,-0.17933837,1.77899457,-4.13939626,,,
imu,503.293565,-0.8051136688,-9.459786532,2.9602582072,-0.14195382,1.74161002,-4.15435008,,,
imu,503.30236,-0.8110951968000001,-9.4663662128,2.9566692904,-0.04475399000000001,1.74908693,-4.102011709999999,,,
imu,503.311154,-0.7985339880000002,-9.478329268800001,2.9614545128,-0.08213854000000001,1.75656384,-4.10948862,,,
imu,503.319948,-0.8015247520000001,-9.495077547200001,2.9680341936,0.07487657,1.8014253,-4.00481188,,,
imu,503.328743,-0.8122915024000001,-9.516012895200001,2.9614545128,0.05244583999999999,1.80890221,-3.97490424,,,
imu,503.337537,-0.7979358352000001,-9.487899713600001,2.963248971200001,-0.15690764,1.61450255,-4.13939626,,,
imu,503.346331,-0.7949450712000001,-9.490292324800002,2.9734175688,-0.17933837,1.50982581,-4.15435008,,,
imu,503.355126,-0.8104970440000001,-9.5010590752,2.978800944,-0.17186146,1.38271834,-4.44594957,,,
imu,503.36392,-0.8146841136000001,-9.519601812000001,2.980595402400001,-0.32139966,1.51730272,-4.453426479999999,,,
imu,503.372714,-0.8380120728000001,-9.517807353600002,2.978800944,-0.21672292,1.40514907,-4.3936112,,,
imu,503.381509,-0.8356194616000001,-9.506442450400002,2.9865769304,-0.11204618,1.2780416,-4.341272829999999,,,
imu,503.390303,-0.840404684,-9.492684936000002,2.9811935552,-0.26158438,1.30794924,-4.37118047,,,
imu,503.399098,-0.8380120728000001,-9.491488630400001,2.9722212632,-0.32139966,1.31542615,-4.26650373,,,
imu,503.407892,-0.8463862120000001,-9.4974701584,2.9835861664,-0.28401511,1.24065705,-4.25154991,,,
imu,503.416686,-0.8493769760000001,-9.505246144800001,2.9859787776,-0.24663056,1.29299542,-4.25154991,,,
imu,503.425481,-0.8523677400000002,-9.489694172,2.9865769304,-0.4260764,1.34533379,-4.30388828,,,
imu,503.433933,-0.8416009896000001,-9.4801237272,2.989567694400001,-0.49336859,1.41262598,-4.22911918,,,
imu,503.442385,-0.8445917536,-9.477731116000001,2.993754764000001,-0.5681376899999999,1.51730272,-4.13939626,,,
imu,503.450837,-0.8416009896000001,-9.478329268800001,2.9889695416,-0.54570696,1.47244126,-4.08705789,,,
imu,503.459289,-0.8481806704000001,-9.477731116000001,2.9889695416,-0.50832241,1.29299542,-3.98238115,,,
imu,503.467741,-0.8427972952,-9.474142199200001,2.991960305600001,-0.56066078,1.34533379,-3.92256587,,,
imu,503.476193,-0.8356194616000001,-9.490292324800002,2.9925584584,-0.61299915,1.3528107,-3.85527368,,,
imu,503.484645,-0.8445917536,-9.481320032800001,2.9853806248,-0.55318387,1.30794924,-3.99733497,,,
imu,503.493098,-0.8427972952,-9.456197615200002,2.9829880136,-0.67281443,1.45001053,-3.85527368,,,
imu,503.50155,-0.8487788232000001,-9.448421628800002,2.9841843192,-0.65786061,1.34533379,-3.84031986,,,
imu,503.510002,-0.8439936008000001,-9.459786532,2.9764083328,-0.5980453299999999,1.47244126,-3.74312003,,,
imu,503.518454,-0.8463862120000001,-9.471749588000002,2.9859787776,-0.43355331,1.53973345,-3.71321239,,,
imu,503.526906,-0.8487788232000001,-9.486105255200002,2.9835861664,-0.52327623,1.48739508,-3.67582784,,,
imu,503.535358,-0.8463862120000001,-9.5004609224,2.9746138744,-0.44850713,1.63693328,-3.81788913,,,
imu,503.54381,-0.8493769760000001,-9.507040603200002,2.982389860800001,-0.47093786,1.66684092,-3.98985806,,,
imu,503.552262,-0.8398065312,-9.5213962704,2.996147375200001,-0.71019898,1.58459491,-4.22164227,,,
imu,503.560714,-0.8475825176000001,-9.553696521600001,3.005717820000001,-0.7999219,1.71170238,-4.17678081,,,
imu,503.569166,-0.8416009896000001,-9.540537160000001,3.0063159728,-0.88964482,1.74908693,-4.11696553,,,
imu,503.577618,-0.8356194616000001,-9.562070660800002,2.996147375200001,-1.24105959,1.77151766,-4.13191935,,,
imu,503.586071,-0.8350213088000001,-9.564463272000001,2.999736292,-1.4728438,1.79394839,-4.11696553,,,
imu,503.594523,-0.8368157672000002,-9.572837411200002,3.012895653600001,-1.7719202,1.66684092,-4.06462716,,,
imu,503.602975,-0.8445917536,-9.5865949256,3.0272513208,-2.0709966,1.53973345,-4.02724261,,,
imu,503.611427,-0.8392083784000002,-9.557883591200001,3.0093067368,-2.34764227,1.39767216,-3.96742733,,,
imu,503.619879,-0.8242545584000001,-9.545322382400002,3.0320365432,-2.73644159,1.39019525,-3.81041222,,,
imu,503.628331,-0.8278434752000001,-9.5459205352,3.0374199184,-3.028041079999999,1.38271834,-3.68330475,,,
imu,503.636798,-0.840404684,-9.549509452,3.0457940576,-3.27477911,1.2780416,-3.47395127,,,
imu,503.645266,-0.8374139200000001,-9.551303910400001,3.0661312528,-3.64862461,1.09111885,-3.33936689,,,
imu,503.653733,-0.8332268504000001,-9.554892827200002,3.0673275584,-3.97013174,1.03878048,-3.25712088,,,
imu,503.662201,-0.8368157672000002,-9.533359326400001,3.071514628,-4.276685049999999,0.9341037399999998,-3.21973633,,,
imu,503.670668,-0.8386102256000002,-9.508835061600001,3.0691220168,-4.48603853,0.7172733499999997,-3.17487487,,,
imu,503.679135,-0.8380120728000001,-9.505844297600001,3.0840758368,-4.583238359999999,0.6948426199999997,-3.15992105,,,
imu,503.687603,-0.8457880592000001,-9.4974701584,3.1038148792,-4.85988403,0.6574580699999997,-3.06272122,,,
imu,503.69607,-0.8637326432000001,-9.5118258256,3.1038148792,-4.822499479999999,0.62007352,-2.86832156,,,
imu,503.704537,-0.8661252544000001,-9.5082369088,3.1157779352,-4.97203768,0.6798887999999996,-2.85336774,,,
imu,503.713005,-0.8631344904,-9.508835061600001,3.128937296800001,-5.054283689999999,0.8742884599999998,-2.65149117,,,
imu,503.721472,-0.86732156,-9.508835061600001,3.136115130400001,-5.26363717,0.6948426199999997,-2.71878336,,,
imu,503.729939,-0.8697141712000002,-9.484908949600001,3.152265256000001,-5.532805929999999,0.6499811599999998,-2.81598319,,,
imu,502.502314,,,,,,,73.93899960000002,-0.9216740000000057,-7.537931200000003
imu,502.603938,,,,,,,73.8779636,-0.5676652000000226,-7.513516800000009
imu,502.705561,,,,,,,73.7436844,-0.9582956000000031,-7.733246400000004
imu,502.807032,,,,,,,73.95120680000001,-1.03153880000002,-6.939778400000007
imu,502.908625,,,,,,,74.1587292,-0.7873948000000075,-7.721039200000002
imu,503.010157,,,,,,,74.1953508,-0.6164940000000119,-6.964192800000002
imu,503.111689,,,,,,,75.9043588,-1.446583600000007,-9.027209600000008
imu,503.213343,,,,,,,73.18215320000002,-0.8484308000000107,-7.342616000000001
imu,503.314845,,,,,,,75.9531876,-1.922664400000018,-9.246939200000003
imu,503.417078,,,,,,,73.25539640000001,-0.7629804000000018,-6.988607200000008
imu,503.518,,,,,,,73.42629720000001,-1.116989200000007,-7.769868000000002
imu,503.619502,,,,,,,73.5849908,-0.7873948000000075,-7.159508000000003
imu,503.721064,,,,,,,73.4507116,-0.3113140000000181,-7.318201600000007
