Type,Timestamp,Data Accelerometer X,Data Accelerometer Y,Data Accelerometer Z,Data Gyroscope X,Data Gyroscope Y,Data Gyroscope Z,Data Magnetometer X,Data Magnetometer Y,Data Magnetometer Z
imu,456.253563,-0.0442633072,-9.246245982400001,3.470482545600001,-1.28592105,4.40338998,-2.03090764,,,
imu,456.262436,-0.0346928624,-9.2312921624,3.472875156800001,-1.23358268,4.32114397,-2.19539966,,,
imu,456.271309,-0.0221316536,-9.222918023200002,3.4734733096,-1.39059779,4.29871324,-2.46456842,,,
imu,456.280181,-0.008972292000000002,-9.243853371200002,3.496203116000001,-1.55508981,4.30619015,-2.60662971,,,
imu,456.289054,-0.0155519728,-9.233086620800002,3.4824456016,-1.46536689,4.3435747,-2.65149117,,,
imu,456.297927,-0.0167482784,-9.204973439200002,3.497997574400001,-1.6971511,4.39591307,-2.71130645,,,
imu,456.306799,-0.0197390424,-9.169682424000001,3.4854363656,-1.90650458,4.39591307,-2.81598319,,,
imu,456.315672,-0.0215335008,-9.128409880800001,3.474669615200001,-1.95884295,4.30619015,-2.83093701,,,
imu,456.324448,-0.0251224176,-9.1164468248,3.4764640736,-1.83921239,4.30619015,-2.76364482,,,
imu,456.333321,-0.0281131816,-9.1170449776,3.4854363656,-1.6971511,4.3435747,-2.8234601,,,
imu,456.342193,-0.0233279592,-9.1499433816,3.4896234352,-1.48779762,4.246374869999999,-2.78607555,,,
imu,456.351066,-0.0257205704,-9.191215924800002,3.504577255200001,-1.38312088,4.17908268,-2.75616791,,,
imu,456.359484,-0.0346928624,-9.2103568144,3.5069698664,-1.1737674,4.14169813,-2.6739219,,,
imu,456.367901,-0.04366515440000001,-9.205571592000002,3.487230824,-1.21862886,3.99963684,-2.748691,,,
imu,456.376319,-0.05084298800000001,-9.1894214664,3.5033809496,-1.30087487,3.93982156,-2.59167589,,,
imu,456.384737,-0.05383375200000001,-9.18164548,3.496203116000001,-1.37564397,4.05945212,-2.41223005,,,
imu,456.393155,-0.04127254320000001,-9.1792528688,3.4920160464,-1.27844414,4.149175039999999,-2.23278421,,,
imu,456.401573,-0.0376836264,-9.173869493600002,3.484240060000001,-1.05413684,4.13422122,-2.06829219,,,
imu,456.40999,-0.03648732080000001,-9.1720750352,3.478856684800001,-0.9644139199999999,4.13422122,-2.15801511,,,
imu,456.418408,-0.0263187232,-9.151737840000001,3.475267768000001,-0.9943215599999999,3.99963684,-2.30755331,,,
imu,456.426826,-0.0293094872,-9.1654953544,3.486632671200001,-0.94198319,3.94729847,-2.39727623,,,
imu,456.435244,-0.0191408896,-9.169084271200001,3.4878289768,-0.82982954,3.93982156,-2.42718387,,,
imu,456.443661,-0.0215335008,-9.166691660000001,3.478258532,-0.93450628,3.80523718,-2.57672207,,,
imu,456.452079,-0.0233279592,-9.169682424000001,3.481249296000001,-0.8821679099999999,3.64822207,-2.59167589,,,
imu,456.460497,-0.0430670016,-9.155924909600001,3.484240060000001,-0.91207555,3.65569898,-2.59167589,,,
imu,456.468915,-0.0514411408,-9.163102743200001,3.479454837600001,-1.11395212,3.61831443,-2.62158353,,,
imu,456.477332,-0.0634041968,-9.155326756800001,3.484240060000001,-1.05413684,3.60336061,-2.59167589,,,
imu,456.48575,-0.0634041968,-9.141569242400001,3.4800529904,-1.24105959,3.61831443,-2.53933752,,,
imu,456.494168,-0.0634041968,-9.157121215200002,3.497997574400001,-1.27096723,3.75289881,-2.56924516,,,
imu,456.502586,-0.06579680800000001,-9.1409710896,3.5027827968,-1.3980747,3.79028336,-2.47204533,,,
imu,456.511003,-0.05682451600000001,-9.143961853600002,3.5183347696,-1.31582869,3.82766791,-2.53186061,,,
imu,456.519421,-0.06400234960000001,-9.154728604,3.5267089088,-1.21862886,3.95477538,-2.68139881,,,
imu,456.527839,-0.06579680800000001,-9.166093507200001,3.5243162976,-0.9943215599999999,4.03702139,-2.79355246,,,
imu,456.536257,-0.0681894192,-9.175663952,3.5267089088,-0.83730645,4.194036499999999,-2.90570611,,,
imu,456.544675,-0.06519865520000001,-9.173869493600002,3.528503367200001,-0.78496808,4.26132869,-2.96552139,,,
imu,456.553092,-0.068787572,-9.177458410400002,3.5434571872,-0.82982954,4.388436159999999,-3.11505959,,,
imu,456.56156,-0.06699311360000001,-9.174467646400002,3.5398682704,-0.89712173,4.46320526,-3.15992105,,,
imu,456.570027,-0.06101158560000001,-9.171476882400002,3.5219236864,-0.8522602699999999,4.56040509,-3.16739796,,,
imu,456.578494,-0.03648732080000001,-9.187627008000002,3.526110756,-0.5307531400000001,4.694989469999999,-3.07019813,,,
imu,456.586962,-0.0346928624,-9.198991911200002,3.5207273808,-0.48589168,4.6426511,-3.03281358,,,
imu,456.595429,-0.0323002512,-9.178056563200002,3.508166172,-0.62047606,4.523020539999999,-3.01038285,,,
imu,456.603896,-0.0305057928,-9.166691660000001,3.5267089088,-0.47093786,4.38095925,-2.98047521,,,
imu,456.612364,-0.0370854736,-9.177458410400002,3.54405534,-0.46346095,4.07440594,-2.99542903,,,
imu,456.620831,-0.0663949608,-9.167887965600002,3.526110756,-0.35878421,3.86505246,-3.01038285,,,
imu,456.629299,-0.08972292000000001,-9.1409710896,3.514147700000001,-0.47841477,3.83514482,-2.99542903,,,
imu,456.637766,-0.1178361016,-9.1236246584,3.514745852800001,-0.55318387,3.93234465,-2.80850628,,,
imu,456.646233,-0.1250139352,-9.117643130400001,3.520129228,-0.20924601,3.96225229,-2.61410662,,,
imu,456.654701,-0.1333880744,-9.124222811200001,3.506371713600001,-0.08961545,4.20899032,-2.29259949,,,
imu,456.663168,-0.1112564208,-9.115848672,3.490819740800001,0.12721494,4.61274346,-2.18792275,,,
imu,456.671635,-0.09151737840000002,-9.129606186400002,3.4776603792,0.26179932,4.73237402,-2.12810747,,,
imu,456.680103,-0.08433954480000001,-9.146952617600002,3.463304712000001,0.31413769,4.8669584,-2.18044584,,,
imu,456.68857,-0.08314323920000001,-9.159513826400001,3.457323184,0.65807555,4.88938913,-2.40475314,,,
imu,456.697037,-0.05981528000000001,-9.167887965600002,3.451939808800001,0.78518302,4.9417275,-2.55429134,,,
imu,456.705505,-0.05383375200000001,-9.150541534400002,3.4381822944,0.7552753799999999,4.93425059,-2.74121409,,,
imu,456.713972,-0.0466559184,-9.1481489232,3.4411730584,0.81509066,4.814620029999999,-2.78607555,,,
imu,456.722439,-0.02871133440000001,-9.172673188000001,3.4447619752,0.76275229,4.82209694,-2.89075229,,,
imu,456.730907,-0.007177833600000002,-9.163700896000002,3.4429675168,0.8524752099999999,4.76975857,-2.80850628,,,
imu,456.739374,0.0263187232,-9.154728604,3.4417712112,1.0693056,4.60526655,-2.80850628,,,
imu,456.747842,0.07297464160000001,-9.170280576800002,3.433397072000001,1.12912088,4.36600543,-2.99542903,,,
imu,456.756309,0.2177276192,-9.139176631200002,3.403489432,1.39081273,3.75289881,-2.95804448,,,
imu,456.764771,0.5042428104000001,-9.090128101600001,3.389133764800001,1.63007385,2.87810034,-2.91318302,,,
imu,456.773233,0.8828735328,-9.053042628,3.4292100024,2.10111918,0.8742884599999998,-2.84589083,,,
imu,456.781696,1.4140332192,-9.019546071200002,3.3951152928,2.9385331,-3.02118165,-2.79355246,,,
imu,456.790158,1.5366545432,-9.028518363200002,3.416648793600001,3.93296213,-9.144770939999999,-2.71878336,,,
imu,456.79862,1.5647677248,-9.009975626400001,3.3987042096,4.49373038,-16.30017381,-2.21783039,,,
imu,456.807082,1.5701511,-9.0267239048,3.3640113472,5.23394447,-22.9471468,-0.5579563699999999,,,
imu,456.815545,1.5982642816,-8.9710956944,3.3837503896,6.12369676,-29.25765884,1.49071697,,,
imu,456.824007,1.866236736,-8.931019456800001,3.3717873336,7.06578742,-35.56069397,3.89828199,,,
imu,456.832469,2.234100708,-8.841296536800002,3.2431844816,8.673323069999999,-42.59646628,6.2983701,,,
imu,456.840932,2.6366575424,-8.969899388800002,3.224043592000001,10.01168996,-51.59866592,7.793752100000001,,,
imu,456.849394,2.6599855016,-8.993227348000001,3.1576486312,11.32014921,-62.11867829,9.34894938,,,
imu,456.857856,2.4350800488,-8.931019456800001,3.112189018400001,12.38187043,-73.07982835,11.29294598,,,
imu,456.866318,2.090544036,-8.978871680800001,3.083477684,13.35386873,-82.73251916,13.7752801,,,
imu,456.874781,1.7561766208,-9.039285113600002,3.0589534192,14.34829776,-90.74028976999999,17.11745887,,,
imu,456.883243,1.4140332192,-9.1056800744,3.0422051408,15.03617348,-97.04332489999999,20.67646803,,,
imu,456.891705,1.0934233184,-9.200786369600001,2.987773236,15.64180319,-101.95565477,23.7943395,,,
imu,456.900167,0.8320305448000002,-9.246844135200002,2.9064244552,16.12780234,-105.78383269,26.77762659,,,
imu,456.90863,0.5676470072,-9.311444637600001,2.889078024,16.28481745,-108.82693506,29.11789942,,,
imu,456.917092,0.275150288,-9.370063612000001,2.844216564,16.28481745,-111.25693081,30.35906648,,,
imu,456.925554,0.0562263632,-9.444832712,2.805934784800001,16.2474329,-112.68502062,30.80020417,,,
imu,456.934017,-0.200381188,-9.558481744000002,2.7861957424,16.00069487,-113.05886612,31.29368023,,,
imu,456.942479,-0.4952705184000001,-9.612913648800001,2.764064088800001,15.40254207,-112.72988208,31.54041826,,,
imu,456.950941,-0.7249611936,-9.634447149600001,2.7413342824,14.58755888,-111.12982334,31.66752573,,,
imu,456.959403,-0.8924439776000002,-9.6703363176,2.7383435184,13.32396109,-108.37084355,31.84697157,,,
imu,456.968214,-1.0342061912,-9.685290137600001,2.733558296,12.4342088,-105.10343388,31.81706393,,,
imu,456.977024,-1.1681924184,-9.676317845600002,2.7263804624,11.40239522,-101.33507124,31.00955765,,,
imu,456.985834,-1.1927166832,-9.723571916800001,2.7239878512,10.09393597,-97.39473966999999,29.58146784,,,
imu,456.994645,-1.1789591688,-9.743310959200002,2.715613712000001,8.830338179999998,-93.13290097,27.85430163,,,
imu,457.003455,-1.2208298648,-9.7744149048,2.7138192536,7.7237555,-88.85610845,25.78319756,,,
imu,457.012265,-1.2543264216,-9.801929933600002,2.7078377256,6.40034243,-84.13817823999999,23.51021692,,,
imu,457.021075,-1.2848322144,-9.772620446400001,2.739539824,4.92739116,-79.46510948999999,21.38677448,,,
imu,457.029886,-1.3213195352,-9.758264779200001,2.7419324352,3.70117792,-74.44062597,19.54745462,,,
imu,457.038696,-1.3350770496,-9.734936820000001,2.7012580448,2.46748777,-69.28155806999999,17.70813476,,,
imu,457.047506,-1.3087583264,-9.681103068,2.686902377600001,1.368382,-64.01781342999999,16.16041439,,,
imu,457.056317,-1.2722710056,-9.654784344800001,2.6940802112,0.41133752,-59.05314519,14.67998621,,,
imu,457.065127,-1.214250184,-9.633250844,2.678528238400001,-0.46346095,-54.5744761,13.05749674,,,
imu,457.073937,-1.1711831824,-9.564463272000001,2.6743411688,-1.07656757,-50.25282212,11.44248418,,,
imu,457.082747,-1.0700953592,-9.513620284000002,2.6516113624,-1.87659694,-46.15547544,9.76765634,,,
imu,457.091558,-0.9917373424000001,-9.477731116000001,2.6354612368,-2.43736519,-42.78338903,8.13768996,,,
imu,457.100368,-0.963026008,-9.465169907200002,2.6234981808,-2.83364142,-39.90477868,6.27593937,,,
imu,457.109178,-1.03181358,-9.460384684800001,2.6264889448,-2.96074889,-37.13832198,4.556250070000001,,,
imu,457.117989,-1.0635156784,-9.432869656000001,2.628881556000001,-3.05047181,-33.99801978,2.98609897,,,
imu,457.126799,-1.1221346528,-9.385615584800002,2.6546021264,-3.25234838,-31.0222096,1.60287062,,,
imu,457.135609,-1.1897259192,-9.368269153600002,2.6845097664,-3.07290254,-27.68750774,0.3766573800000002,,,
imu,457.144419,-1.2453541296,-9.3688673064,2.6910894472,-2.60185721,-24.01634493,-0.4532796299999999,,,
imu,457.15323,-1.277056228,-9.385017432000001,2.7084358784,-2.24296553,-20.28536684,-1.16358608,,,
imu,457.16204,-1.2836359088,-9.422102905600001,2.7012580448,-1.91398149,-16.5170042,-1.75426197,,,
imu,457.170518,-1.2686820888,-9.4280844336,2.7012580448,-1.622382,-12.75611847,-2.24773803,,,
imu,457.178995,-1.2208298648,-9.481320032800001,2.733558296,-1.67472037,-9.25692459,-3.01038285,,,
imu,457.187473,-1.2076705032,-9.493283088800002,2.7144174064,-1.85416621,-6.056807109999999,-3.85527368,,,
imu,457.19595,-1.2327929208,-9.478329268800001,2.7108284896,-1.98875059,-3.25296586,-4.55062631,,,
imu,457.204428,-1.2782525336,-9.440645642400002,2.7203989344,-2.11585806,-0.5089398900000002,-5.47028624,,,
imu,457.212905,-1.3631902312,-9.402962016000002,2.7562881024,-2.27287317,2.26499372,-6.52453055,,,
imu,457.221383,-1.5366545432,-9.344941194400002,2.75150288,-2.27287317,5.18846553,-7.67597469,,,
imu,457.22986,-1.692772424,-9.263592413600001,2.743726893600001,-1.98875059,8.530644299999999,-9.08163377,,,
imu,457.238338,-1.866236736,-9.209758661600002,2.783204978400001,-1.57752054,12.47097587,-10.80879998,,,
imu,457.246815,-2.0205601584,-9.18164548,2.7730363808,-0.9793677399999999,17.21133681,-12.72288894,,,
imu,457.255293,-2.133611037600001,-9.195402994400002,2.7778216032,-0.03727708,22.40778926,-14.87623902,,,
imu,457.26377,-2.15335008,-9.228301398400001,2.771241922400001,0.9197674,28.05285631,-17.04454292,,,
imu,457.272248,-2.1754817336,-9.288714831200002,2.778419756,1.92915025,34.18392251,-18.93620115,,,
imu,456.34184,,,,,,,-84.8766724,187.0569988,111.4456472
imu,456.445081,,,,,,,-87.781986,188.0213676,113.935916
imu,456.545057,,,,,,,-86.7932028,187.069206,111.372404
imu,456.646497,,,,,,,-87.5744636,188.1800612,114.4974472
imu,457.280725,-2.2203431936,-9.287518525600001,2.7377453656,2.95348692,40.37480399,-20.11007602,,,
imu,457.289203,-2.3046827384,-9.251629357600002,2.715613712000001,3.82080848,46.65540839,-20.88767466,,,
imu,457.297681,-2.3650961712,-9.236077384800002,2.67673378,4.84514515,53.13788936,-21.50825819,,,
imu,457.306158,-2.3884241304,-9.218730953600001,2.6833134608,5.71994362,60.07646183999999,-21.78490386,,,
imu,457.314636,-2.42251884,-9.193608536000001,2.637853848,6.57231136,67.1496187,-22.09145717,,,
imu,457.323113,-2.447043104800001,-9.178056563200002,2.564879206400001,7.56674039,74.4022214,-22.67465615,,,
imu,457.331591,-2.5104473016,-9.190019619200001,2.5523179976,8.28452375,81.66977792,-23.72890046,,,
imu,457.340068,-2.4727636752,-9.237273690400002,2.5140362184,8.733138349999999,89.09434955,-25.06726735,,,
imu,457.348546,-2.3758629216,-9.377839598400001,2.413546548,9.71261356,96.62359792000001,-26.90658721,,,
imu,457.357023,-2.2693917232,-9.409541696800002,2.389022283200001,9.88458249,103.4126322,-29.32162914,,,
imu,457.365501,-2.0839643552,-9.519003659200001,2.4476412576,10.0415976,109.65585205,-31.64694815,,,
imu,457.373978,-1.8680311944,-9.651195428000001,2.3531331152,10.08645906,115.26353455,-34.10685153999999,,,
imu,457.382456,-1.6945668824,-9.7845835024,2.2664009592,9.79485957,119.84688038,-36.43217055,,,
imu,457.390933,-1.4738484992,-9.8916528536,2.2604194312,8.55369251,123.40588954,-38.32382878,,,
imu,457.399411,-1.292010048,-9.904214062400001,2.240082236,6.95363377,126.63591466,-39.66219567,,,
imu,457.407888,-1.1819499328,-9.915578965600002,2.1587334552,5.64517452,128.84908002,-40.94074728,,,
imu,457.416463,-1.0294209688,-9.864137824800002,2.062430854400001,4.33671527,130.35193893,-42.34640636,,,
imu,457.42494,-0.8727049352000001,-9.803724392000001,2.0480751872,3.23013259,131.57815217,-43.56514268999999,,,
imu,457.433418,-0.6741182056000001,-9.8132948368,2.1228442872,2.17588828,132.04172059,-44.73901755999999,,,
imu,457.441896,-0.4623721144,-9.837220948800002,2.1814632616,1.19641307,131.8248902,-45.97270770999999,,,
imu,457.450373,-0.1567160336,-9.911391896000003,2.1455740936,0.41133752,130.7781228,-46.52599905,,,
imu,457.458851,-0.0005981528000000001,-9.8880639368,2.1276295096,-0.5307531400000001,128.89394148,-46.35403012,,,
imu,457.467328,0.1812402984,-9.837220948800002,2.1515556216,-1.80930475,126.09010023,-44.94837104,,,
imu,457.475806,0.2578038568000001,-9.7534795568,2.1659112888,-2.92336434,122.74792146,-43.07914354,,,
imu,457.484283,0.2966837888,-9.6876827488,2.1934263176,-3.865455,119.00198955,-41.2547775,,,
imu,457.492761,0.3176191368,-9.614708107200002,2.180266956,-4.35893106,114.68781248,-39.37807308999999,,,
imu,457.501238,0.3905937784,-9.562668813600002,2.1910337064,-4.75520729,110.30634322,-37.890168,,,
imu,457.509716,0.4163143488000001,-9.5590798968,2.2747750984,-4.73277656,105.90244323,-36.77610841,,,
imu,457.518193,0.4952705184000001,-9.631456385600002,2.3555257264,-4.85240712,101.36395886,-35.37044933,,,
imu,457.526671,0.6824923448,-9.7301515976,2.4153410064,-5.18886807,96.69089011,-33.76291368,,,
imu,457.535148,0.7787949456000002,-9.727758986400001,2.491306412,-6.01880508,91.16545362000001,-32.16285494,,,
imu,457.543626,0.7853746264000001,-9.671532623200001,2.570860734400001,-6.99080338,84.92971068,-29.8898743,,,
imu,457.552103,0.6908664840000001,-9.633250844,2.5983757632,-7.775878929999999,78.64162937,-27.00378704,,,
imu,457.560581,0.6041343280000001,-9.591380148,2.6312741672,-8.47870847,72.94422395000001,-23.49711625,,,
imu,457.569058,0.4468201416000001,-9.520798117600002,2.652807668,-9.21144565,67.70291004,-20.22222967,,,
imu,457.57757,0.2745521352,-9.459786532,2.701856197600001,-9.413322220000001,63.10461039,-18.0763565,,,
imu,457.586082,0.2117460912,-9.4496179344,2.7592788664,-9.719875530000001,59.18670955,-16.38657484,,,
imu,457.594594,0.2978800944000001,-9.4526086984,2.8555814672,-10.12362867,55.92677679,-14.65193172,,,
imu,457.603106,0.4061457512000001,-9.465169907200002,2.943509928800001,-10.36288979,52.10607578,-13.18645736,,,
imu,457.611618,0.4199032656,-9.456197615200002,2.9752120272,-10.57224327,47.81432943999999,-11.78827519,,,
imu,457.62013,0.4258847936,-9.4215047528,3.015288264800001,-10.97599641,43.2982758,-10.09101662,,,
imu,457.628642,0.4234921824,-9.352717180800001,3.0667294056,-11.25264208,38.69249924,-7.997481819999999,,,
imu,457.637153,0.3134320672,-9.288116678400002,3.1109927128,-11.43208792,34.25869161,-5.761885729999999,,,
imu,457.645665,0.2649816904,-9.2378718432,3.1068056432,-11.48442629,30.24359094,-3.83284295,,,
imu,457.654177,0.1178361016,-9.190617772000001,3.1325262136,-11.36479573,26.73692015,-2.24773803,,,
imu,457.662689,-0.0747691,-9.158915673600001,3.1576486312,-11.08067315,23.85083289,-0.9766633299999998,,,
imu,457.671201,-0.1597067976,-9.134391408800001,3.2043045496,-10.5199049,21.85449792,0.2271191799999999,,,
imu,457.679713,-0.188418132,-9.139774784,3.237801106400001,-10.09372103,20.46379266,1.00471782,,,
imu,457.688225,-0.1716698536,-9.146354464800002,3.256941996000001,-9.458183680000001,19.14037959,1.43090169,,,
imu,457.696736,-0.1806421456,-9.136185867200002,3.256941996000001,-9.06190745,17.63004377,1.72250118,,,
imu,457.705248,-0.1812402984,-9.093717018400001,3.273092121600001,-8.68806195,16.35149216,1.97671612,,,
imu,457.71376,-0.1997830352,-9.068594600800001,3.282064413600001,-8.00018623,15.08041746,2.45523836,,,
imu,457.722272,-0.206362716,-9.0506500168,3.3041960672,-7.372125789999999,13.74205057,2.82160695,,,
imu,457.730784,-0.257205704,-9.056033392000002,3.318551734400001,-6.901080459999999,12.53079115,3.07582189,,,
imu,457.739296,-0.296085636,-9.0572296976,3.3364963184,-6.28049693,11.55879285,3.09825262,,,
imu,457.747808,-0.3307784984000001,-9.047061100000002,3.346066763200001,-5.63748267,10.84100949,3.01600661,,,
imu,457.756319,-0.3481249296000001,-9.044070336,3.3562353608,-5.14400661,10.30267197,2.71693021,,,
imu,457.764831,-0.3415452488,-9.0398832664,3.367600264,-4.8374533,9.74938063,2.37299235,,,
imu,457.773343,-0.3020671640000001,-9.053640780800002,3.3699928752,-3.79816281,9.39048895,2.05148522,,,
imu,457.782046,-0.2787392048,-9.054837086400001,3.3759744032,-3.20748692,8.95682817,1.84960865,,,
imu,457.790748,-0.2266999112,-9.0787631984,3.3759744032,-2.72896468,8.306337,1.68511663,,,
imu,457.799451,-0.1626975616,-9.117643130400001,3.3909282232,-2.09342733,7.54369218,1.85708556,,,
imu,457.808154,-0.101685976,-9.131998797600001,3.395713445600001,-1.75696638,6.51935551,2.02157758,,,
imu,457.816856,-0.07955432240000002,-9.1499433816,3.393918987200001,-1.45041307,5.29314227,2.4103769,,,
imu,457.825559,-0.1387714496,-9.176860257600001,3.39451714,-1.27844414,3.797760269999999,2.67206875,,,
imu,457.834261,-0.1716698536,-9.1894214664,3.3897319176,-0.92702937,2.48930102,3.31508301,,,
imu,457.842964,-0.2087553272,-9.1960011472,3.3759744032,-0.97189083,1.6518871,3.49452885,,,
imu,457.851667,-0.221316536,-9.209758661600002,3.365207652800001,-0.79244499,0.8294269999999999,3.10572953,,,
imu,457.860369,-0.296085636,-9.215142036800001,3.373581792,-0.80739881,0.29856639,2.61225347,,,
imu,457.869072,-0.2655798432,-9.273761011200001,3.4082746544,-0.94198319,-0.1874327600000001,2.29074634,,,
imu,457.877774,-0.2440463424,-9.335968902400001,3.427415544,-0.88964482,-0.4640784300000003,1.78231646,,,
imu,457.886477,-0.248233412,-9.381428515200001,3.436387836,-1.36069015,-0.8753084800000002,1.43090169,,,
imu,457.895179,-0.23926112,-9.393391571200002,3.432798919200001,-1.94388913,-1.286538530000001,1.28136349,,,
imu,457.903882,-0.2590001624000001,-9.422102905600001,3.3933208344,-2.52708811,-1.72767622,1.47576315,,,
imu,457.912585,-0.34393786,-9.410139849600002,3.398106056800001,-3.22991765,-2.12395245,1.64025517,,,
imu,457.921287,-0.4492127528000001,-9.385615584800002,3.3813577784,-3.9402241,-2.18376773,1.93185466,,,
imu,457.92999,-0.5150095608,-9.378437751200002,3.3430759992,-4.515946169999999,-1.90712206,2.08886977,,,
imu,457.938692,-0.5796100632000001,-9.343146736000001,3.328122179200001,-5.09914515,-1.36130763,1.90942393,,,
imu,457.947395,-0.6226770648,-9.322211388000001,3.337692624000001,-5.38326773,-0.5238937100000003,1.72250118,,,
imu,457.956098,-0.6059287864000001,-9.28632222,3.328720332000001,-5.59262121,0.58268897,1.52810152,,,
imu,457.9648,-0.5694414656000001,-9.2755554696,3.337692624000001,-5.816928509999999,1.49487199,1.35613259,,,
imu,457.973503,-0.5251781584,-9.252825663200001,3.3245332624,-6.01132817,2.27247063,1.07201001,,,
imu,457.982205,-0.5156077136000001,-9.2133475784,3.3353000128,-6.40012749,2.74351596,0.7131183299999999,,,
imu,457.990711,-0.4982612824000001,-9.181047327200002,3.347263068800001,-6.34778912,3.25942275,0.2121653600000002,,,
imu,457.999216,-0.4593813504000001,-9.177458410400002,3.356833513600001,-6.31788148,3.62579134,-0.01214194000000002,,,
imu,458.007721,-0.4342589328000001,-9.142167395200001,3.340683388,-6.34031221,3.91739083,-0.2439261499999998,,,
imu,458.016226,-0.4205014184,-9.1026893104,3.3562353608,-6.310404569999999,4.194036499999999,-0.5654332799999999,,,
imu,458.024731,-0.3935845424,-9.066800142400002,3.3592261248,-5.80197469,4.33609779,-0.5803870999999998,,,
imu,458.033236,-0.3690602776000001,-9.066800142400002,3.3658058056,-5.37579082,4.50806672,-0.5280487299999999,,,
imu,458.041741,-0.3726491944000001,-9.068594600800001,3.3897319176,-4.81502257,4.433297619999999,-0.4308489,,,
imu,458.050246,-0.3499193880000001,-9.051248169600001,3.390330070400001,-4.32902342,4.32114397,-0.37851053,,,
imu,458.058751,-0.3553027632,-9.048257405600001,3.4100691128,-3.59628624,4.27628251,-0.3411259799999999,,,
imu,458.067257,-0.3636769024000001,-9.073379823200002,3.4435656696,-3.05794872,4.30619015,-0.3112183399999999,,,
imu,458.075762,-0.34393786,-9.072781670400001,3.456725031200001,-2.34764227,4.216467229999999,-0.2214954199999999,,,
imu,458.084267,-0.3301803456000001,-9.068594600800001,3.4686880872,-1.74948947,4.29123633,-0.31869525,,,
imu,458.092772,-0.3116376088,-9.0781650456,3.492614199200001,-1.35321324,4.38095925,-0.5355256399999999,,,
imu,456.748182,,,,,,,-87.1472116,187.4720436,113.6795648
imu,456.849745,,,,,,,-87.3913556,187.9603316,114.1434384
imu,456.951307,,,,,,,-82.8868988,187.2156924,115.2542936
imu,457.052992,,,,,,,-76.0386596,186.8983052,115.156636
imu,457.154371,,,,,,,-72.4253284,186.886098,114.2044744
imu,457.255964,,,,,,,-69.0805556,185.9583508,112.8494752
imu,457.357496,,,,,,,-72.6328508,186.6297468,113.813844
imu,457.459028,,,,,,,-76.53915479999999,185.4090268,114.6317264
imu,458.101277,-0.3116376088,-9.108670838400002,3.515942158400001,-1.04665993,4.32114397,-0.77478676,,,
imu,458.109782,-0.2889078024000001,-9.107474532800001,3.5219236864,-0.71767589,4.18655959,-1.1785399,,,
imu,458.118287,-0.2793373576,-9.1164468248,3.5314941312,-0.48589168,4.03702139,-1.50752394,,,
imu,458.126792,-0.2739539824000001,-9.128409880800001,3.539270117600001,-0.29149202,3.98468302,-1.85893871,,,
imu,458.135298,-0.2936930248,-9.1433637008,3.535083048000001,-0.23915365,3.82766791,-2.24773803,,,
imu,458.143803,-0.2972819416,-9.127811728000001,3.5033809496,0.007584380000000002,3.820191,-2.43466078,,,
imu,458.152308,-0.2936930248,-9.0961096296,3.5135495472,0.05244583999999999,3.77532954,-2.71130645,,,
imu,458.160813,-0.2787392048,-9.079959504000001,3.532092284,0.22441477,3.61831443,-2.90570611,,,
imu,458.169318,-0.2709632184,-9.093717018400001,3.539270117600001,0.64312173,3.62579134,-3.07019813,,,
imu,458.177823,-0.257205704,-9.108670838400002,3.5267089088,0.9197674,3.49868387,-3.08515195,,,
imu,458.186296,-0.2470371064,-9.134989561600001,3.535681200800001,1.16650543,3.3715764,-3.07019813,,,
imu,458.194768,-0.218325772,-9.133793256,3.554223937600001,1.21136689,3.11736146,-2.86084465,,,
imu,458.20324,-0.1836329096,-9.135587714400002,3.541064576,1.25622835,2.89305416,-2.83841392,,,
imu,458.211713,-0.1991848824,-9.1541304512,3.523718144800001,1.42072037,2.27994754,-2.87579847,,,
imu,458.220185,-0.2189239248,-9.121232047200001,3.504577255200001,1.54035093,1.71917929,-2.85336774,,,
imu,458.228658,-0.2129423968,-9.0781650456,3.4818474488,1.68988913,1.15841104,-2.63653735,,,
imu,458.23713,-0.2021756464,-9.047061100000002,3.465697323200001,1.76465823,0.7322271699999998,-2.49447606,,,
imu,458.245603,-0.19439966,-9.024929446400002,3.4525379616,2.4151494,0.04435144999999974,-2.40475314,,,
imu,458.254075,-0.2027737992,-8.999208876,3.430406308000001,2.7889949,-0.5238937100000003,-2.35241477,,,
imu,458.262548,-0.2135405496,-9.0362943496,3.456725031200001,3.56659354,-1.15195415,-2.13558438,,,
imu,458.27102,-0.1985867296,-9.041677724800001,3.456725031200001,3.96286977,-1.7874915,-2.12063056,,,
imu,458.279492,-0.2243073,-9.014760848800002,3.4196395576,4.64326858,-2.37816739,-2.16549202,,,
imu,458.287965,-0.2278962168,-9.052444475200002,3.399900515200001,5.36852885,-2.99127401,-2.06829219,,,
imu,458.296437,-0.2350740504,-9.0781650456,3.4022931264,5.89938946,-3.48475007,-1.91875399,,,
imu,458.30491,-0.2326814392,-9.074576128800002,3.376572556000001,6.46015771,-3.91093394,-1.61220068,,,
imu,458.313382,-0.2320832864,-9.134391408800001,3.3801614728,6.79661866,-4.47170219,-1.54490849,,,
imu,458.321855,-0.2554112456,-9.187028855200001,3.3813577784,7.08074124,-4.987608979999999,-1.42527793,,,
imu,458.330327,-0.2494297176,-9.198393758400002,3.3604224304,7.32747927,-5.555854139999999,-1.33555501,,,
imu,458.3388,-0.2697669128,-9.212151272800002,3.3293184848,7.40224837,-6.18391458,-1.38041647,,,
imu,458.347272,-0.2918985664000001,-9.231890315200001,3.333505554400001,7.56674039,-6.759636649999999,-1.38789338,,,
imu,458.355744,-0.3283858872000001,-9.2546201216,3.3329074016,7.75366314,-7.14843597,-1.36546265,,,
imu,458.364217,-0.3475267768,-9.279144386400002,3.3353000128,7.83590915,-7.41012782,-1.34303192,,,
imu,458.372689,-0.3642750552,-9.352717180800001,3.331112943200001,7.39477146,-7.529758380000001,-1.4776163,,,
imu,458.381162,-0.3756399584,-9.405354627200001,3.340683388,6.93120304,-7.529758380000001,-1.4776163,,,
imu,458.389658,-0.4019586816,-9.460982837600001,3.343674152,6.21341968,-7.64938894,-1.44023175,,,
imu,458.398155,-0.4163143488000001,-9.4974701584,3.3065886784,5.64517452,-7.462466190000001,-1.11124771,,,
imu,458.406652,-0.4312681688,-9.5118258256,3.280868108,4.87505279,-7.111051420000001,-0.5878640099999999,,,
imu,458.415148,-0.4462219888000001,-9.492684936000002,3.2665124408,3.64136264,-6.886744119999999,-0.37103362,,,
imu,458.423645,-0.4785222400000001,-9.4454308648,3.2342121896,2.76656417,-6.81197502,-0.29626452,,,
imu,458.432141,-0.4821111568000001,-9.4490197816,3.2282306616,1.84690424,-6.610098450000001,-0.2439261499999998,,,
imu,458.440638,-0.4851019208000001,-9.457992073600002,3.2150713,1.00949032,-6.40074497,-0.2289723299999999,,,
imu,458.449135,-0.5006538936,-9.439449336800001,3.207893466400001,0.40386061,-6.348406600000001,-0.3112183399999999,,,
imu,458.457631,-0.4982612824000001,-9.437056725600002,3.198921174400001,-0.29896893,-6.258683680000001,-0.5953409199999999,,,
imu,458.466128,-0.5185984776000001,-9.398774946400001,3.179780284800001,-0.71767589,-6.09419166,-0.8944173199999998,,,
imu,458.474624,-0.5000557408,-9.389204501600002,3.1606393952,-1.03918302,-5.907268909999999,-1.0290017,,,
imu,458.483121,-0.5006538936,-9.340155972000002,3.1486763392,-1.44293616,-5.839976719999999,-1.53743158,,,
imu,458.491618,-0.5730303824,-9.326398457600002,3.1456855752,-1.85416621,-5.668007790000001,-1.82155416,,,
imu,458.500114,-0.5221873944000001,-9.358100556000002,3.1570504784,-1.90650458,-5.249300829999999,-1.50752394,,,
imu,458.508555,-0.5036446576000001,-9.3694654592,3.1666209232,-2.18315025,-4.95022443,-1.60472377,,,
imu,458.517052,-0.535346756,-9.3862137376,3.1809765904,-2.43736519,-4.98013207,-2.00847691,,,
imu,458.525548,-0.5497024232000001,-9.405354627200001,3.1899488824,-2.81121069,-4.93527061,-2.27764567,,,
imu,458.534045,-0.5401319784,-9.410139849600002,3.1857618128,-3.33459439,-4.7782555,-2.47952224,,,
imu,458.542542,-0.5514968816000001,-9.395186029600001,3.1833692016,-3.96265483,-4.51656365,-2.68887572,,,
imu,458.551038,-0.5790119104,-9.385615584800002,3.186958118400001,-4.418746339999999,-4.30721017,-2.83093701,,,
imu,458.559535,-0.5826008272000001,-9.344941194400002,3.176191368,-4.90474549,-3.81373411,-2.66644499,,,
imu,458.568031,-0.6023398696000001,-9.319818776800002,3.1899488824,-4.964560769999999,-3.17071985,-2.49447606,,,
imu,458.576528,-0.6196863008000001,-9.2917055952,3.203108244,-5.16643734,-2.73705907,-2.40475314,,,
imu,458.585025,-0.6190881480000001,-9.277349928000001,3.2276325088,-5.129052789999999,-2.2361061,-2.08324601,,,
imu,458.593464,-0.6364345792000001,-9.230694009600002,3.238399259200001,-5.23372953,-1.54075347,-2.04586146,,,
imu,458.601903,-0.6424161072,-9.211553120000001,3.2581383016,-5.03932987,-0.8080162900000003,-1.91127708,,,
imu,458.610343,-0.6424161072,-9.191215924800002,3.2671105936,-4.80754566,-0.17247894,-1.82155416,,,
imu,458.618782,-0.6202844536000002,-9.193608536000001,3.2766810384,-4.747730379999999,0.4555814999999996,-1.91875399,,,
imu,458.627221,-0.6190881480000001,-9.176262104800001,3.270699510400001,-4.59071527,0.94905756,-2.02343073,,,
imu,458.635661,-0.6202844536000002,-9.1750657992,3.2910367056,-4.2393005,1.53973345,-2.27764567,,,
imu,458.6441,-0.6095177032000001,-9.188823313600002,3.2994108448,-3.79816281,2.14536316,-2.53933752,,,
imu,458.65254,-0.5981528,-9.171476882400002,3.3059905256,-3.61124006,2.48182411,-2.74121409,,,
imu,458.660979,-0.6047324808000001,-9.149345228800001,3.312570206400001,-3.40188658,2.89305416,-2.92813684,,,
imu,458.669418,-0.5855915912,-9.142765548000002,3.3179535816,-2.77382614,3.34914567,-2.98047521,,,
imu,458.677858,-0.56824516,-9.1481489232,3.323935109600001,-2.76634923,3.60336061,-3.15244414,,,
imu,458.686297,-0.5497024232000001,-9.1433637008,3.325729568,-2.56447266,3.76037572,-3.38422835,,,
imu,458.694736,-0.5413282840000001,-9.143961853600002,3.340085235200001,-2.2953039,3.820191,-3.68330475,,,
imu,458.703176,-0.5245800056000001,-9.139176631200002,3.3484593744,-1.83173548,3.80523718,-3.84779677,,,
imu,458.711615,-0.5359449088000001,-9.148747076000001,3.3628150416,-1.51022835,3.76037572,-4.057150249999999,,,
imu,458.720055,-0.5341504504000001,-9.150541534400002,3.3646095,-1.30835178,3.70803735,-4.19921154,,,
imu,458.728494,-0.5311596864,-9.1541304512,3.3580298192,-1.01675229,3.54354533,-3.95995042,,,
imu,458.736933,-0.5377393672000002,-9.1499433816,3.3580298192,-0.97189083,3.52859151,-3.7954584,,,
imu,458.745373,-0.5359449088000001,-9.154728604,3.344870457600001,-0.51579932,3.53606842,-3.52628964,,,
imu,458.753812,-0.5491042704000001,-9.159513826400001,3.3454686104,-0.32139966,3.43886859,-3.20478251,,,
imu,458.762252,-0.5610673264,-9.178056563200002,3.351450138400001,-0.10456927,3.35662258,-2.79355246,,,
imu,458.770691,-0.580208216,-9.190617772000001,3.3670021112,0.25432241,3.38653022,-2.62906044,,,
imu,458.77913,-0.5820026744000001,-9.211553120000001,3.363413194400001,0.33656842,3.53606842,-2.26269185,,,
imu,458.78757,-0.5760211464000001,-9.2127494256,3.352646444,0.23189168,3.5211146,-1.94866163,,,
imu,458.796048,-0.5628617848,-9.233086620800002,3.354440902400001,0.10478421,3.73046808,-1.73930815,,,
imu,458.804527,-0.5772174520000001,-9.216338342400002,3.3670021112,0.19450713,3.90991392,-1.38789338,,,
imu,458.813006,-0.565254396,-9.207964203200001,3.372983639200001,0.03749201999999999,3.99215993,-1.23087827,,,
imu,458.821485,-0.5413282840000001,-9.2157401896,3.3628150416,0.01506129,4.246374869999999,-1.13367844,,,
imu,458.829964,-0.5156077136000001,-9.218132800800001,3.3622168888,0.01506129,4.42582071,-1.22340136,,,
imu,458.838442,-0.5269726168000001,-9.2091605088,3.349655680000001,0.12721494,4.455728349999999,-1.29069355,,,
imu,458.846921,-0.5209910888,-9.209758661600002,3.3502538328,-0.22419983,4.53797436,-1.36546265,,,
imu,458.8554,-0.5006538936,-9.223516176,3.3353000128,-0.18681528,4.567882,-1.50752394,,,
imu,458.863879,-0.4839056152000001,-9.209758661600002,3.3041960672,0.08235347999999998,4.59778964,-1.52247776,,,
imu,458.872358,-0.4641665728000001,-9.1828417856,3.310177595200001,0.04496892999999999,4.72489711,-1.53743158,,,
imu,458.880836,-0.4599795032,-9.199590064,3.318551734400001,0.21693786,4.62769728,-1.76173888,,,
imu,458.889315,-0.4641665728000001,-9.2127494256,3.3024016088,0.41881443,4.2688056,-2.03090764,,,
imu,458.897794,-0.4659610312,-9.214543884000001,3.2982145392,0.65059864,4.06692903,-2.28512258,,,
imu,458.906273,-0.4677554896000001,-9.245049676800003,3.307186831200001,0.65059864,4.01459066,-2.35241477,,,
imu,457.560652,,,,,,,-87.4523916,185.7386212,116.5726712
imu,457.662184,,,,,,,-91.5906324,185.4578556,112.2147008
imu,457.765272,,,,,,,-92.23761400000001,186.214702,113.4842496
imu,457.865431,,,,,,,-93.0799108,186.5076748,112.1902864
imu,457.966902,,,,,,,-92.32306439999999,186.764026,112.3245656
imu,458.068464,,,,,,,-92.15216360000001,187.1180348,112.0926288
imu,458.170027,,,,,,,-91.8225692,187.3988004,112.1414576
imu,458.27162,,,,,,,-89.6252732,186.3245668,110.4690712
imu,458.914752,-0.4707462536000001,-9.2707702472,3.2940274696,0.6954601,3.87252937,-2.56924516,,,
imu,458.92323,-0.4761296288000001,-9.288116678400002,3.282064413600001,0.8375213899999999,3.797760269999999,-2.42718387,,,
imu,458.931709,-0.4749333232000001,-9.289312984,3.2790736496,0.7403215599999999,3.820191,-2.40475314,,,
imu,458.940188,-0.4713444064,-9.267181330400001,3.270699510400001,0.64312173,3.70056044,-2.47204533,,,
imu,458.948667,-0.4857000736000001,-9.2899111368,3.265914288000001,0.56835263,3.52859151,-2.61410662,,,
imu,458.957146,-0.4827093096,-9.302472345600002,3.2557456904,0.4711528,3.38653022,-2.68887572,,,
imu,458.965624,-0.4958686712000001,-9.291107442400001,3.2437826344,0.36647606,3.18465365,-2.84589083,,,
imu,458.974103,-0.49347606,-9.286920372800001,3.228828814400001,0.08235347999999998,3.02763854,-2.98047521,,,
imu,458.982582,-0.5018501992000001,-9.2707702472,3.2348103424,-0.02232326000000001,2.89305416,-3.05524431,,,
imu,458.991061,-0.5162058664000001,-9.286920372800001,3.2324177312,-0.26906129,2.86314652,-3.10758268,,,
imu,458.999857,-0.5132151024,-9.281536997600002,3.228828814400001,-0.23915365,2.8481927,-3.13001341,,,
imu,459.008652,-0.5389356728,-9.267181330400001,3.2228472864,-0.53823005,2.88557725,-3.25712088,,,
imu,459.017448,-0.5437208952000001,-9.2659850248,3.225838050400001,-0.71767589,2.97530017,-3.18235178,,,
imu,459.026244,-0.5431227424,-9.2707702472,3.239595564800001,-0.88964482,3.09493073,-3.24964397,,,
imu,459.035039,-0.5467116592000001,-9.286920372800001,3.241988176,-0.82235263,3.17717674,-3.26459779,,,
imu,459.043835,-0.5592728680000001,-9.2935000536,3.2551475376,-0.73262971,3.10240764,-3.22721324,,,
imu,459.052631,-0.5544876456000001,-9.3210150824,3.277877344000001,-0.79244499,3.27437657,-3.17487487,,,
imu,459.061426,-0.5461135064000001,-9.3317818328,3.282064413600001,-1.08404448,3.35662258,-3.18982869,,,
imu,459.070222,-0.5634599376000001,-9.330585527200002,3.282064413600001,-1.27844414,3.41643786,-3.25712088,,,
imu,459.079018,-0.5610673264,-9.304864956800001,3.2862514832,-1.42050543,3.47625314,-3.30198234,,,
imu,459.087814,-0.5706377712,-9.298285276000001,3.289242247200001,-1.64481273,3.63326825,-3.11505959,,,
imu,459.096609,-0.5676470072,-9.291107442400001,3.292831164,-2.00370441,3.820191,-2.8982292,,,
imu,459.105405,-0.5670488544000001,-9.269573941600001,3.2850551776,-2.10838115,4.02954448,-2.78607555,,,
imu,459.114201,-0.5598710208000001,-9.226506940000002,3.288045941600001,-2.23548862,4.02954448,-2.71878336,,,
imu,459.122996,-0.5556839512000001,-9.198991911200002,3.2832607192,-2.34764227,4.0444983,-2.66644499,,,
imu,459.131792,-0.5497024232000001,-9.1858325496,3.2802699552,-2.01118132,4.171605769999999,-2.70382954,,,
imu,459.140588,-0.5628617848,-9.173869493600002,3.282064413600001,-1.622382,4.05197521,-2.84589083,,,
imu,459.149383,-0.5407301312,-9.157719368,3.2671105936,-1.48779762,4.05197521,-2.93561375,,,
imu,459.158179,-0.5413282840000001,-9.173869493600002,3.2760828856,-1.28592105,3.86505246,-2.9729983,,,
imu,459.166975,-0.5568802568000001,-9.200786369600001,3.2862514832,-0.89712173,3.77532954,-2.98795212,,,
imu,459.175771,-0.5640580904000001,-9.211553120000001,3.2922330112,-0.78496808,3.6706528,-3.05524431,,,
imu,459.184566,-0.5688433128,-9.255816427200001,3.3191498872,-0.61299915,3.66317589,-3.01038285,,,
imu,459.193362,-0.5634599376000001,-9.2970889704,3.340683388,-0.60552224,3.51363769,-3.03281358,,,
imu,459.201838,-0.5544876456000001,-9.3126409432,3.3329074016,-0.8522602699999999,3.36409949,-3.01785976,,,
imu,459.210314,-0.5718340768000001,-9.303070498400002,3.3353000128,-1.12142903,3.16969983,-3.01038285,,,
imu,459.218791,-0.5742266880000001,-9.282135150400002,3.3370944712,-1.49527453,3.05006927,-3.02533667,,,
imu,459.227267,-0.5736285352000001,-9.276751775200001,3.331711096,-1.73453565,3.0725,-2.87579847,,,
imu,459.235743,-0.5754229936,-9.28632222,3.3275240264,-1.97379677,3.18465365,-2.64401426,,,
imu,459.244219,-0.5778156048000002,-9.284527761600001,3.316757276000001,-2.05604278,2.85566961,-2.43466078,,,
imu,459.252696,-0.5921712720000001,-9.263592413600001,3.316757276000001,-2.19810407,2.85566961,-2.34493786,,,
imu,459.261172,-0.5826008272000001,-9.247442288000002,3.316757276000001,-2.21305789,2.96034635,-2.23278421,,,
imu,459.269648,-0.5933675776,-9.217534648,3.3041960672,-2.21305789,2.9229618,-2.20287657,,,
imu,459.278124,-0.6041343280000001,-9.209758661600002,3.3173554288,-2.04108896,2.88557725,-2.18792275,,,
imu,459.286601,-0.6137047728000001,-9.212151272800002,3.325729568,-2.03361205,3.09493073,-2.12063056,,,
imu,459.295077,-0.5927694248,-9.207366050400001,3.325729568,-2.04856587,3.25942275,-2.05333837,,,
imu,459.303553,-0.6029380224,-9.209758661600002,3.3293184848,-2.01118132,3.28933039,-1.97856927,,,
imu,459.31203,-0.5915731192000001,-9.2001882168,3.323935109600001,-2.09342733,3.52859151,-1.91875399,,,
imu,459.320506,-0.5778156048000002,-9.195402994400002,3.31974804,-2.01865823,3.60336061,-1.98604618,,,
imu,459.328982,-0.5820026744000001,-9.204973439200002,3.346066763200001,-1.96631986,3.58840679,-2.18792275,,,
imu,459.337458,-0.5658525488000001,-9.2169364952,3.349655680000001,-1.87659694,3.56597606,-2.24773803,,,
imu,459.345935,-0.5658525488000001,-9.2378718432,3.3394870824,-1.74948947,3.68560662,-2.36736859,,,
imu,459.354411,-0.5796100632000001,-9.266583177600001,3.3454686104,-1.89902767,3.50616078,-2.68139881,,,
imu,459.362887,-0.5772174520000001,-9.247442288000002,3.33470186,-1.87659694,3.42391477,-2.85336774,,,
imu,459.371363,-0.580208216,-9.239666301600002,3.3251314152,-1.86164312,3.36409949,-2.91318302,,,
imu,459.37984,-0.6023398696000001,-9.230694009600002,3.330514790400001,-1.68967419,3.17717674,-2.86832156,,,
imu,459.388316,-0.5981528,-9.228899551200001,3.318551734400001,-1.61490509,3.25194584,-2.89075229,,,
imu,459.396792,-0.6071250920000001,-9.216338342400002,3.3095794424,-1.72705874,3.22951511,-2.8982292,,,
imu,459.405254,-0.6166955368000001,-9.246245982400001,3.302999761600001,-1.48032071,3.31176112,-2.72626027,,,
imu,459.413717,-0.6023398696000001,-9.2486385936,3.3131683592,-1.39059779,3.31176112,-2.62158353,,,
imu,459.422179,-0.6083213976,-9.239068148800001,3.318551734400001,-1.23358268,3.40148404,-2.50942988,,,
imu,459.430641,-0.5915731192000001,-9.247442288000002,3.3179535816,-1.35321324,3.37905331,-2.51690679,,,
imu,459.439103,-0.5897786608000001,-9.237273690400002,3.3131683592,-1.38312088,3.48373005,-2.40475314,,,
imu,459.447566,-0.5945638832000001,-9.224712481600001,3.313766512,-1.68219728,3.38653022,-2.41223005,,,
imu,459.456028,-0.5945638832000001,-9.212151272800002,3.320944345600001,-1.80182784,3.31176112,-2.46456842,,,
imu,459.46449,-0.5969564944000001,-9.222918023200002,3.3233369568,-1.80182784,3.27437657,-2.38232241,,,
imu,459.472953,-0.601143564,-9.2169364952,3.330514790400001,-1.7719202,3.25194584,-2.38979932,,,
imu,459.481415,-0.6083213976,-9.200786369600001,3.333505554400001,-1.98127368,3.27437657,-2.34493786,,,
imu,459.489877,-0.6166955368000001,-9.1858325496,3.3484593744,-2.01118132,3.41643786,-2.24026112,,,
imu,459.498339,-0.6119103144000001,-9.1894214664,3.343674152,-2.04108896,3.46877623,-2.16549202,,,
imu,459.506802,-0.6190881480000001,-9.190019619200001,3.347263068800001,-1.93641222,3.56597606,-2.13558438,,,
imu,459.515264,-0.6119103144000001,-9.194804841600002,3.3604224304,-1.72705874,3.63326825,-2.11315365,,,
imu,459.523726,-0.61310662,-9.1918140776,3.361020583200001,-1.7719202,3.72299117,-2.01595382,,,
imu,459.532188,-0.6047324808000001,-9.194206688800001,3.376572556000001,-1.65976655,3.85757555,-2.02343073,,,
imu,459.540651,-0.5963583416000001,-9.2157401896,3.3987042096,-1.63733582,3.82766791,-2.08324601,,,
imu,459.549113,-0.5969564944000001,-9.249236746400001,3.4022931264,-1.3233056,3.82766791,-2.09072292,,,
imu,459.557575,-0.6017417168000001,-9.244451524,3.398106056800001,-1.45788998,3.79028336,-2.18792275,,,
imu,459.566037,-0.5915731192000001,-9.2300958568,3.39451714,-1.56256672,3.87252937,-2.32998404,,,
imu,459.5745,-0.5897786608000001,-9.2312921624,3.3951152928,-1.42798234,3.93982156,-2.32998404,,,
imu,459.582962,-0.5891805080000001,-9.239068148800001,3.397507904,-1.59995127,4.02206757,-2.33746095,,,
imu,459.591424,-0.5867878968000001,-9.2300958568,3.37956332,-1.57004363,4.149175039999999,-2.27764567,,,
imu,459.59979,-0.5790119104,-9.217534648,3.3771707088,-1.72705874,4.1192674,-2.3748455,,,
imu,459.608265,-0.5718340768000001,-9.201982675200002,3.389133764800001,-1.83173548,4.02954448,-2.39727623,,,
imu,459.61674,-0.5796100632000001,-9.207366050400001,3.3831522368,-1.67472037,3.93982156,-2.55429134,,,
imu,459.625215,-0.5754229936,-9.191215924800002,3.368198416800001,-1.79435093,3.90243701,-2.6739219,,,
imu,459.63369,-0.5939657304000001,-9.1858325496,3.370591028000001,-1.60742818,3.84262173,-2.6739219,,,
imu,459.642165,-0.6053306336000001,-9.182243632800002,3.3711891808,-1.53265908,3.80523718,-2.47204533,,,
imu,459.650639,-0.6089195504,-9.1858325496,3.372983639200001,-1.622382,3.80523718,-2.12063056,,,
imu,459.659114,-0.5951620360000001,-9.190617772000001,3.3658058056,-1.65976655,4.02954448,-1.80660034,,,
imu,459.667589,-0.5879842024,-9.1930103832,3.3640113472,-1.57752054,3.9697292,-1.61220068,,,
imu,459.676064,-0.5808063688,-9.218730953600001,3.3622168888,-1.41302852,4.02206757,-1.53743158,,,
imu,459.684539,-0.5730303824,-9.2300958568,3.365207652800001,-1.30835178,3.92486774,-1.58229304,,,
imu,459.693014,-0.5742266880000001,-9.238469996000001,3.3670021112,-1.48032071,3.85009864,-1.74678506,,,
imu,459.701489,-0.5724322296000001,-9.2408626072,3.363413194400001,-1.63733582,3.83514482,-1.87389253,,,
imu,459.709964,-0.5670488544000001,-9.224114328800002,3.3550390552,-1.64481273,3.73046808,-1.90380017,,,
imu,459.718439,-0.5485061176,-9.2546201216,3.337692624000001,-1.41302852,3.6706528,-1.83650798,,,
imu,459.726914,-0.5598710208000001,-9.280340692000001,3.338290776800001,-1.57004363,3.81271409,-1.8514618,,,
imu,458.373016,,,,,,,-91.84698360000002,186.519882,113.1912768
imu,458.474609,,,,,,,-88.9050484,186.1658732,111.5433048
imu,458.576904,,,,,,,-91.28545240000001,186.8616836,113.7772224
imu,458.677734,,,,,,,-90.7849572,186.8616836,112.8128536
imu,458.779296,,,,,,,-90.82157880000001,186.9837556,113.9237088
imu,458.880859,,,,,,,-91.05351560000001,186.886098,114.3387536
imu,458.982543,,,,,,,-90.46757000000001,186.825062,113.9237088
imu,459.084014,,,,,,,-90.46757000000001,186.7274044,113.752808
imu,459.735389,-0.5676470072,-9.270172094400001,3.3532445968,-1.79435093,3.76785263,-1.80660034,,,
imu,459.743864,-0.5736285352000001,-9.254021968800002,3.3550390552,-2.0709966,3.70803735,-1.82155416,,,
imu,459.752339,-0.5670488544000001,-9.266583177600001,3.3574316664,-2.13081188,3.70803735,-1.82155416,,,
imu,459.760814,-0.5742266880000001,-9.266583177600001,3.3640113472,-2.60185721,3.69308353,-2.06829219,,,
imu,459.769289,-0.5610673264,-9.267779483200002,3.385544848,-2.61681103,3.57345297,-2.08324601,,,
imu,459.777764,-0.5670488544000001,-9.250433052000002,3.3897319176,-2.8186876,3.34914567,-2.23278421,,,
imu,459.786239,-0.5772174520000001,-9.238469996000001,3.3831522368,-2.84111833,3.31176112,-2.31503022,,,
imu,459.794714,-0.5778156048000002,-9.214543884000001,3.378965167200001,-2.99065653,3.16969983,-2.3748455,,,
imu,459.803189,-0.5843952856000001,-9.1918140776,3.3867411536,-2.86354906,3.04259236,-2.38232241,,,
imu,459.811641,-0.5945638832000001,-9.190019619200001,3.390330070400001,-2.90841052,3.01268472,-2.32998404,,,
imu,459.820093,-0.6137047728000001,-9.190019619200001,3.391526376000001,-2.85607215,3.13231528,-2.2253073,,,
imu,459.828546,-0.6238733704,-9.195402994400002,3.3897319176,-2.70653395,3.13979219,-2.26269185,,,
imu,459.836998,-0.6274622872000001,-9.2127494256,3.399900515200001,-2.60933412,3.19960747,-2.15801511,,,
imu,459.84545,-0.6190881480000001,-9.198393758400002,3.416648793600001,-2.65419558,3.31176112,-2.12063056,,,
imu,459.853902,-0.6071250920000001,-9.1918140776,3.4196395576,-2.62428794,3.55102224,-2.0757691,,,
imu,459.862354,-0.6023398696000001,-9.190019619200001,3.444163822400001,-2.61681103,3.64822207,-2.15801511,,,
imu,459.870806,-0.5945638832000001,-9.2001882168,3.444163822400001,-2.72148777,3.5958837,-2.17296893,,,
imu,459.879258,-0.5796100632000001,-9.178654716,3.4435656696,-2.60185721,3.6706528,-2.16549202,,,
imu,459.88771,-0.5808063688,-9.1858325496,3.446556433600001,-2.48970356,3.94729847,-2.24773803,,,
imu,459.896162,-0.5670488544000001,-9.173271340800001,3.456725031200001,-2.52708811,3.93982156,-2.35241477,,,
imu,459.904614,-0.5706377712,-9.186430702400001,3.4615102536,-2.75887232,3.88748319,-2.39727623,,,
imu,459.913067,-0.5736285352000001,-9.184038091200001,3.467491781600001,-2.4448421,3.83514482,-2.47204533,,,
imu,459.921519,-0.5873860496000001,-9.176262104800001,3.467491781600001,-2.60933412,3.76037572,-2.61410662,,,
imu,459.929971,-0.5861897440000001,-9.149345228800001,3.4615102536,-2.65419558,3.77532954,-2.65896808,,,
imu,459.938423,-0.5921712720000001,-9.156523062400002,3.4615102536,-2.39998064,3.76785263,-2.74121409,,,
imu,459.946875,-0.5891805080000001,-9.1583175208,3.4489490448,-2.4448421,3.6706528,-2.77859864,,,
imu,459.955327,-0.5963583416000001,-9.173271340800001,3.448350892000001,-2.39998064,3.70056044,-2.75616791,,,
imu,459.963779,-0.6065269392000001,-9.156523062400002,3.4501453504,-2.25044244,3.64822207,-2.80850628,,,
imu,459.972231,-0.6035361752000001,-9.157719368,3.457921336800001,-2.08595042,3.72299117,-2.65896808,,,
imu,459.980683,-0.6071250920000001,-9.190019619200001,3.467491781600001,-2.04856587,3.63326825,-2.63653735,,,
imu,459.989135,-0.6047324808000001,-9.222319870400002,3.4615102536,-2.12333497,3.69308353,-2.6739219,,,
imu,459.997587,-0.5999472584000001,-9.228899551200001,3.4698843928,-2.07847351,3.82766791,-2.59167589,,,
imu,460.00604,-0.601143564,-9.237273690400002,3.4854363656,-2.13081188,3.88000628,-2.57672207,,,
imu,460.014939,-0.6005454112,-9.269573941600001,3.4985957272,-2.2953039,3.88748319,-2.59167589,,,
imu,460.023838,-0.5867878968000001,-9.277948080800002,3.478856684800001,-2.63924176,3.86505246,-2.50195297,,,
imu,460.032737,-0.5855915912,-9.2486385936,3.4764640736,-2.80373378,3.91739083,-2.47952224,,,
imu,460.041636,-0.5957601888000001,-9.2157401896,3.484240060000001,-3.14019473,3.820191,-2.56924516,,,
imu,460.050536,-0.5993491056000001,-9.177458410400002,3.471678851200001,-3.4168404,3.7454219,-2.63653735,,,
imu,460.059435,-0.5933675776,-9.155326756800001,3.4854363656,-3.40188658,3.71551426,-2.50195297,,,
imu,460.068334,-0.6029380224,-9.158915673600001,3.478856684800001,-3.62619388,3.820191,-2.47952224,,,
imu,460.077233,-0.5969564944000001,-9.157121215200002,3.484240060000001,-3.67105534,3.76037572,-2.53186061,,,
imu,460.086132,-0.6143029256000001,-9.175663952,3.496203116000001,-3.55890169,3.5958837,-2.50942988,,,
imu,460.095031,-0.6190881480000001,-9.142167395200001,3.508166172,-3.50656332,3.68560662,-2.49447606,,,
imu,460.103931,-0.6268641344,-9.139774784,3.523718144800001,-3.48413259,3.64074516,-2.29259949,,,
imu,460.11283,-0.6256678288,-9.153532298400002,3.5302978256,-3.30468675,3.797760269999999,-2.2253073,,,
imu,460.121729,-0.601143564,-9.154728604,3.530895978400001,-3.07290254,3.93234465,-2.01595382,,,
imu,460.130628,-0.6005454112,-9.152934145600002,3.5195310752,-2.98317962,3.99215993,-2.03090764,,,
imu,460.139527,-0.5826008272000001,-9.135587714400002,3.521325533600001,-2.98317962,4.01459066,-1.93370781,,,
imu,460.148427,-0.5820026744000001,-9.1266154224,3.5183347696,-2.68410322,4.14169813,-1.82155416,,,
imu,460.157326,-0.5700396184000001,-9.134989561600001,3.525512603200001,-2.63924176,4.11179049,-1.90380017,,,
imu,460.166225,-0.5544876456000001,-9.158915673600001,3.5249144504,-2.72148777,3.88000628,-1.99352309,,,
imu,460.175124,-0.5598710208000001,-9.134989561600001,3.514147700000001,-2.55699575,3.69308353,-2.0757691,,,
imu,460.184023,-0.5628617848,-9.112857908,3.5279052144,-2.60933412,3.63326825,-2.21035348,,,
imu,460.192923,-0.5760211464000001,-9.115848672,3.535681200800001,-2.54951884,3.60336061,-2.20287657,,,
imu,460.201822,-0.5826008272000001,-9.105081921600002,3.5428590344,-2.39998064,3.52859151,-2.41223005,,,
imu,460.210721,-0.5814045216000001,-9.1092689912,3.554223937600001,-2.06351969,3.2968073,-2.48699915,,,
imu,460.219126,-0.5873860496000001,-9.115848672,3.5524294792,-2.25044244,3.23699202,-2.48699915,,,
imu,460.227531,-0.5855915912,-9.108670838400002,3.5572147016,-2.03361205,3.30428421,-2.46456842,,,
imu,460.235936,-0.5909749664,-9.103287463200001,3.5608036184,-1.92893531,3.42391477,-2.44213769,,,
imu,460.244341,-0.5933675776,-9.1290080336,3.5787482024,-1.73453565,3.25942275,-2.47952224,,,
imu,460.252746,-0.5909749664,-9.124222811200001,3.5661869936,-1.65976655,3.20708438,-2.50942988,,,
imu,460.261151,-0.6047324808000001,-9.139774784,3.587720494400001,-1.74948947,3.16969983,-2.53186061,,,
imu,460.269556,-0.5987509528,-9.145756312000001,3.5901131056,-1.56256672,3.2220382,-2.47204533,,,
imu,460.277961,-0.601143564,-9.156523062400002,3.606861384000001,-1.63733582,3.17717674,-2.47952224,,,
imu,460.286366,-0.601143564,-9.1541304512,3.608655842400001,-1.94388913,3.02016163,-2.57672207,,,
imu,460.294771,-0.6125084672000001,-9.140372936800002,3.6080576896,-1.77939711,3.02763854,-2.53186061,,,
imu,460.303177,-0.6238733704,-9.112857908,3.6014780088,-1.97379677,2.94539253,-2.63653735,,,
imu,460.311582,-0.6382290376000002,-9.112857908,3.6170299816,-2.13828879,2.8481927,-2.65896808,,,
imu,460.319987,-0.6448087184,-9.102091157600002,3.620618898400001,-2.0709966,2.87062343,-2.56176825,,,
imu,460.328392,-0.663949608,-9.0925207128,3.621815204,-1.86912003,2.95286944,-2.47204533,,,
imu,460.336797,-0.6597625384000001,-9.072781670400001,3.630787496000001,-1.61490509,3.11736146,-2.35241477,,,
imu,460.345202,-0.6549773160000001,-9.0673982952,3.621815204,-1.4728438,3.11736146,-2.34493786,,,
imu,460.353607,-0.6621551496,-9.0572296976,3.597889092,-1.27844414,3.20708438,-2.2253073,,,
imu,460.362012,-0.6693329832000001,-9.0434721832,3.612244759200001,-1.05413684,3.45382241,-2.18792275,,,
imu,460.370417,-0.6555754688000001,-9.035098044000001,3.621217051200001,-0.85973718,3.50616078,-2.10567674,,,
imu,460.378822,-0.6448087184,-9.041677724800001,3.616431828800001,-0.41859949,3.61083752,-1.99352309,,,
imu,460.387227,-0.6352382736000001,-9.053640780800002,3.609852148000001,-0.0522309,3.73046808,-1.97856927,,,
imu,460.395632,-0.6196863008000001,-9.069790906400002,3.6110484536,0.10478421,3.94729847,-1.90380017,,,
imu,460.404037,-0.6095177032000001,-9.082950268000001,3.6056650784,0.51601426,4.06692903,-1.96361545,,,
imu,460.412442,-0.6017417168000001,-9.066800142400002,3.5871223416,0.49358353,4.0444983,-2.04586146,,,
imu,460.420912,-0.601143564,-9.079361351200001,3.5805426608,0.63564482,4.02954448,-2.16549202,,,
imu,460.429382,-0.6023398696000001,-9.0823521152,3.579944508,0.9646288599999999,3.84262173,-2.30755331,,,
imu,460.437852,-0.6196863008000001,-9.0991003936,3.561999924,0.97210577,3.70803735,-2.39727623,,,
imu,460.446322,-0.5975546472000001,-9.1200357416,3.5548220904,1.11416706,3.64074516,-2.26269185,,,
imu,460.454792,-0.6065269392000001,-9.142765548000002,3.539270117600001,1.45062801,3.58840679,-2.40475314,,,
imu,460.463262,-0.6340419680000001,-9.157719368,3.5314941312,1.63755076,3.50616078,-2.3000764,,,
imu,460.471731,-0.6262659816,-9.194206688800001,3.5434571872,1.60764312,3.5958837,-2.23278421,,,
imu,460.480201,-0.6328456624000001,-9.214543884000001,3.532690436800001,1.28613599,3.67812971,-2.08324601,,,
imu,460.488671,-0.6274622872000001,-9.2169364952,3.523119992000001,0.9945364999999999,3.55849915,-1.85893871,,,
imu,460.497141,-0.6268641344,-9.2300958568,3.5207273808,0.9945364999999999,3.45382241,-1.6271545,,,
imu,460.505611,-0.6208826064000001,-9.257012732800002,3.5195310752,0.6281679099999999,3.58092988,-1.44770866,,,
imu,460.514081,-0.6029380224,-9.270172094400001,3.523718144800001,0.40386061,3.52859151,-1.39537029,,,
imu,460.522551,-0.6083213976,-9.252825663200001,3.5093624776,0.007584380000000002,3.36409949,-1.32060119,,,
imu,460.531021,-0.6178918424000002,-9.2546201216,3.5015864912,-0.32139966,3.22951511,-1.39537029,,,
imu,460.539491,-0.6232752176,-9.242657065600001,3.511156936,-0.61299915,3.24446893,-1.3280781,,,
imu,460.547961,-0.6113121616,-9.233086620800002,3.5087643248,-1.06909066,3.3715764,-1.24583209,,,
imu,459.185546,,,,,,,-90.0525252,186.3245668,114.3265464
imu,459.287109,,,,,,,-90.5408132,187.1180348,114.0701952
imu,459.388671,,,,,,,-88.23365240000001,185.9583508,111.860692
imu,459.490203,,,,,,,-90.74833559999999,187.1424492,114.3143392
imu,459.591796,,,,,,,-88.0749588,186.1292516,111.372404
imu,459.693359,,,,,,,-90.7239212,186.9715484,113.935916
imu,459.795043,,,,,,,-90.7849572,187.0569988,113.8504656
imu,459.896453,,,,,,,-90.5530204,187.1058276,113.6795648
imu,460.55643,-0.6149010784000001,-9.207964203200001,3.5057735608,-1.15133667,3.4463455,-1.22340136,,,
imu,460.5649,-0.6113121616,-9.1858325496,3.5015864912,-1.15881358,3.45382241,-1.13367844,,,
imu,460.57337,-0.5921712720000001,-9.178654716,3.4968012688,-1.26349032,3.50616078,-1.21592445,,,
imu,460.58184,-0.5861897440000001,-9.172673188000001,3.5039791024,-1.21862886,3.71551426,-1.32060119,,,
imu,460.59031,-0.5843952856000001,-9.166093507200001,3.5093624776,-1.10647521,3.73794499,-1.41780102,,,
imu,460.59878,-0.5796100632000001,-9.145756312000001,3.5057735608,-1.2485365,3.72299117,-1.48509321,,,
imu,460.60725,-0.5724322296000001,-9.1499433816,3.5105587832,-1.36069015,3.68560662,-1.69444669,,,
imu,460.61572,-0.5778156048000002,-9.169682424000001,3.5153440056,-1.26349032,3.5211146,-1.79912343,,,
imu,460.624174,-0.5676470072,-9.1720750352,3.507568019200001,-1.27096723,3.49120696,-1.76921579,,,
imu,460.632629,-0.5700396184000001,-9.169682424000001,3.5093624776,-1.44293616,3.35662258,-1.85893871,,,
imu,460.641084,-0.5742266880000001,-9.176860257600001,3.508166172,-1.30087487,3.28933039,-1.95613854,,,
imu,460.649538,-0.5808063688,-9.171476882400002,3.5129513944,-1.48779762,3.30428421,-2.05333837,,,
imu,460.657993,-0.5760211464000001,-9.167887965600002,3.5153440056,-1.45788998,3.28185348,-2.10567674,,,
imu,460.666448,-0.5861897440000001,-9.173869493600002,3.5153440056,-1.0989983,3.30428421,-2.02343073,,,
imu,460.674902,-0.5915731192000001,-9.1750657992,3.5225218392,-1.06161375,3.2220382,-1.98604618,,,
imu,460.683357,-0.5981528,-9.1852343968,3.5302978256,-1.27096723,3.16969983,-1.99352309,,,
imu,460.691727,-0.6059287864000001,-9.190617772000001,3.535681200800001,-1.48779762,3.30428421,-2.05333837,,,
imu,460.700181,-0.5999472584000001,-9.176262104800001,3.5362793536,-1.62985891,3.28933039,-2.09072292,,,
imu,460.708636,-0.6119103144000001,-9.179851021600001,3.549438715200001,-1.63733582,3.28933039,-2.09072292,,,
imu,460.717091,-0.6149010784000001,-9.180449174400001,3.550036868,-1.50275144,3.39400713,-2.09819983,,,
imu,460.725545,-0.6190881480000001,-9.173869493600002,3.544653492800001,-1.59995127,3.56597606,-2.05333837,,,
imu,460.734,-0.6244715232,-9.161308284800002,3.5536257848,-1.6971511,3.65569898,-2.00847691,,,
imu,460.742455,-0.6220789120000001,-9.137980325600001,3.5554202432,-1.71958183,3.77532954,-1.97109236,,,
imu,460.750909,-0.6065269392000001,-9.137980325600001,3.575159285600001,-1.89902767,3.91739083,-2.02343073,,,
imu,460.759364,-0.6035361752000001,-9.142765548000002,3.5847297304,-1.88407385,3.94729847,-2.03090764,,,
imu,460.767818,-0.5897786608000001,-9.137980325600001,3.5661869936,-1.80182784,3.99963684,-1.97109236,,,
imu,460.776273,-0.5867878968000001,-9.121232047200001,3.569775910400001,-1.77939711,4.06692903,-2.10567674,,,
imu,460.784728,-0.5927694248,-9.1200357416,3.5853278832,-1.65976655,3.97720611,-2.18044584,,,
imu,460.793182,-0.5837971328000001,-9.124820964000001,3.570972216,-1.71958183,3.91739083,-2.10567674,,,
imu,460.801637,-0.5790119104,-9.1170449776,3.581738966400001,-1.72705874,3.78280645,-2.20287657,,,
imu,460.810092,-0.58319898,-9.110465296800001,3.600281703200001,-1.54013599,3.6706528,-2.30755331,,,
imu,460.818546,-0.5808063688,-9.115250519200002,3.5990853976,-1.46536689,3.70056044,-2.17296893,,,
imu,460.827024,-0.5939657304000001,-9.131400644800001,3.6020761616,-1.46536689,3.67812971,-2.35241477,,,
imu,460.835501,-0.5987509528,-9.1224283528,3.6056650784,-1.27844414,3.58092988,-2.30755331,,,
imu,460.843979,-0.6137047728000001,-9.1026893104,3.6056650784,-1.46536689,3.62579134,-2.14306129,,,
imu,460.852456,-0.6166955368000001,-9.0913244072,3.6176281344,-1.27844414,3.71551426,-2.06081528,,,
imu,460.860934,-0.6214807592000001,-9.103287463200001,3.605066925600001,-0.91207555,3.63326825,-1.9262309,,,
imu,460.869411,-0.6083213976,-9.114652366400001,3.595496480800001,-0.8821679099999999,3.797760269999999,-1.70940051,,,
imu,460.877889,-0.5879842024,-9.102091157600002,3.582935272,-0.85973718,3.97720611,-1.73183124,,,
imu,460.886367,-0.5849934384000001,-9.0991003936,3.581140813600001,-0.55318387,3.97720611,-1.65706214,,,
imu,460.894844,-0.5718340768000001,-9.118839436000002,3.5745611328,-0.11952309,3.94729847,-1.73183124,,,
imu,460.903322,-0.5694414656000001,-9.145158159200001,3.564392535200001,-0.17933837,3.65569898,-1.7766927,,,
imu,460.911799,-0.5634599376000001,-9.134391408800001,3.5667851464,-0.14195382,3.68560662,-1.9262309,,,
imu,460.920277,-0.5694414656000001,-9.1092689912,3.5667851464,-0.20924601,3.54354533,-2.16549202,,,
imu,460.928754,-0.5784137576,-9.103287463200001,3.5548220904,-0.14943073,3.41643786,-2.2253073,,,
imu,460.937232,-0.5909749664,-9.107474532800001,3.5548220904,0.0001074699999999984,3.32671494,-2.32250713,,,
imu,460.945709,-0.5987509528,-9.103287463200001,3.551831326400001,0.10478421,3.1472691,-2.4496146,,,
imu,460.954187,-0.6220789120000001,-9.105081921600002,3.5458497984,0.14216876,3.02016163,-2.53933752,,,
imu,460.962664,-0.6328456624000001,-9.115250519200002,3.554223937600001,0.26927623,3.11736146,-2.45709151,,,
imu,460.971142,-0.6358364264000002,-9.13678402,3.5536257848,0.23936859,3.24446893,-2.32998404,,,
imu,460.979619,-0.6436124128,-9.155326756800001,3.556018396000001,0.47862971,3.34914567,-2.12063056,,,
imu,460.988097,-0.6442105656,-9.149345228800001,3.5536257848,0.28423005,3.62579134,-2.04586146,,,
imu,460.996574,-0.6262659816,-9.139176631200002,3.5548220904,0.3216146,3.79028336,-1.91127708,,,
imu,461.005052,-0.6089195504,-9.153532298400002,3.550036868,0.31413769,3.99963684,-1.82903107,,,
imu,461.013529,-0.6107140088,-9.1481489232,3.546447951200001,0.23189168,3.97720611,-1.7766927,,,
imu,461.022007,-0.6143029256000001,-9.160710132,3.549438715200001,0.13469185,3.93234465,-1.87389253,,,
imu,461.03084,-0.5981528,-9.176262104800001,3.560205465600001,0.07487657,3.96225229,-1.91127708,,,
imu,461.039673,-0.5963583416000001,-9.187028855200001,3.5578128544,-0.26158438,3.96225229,-1.97856927,,,
imu,461.048506,-0.6077232448000001,-9.182243632800002,3.558411007200001,-0.31392275,4.03702139,-1.93370781,,,
imu,461.057338,-0.6107140088,-9.1924122304,3.558411007200001,-0.2765382,4.13422122,-1.79912343,,,
imu,461.066171,-0.5945638832000001,-9.187627008000002,3.5524294792,-0.26158438,4.2688056,-1.76921579,,,
imu,461.075004,-0.5915731192000001,-9.1619064376,3.546447951200001,-0.36626112,4.35852852,-1.85893871,,,
imu,461.083837,-0.5772174520000001,-9.1720750352,3.5536257848,-0.47093786,4.31366706,-1.88136944,,,
imu,461.09267,-0.5784137576,-9.180449174400001,3.547046104000001,-0.61299915,4.32862088,-2.0757691,,,
imu,461.101503,-0.5694414656000001,-9.167887965600002,3.5386719648,-0.51579932,4.13422122,-2.18044584,,,
imu,461.110335,-0.5676470072,-9.133793256,3.530895978400001,-0.25410747,4.05197521,-2.19539966,,,
imu,461.119168,-0.5586747152,-9.132596950400002,3.5428590344,-0.2017691,4.03702139,-2.14306129,,,
imu,461.128001,-0.5724322296000001,-9.1475507704,3.525512603200001,-0.05970781,3.99215993,-2.05333837,,,
imu,461.136834,-0.5640580904000001,-9.161308284800002,3.523119992000001,-0.17933837,3.91739083,-2.06081528,,,
imu,461.145667,-0.580208216,-9.157719368,3.528503367200001,-0.11952309,3.81271409,-1.97109236,,,
imu,461.1545,-0.5784137576,-9.1720750352,3.532690436800001,0.09730729999999999,3.76037572,-2.10567674,,,
imu,461.163333,-0.5784137576,-9.174467646400002,3.5249144504,-0.07466163,3.58092988,-2.03090764,,,
imu,461.172165,-0.5873860496000001,-9.180449174400001,3.533288589600001,-0.3513073,3.68560662,-2.05333837,,,
imu,461.180998,-0.5849934384000001,-9.169084271200001,3.521325533600001,-0.23915365,3.67812971,-2.001,,,
imu,461.189831,-0.5921712720000001,-9.1720750352,3.5219236864,-0.36626112,3.69308353,-2.08324601,,,
imu,461.198664,-0.5897786608000001,-9.159513826400001,3.517138464,-0.2765382,3.64074516,-2.001,,,
imu,461.207497,-0.5975546472000001,-9.152934145600002,3.5093624776,-0.38869185,3.86505246,-2.01595382,,,
imu,461.21633,-0.6095177032000001,-9.138578478400001,3.515942158400001,-0.34383039,3.81271409,-2.14306129,,,
imu,461.225162,-0.6053306336000001,-9.130802492,3.518932922400001,-0.35878421,3.94729847,-2.1505382,,,
imu,461.233612,-0.5975546472000001,-9.121830200000002,3.5225218392,-0.23167674,4.22394414,-2.06081528,,,
imu,461.242062,-0.5867878968000001,-9.111661602400002,3.5207273808,-0.20924601,4.31366706,-2.06829219,,,
imu,459.997954,,,,,,,-90.7361284,187.6063228,113.87488
imu,460.099516,,,,,,,-90.2112188,186.8494764,113.6063216
imu,460.201323,,,,,,,-91.07793,187.0569988,113.813844
imu,460.302641,,,,,,,-88.06275160000001,187.1058276,113.386592
imu,460.404265,,,,,,,-90.68729959999999,187.4110076,113.6185288
imu,460.505888,,,,,,,-88.1848236,186.6907828,111.3601968
imu,460.607298,,,,,,,-90.49198439999999,187.4110076,113.7772224
imu,460.708861,,,,,,,-90.56522760000001,186.764026,111.6043408
imu,460.810423,,,,,,,-90.4309484,187.9115028,113.9237088
imu,460.912016,,,,,,,-90.52860600000001,186.9715484,113.2523128
imu,461.013548,,,,,,,-90.5408132,187.252314,112.9349256
imu,461.115141,,,,,,,-90.589642,187.3377644,114.4608256
imu,461.216704,,,,,,,-90.0647324,187.2278996,113.996952
