Type,Timestamp,Data Accelerometer X,Data Accelerometer Y,Data Accelerometer Z,Data Gyroscope X,Data Gyroscope Y,Data Gyroscope Z,Data Magnetometer X,Data Magnetometer Y,Data Magnetometer Z
imu,495.086394,-0.1519308112,-9.044668488800001,3.759390348,-0.71767589,3.10988455,-1.63463141,,,
imu,495.094774,-0.182436604,-9.048855558400001,3.768960792800001,-0.7401066199999999,2.84071579,-1.74678506,,,
imu,495.103154,-0.19439966,-9.077566892800002,3.762979264800001,-0.64290679,2.57902394,-2.02343073,,,
imu,495.111533,-0.2278962168,-9.084146573600002,3.783914612800001,-0.46346095,2.5491163,-2.05333837,,,
imu,495.119913,-0.233279592,-9.0853428792,3.7797275432,-0.68029134,2.42200883,-2.13558438,,,
imu,495.128293,-0.2524204816,-9.102091157600002,3.781522001600001,-0.80739881,2.51173175,-2.21783039,,,
imu,495.136672,-0.2685706072,-9.0996985464,3.779129390400001,-0.83730645,2.43696265,-2.04586146,,,
imu,495.145052,-0.266177996,-9.0644075312,3.7635774176,-0.90459864,2.71360832,-1.84398489,,,
imu,495.153431,-0.2685706072,-9.059024156000001,3.7587921952,-0.93450628,2.93043871,-1.75426197,,,
imu,495.161811,-0.2536167872,-9.063211225600002,3.7528106672,-0.91955246,3.0725,-1.67949287,,,
imu,495.170191,-0.2344758976,-9.0578278504,3.746230986400001,-0.69524516,3.10240764,-1.42527793,,,
imu,495.178653,-0.230288828,-9.065005684,3.7546051256,-0.67281443,3.20708438,-1.36546265,,,
imu,495.187115,-0.215335008,-9.0751742816,3.7450346808,-0.54570696,3.16969983,-1.44023175,,,
imu,495.195577,-0.2159331608,-9.0805576568,3.7498199032,-0.43355331,3.0725,-1.50004703,,,
imu,495.20404,-0.1932033544,-9.097305935200001,3.7450346808,-0.26158438,3.28185348,-1.49257012,,,
imu,495.212502,-0.1920070488,-9.112857908,3.7641755704,-0.06718472,3.2220382,-1.42527793,,,
imu,495.220964,-0.1890162848,-9.106876380000001,3.762381112,-0.34383039,3.12483837,-1.55986231,,,
imu,495.229427,-0.1770532288,-9.111661602400002,3.7617829592,-0.5980453299999999,3.05006927,-1.79912343,,,
imu,495.237889,-0.1776513816,-9.108072685600002,3.7635774176,-0.68029134,3.04259236,-1.89632326,,,
imu,495.246351,-0.188418132,-9.1056800744,3.760586653600001,-0.91207555,2.87810034,-1.97856927,,,
imu,495.254813,-0.1758569232,-9.0883336432,3.7450346808,-0.83730645,2.71360832,-2.1505382,,,
imu,495.263276,-0.203371952,-9.097904088000002,3.7528106672,-0.8522602699999999,2.61640849,-2.35241477,,,
imu,495.271738,-0.2129423968,-9.0805576568,3.737258694400001,-0.8672140899999999,2.42948574,-2.47204533,,,
imu,495.2802,-0.227298064,-9.0608186144,3.7366605416,-0.81487572,2.46687029,-2.59167589,,,
imu,495.288662,-0.227298064,-9.0608186144,3.7348660832,-0.7550604399999999,2.42200883,-2.38232241,,,
imu,495.297125,-0.2368685088,-9.059024156000001,3.7223048744,-0.58309151,2.41453192,-2.36736859,,,
imu,495.305587,-0.2398592728,-9.090726254400002,3.7366605416,-0.32139966,2.46687029,-2.2253073,,,
imu,495.314049,-0.2458408008,-9.095511476800002,3.746829139200001,-0.41859949,2.45191647,-2.30755331,,,
imu,495.322512,-0.245242648,-9.097305935200001,3.746829139200001,-0.30644584,2.37714737,-2.25521494,,,
imu,495.330974,-0.2667761488000001,-9.0913244072,3.746230986400001,-0.33635348,2.21265535,-2.33746095,,,
imu,495.339436,-0.2877114968,-9.096707782400001,3.7450346808,-0.32139966,2.04068642,-2.32998404,,,
imu,495.347898,-0.3020671640000001,-9.119437588800002,3.7599885008,-0.38121494,2.12293243,-2.27016876,,,
imu,495.356361,-0.3074505392,-9.1062782272,3.7450346808,-0.30644584,2.19770153,-2.09072292,,,
imu,495.364823,-0.31403022,-9.097904088000002,3.7348660832,-0.53823005,2.36967046,-1.7766927,,,
imu,495.373285,-0.3265914288,-9.0925207128,3.7223048744,-0.50832241,2.46687029,-1.51500085,,,
imu,495.382105,-0.3182172896000001,-9.095511476800002,3.730679013600001,-0.74758353,2.66874686,-1.35798574,,,
imu,495.390924,-0.3068523864000001,-9.0996985464,3.728884555200001,-0.71019898,2.81080815,-1.18601681,,,
imu,495.399744,-0.3002727056,-9.112857908,3.7312771664,-0.74758353,2.9229618,-0.9318018699999999,,,
imu,495.408563,-0.272159524,-9.1224283528,3.742043916800001,-0.59056842,3.10988455,-0.7000176599999999,,,
imu,495.417383,-0.2470371064,-9.103885616000001,3.7366605416,-0.65786061,3.25942275,-0.5654332799999999,,,
imu,495.426203,-0.2356722032,-9.102091157600002,3.7378568472,-0.70272207,3.30428421,-0.5280487299999999,,,
imu,495.435022,-0.2404574256,-9.0996985464,3.7426420696,-0.79244499,3.23699202,-0.6775869299999999,,,
imu,495.443842,-0.2386629672,-9.098502240800002,3.754006972800001,-0.8522602699999999,3.18465365,-0.9018942299999999,,,
imu,495.452661,-0.2655798432,-9.103885616000001,3.771353404000001,-1.03170611,3.04259236,-1.07386316,,,
imu,495.461481,-0.287113344,-9.115250519200002,3.7635774176,-1.0989983,2.97530017,-1.21592445,,,
imu,495.470301,-0.3062542336,-9.135587714400002,3.782718307200001,-1.12142903,2.89305416,-1.45518557,,,
imu,495.47912,-0.331974804,-9.131400644800001,3.790494293600001,-1.53265908,3.0725,-1.67201596,,,
imu,495.48794,-0.3194135952000001,-9.1236246584,3.807242572000001,-1.57752054,3.38653022,-1.58229304,,,
imu,495.496759,-0.3164228312,-9.120633894400001,3.807242572000001,-1.57004363,3.66317589,-1.3280781,,,
imu,495.505579,-0.2990764,-9.1122597552,3.8180093224,-1.65976655,3.97720611,-1.18601681,,,
imu,495.514398,-0.2793373576,-9.102091157600002,3.796475821600001,-1.75696638,4.47068217,-1.08134007,,,
imu,495.523218,-0.2560093984,-9.058426003200001,3.774344168000001,-1.63733582,4.65012801,-0.76730985,,,
imu,495.532038,-0.2171294664,-9.0386869608,3.7731478624,-1.59995127,4.85200458,-0.6402023799999998,,,
imu,495.540857,-0.1782495344,-8.990236584000002,3.759390348,-1.3233056,5.05388115,-0.6102947399999998,,,
imu,495.549677,-0.1573141864,-8.998610723200002,3.755203278400001,-0.85973718,5.14360407,-0.57291019,,,
imu,495.558496,-0.137575144,-9.0123682376,3.7432402224,-0.7999219,4.98658896,-0.73740221,,,
imu,495.567316,-0.116639796,-9.013564543200001,3.732473472000001,-0.44850713,4.84452767,-0.8794635,,,
imu,495.576136,-0.1004896704,-9.0297146688,3.741445764000001,-0.29896893,4.77723548,-1.1037708,,,
imu,495.584614,-0.1058730456,-9.042874030400002,3.7157251936,-0.26158438,4.59031273,-1.50004703,,,
imu,495.593093,-0.09929336480000002,-9.052444475200002,3.7031639848,-0.19429219,4.246374869999999,-1.76921579,,,
imu,495.601572,-0.110658268,-9.0644075312,3.7127344296,-0.29896893,4.0444983,-2.01595382,,,
imu,495.610051,-0.101685976,-9.076968740000002,3.702565832000001,-0.2765382,3.85757555,-2.20287657,,,
imu,495.61853,-0.122621324,-9.094913324,3.6989769152,-0.5307531400000001,3.75289881,-2.41223005,,,
imu,495.627008,-0.1172379488,-9.0991003936,3.7079492072,-0.67281443,3.52859151,-2.4496146,,,
imu,495.635487,-0.131593616,-9.104483768800002,3.707351054400001,-0.44850713,3.30428421,-2.47204533,,,
imu,495.643966,-0.1453511304,-9.118839436000002,3.704958443200001,-0.64290679,3.10988455,-2.51690679,,,
imu,495.652445,-0.158510492,-9.133793256,3.714528888000001,-0.88964482,2.90800798,-2.47204533,,,
imu,495.660973,-0.1842310624,-9.134391408800001,3.7348660832,-0.94198319,2.78090051,-2.41223005,,,
imu,495.669452,-0.2039701048,-9.155924909600001,3.737258694400001,-1.0989983,2.79585433,-2.28512258,,,
imu,495.677931,-0.227298064,-9.146354464800002,3.7456328336,-1.05413684,2.89305416,-2.001,,,
imu,495.68641,-0.23926112,-9.141569242400001,3.750418056,-1.27096723,2.9977309,-1.96361545,,,
imu,495.694889,-0.2560093984,-9.131400644800001,3.755203278400001,-1.31582869,3.13979219,-1.87389253,,,
imu,495.703367,-0.266177996,-9.1302043392,3.764773723200001,-1.28592105,3.28933039,-1.75426197,,,
imu,495.711846,-0.2745521352,-9.1302043392,3.7695589456,-1.40555161,3.39400713,-1.76921579,,,
imu,495.720325,-0.2847207328,-9.097305935200001,3.776736779200001,-1.53265908,3.71551426,-1.66453905,,,
imu,495.728804,-0.281131816,-9.0715853648,3.788101682400001,-1.73453565,3.88748319,-1.64958523,,,
imu,495.737283,-0.2829262744000001,-9.056033392000002,3.7875035296,-1.80182784,4.15665195,-1.67201596,,,
imu,495.745761,-0.281131816,-9.048257405600001,3.780325696,-1.65228964,4.478159079999999,-1.76173888,,,
imu,495.75424,-0.2697669128,-9.03210728,3.774344168000001,-1.34573633,4.73237402,-1.73930815,,,
imu,495.762719,-0.248233412,-9.024331293600001,3.801261044,-1.40555161,5.00901969,-1.73930815,,,
imu,495.771198,-0.227298064,-9.042874030400002,3.825785308800001,-1.13638285,5.27071154,-1.64210832,,,
imu,495.779677,-0.2015774936,-9.068594600800001,3.8275797672,-1.27096723,5.55483412,-1.64210832,,,
imu,495.788136,-0.1716698536,-9.062014920000001,3.8413372816,-1.27096723,5.80904906,-1.7766927,,,
imu,495.796596,-0.1351825328,-9.0434721832,3.840739128800001,-1.23358268,5.921202709999999,-1.84398489,,,
imu,495.805056,-0.09690075360000001,-9.037490655200001,3.8335612952,-1.2485365,5.853910519999999,-1.91127708,,,
imu,495.813516,-0.06400234960000001,-9.015359001600002,3.8144204056,-1.01675229,5.65203395,-1.89632326,,,
imu,495.821975,-0.04486146000000001,-8.986049514400001,3.8108314888,-0.81487572,5.33800373,-2.10567674,,,
imu,495.830435,-0.0490485296,-8.981264292,3.780923848800001,-0.77749117,4.88938913,-2.46456842,,,
imu,495.838895,-0.04127254320000001,-8.966310472000002,3.747427292,-0.24663056,4.30619015,-2.60662971,,,
imu,495.847355,-0.05802082160000001,-8.986049514400001,3.7426420696,0.10478421,3.797760269999999,-2.68887572,,,
imu,495.855814,-0.08733030880000002,-9.009975626400001,3.7223048744,0.3963837,3.40148404,-2.68887572,,,
imu,495.864274,-0.131593616,-9.050051864,3.738455000000001,0.7702292,3.02763854,-2.66644499,,,
imu,495.872734,-0.1609031032,-9.104483768800002,3.748025444800001,0.8749059399999999,2.66874686,-2.59167589,,,
imu,495.881193,-0.1961941184,-9.148747076000001,3.762381112,0.8973366700000001,2.61640849,-2.51690679,,,
imu,495.889653,-0.2201202304,-9.204375286400001,3.776736779200001,0.67302937,2.57902394,-2.48699915,,,
imu,495.898113,-0.2368685088,-9.2091605088,3.779129390400001,0.26927623,2.70613141,-2.50942988,,,
imu,495.906573,-0.2518223288000001,-9.190019619200001,3.767166334400001,-0.23167674,2.87810034,-2.42718387,,,
imu,495.915032,-0.2560093984,-9.1475507704,3.757595889600001,-0.70272207,3.11736146,-2.19539966,,,
imu,495.923492,-0.2595983152,-9.117643130400001,3.753408820000001,-1.04665993,3.33419185,-2.21783039,,,
imu,495.931952,-0.2560093984,-9.0913244072,3.7546051256,-1.20367504,3.65569898,-2.16549202,,,
imu,495.940411,-0.2524204816,-9.066800142400002,3.755203278400001,-1.18124431,3.95477538,-2.12810747,,,
imu,495.948871,-0.2548130928,-9.052444475200002,3.7581940424,-1.15133667,4.18655959,-2.29259949,,,
imu,495.957331,-0.2458408008,-9.044668488800001,3.750418056,-0.94198319,4.27628251,-2.41970696,,,
imu,495.965791,-0.2410555784,-9.045266641600001,3.749221750400001,-0.5008455,4.478159079999999,-2.33746095,,,
imu,495.97425,-0.2320832864,-9.037490655200001,3.738455000000001,-0.10456927,4.60526655,-2.42718387,,,
imu,495.98271,-0.2243073,-9.042275877600002,3.749221750400001,-0.06718472,4.79966621,-2.50942988,,,
imu,495.991197,-0.2111479384,-9.0542389336,3.748025444800001,-0.02232326000000001,4.68003565,-2.50942988,,,
imu,495.999683,-0.2135405496,-9.065603836800001,3.7569977368,0.03749201999999999,4.65760492,-2.51690679,,,
imu,496.008169,-0.2135405496,-9.0506500168,3.746230986400001,0.26927623,4.70246638,-2.39727623,,,
imu,496.016656,-0.203371952,-9.065603836800001,3.7587921952,0.23936859,4.739850929999999,-2.43466078,,,
imu,496.025142,-0.1967922712,-9.047061100000002,3.754006972800001,0.05244583999999999,4.75480475,-2.4496146,,,
imu,496.033629,-0.1932033544,-9.031509127200001,3.754006972800001,0.3739529699999999,4.694989469999999,-2.34493786,,,
imu,496.042115,-0.1728661592,-9.014162696000001,3.7360623888,0.3739529699999999,4.77723548,-2.26269185,,,
imu,496.050602,-0.1561178808,-9.002797792800001,3.718715957600001,0.6132140899999999,4.62022037,-2.13558438,,,
imu,496.059088,-0.1178361016,-8.993825500800002,3.7157251936,1.11416706,4.567882,-2.18044584,,,
imu,496.067574,-0.1052748928,-8.993227348000001,3.712136276800001,1.63007385,4.33609779,-2.21035348,,,
imu,496.076061,-0.0747691,-8.9878439728,3.70854736,2.13102682,4.171605769999999,-2.24026112,,,
imu,496.084547,-0.0382817792,-8.999807028800001,3.7007713736,2.63197979,3.88748319,-2.18044584,,,
imu,496.093034,-0.0017944584,-8.9740864584,3.6828267896,3.27499405,3.38653022,-2.21035348,,,
imu,496.10152,0.004785222400000001,-8.9818624448,3.6989769152,3.74603938,2.7734236,-2.19539966,,,
imu,496.110007,0.0221316536,-8.990236584000002,3.697780609600001,4.21708471,2.18274771,-2.28512258,,,
imu,496.118493,0.04007623760000001,-9.0057885568,3.713332582400001,4.66569931,1.42010289,-2.38979932,,,
imu,496.126979,0.03110394560000001,-9.003395945600001,3.7139307352,4.75542223,0.4555814999999996,-2.5991528,,,
imu,496.135466,0.07955432240000002,-8.975282764000001,3.6894064704,5.248898290000001,-0.3294940500000001,-2.62906044,,,
imu,496.143952,0.2290925224000001,-8.914869331200002,3.652919149600001,5.87695873,-1.27906162,-2.50942988,,,
imu,496.152439,0.5168040192000001,-8.8484743704,3.5984872448,6.63960355,-2.87912036,-2.27764567,,,
imu,496.160925,0.8739012408000001,-8.7982295352,3.583533424800001,7.82095533,-5.60819251,-1.97109236,,,
imu,496.169412,1.1029937632,-8.750377311200001,3.583533424800001,9.33876806,-9.9373234,-1.59724686,,,
imu,496.177898,1.1795573216,-8.71807706,3.573962980000001,10.96873444,-15.66463646,-1.23087827,,,
imu,496.186384,1.202287128,-8.777892340000001,3.551831326400001,12.4342088,-21.64616446,-0.5953409199999999,,,
imu,496.194823,1.2094649616,-8.826342716800001,3.54405534,13.7052835,-27.51553881,0.4065650199999999,,,
imu,496.203261,1.1550330568,-8.865222648800001,3.548840562400001,15.11094258,-33.21294423,1.80474719,,,
imu,496.211699,1.2812432976,-8.878980163200001,3.508166172,16.28481745,-38.51407342,3.66649778,,,
imu,496.220137,1.3141417016,-8.886756149600002,3.4668936288,17.66056889,-43.99464845,6.066585890000001,,,
imu,496.228575,1.2938045064,-8.971693847200001,3.414854335200001,18.79705921,-49.9387919,8.58630456,,,
imu,496.237013,1.2615042552,-9.1056800744,3.3741799448,19.6868115,-55.96518136,11.1583616,,,
imu,496.245451,1.1317050976,-9.1092689912,3.347263068800001,20.35225649,-61.87941717,13.66312645,,,
imu,496.253889,0.9414925072000001,-9.18164548,3.312570206400001,20.75600963,-67.37494602,16.66884427,,,
imu,496.262327,0.7183815128000002,-9.249834899200001,3.279671802400001,20.95040929,-71.98819949,19.2334244,,,
imu,496.270766,0.5078317272000001,-9.277349928000001,3.235408495200001,20.92050165,-75.68179303,21.60360487,,,
imu,496.279204,0.2278962168,-9.2958926648,3.1684153816,20.86816328,-78.54544956,23.8691086,,,
imu,496.287642,-0.017944584,-9.364082084000001,3.091851823200001,20.70367126,-80.42215397,26.02245868,,,
imu,496.29608,-0.2595983152,-9.367671000800001,3.0463922104,20.32234885,-81.30442934999999,27.4580254,,,
imu,496.304518,-0.5855915912,-9.405354627200001,3.0320365432,19.94102644,-81.31190625999999,28.40011606,,,
imu,496.312956,-0.8553585040000001,-9.437654878400002,2.999138139200001,19.49241184,-80.10064684,28.99826886,,,
imu,496.321394,-0.9767835224000002,-9.5381445488,3.0009325976,18.99145887,-77.62578963,28.72162319,,,
imu,496.329832,-1.0982085408,-9.638634219200002,2.990764,17.92226074,-74.73970236999999,27.88420927,,,
imu,495.162181,,,,,,,-89.46657959999999,189.022358,112.1414576
imu,495.263805,,,,,,,-86.71995960000001,187.6551516,110.2493416
imu,495.365337,,,,,,,-89.01491320000001,188.6805564,112.8006464
imu,495.46693,,,,,,,-88.64869719999999,188.2166828,110.3103776
imu,495.568553,,,,,,,-88.78297640000001,188.5584844,112.0560072
imu,495.670085,,,,,,,-88.94166999999999,188.778214,112.7518176
imu,496.33827,-1.1777628632,-9.7301515976,2.9680341936,16.50912475,-71.68912309,26.2617198,,,
imu,496.346709,-1.2357836848,-9.802528086400002,2.9153967472,15.08103494,-68.16749847999999,24.04855444,,,
imu,496.355147,-1.3027767984,-9.831239420800001,2.8729278984,13.18937671,-64.33184365,21.54378959,,,
imu,496.363585,-1.3930978712,-9.857558144000002,2.8298608968,11.2379032,-60.23449697,18.92687109,,,
imu,496.372023,-1.501363528,-9.828846809600002,2.7820086728,9.4434448,-55.50908985,16.33238332,,,
imu,496.380461,-1.6174051712,-9.7540777096,2.7586807136,8.00040117,-50.36497577,13.91734139,,,
imu,496.388899,-1.7059317856,-9.676317845600002,2.7431287408,6.90877231,-44.45073996,11.84623732,,,
imu,496.397717,-1.7143059248,-9.669738164800002,2.7323619904,5.5554516,-38.11779719,9.68541033,,,
imu,496.406536,-1.7190911472,-9.633848996800001,2.6970709752,4.658222400000001,-31.71008532,7.62178317,,,
imu,496.415354,-1.7172966888,-9.583006008800002,2.694678364,4.08250033,-25.33228109,5.52824837,,,
imu,496.424172,-1.7442135648,-9.5429297712,2.692285752800001,3.611455,-19.10401506,3.78612834,,,
imu,496.43299,-1.7591673848,-9.535153784800002,2.6581910432,3.39462461,-12.96547195,1.94680848,,,
imu,496.441809,-1.8464976936,-9.4974701584,2.6223018752,2.59459524,-6.692344459999999,-0.04952648999999987,,,
imu,496.450627,-1.7818971912,-9.444832712,2.634863084,2.43758013,-0.0603252900000002,-1.7766927,,,
imu,496.459445,-1.7549803152,-9.361689472800002,2.6097406664,2.65441052,6.41467877,-4.23659609,,,
imu,496.468263,-1.7579710792,-9.309650179200002,2.595983152,3.07311748,12.33639149,-7.189975539999999,,,
imu,496.477082,-1.665855548,-9.319220624000002,2.6115351248,3.36471697,18.4749346,-9.64987893,,,
imu,496.4859,-1.564169572,-9.3479319584,2.6055535968,3.79090084,24.25458603,-12.11725923,,,
imu,496.494718,-1.5025598336,-9.443038253600001,2.5684681232,4.22456162,29.42113084,-14.56968571,,,
imu,496.503536,-1.4457353176,-9.4938812416,2.5792348736,3.99277741,34.22130706,-16.30432883,,,
imu,496.512355,-1.3871163432,-9.5291722568,2.5965813048,3.86566994,38.99905254999999,-16.99968146,,,
imu,496.521173,-1.36079762,-9.597361676,2.5792348736,3.79090084,43.42538327,-17.57540353,,,
imu,496.529991,-1.3781440512,-9.608128426400002,2.5744496512,3.57407045,47.47039158,-18.23337161,,,
imu,496.538809,-1.3978830936,-9.593772759200002,2.5798330264,2.87124091,51.59016899,-18.85395514,,,
imu,496.547628,-1.3560123976,-9.600352440000002,2.5714588872,2.31794957,55.79219241,-19.44463103,,,
imu,496.556446,-1.2573171856,-9.6015487456,2.595983152,1.73475059,59.79233926,-20.05026074,,,
imu,496.565264,-0.9893447312000001,-9.641624983200002,2.563084748,1.02444414,63.35134841999999,-20.79795174,,,
imu,496.574082,-0.7889635432000001,-9.748096181600001,2.566075512,0.46367589,65.64675979,-21.62788875,,,
imu,496.582901,-0.6388271904000001,-9.798341016800002,2.584020096,-0.46346095,66.71595792,-22.40548739,,,
imu,496.591719,-0.5634599376000001,-9.797742864000002,2.5923942352,-1.6971511,67.05989578,-22.62979469,,,
imu,496.600202,-0.6184899952000001,-9.788172419200002,2.5642810536,-2.80373378,67.11971106,-22.3381952,,,
imu,496.608684,-0.6388271904000001,-9.767237071200002,2.5606921368,-4.00751629,67.23186471,-22.07650335,,,
imu,496.617167,-0.6418179544000001,-9.667345553600002,2.560093984,-5.248683349999999,67.72534077,-21.79238077,,,
imu,496.625649,-0.5676470072,-9.5740337168,2.5798330264,-6.235635469999999,68.1963861,-21.86714987,,,
imu,496.634132,-0.481513004,-9.5602762024,2.6223018752,-6.5571426,68.44312413,-22.64474851,,,
imu,496.642615,-0.2936930248,-9.618895176800002,2.6892949888,-7.19267995,68.15900155,-23.54945462,,,
imu,496.651097,-0.146547436,-9.6326526912,2.7048469616,-8.0525246,67.46364892,-24.49154528,,,
imu,496.65958,-0.06460050240000001,-9.605735815200001,2.7138192536,-8.70301577,65.93835928,-24.93268297,,,
imu,496.668062,-0.113649032,-9.5704448,2.7239878512,-9.570337330000001,64.18128543,-24.9551137,,,
imu,496.676545,-0.1064711984,-9.4873015608,2.7108284896,-10.27316687,62.46907304,-24.85043696,,,
imu,496.685028,-0.1064711984,-9.430477044800002,2.7347546016,-10.66196619,60.98864485999999,-24.74576022,,,
imu,496.69351,-0.09151737840000002,-9.388008196000001,2.7592788664,-10.87879658,59.65027797,-24.3569609,,,
imu,496.701993,0.0161501256,-9.3652783896,2.8167015352,-10.98347332,58.34929562999999,-23.96816158,,,
imu,496.710476,0.1776513816,-9.338959666400001,2.8400294944,-10.87131967,56.39034521,-23.75133119,,,
imu,496.718958,0.2859170384,-9.305463109600002,2.8555814672,-10.46756653,53.60145778,-23.95320776,,,
imu,496.727441,0.376836264,-9.2617979552,2.877114968,-10.4451358,50.44620175999999,-23.88591557,,,
imu,496.735923,0.430670016,-9.201384522400001,2.9237708864,-9.68996789,47.00682316,-22.95130182,,,
imu,496.744406,0.3965753064,-9.178654716,2.954874832000001,-9.05443054,43.20107597,-21.92696515,,,
imu,496.752781,0.305057928,-9.1882251608,2.978202791200001,-8.46375465,39.58225152999999,-20.63345972,,,
imu,496.761264,0.2434481896,-9.1164468248,2.9883713888,-7.88803258,36.26250349,-19.04087789,,,
imu,496.769746,0.1926052016,-9.110465296800001,3.033831001600001,-7.304833599999999,33.45866224,-17.35857314,,,
imu,496.778229,0.20935348,-9.09192256,3.073309086400001,-6.519758049999999,30.737067,-15.7585144,,,
imu,496.786711,0.230288828,-9.0823521152,3.087066600800001,-5.52532902,27.88836429,-14.59959335,,,
imu,496.795194,0.173464312,-9.0715853648,3.0990296568,-4.7626842,24.89760029,-13.65750269,,,
imu,496.803651,0.1178361016,-9.0781650456,3.1115908656,-3.7159168,22.10871286,-12.37895108,,,
imu,496.812108,0.05742266880000001,-9.0817539624,3.128339144,-2.90841052,19.63385565,-11.13778402,,,
imu,496.820566,-0.0406743904,-9.085941032000001,3.136115130400001,-2.03361205,17.23376754,-9.97886297,,,
imu,496.829023,-0.1274065464,-9.123026505600002,3.137311436000001,-1.23358268,15.17761729,-8.52834243,,,
imu,496.83748,-0.2428500368,-9.175663952,3.158246784000001,-0.61299915,13.42054344,-7.339513739999999,,,
imu,496.845937,-0.3259932760000001,-9.201982675200002,3.1767895208,0.14216876,12.00740745,-6.28526943,,,
imu,496.854394,-0.311039456,-9.2091605088,3.1690135344,0.57582954,10.93820932,-5.38056332,,,
imu,496.862851,-0.2458408008,-9.223516176,3.1618357008,0.66555246,9.63722698,-4.82727198,,,
imu,496.871309,-0.2775428992,-9.254021968800002,3.1600412424,0.9347212199999999,8.052122059999999,-4.68521069,,,
imu,496.879766,-0.3152265256,-9.2899111368,3.1576486312,0.94967504,6.579170789999999,-4.430995749999999,,,
imu,496.888223,-0.3212080536,-9.2899111368,3.1379095888,0.79265993,5.4651112,-3.85527368,,,
imu,496.89668,-0.3493212352000001,-9.2935000536,3.1241520744,0.71789083,4.500589809999999,-3.11505959,,,
imu,496.905137,-0.4019586816,-9.3006778872,3.123553921600001,0.74779847,3.43139168,-2.35989168,,,
imu,496.913595,-0.4390441552000001,-9.285724067200002,3.1169742408,0.77770611,2.55659321,-1.75426197,,,
imu,496.922052,-0.4623721144,-9.237273690400002,3.0828795312,0.7702292,1.74908693,-1.26078591,,,
imu,496.930509,-0.4539979752000001,-9.209758661600002,3.061346030400001,0.9646288599999999,1.13598031,-0.8495558599999999,,,
imu,496.938966,-0.3732473472,-9.191215924800002,3.0481866688,1.34595127,0.33595094,-0.5280487299999999,,,
imu,496.947423,-0.3301803456000001,-9.1924122304,3.0398125296,1.87681188,-0.8379239300000001,-0.40841817,,,
imu,496.95588,-0.3427415544,-9.201384522400001,2.987773236,2.407672489999999,-2.37069048,-0.4233719899999999,,,
imu,496.964338,-0.3654713608,-9.231890315200001,2.966239735200001,2.94601001,-3.7314881,-0.3934643499999999,,,
imu,496.972795,-0.4432312248,-9.225310634400001,3.0099048896,3.4619168,-4.89040915,0.01028879000000016,,,
imu,496.981252,-0.5586747152,-9.269573941600001,2.990764,3.95539286,-5.578284869999999,0.54862631,,,
imu,496.989709,-0.6316493568000001,-9.319220624000002,2.9680341936,4.5834533,-5.69791543,0.8626565300000002,,,
imu,496.998166,-0.6830904976000001,-9.3838211264,2.963248971200001,4.64326858,-5.406315940000001,1.05705619,,,
imu,497.006629,-0.7207741240000002,-9.435860420000001,3.017680876,4.38157673,-4.97265516,0.89256417,,,
imu,497.015091,-0.6962498592000002,-9.490292324800002,3.062542336,3.99277741,-4.33711781,0.52619558,,,
imu,497.023553,-0.7082129152000001,-9.530368562400001,3.0320365432,3.49182444,-3.73896501,0.30188828,,,
imu,497.032016,-0.708811068,-9.556089132800002,2.966239735200001,2.72170271,-3.36511951,0.2046884499999999,,,
imu,497.040478,-0.6974461648000001,-9.534555632000002,2.945304387200001,1.8169966,-2.80435126,-0.004665029999999959,,,
imu,497.04894,-0.7333353328000001,-9.5154147424,2.9405191648,0.8749059399999999,-2.27349065,-0.05700339999999993,,,
imu,497.057402,-0.7566632920000002,-9.5237888816,2.9345376368,0.14964567,-1.77253768,0.13739626,,,
imu,497.065865,-0.76264482,-9.4831144912,2.907022608,-0.55318387,-1.22672325,0.1972115400000001,,,
imu,497.074327,-0.7620466672,-9.423897364000002,2.9195838168,-0.9943215599999999,-0.4491246100000001,0.38413429,,,
imu,497.082789,-0.723764888,-9.3868118904,2.9363320952,-1.24105959,0.44062768,0.7953643399999999,,,
imu,497.091251,-0.6597625384000001,-9.398176793600001,2.952482220800001,-1.48779762,1.03878048,1.04210237,,,
imu,497.099714,-0.6166955368000001,-9.422701058400001,2.984782472,-1.51022835,1.30794924,0.9374256299999999,,,
imu,497.108176,-0.5628617848,-9.451412392800002,2.989567694400001,-1.80930475,1.39019525,0.5934877699999999,,,
imu,497.116638,-0.5407301312,-9.492086783200001,2.9925584584,-2.17567334,1.38271834,0.05515025000000007,,,
imu,497.1251,-0.5191966304000001,-9.511227672800002,2.9955492224,-2.93831816,1.23318014,-0.40094126,,,
imu,497.133563,-0.520392936,-9.4843107968,2.9841843192,-3.80563972,1.13598031,-0.8794635,,,
imu,497.142025,-0.5305615336,-9.4621791432,2.9764083328,-4.17948522,1.14345722,-1.29069355,,,
imu,497.150487,-0.5604691736,-9.433467808800001,2.979997249600001,-4.463607799999999,1.15841104,-1.57481613,,,
imu,495.771468,,,,,,,-89.124778,188.9124932,111.860692
imu,495.873152,,,,,,,-89.2590572,188.6683492,112.7884392
imu,495.974593,,,,,,,-89.2590572,188.6805564,112.6785744
imu,496.076186,,,,,,,-89.28347160000001,188.5706916,112.471052
imu,496.178328,,,,,,,-86.53685159999999,187.6917732,112.7029888
imu,496.27928,,,,,,,-88.2458596,187.9481244,113.9847448
imu,496.380812,,,,,,,-81.31217,186.6663684,113.0325832
imu,496.482405,,,,,,,-80.1280716,186.3123596,116.2796984
imu,497.15895,-0.5778156048000002,-9.3802322096,2.980595402400001,-4.59071527,1.3528107,-1.8514618,,,
imu,497.167412,-0.6340419680000001,-9.346137500000001,3.0009325976,-4.71034583,1.51730272,-2.26269185,,,
imu,497.175874,-0.6495939408000001,-9.311444637600001,3.0122975008,-4.493515439999999,1.8014253,-2.51690679,,,
imu,497.184336,-0.6753145112000001,-9.286920372800001,3.021269792800001,-4.38136179,2.15284007,-2.84589083,,,
imu,497.192799,-0.7112036792,-9.290509289600001,3.051775585600001,-4.254254319999999,2.42200883,-3.18235178,,,
imu,497.201261,-0.7464946944,-9.290509289600001,3.0679257112,-4.06733157,2.82576197,-3.60105874,,,
imu,497.209934,-0.7787949456000002,-9.294696359200001,3.0757016976,-3.98508556,3.28185348,-3.90761205,,,
imu,497.218608,-0.7871690848,-9.298285276000001,3.109796407200001,-3.92527028,4.00711375,-4.04219643,,,
imu,497.227281,-0.7943469184000002,-9.315033554400001,3.1379095888,-4.02247011,4.65012801,-4.034719519999999,,,
imu,497.235954,-0.7811875568000001,-9.3144354016,3.1187686992,-4.07480848,5.330526819999999,-4.04967334,,,
imu,497.244628,-0.7518780696000001,-9.288116678400002,3.1026185736,-4.36640797,5.89129507,-4.10948862,,,
imu,497.253301,-0.7207741240000002,-9.2851259144,3.1091982544,-4.418746339999999,6.26514057,-4.244073,,,
imu,497.261974,-0.7094092208000001,-9.264788719200002,3.087066600800001,-4.24677741,6.38477113,-4.386134289999999,,,
imu,497.270648,-0.6860812616,-9.264788719200002,3.119366852000001,-4.02994702,6.444586409999999,-4.44594957,,,
imu,497.279321,-0.6645477608,-9.2641905664,3.1229557688,-3.79816281,6.49692478,-4.44594957,,,
imu,497.287994,-0.6472013296000001,-9.230694009600002,3.1271428384,-3.62619388,6.45206332,-4.625395409999999,,,
imu,497.296668,-0.6382290376000002,-9.222918023200002,3.142694811200001,-3.60376315,6.39224804,-4.58053395,,,
imu,497.305341,-0.6226770648,-9.2103568144,3.1391058944,-3.27477911,6.33243276,-4.35622665,,,
imu,497.314014,-0.6190881480000001,-9.225908787200002,3.149872644800001,-2.93084125,6.07821782,-4.13191935,,,
imu,497.322688,-0.6178918424000002,-9.260601649600002,3.1450874224,-3.02056417,5.80157215,-3.99733497,,,
imu,497.331361,-0.6262659816,-9.260003496800001,3.1414985056,-2.99065653,5.442680469999999,-3.7954584,,,
imu,497.340035,-0.6436124128,-9.2851259144,3.1355169776,-2.75887232,5.12865025,-3.54124346,,,
imu,497.348708,-0.6561736216000001,-9.3144354016,3.154059714400001,-2.77382614,4.97163514,-3.42908981,,,
imu,497.357381,-0.6938572480000001,-9.322809540800002,3.1504707976,-2.78130305,4.82209694,-3.21225942,,,
imu,497.366055,-0.7153907488000001,-9.303070498400002,3.1456855752,-2.71401086,4.66508183,-3.01785976,,,
imu,497.374728,-0.7249611936,-9.315033554400001,3.136115130400001,-2.5943803,4.717420199999999,-2.78607555,,,
imu,497.383401,-0.7195778184000001,-9.288116678400002,3.136115130400001,-2.75139541,4.76975857,-2.70382954,,,
imu,497.392075,-0.7219704296,-9.271368400000002,3.1337225192,-2.885979789999999,4.7921893,-2.48699915,,,
imu,497.400748,-0.6950535536000001,-9.272564705600002,3.156452325600001,-2.87850288,4.85948149,-2.26269185,,,
imu,497.409421,-0.663949608,-9.2851259144,3.143292964,-2.885979789999999,4.8669584,-2.02343073,,,
imu,497.41805,-0.6507902464,-9.307257568,3.156452325600001,-2.75139541,4.63517419,-1.81407725,,,
imu,497.426678,-0.6795015808000001,-9.267181330400001,3.159443089600001,-2.72148777,4.70246638,-1.57481613,,,
imu,497.435307,-0.6908664840000001,-9.246245982400001,3.175593215200001,-2.70653395,4.6426511,-1.44770866,,,
imu,497.443935,-0.6902683312000001,-9.221721717600001,3.189350729600001,-2.69158013,4.68751256,-1.42527793,,,
imu,497.452564,-0.6938572480000001,-9.207366050400001,3.181574743200001,-2.76634923,4.85948149,-1.56733922,,,
imu,497.461192,-0.7094092208000001,-9.190617772000001,3.180378437600001,-2.56447266,4.87443531,-1.6271545,,,
imu,497.469821,-0.6860812616,-9.193608536000001,3.179780284800001,-2.28782699,4.979112049999999,-1.86641562,,,
imu,497.478449,-0.6974461648000001,-9.2127494256,3.196528563200001,-1.96631986,5.091265699999999,-1.95613854,,,
imu,497.487078,-0.6711274416,-9.2336847736,3.198921174400001,-1.82425857,5.315573,-1.94866163,,,
imu,497.495706,-0.6723237472000001,-9.245647829600001,3.2025100912,-1.59995127,5.36791137,-1.97856927,,,
imu,497.504335,-0.6543791632000001,-9.2641905664,3.2084916192,-1.46536689,5.43520356,-1.90380017,,,
imu,497.512963,-0.6286585928,-9.292303748000002,3.2025100912,-1.622382,5.45763429,-1.94118472,,,
imu,497.521592,-0.6316493568000001,-9.291107442400001,3.195332257600001,-1.81678166,5.48754193,-2.03838455,,,
imu,497.53022,-0.6125084672000001,-9.288714831200002,3.217463911200001,-1.75696638,5.375388279999999,-1.97109236,,,
imu,497.538849,-0.6143029256000001,-9.284527761600001,3.2228472864,-1.77939711,5.41277283,-1.97856927,,,
imu,497.547478,-0.6071250920000001,-9.284527761600001,3.217463911200001,-1.85416621,5.45763429,-1.73183124,,,
imu,497.556106,-0.5999472584000001,-9.276751775200001,3.236006648,-1.71210492,5.330526819999999,-1.71687742,,,
imu,497.564735,-0.6137047728000001,-9.288714831200002,3.2372029536,-1.88407385,5.30061918,-1.73183124,,,
imu,497.573363,-0.6137047728000001,-9.3060612624,3.238399259200001,-1.97379677,5.30061918,-1.67949287,,,
imu,497.581992,-0.5999472584000001,-9.303070498400002,3.239595564800001,-2.09342733,5.375388279999999,-1.56733922,,,
imu,497.59062,-0.6101158560000001,-9.2917055952,3.2431844816,-2.21305789,5.308096089999999,-1.55986231,,,
imu,497.599249,-0.6166955368000001,-9.287518525600001,3.2348103424,-2.33268845,5.19594244,-1.7019236,,,
imu,497.607877,-0.5909749664,-9.267181330400001,3.235408495200001,-2.69905704,5.32304991,-1.9262309,,,
imu,497.616402,-0.5688433128,-9.266583177600001,3.2467733984,-2.90841052,5.27071154,-1.98604618,,,
imu,497.624926,-0.5544876456000001,-9.300079734400002,3.2551475376,-3.02056417,5.136127159999999,-2.12810747,,,
imu,497.633451,-0.5479079648000001,-9.2851259144,3.2407918704,-3.0429949,4.82209694,-2.31503022,,,
imu,497.641975,-0.5473098120000001,-9.281536997600002,3.2413900232,-3.08785636,4.672558739999999,-2.36736859,,,
imu,497.6505,-0.5610673264,-9.252227510400001,3.2372029536,-3.38693276,4.4931129,-2.27764567,,,
imu,497.659025,-0.5837971328000001,-9.2336847736,3.2318195784,-3.52899405,4.39591307,-2.28512258,,,
imu,497.667549,-0.5873860496000001,-9.246844135200002,3.228828814400001,-3.38693276,4.29871324,-2.03090764,,,
imu,497.676074,-0.6047324808000001,-9.2641905664,3.237801106400001,-3.24487147,4.126744309999999,-1.82155416,,,
imu,497.684598,-0.6184899952000001,-9.274957316800002,3.2204546752,-3.14767164,3.94729847,-1.76173888,,,
imu,497.693123,-0.6190881480000001,-9.265386872,3.212678688800001,-2.91588743,3.97720611,-1.68696978,,,
imu,497.701647,-0.6340419680000001,-9.228301398400001,3.209089772,-2.56447266,4.02954448,-1.7019236,,,
imu,497.710172,-0.6507902464,-9.244451524,3.2222491336,-2.42988828,4.02206757,-1.52995467,,,
imu,497.718697,-0.6202844536000002,-9.2378718432,3.2043045496,-2.16071952,4.26132869,-1.35050883,,,
imu,497.727221,-0.6286585928,-9.2480404408,3.214473147200001,-2.0709966,4.455728349999999,-1.34303192,,,
imu,497.735746,-0.6454068712000001,-9.2510312048,3.200715632800001,-2.17567334,4.4183438,-1.52995467,,,
imu,497.74427,-0.6555754688000001,-9.257012732800002,3.203108244,-2.0709966,4.530497449999999,-1.70940051,,,
imu,497.752795,-0.6645477608,-9.253423816000002,3.2252398976,-2.0709966,4.75480475,-1.84398489,,,
imu,497.761319,-0.6603606912000002,-9.267181330400001,3.2252398976,-2.16071952,4.97163514,-2.04586146,,,
imu,497.769844,-0.6663422192,-9.287518525600001,3.2264362032,-2.23548862,5.21837317,-2.04586146,,,
imu,497.778369,-0.6531828576,-9.304266804000001,3.2306232728,-2.20558098,5.4651112,-1.97109236,,,
imu,497.786893,-0.6406216488000002,-9.3210150824,3.247969704,-2.36259609,5.79409524,-1.86641562,,,
imu,497.795418,-0.6190881480000001,-9.309650179200002,3.256343843200001,-2.77382614,5.97354108,-1.86641562,,,
imu,497.803942,-0.6059287864000001,-9.2899111368,3.2485678568,-3.06542563,5.966064169999999,-2.0757691,,,
imu,497.812467,-0.5879842024,-9.285724067200002,3.2677087464,-3.18505619,5.86886434,-2.29259949,,,
imu,497.820866,-0.5855915912,-9.2552182744,3.2736902744,-3.21496383,5.77914142,-2.4496146,,,
imu,497.829264,-0.5814045216000001,-9.226506940000002,3.2832607192,-3.16262546,5.58474176,-2.53186061,,,
imu,497.837663,-0.5754229936,-9.178056563200002,3.280868108,-3.2673022,5.45015738,-2.57672207,,,
imu,497.846033,-0.5658525488000001,-9.145158159200001,3.272493968800001,-3.117764,5.420249739999999,-2.5991528,,,
imu,497.854432,-0.5610673264,-9.115848672,3.286849636000001,-2.60933412,5.42772665,-2.33746095,,,
imu,497.862831,-0.5634599376000001,-9.114652366400001,3.2940274696,-2.24296553,5.36791137,-2.13558438,,,
imu,497.87123,-0.5419264368000001,-9.1164468248,3.302999761600001,-1.89902767,5.27818845,-1.94866163,,,
imu,497.879628,-0.550300576,-9.1026893104,3.3203461928,-1.49527453,5.20341935,-1.83650798,,,
imu,497.888027,-0.5257763112000001,-9.093717018400001,3.332309248800001,-0.874691,5.1660348,-1.79164652,,,
imu,497.896426,-0.4970649768000001,-9.0883336432,3.3394870824,-0.30644584,5.068834969999999,-1.66453905,,,
imu,497.904824,-0.4785222400000001,-9.09192256,3.3353000128,0.11973803,4.96415823,-1.67201596,,,
imu,497.913223,-0.4767277816000001,-9.126017269600002,3.331112943200001,0.56087572,4.60526655,-1.79164652,,,
imu,497.921622,-0.4677554896000001,-9.1302043392,3.3131683592,1.05435178,4.2688056,-2.00847691,,,
imu,497.93002,-0.4617739616000001,-9.130802492,3.320944345600001,1.69736604,3.98468302,-2.23278421,,,
imu,497.938419,-0.4791203928000001,-9.1331951032,3.3251314152,2.14598064,3.820191,-2.47204533,,,
imu,497.946818,-0.4922797544,-9.153532298400002,3.3215424984,2.39271867,3.55849915,-2.65149117,,,
imu,497.955216,-0.4976631296000001,-9.191215924800002,3.318551734400001,2.84133327,3.47625314,-2.76364482,,,
imu,497.963615,-0.4886908376000001,-9.234881079200001,3.326327720800001,3.08059439,3.33419185,-2.90570611,,,
imu,497.972014,-0.4970649768000001,-9.2552182744,3.328122179200001,3.23013259,3.2220382,-3.13749032,,,
imu,496.583968,,,,,,,-80.1402788,185.604342,115.1810504
imu,496.6855,,,,,,,-83.7414028,185.7142068,117.964292
imu,496.787184,,,,,,,-89.8938316,186.3611884,115.8768608
imu,496.888625,,,,,,,-90.3210836,185.9949724,114.6805552
imu,496.990218,,,,,,,-90.2112188,186.0193868,114.7171768
imu,497.09178,,,,,,,-89.5886516,185.8973148,115.278708
imu,497.193343,,,,,,,-87.12279720000001,185.1648828,112.8006464
imu,497.294875,,,,,,,-89.796174,186.1292516,114.8758704
imu,497.980413,-0.5036446576000001,-9.3174261656,3.3251314152,3.08059439,3.11736146,-3.1225365,,,
imu,497.988811,-0.5150095608,-9.350324569600001,3.30479422,2.65441052,2.98277708,-3.33188998,,,
imu,497.99721,-0.5197947832,-9.382026668000002,3.2766810384,2.22074974,2.83323888,-3.35432071,,,
imu,498.005609,-0.5317578392000001,-9.3766432928,3.254549384800001,1.63755076,2.58650085,-3.41413599,,,
imu,498.014007,-0.5371412144000001,-9.332978138400001,3.2407918704,1.38333582,2.45191647,-3.44404363,,,
imu,498.022467,-0.5556839512000001,-9.336567055200002,3.2366048008,0.94967504,2.25751681,-3.40665908,,,
imu,498.030927,-0.5706377712,-9.302472345600002,3.2108842304,0.64312173,2.05564024,-3.39918217,,,
imu,498.039387,-0.5999472584000001,-9.288116678400002,3.196528563200001,0.53096808,2.01077878,-3.41413599,,,
imu,498.047846,-0.6376308848000001,-9.304266804000001,3.2055008552,0.56087572,1.8014253,-3.45899745,,,
imu,498.056306,-0.6501920936000001,-9.316229860000002,3.191145188000001,0.44872207,1.86871749,-3.43656672,,,
imu,498.064766,-0.6531828576,-9.305463109600002,3.206099008,0.25432241,2.13788625,-3.48142818,,,
imu,498.073225,-0.6747163584000001,-9.351520875200002,3.1875562712,0.11973803,2.1752708,-3.42908981,,,
imu,498.081685,-0.6836886504,-9.402962016000002,3.179780284800001,-0.2017691,2.36967046,-3.33188998,,,
imu,498.090145,-0.6998387760000001,-9.391597112800001,3.154657867200001,-0.63542988,2.50425484,-3.2720747,,,
imu,498.098605,-0.6914646368,-9.364082084000001,3.1600412424,-1.19619813,2.72856214,-3.28702852,,,
imu,498.107064,-0.6998387760000001,-9.3652783896,3.1654246176,-1.33825942,2.96782326,-3.07019813,,,
imu,498.115524,-0.7064184568,-9.3419504304,3.161237548,-1.70462801,3.18465365,-3.05524431,,,
imu,498.123984,-0.6950535536000001,-9.294098206400001,3.1624338536,-2.11585806,3.39400713,-2.92813684,,,
imu,498.132444,-0.6968480120000001,-9.260601649600002,3.1767895208,-2.15324261,3.5211146,-2.83093701,,,
imu,498.140903,-0.6842868032,-9.2617979552,3.189350729600001,-2.37754991,3.73794499,-2.88327538,,,
imu,498.149363,-0.6693329832000001,-9.2486385936,3.188154424,-2.16071952,3.87252937,-2.93561375,,,
imu,498.157823,-0.684884956,-9.222319870400002,3.2037063968,-2.10838115,3.98468302,-3.04029049,,,
imu,498.166282,-0.6657440664000001,-9.228301398400001,3.2282306616,-2.05604278,3.91739083,-3.21973633,,,
imu,498.174742,-0.6567717744000001,-9.239068148800001,3.219856522400001,-1.91398149,3.86505246,-3.30198234,,,
imu,498.183202,-0.663949608,-9.2510312048,3.2407918704,-1.61490509,3.85757555,-3.39918217,,,
imu,498.191662,-0.6603606912000002,-9.258209038400002,3.249166009600001,-1.57752054,3.71551426,-3.42908981,,,
imu,498.200121,-0.6603606912000002,-9.246245982400001,3.249166009600001,-1.7719202,3.55849915,-3.50385891,,,
imu,498.208581,-0.6765108168000001,-9.2271050928,3.25993276,-1.81678166,3.4463455,-3.50385891,,,
imu,498.217041,-0.6992406232000001,-9.2133475784,3.2551475376,-1.68967419,3.47625314,-3.48142818,,,
imu,498.225502,-0.7123999848000001,-9.194206688800001,3.2593346072,-1.80930475,3.41643786,-3.42908981,,,
imu,498.233963,-0.7327371800000001,-9.203777133600001,3.253951232,-1.59995127,3.34914567,-3.30198234,,,
imu,498.242424,-0.7572614448000001,-9.2127494256,3.2653161352,-1.4728438,3.38653022,-3.02533667,,,
imu,498.250885,-0.7590559032000002,-9.223516176,3.2575401488,-1.15881358,3.51363769,-2.90570611,,,
imu,498.259346,-0.7656355840000001,-9.2486385936,3.253951232,-1.06909066,3.72299117,-2.58419898,,,
imu,498.267807,-0.7494854584000001,-9.280340692000001,3.279671802400001,-1.18872122,3.93982156,-2.27016876,,,
imu,498.276268,-0.7375224024000001,-9.322211388000001,3.283858872000001,-1.18124431,4.01459066,-2.15801511,,,
imu,498.284729,-0.7285501104000001,-9.307257568,3.274288427200001,-1.20367504,4.23889796,-2.16549202,,,
imu,498.29319,-0.7261574992000001,-9.304266804000001,3.279671802400001,-1.31582869,4.40338998,-2.24026112,,,
imu,498.301651,-0.7064184568,-9.297687123200001,3.268306899200001,-1.45041307,4.51554363,-2.2253073,,,
imu,498.310112,-0.6884738728,-9.282135150400002,3.274288427200001,-1.81678166,4.68003565,-2.43466078,,,
imu,498.318573,-0.6699311360000001,-9.2588071912,3.2802699552,-2.04108896,4.84452767,-2.56924516,,,
imu,498.327034,-0.6543791632000001,-9.253423816000002,3.271895816,-2.1457657,4.88938913,-2.66644499,,,
imu,498.335495,-0.6346401208000001,-9.2300958568,3.2736902744,-2.18315025,4.88191222,-2.69635263,,,
imu,498.343956,-0.6292567456000001,-9.2091605088,3.2671105936,-2.26539626,4.84452767,-2.8234601,,,
imu,498.352417,-0.6286585928,-9.1965993,3.268306899200001,-2.24296553,4.74732784,-2.88327538,,,
imu,498.360878,-0.6250696760000001,-9.2103568144,3.265914288000001,-1.90650458,4.61274346,-2.9729983,,,
imu,498.369339,-0.6137047728000001,-9.2510312048,3.265914288000001,-1.74201256,4.29871324,-2.90570611,,,
imu,498.3778,-0.6190881480000001,-9.2641905664,3.262923524000001,-1.94388913,4.15665195,-2.80850628,,,
imu,498.386261,-0.631051204,-9.263592413600001,3.2617272184,-1.86912003,3.95477538,-2.55429134,,,
imu,498.394722,-0.6328456624000001,-9.2659850248,3.256941996000001,-1.85416621,3.86505246,-2.50195297,,,
imu,498.403183,-0.6400234960000001,-9.256414580000001,3.2665124408,-1.7719202,3.99215993,-2.30755331,,,
imu,498.411644,-0.6561736216000001,-9.250433052000002,3.256343843200001,-1.78687402,3.91739083,-1.99352309,,,
imu,498.420105,-0.6507902464,-9.254021968800002,3.250960468,-1.80930475,3.99963684,-1.76173888,,,
imu,498.42893,-0.6184899952000001,-9.245647829600001,3.2443807872,-1.57752054,4.05945212,-1.79164652,,,
imu,498.437755,-0.6017417168000001,-9.233086620800002,3.249166009600001,-1.56256672,3.84262173,-2.18044584,,,
imu,498.446579,-0.5622636320000001,-9.2277032456,3.2467733984,-1.36816706,3.5958837,-2.44213769,,,
imu,498.455404,-0.5449172008000001,-9.211553120000001,3.2467733984,-1.1737674,3.39400713,-2.65896808,,,
imu,498.464229,-0.4970649768000001,-9.202580828,3.2455770928,-1.04665993,2.9977309,-2.748691,,,
imu,498.473054,-0.4294737104000001,-9.1882251608,3.2437826344,-0.89712173,2.42200883,-2.58419898,,,
imu,498.481879,-0.3134320672,-9.178056563200002,3.2413900232,-0.65786061,1.56964109,-2.55429134,,,
imu,498.490704,-0.2207183832,-9.154728604,3.2264362032,-0.22419983,0.21632038,-2.00847691,,,
imu,498.499529,-0.1908107432,-9.146952617600002,3.2515586208,0.18703022,-1.54075347,-1.0290017,,,
imu,498.508354,-0.2189239248,-9.153532298400002,3.2647179824,0.38142988,-3.67167282,-0.1018648599999998,,,
imu,498.517179,-0.2542149400000001,-9.170280576800002,3.244978940000001,0.63564482,-5.76520762,0.8177950699999998,,,
imu,498.526003,-0.2745521352,-9.173271340800001,3.2515586208,0.8749059399999999,-7.64191203,1.99914685,,,
imu,498.534828,-0.2625890792,-9.173869493600002,3.241988176,1.10669015,-9.45880116,3.28517537,,,
imu,498.543653,-0.2733558296,-9.1918140776,3.2246417448,1.31604363,-11.23082883,4.466527149999999,,,
imu,498.552478,-0.3170209840000001,-9.1965993,3.210286077600001,1.62259694,-12.84584139,5.535725279999999,,,
imu,498.561303,-0.376836264,-9.198991911200002,3.2168657584,1.82447351,-14.3487003,6.47033903,,,
imu,498.570128,-0.4366515440000001,-9.212151272800002,3.228828814400001,2.13102682,-15.52257517,7.180645480000001,,,
imu,498.578953,-0.4773259344000001,-9.2312921624,3.227034356,2.30299575,-16.52448111,7.704029180000001,,,
imu,498.587778,-0.5616654792000001,-9.220525412,3.2401937176,2.57964142,-17.28712593,8.13021305,,,
imu,498.596602,-0.6322475096000001,-9.2133475784,3.230025120000001,2.84881018,-17.68340216,8.21993597,,,
imu,498.605427,-0.7106055264000001,-9.1960011472,3.231221425600001,3.17031731,-17.79555581,7.97319794,,,
imu,498.614252,-0.8087025856000001,-9.1750657992,3.239595564800001,3.34976315,-17.66097143,7.47972188,,,
imu,498.623077,-0.8691160184000001,-9.203178980800002,3.2437826344,3.65631646,-16.92075734,7.51710643,,,
imu,498.631543,-0.903210728,-9.221721717600001,3.2413900232,3.73856247,-15.82912848,7.262891489999999,,,
imu,498.640009,-0.9223516176000001,-9.240264454400002,3.268905052,3.93296213,-14.96928383,6.4479083,,,
imu,498.648475,-0.9396980488000001,-9.287518525600001,3.260530912800001,3.9853005,-13.84774733,5.520771460000001,,,
imu,498.656941,-0.9528574104000002,-9.363483931200001,3.2575401488,3.70865483,-12.61405718,4.638496079999999,,,
imu,498.665408,-0.9612315496000001,-9.441841948000002,3.241988176,3.22265568,-11.2831672,3.82351289,,,
imu,498.673874,-0.963026008,-9.4663662128,3.217463911200001,2.63197979,-9.997138679999999,3.13563717,,,
imu,498.68234,-0.9468758824000001,-9.477132963200003,3.1947341048,1.97401171,-8.5167105,2.61973038,,,
imu,498.690806,-0.9462777296000001,-9.4663662128,3.1833692016,1.15155161,-6.99142086,2.11877741,,,
imu,498.699272,-0.9444832712000001,-9.444832712,3.1714061456,0.64312173,-5.443700489999999,1.63277826,,,
imu,498.707738,-0.9349128264000002,-9.4107380024,3.15525602,-0.03727708,-4.07542596,1.08696383,,,
imu,498.716204,-0.9193608536000001,-9.368269153600002,3.137311436000001,-0.6503837,-2.55013632,0.5187186700000002,,,
imu,498.72467,-0.9050051864,-9.322809540800002,3.126544685600001,-0.89712173,-1.15943106,-0.1093417699999999,,,
imu,498.733136,-0.8870606024000001,-9.283331456,3.1205631576,-1.12142903,0.1041667299999998,-0.8420789499999999,,,
imu,498.741602,-0.8296379336000002,-9.260003496800001,3.116376088,-0.9644139199999999,1.2780416,-1.45518557,,,
imu,498.750068,-0.8015247520000001,-9.256414580000001,3.1241520744,-1.08404448,2.46687029,-2.09819983,,,
imu,498.758535,-0.7913561544000001,-9.240264454400002,3.1247502272,-1.01675229,3.43886859,-2.64401426,,,
imu,498.767001,-0.7608503616000001,-9.236077384800002,3.1349188248,-0.82982954,4.27628251,-3.10010577,,,
imu,498.775467,-0.7423076248,-9.242657065600001,3.137311436000001,-0.81487572,5.14360407,-3.36927453,,,
imu,498.783933,-0.7135962904,-9.253423816000002,3.138507741600001,-0.63542988,5.98101799,-3.66835093,,,
imu,498.792399,-0.6872775672000001,-9.283331456,3.154059714400001,-0.5681376899999999,6.556740059999999,-3.90761205,,,
imu,497.396513,,,,,,,-87.69653559999999,185.8240716,112.3856016
imu,497.498106,,,,,,,-89.8327956,186.5076748,114.7049696
imu,497.599668,,,,,,,-89.77175960000001,186.336774,114.5096544
imu,497.701231,,,,,,,-90.91923639999999,186.641954,114.546276
imu,497.802793,,,,,,,-90.7849572,186.4344316,114.5340688
imu,497.904417,,,,,,,-90.49198439999999,187.0325844,113.9237088
imu,498.00604,,,,,,,-90.4309484,186.4100172,114.668348
imu,498.107481,,,,,,,-89.1003636,186.4100172,114.2044744
imu,498.800865,-0.6495939408000001,-9.3126409432,3.154657867200001,-0.47093786,7.14741595,-3.98985806,,,
imu,498.809331,-0.6304530512000001,-9.304864956800001,3.1420966584,-0.5307531400000001,7.49883072,-4.124442439999999,,,
imu,498.817797,-0.6172936896000001,-9.391597112800001,3.195332257600001,-0.82235263,7.61098437,-4.22911918,,,
imu,498.826263,-0.6256678288,-9.355109792000002,3.166022770400001,-1.26349032,7.7829533,-4.453426479999999,,,
imu,498.834746,-0.6298548984000001,-9.373652528800001,3.1839673544,-1.33078251,7.87267622,-4.59548777,,,
imu,498.843228,-0.6633514552,-9.3754469872,3.166022770400001,-1.5476129,7.954922229999999,-4.70764142,,,
imu,498.851711,-0.6783052752000002,-9.349128264,3.1570504784,-2.07847351,8.11193734,-4.98428709,,,
imu,498.860194,-0.7303445688000001,-9.3443430416,3.1570504784,-2.39250373,8.40353683,-5.350655679999999,,,
imu,498.868676,-0.7506817640000001,-9.3210150824,3.1516671032,-2.50465738,8.78485924,-5.612347529999999,,,
imu,498.877159,-0.7787949456000002,-9.3174261656,3.1618357008,-2.6691494,9.300766029999998,-5.8142241,,,
imu,498.885642,-0.8140859608000002,-9.301276040000001,3.170807992800001,-2.69158013,9.94378029,-5.896470109999999,,,
imu,498.894124,-0.8033192104000001,-9.282135150400002,3.1767895208,-3.16262546,10.59427146,-6.02357758,,,
imu,498.902607,-0.8212637944000001,-9.289312984,3.1714061456,-3.20748692,11.30457791,-6.17311578,,,
imu,498.911089,-0.8463862120000001,-9.280938844800001,3.1714061456,-2.99065653,12.00740745,-6.15068505,,,
imu,498.919572,-0.8122915024000001,-9.298883428800002,3.1714061456,-3.01308726,12.82239064,-5.8142241,,,
imu,498.928055,-0.7811875568000001,-9.306659415200002,3.1624338536,-3.1925331,13.49531254,-5.99366994,,,
imu,498.936625,-0.7746078760000001,-9.3138372488,3.1648264648,-3.37197894,14.07103461,-6.16563887,,,
imu,498.945107,-0.8063099744000001,-9.3545116392,3.198921174400001,-3.58880933,14.48226466,-6.34508471,,,
imu,498.95359,-0.7865709320000001,-9.3592968616,3.2055008552,-3.902839549999999,15.00564836,-6.27779252,,,
imu,498.962073,-0.7668318896,-9.3838211264,3.1977248688,-4.3888387,15.58137043,-6.225454149999999,,,
imu,498.970555,-0.7506817640000001,-9.377241445600001,3.2025100912,-4.66548437,15.82063155,-6.031054489999999,,,
imu,498.979038,-0.7351297912000001,-9.324005846400002,3.1905470352,-5.07671442,16.05989267,-5.91142393,,,
imu,498.987521,-0.7118018320000001,-9.301874192800001,3.1917433408,-5.196344979999999,16.22438469,-5.784316459999999,,,
imu,498.996003,-0.6711274416,-9.312042790400001,3.194135952000001,-5.271114079999999,16.33653834,-5.59739371,,,
imu,499.004486,-0.6304530512000001,-9.3108464848,3.2037063968,-5.674867219999999,16.25429233,-5.806747189999999,,,
imu,499.012968,-0.6160973840000001,-9.250433052000002,3.2246417448,-5.83188233,15.92530829,-5.874039379999999,,,
imu,499.021451,-0.5981528,-9.2127494256,3.2407918704,-5.742159409999999,15.55146279,-5.79179337,,,
imu,499.029934,-0.5778156048000002,-9.225908787200002,3.253951232,-5.59262121,15.31220167,-5.49271697,,,
imu,499.038387,-0.5676470072,-9.2588071912,3.2503623152,-5.46551374,14.99817145,-5.328224949999999,,,
imu,499.04684,-0.5419264368000001,-9.274359164000002,3.270101357600001,-5.54775975,14.5869414,-4.976810179999999,,,
imu,499.055294,-0.5461135064000001,-9.273162858400001,3.3095794424,-5.458036829999999,14.15328062,-4.737549059999999,,,
imu,499.063747,-0.5251781584,-9.2851259144,3.318551734400001,-5.47299065,13.73457366,-4.47585721,,,
imu,499.0722,-0.5138132552000001,-9.2342829264,3.3083831368,-5.84683615,13.25605142,-4.13191935,,,
imu,499.080654,-0.5090280328000001,-9.2480404408,3.344870457600001,-5.936559069999999,12.80743682,-3.81041222,,,
imu,499.089107,-0.4970649768000001,-9.2378718432,3.3370944712,-6.06366654,12.44106823,-3.45152054,,,
imu,499.097561,-0.5036446576000001,-9.2133475784,3.3508519856,-6.04123581,11.83543852,-3.20478251,,,
imu,499.106014,-0.4946723656000001,-9.181047327200002,3.3699928752,-6.19825092,11.18494735,-3.24216706,,,
imu,499.114467,-0.5263744640000001,-9.1511396872,3.377768861600001,-6.243112379999999,10.64660983,-3.21225942,,,
imu,499.122921,-0.5221873944000001,-9.178056563200002,3.37956332,-6.243112379999999,10.07088776,-3.15992105,,,
imu,499.131374,-0.5473098120000001,-9.1583175208,3.37956332,-6.071143449999999,9.61479625,-3.04029049,,,
imu,499.139827,-0.5646562432000001,-9.1409710896,3.3993023624,-5.80197469,9.233473839999998,-2.90570611,,,
imu,499.148281,-0.6095177032000001,-9.1445600064,3.412461724000001,-5.51785211,8.97178199,-2.56176825,,,
imu,499.156734,-0.648995788,-9.151737840000001,3.406480196,-4.702868919999999,8.84467452,-2.24773803,,,
imu,499.165188,-0.6711274416,-9.143961853600002,3.402891279200001,-4.33650033,8.86710525,-1.94118472,,,
imu,499.173641,-0.6723237472000001,-9.141569242400001,3.4112654184,-3.82059354,9.076458729999999,-1.61967759,,,
imu,499.182094,-0.6621551496,-9.181047327200002,3.428611849600001,-3.67105534,9.233473839999998,-1.35050883,,,
imu,499.190548,-0.6525847048000001,-9.209758661600002,3.439976752800001,-3.68600916,9.278335299999998,-1.27573973,,,
imu,499.199001,-0.6286585928,-9.2133475784,3.447154586400001,-3.91779337,9.39796586,-1.39537029,,,
imu,499.207454,-0.6184899952000001,-9.204973439200002,3.4531361144,-4.254254319999999,9.48768878,-1.48509321,,,
imu,499.215908,-0.5867878968000001,-9.194804841600002,3.451341656,-4.48603853,9.40544277,-1.73930815,,,
imu,499.224361,-0.5879842024,-9.172673188000001,3.449547197600001,-4.56828454,9.37553513,-1.87389253,,,
imu,499.232814,-0.58319898,-9.132596950400002,3.445360128,-4.725299649999999,9.203566200000001,-2.06829219,,,
imu,499.241625,-0.58319898,-9.115848672,3.4525379616,-4.65053055,9.36805822,-2.15801511,,,
imu,499.250435,-0.56824516,-9.1134560608,3.4668936288,-4.34397724,9.34562749,-2.18792275,,,
imu,499.259245,-0.5544876456000001,-9.136185867200002,3.4830437544,-4.299115779999999,9.323196759999998,-2.28512258,,,
imu,499.268056,-0.5520950344000001,-9.1642990488,3.493212352,-4.00751629,9.31571985,-2.3748455,,,
imu,499.276866,-0.5395338256000001,-9.1750657992,3.511156936,-3.96265483,9.10636637,-2.44213769,,,
imu,499.285676,-0.5437208952000001,-9.176860257600001,3.532690436800001,-3.865455,9.031597269999999,-2.63653735,,,
imu,499.294487,-0.5389356728,-9.197795605600001,3.5452516456,-3.80563972,9.009166539999999,-2.66644499,,,
imu,499.303297,-0.535346756,-9.225310634400001,3.546447951200001,-4.2393005,8.91944362,-2.6739219,,,
imu,499.312107,-0.5293652280000001,-9.228301398400001,3.5279052144,-4.45613089,8.99421272,-2.63653735,,,
imu,499.320917,-0.5209910888,-9.215142036800001,3.5243162976,-4.52342308,9.02412036,-2.56176825,,,
imu,499.329728,-0.5048409632,-9.200786369600001,3.553027632,-4.71034583,9.10636637,-2.49447606,,,
imu,499.338538,-0.5012520464000001,-9.1894214664,3.550036868,-5.054283689999999,9.08393564,-2.61410662,,,
imu,499.347348,-0.4916816016,-9.170280576800002,3.526110756,-5.07671442,9.06150491,-2.56176825,,,
imu,499.356159,-0.4851019208000001,-9.134391408800001,3.5302978256,-5.054283689999999,8.92692053,-2.48699915,,,
imu,499.364969,-0.4629702672000001,-9.132596950400002,3.551831326400001,-4.82997639,8.82224379,-2.46456842,,,
imu,499.373779,-0.4420349192,-9.110465296800001,3.5524294792,-4.54585381,8.6054134,-2.68139881,,,
imu,499.382589,-0.4432312248,-9.096707782400001,3.5554202432,-4.53089999,8.26147554,-2.77112173,,,
imu,499.3914,-0.4408386136,-9.1026893104,3.5566165488,-4.14210067,7.94744532,-2.81598319,,,
imu,499.40021,-0.4504090584,-9.112857908,3.5536257848,-3.91031646,7.66332274,-2.99542903,,,
imu,499.40902,-0.4623721144,-9.1224283528,3.572168521600001,-4.05237775,7.43153853,-3.0477674,,,
imu,499.417831,-0.4581850448000001,-9.143961853600002,3.597290939200001,-4.0149932,7.2595696,-2.92065993,,,
imu,499.426641,-0.4258847936,-9.176860257600001,3.5805426608,-4.02994702,7.244615779999999,-2.80850628,,,
imu,499.435451,-0.4809148512,-9.1708787296,3.5715703688,-4.24677741,6.9604932,-3.01785976,,,
imu,499.443926,-0.4647647256,-9.178056563200002,3.585926036,-4.583238359999999,7.07264685,-2.56176825,,,
imu,499.452401,-0.4258847936,-9.175663952,3.587720494400001,-4.725299649999999,6.98292393,-2.58419898,,,
imu,499.460876,-0.430670016,-9.152934145600002,3.5841315776,-4.6879151,6.72123208,-2.83841392,,,
imu,499.469351,-0.4456238360000001,-9.129606186400002,3.583533424800001,-4.56828454,6.50440169,-2.90570611,,,
imu,499.477826,-0.4498109056,-9.1272135752,3.5984872448,-4.62062291,6.24270984,-3.13749032,,,
imu,499.486301,-0.5000557408,-9.108670838400002,3.6032724672,-4.2393005,6.04083327,-3.31693616,,,
imu,499.494776,-0.535346756,-9.087137337600002,3.616431828800001,-3.96265483,5.98101799,-3.69078166,,,
imu,499.503251,-0.6143029256000001,-9.086539184800001,3.637367176800001,-3.865455,5.966064169999999,-4.102011709999999,,,
imu,499.511726,-0.7285501104000001,-9.112857908,3.660695136000001,-3.82807045,6.14551001,-4.70016451,,,
imu,499.520201,-0.8242545584000001,-9.0996985464,3.634974565600001,-3.61124006,6.89320101,-5.33570186,,,
imu,499.528676,-0.8918458248000001,-9.102091157600002,3.654115455200001,-3.45422495,8.12689116,-6.113300499999999,,,
imu,499.537151,-0.9570444800000002,-9.100894852000001,3.6690692752,-3.53647096,9.58488861,-6.995575880000001,,,
imu,499.545626,-0.9965225648000002,-9.1014930048,3.672658192000001,-3.45422495,11.31205482,-7.96009727,,,
imu,499.554101,-1.0515526224,-9.1499433816,3.6959861512,-3.36450203,13.50278945,-9.05172613,,,
imu,499.562576,-1.1311069448,-9.139176631200002,3.687612012,-3.70843989,15.61127807,-10.3003701,,,
imu,499.571051,-1.1646035016,-9.073977976,3.672658192000001,-3.7159168,18.09361219,-11.81070592,,,
imu,499.579526,-1.2100631144,-9.087137337600002,3.692995387200001,-3.68600916,20.7927767,-13.5902105,,,
imu,499.588001,-1.2154464896,-9.058426003200001,3.695387998400001,-3.75330135,23.61157177,-15.42205345,,,
imu,499.596476,-1.1969037528,-9.049453711200002,3.6864157064,-3.46917877,26.42288993,-16.99968146,,,
imu,499.604951,-1.1538367512,-9.1164468248,3.7252956384,-3.10281018,29.15943899,-18.71189385,,,
imu,499.613426,-1.0964140824,-9.119437588800002,3.70854736,-3.36450203,31.43241963,-20.55869062,,,
imu,498.209013,,,,,,,-90.345498,186.4466388,114.2655104
imu,498.310636,,,,,,,-87.81860759999999,185.3846124,112.2024936
imu,498.412199,,,,,,,-89.97928200000001,186.7762332,114.057988
imu,498.5137,,,,,,,-88.42896760000001,185.543306,112.5687096
imu,498.615263,,,,,,,-89.613066,186.4954676,115.5106448
imu,498.716856,,,,,,,-88.45338199999999,186.5442964,115.1810504
imu,498.818388,,,,,,,-87.5622564,186.9959628,115.3275368
imu,498.919981,,,,,,,-88.19703080000001,186.8372692,115.339744
imu,499.621901,-1.0365988024,-9.1062782272,3.709743665600001,-3.58880933,33.45118533,-22.15874936,,,
imu,499.630376,-0.9456795768000001,-9.102091157600002,3.721108568800001,-3.64862461,35.10358244,-23.42982406,,,
imu,499.638851,-0.8786864632000002,-9.085941032000001,3.7360623888,-3.7159168,36.32979568,-24.19994579,,,
imu,499.647336,-0.8009265992000001,-9.097305935200001,3.762979264800001,-3.64862461,37.1672096,-24.64856039,,,
imu,499.655821,-0.7249611936,-9.121232047200001,3.779129390400001,-3.89536264,37.48123982,-24.7308064,,,
imu,499.664306,-0.6442105656,-9.062613072800001,3.7617829592,-4.05237775,37.34665544,-24.8055755,,,
imu,499.672792,-0.5688433128,-9.008181168000002,3.7731478624,-4.18696213,36.75597955,-24.71585258,,,
imu,499.681277,-0.4803166984,-8.969899388800002,3.7875035296,-4.00003938,35.77650434,-24.40182236,,,
imu,499.689762,-0.4109309736,-8.940589901600001,3.7707552512,-3.39440967,34.42318363,-23.89339248,,,
imu,499.698247,-0.3690602776000001,-8.8903450664,3.7641755704,-3.03551799,32.76330961,-22.99616328,,,
imu,499.706732,-0.3241988176,-8.840698384000001,3.762979264800001,-2.25044244,30.83426683,-21.63536566,,,
imu,499.715217,-0.31403022,-8.8329223976,3.780923848800001,-1.77939711,28.62857838,-20.19979894,,,
imu,499.723702,-0.2913004136,-8.8562503568,3.795279516000001,-1.10647521,26.28830555,-18.48758655,,,
imu,499.732188,-0.2781410520000001,-8.8981210528,3.7875035296,-0.29896893,23.92560199,-16.67069742,,,
imu,499.740673,-0.3032634696000001,-8.936402832,3.8006628912,0.33656842,21.36849877,-14.74165464,,,
imu,499.749158,-0.3265914288,-8.9531511104,3.7970739744,0.97958268,18.89364156,-12.71541203,,,
imu,499.757643,-0.3433397072,-8.9884421256,3.801261044,1.51044329,16.63561474,-10.72655397,,,
imu,499.766128,-0.3882011672000001,-9.0339017384,3.812027794400001,1.98148862,14.22804972,-8.939572479999999,,,
imu,499.774613,-0.4222958768,-9.073977976,3.8108314888,2.20579592,12.07469964,-7.10772953,,,
imu,499.783099,-0.43366078,-9.0805576568,3.78331646,2.22074974,10.04098012,-5.545055339999999,,,
imu,499.791584,-0.4791203928000001,-9.111661602400002,3.804849960800001,2.17588828,8.11193734,-4.341272829999999,,,
imu,499.800069,-0.5168040192000001,-9.108072685600002,3.7737460152,1.92915025,6.205325289999999,-3.21225942,,,
imu,499.808554,-0.5383375200000001,-9.042275877600002,3.7366605416,1.90671952,4.44825144,-2.09072292,,,
imu,499.817039,-0.5939657304000001,-9.059024156000001,3.737258694400001,2.19831901,2.96034635,-1.05143243,,,
imu,499.825524,-0.6663422192,-9.029116516000002,3.712136276800001,2.05625772,1.71917929,-0.17663396,,,
imu,499.83401,-0.7219704296,-8.998610723200002,3.7001732208,2.17588828,0.8294269999999999,0.5785339500000002,,,
imu,499.842495,-0.7829820152,-9.023134988,3.716323346400001,2.35533412,0.2013665599999999,1.2140713,,,
imu,499.850938,-0.8266471696000001,-9.0267239048,3.7007713736,2.81142563,-0.08275602000000015,1.61782444,,,
imu,499.859381,-0.8655271016000001,-9.0638093784,3.6983787624,3.0133022,-0.2846325900000002,1.85708556,,,
imu,499.867824,-0.8906495192000001,-9.074576128800002,3.6780415672,3.11797894,-0.17247894,1.9617623,,,
imu,499.876267,-0.8990236584000001,-9.076370587200001,3.662489594400001,3.22265568,-0.09770984000000027,1.9617623,,,
imu,499.884711,-0.8990236584000001,-9.085941032000001,3.6475357744,3.20770186,0.02939763000000006,1.75240882,,,
imu,499.893154,-0.8942384360000002,-9.094913324,3.644545010400001,3.40210152,0.27613566,1.61782444,,,
imu,499.901597,-0.8840698384000001,-9.121232047200001,3.6283948848,3.40957843,0.4481045899999998,1.45333242,,,
imu,499.91004,-0.8786864632000002,-9.1302043392,3.608655842400001,3.589024269999999,0.64250425,1.39351714,,,
imu,499.918483,-0.8320305448000002,-9.121830200000002,3.5871223416,3.7609932,0.76213481,1.42342478,,,
imu,499.926927,-0.8194693360000002,-9.136185867200002,3.597290939200001,4.00773123,0.78456554,1.43090169,,,
imu,499.93537,-0.8278434752000001,-9.169084271200001,3.5990853976,3.97782359,0.58268897,1.47576315,,,
imu,499.943813,-0.8158804192000001,-9.180449174400001,3.5781500496,3.7609932,0.3434278499999999,1.46828624,,,
imu,499.952256,-0.8128896552000001,-9.187028855200001,3.563196229600001,3.55163972,0.21632038,1.49819388,,,
imu,499.960699,-0.7847764736,-9.183439938400001,3.554223937600001,3.3871477,0.1191205499999999,1.78231646,,,
imu,499.969143,-0.7506817640000001,-9.1583175208,3.550036868,3.140409669999999,0.1265974599999997,1.93185466,,,
imu,499.977586,-0.7309427216000001,-9.152934145600002,3.547046104000001,3.00582529,-0.0603252900000002,2.38046926,,,
imu,499.986029,-0.6771089696000001,-9.141569242400001,3.542260881600001,2.78151799,-0.4042631500000002,2.76926858,,,
imu,499.994472,-0.6543791632000001,-9.139774784,3.538073812,2.72170271,-0.68090882,3.12068335,,,
imu,500.002915,-0.6352382736000001,-9.134989561600001,3.5344848952,2.78151799,-1.24915398,3.36742138,,,
imu,500.011359,-0.6035361752000001,-9.138578478400001,3.5434571872,2.92357928,-1.80992223,3.6814516,,,
imu,500.019802,-0.5694414656000001,-9.1122597552,3.5476442568,3.00582529,-2.3856443,4.01791255,,,
imu,500.02814,-0.5395338256000001,-9.09192256,3.5536257848,3.282470959999999,-3.06604311,4.421665689999999,,,
imu,500.036584,-0.5114206440000001,-9.0614167672,3.5763555912,3.52920899,-3.86607248,4.71326518,,,
imu,500.045027,-0.4868963792000001,-9.095511476800002,3.5482424096,3.79090084,-4.7782555,4.93757248,,,
imu,500.053661,-0.4557924336,-9.072183517600001,3.564392535200001,3.94043904,-5.735299980000001,5.251602699999999,,,
imu,500.062295,-0.4390441552000001,-9.097305935200001,3.5362793536,4.30680763,-6.69982137,5.692740389999999,,,
imu,500.070929,-0.4270810992000001,-9.151737840000001,3.567981452000001,4.47129965,-7.8437886,5.954432239999999,,,
imu,500.079563,-0.4294737104000001,-9.0925207128,3.590711258400001,4.40400746,-8.82326381,6.27593937,,,
imu,499.021427,,,,,,,-88.8073908,186.5320892,115.4496088
imu,499.12302,,,,,,,-89.40554359999999,186.3123596,114.8270416
imu,499.224705,,,,,,,-87.0983828,186.3001524,113.6673576
imu,499.326145,,,,,,,-89.796174,187.679566,113.6795648
imu,499.427707,,,,,,,-87.69653559999999,186.336774,111.7752416
imu,499.529239,,,,,,,-90.0525252,187.31335,113.3377632
imu,499.630802,,,,,,,-90.2478404,187.0447916,110.5056928
imu,499.732364,,,,,,,-92.115542,187.3255572,112.3856016
imu,499.833927,,,,,,,-94.25180200000001,187.0814132,112.1170432
imu,499.935489,,,,,,,-94.14193719999999,186.5931252,111.8240704
imu,500.037052,,,,,,,-93.71468519999999,186.8372692,112.1414576
