Type,Timestamp,Data Accelerometer X,Data Accelerometer Y,Data Accelerometer Z,Data Gyroscope X,Data Gyroscope Y,Data Gyroscope Z,Data Magnetometer X,Data Magnetometer Y,Data Magnetometer Z
imu,326.269365,-0.3983697648000001,-9.635045302400002,2.736549060000001,4.10493106,0.27613566,-4.89456417,,,
imu,326.277958,-0.3965753064,-9.636241608,2.7317638376,3.90305449,0.5153967799999997,-4.363703559999999,,,
imu,326.286551,-0.4049494456000001,-9.661364025600001,2.7353527544,3.66379337,0.4555814999999996,-4.169303899999999,,,
imu,326.295145,-0.4031549872,-9.636241608,2.7048469616,3.40210152,0.3733354899999997,-4.11696553,,,
imu,326.303738,-0.4228940296000001,-9.631456385600002,2.7239878512,2.97591765,0.3733354899999997,-4.102011709999999,,,
imu,326.312331,-0.4390441552000001,-9.6218859408,2.713221100800001,2.69927198,0.2611818399999999,-4.28145755,,,
imu,326.320924,-0.4617739616000001,-9.627867468800002,2.6863042248,2.43758013,0.3135202100000001,-4.34874974,,,
imu,326.329517,-0.4528016696000001,-9.627867468800002,2.6892949888,2.28804193,0.3882893099999998,-3.86275059,,,
imu,326.338111,-0.4462219888000001,-9.6218859408,2.706043267200001,1.98896553,0.33595094,-3.54124346,,,
imu,326.346704,-0.4444275304,-9.620689635200002,2.7078377256,1.65998149,0.2836125699999998,-3.5711511,,,
imu,326.355297,-0.4480164472000001,-9.5985579816,2.6916876,1.38333582,-0.01546383000000029,-3.75059694,,,
imu,326.36389,-0.4647647256,-9.5842023144,2.692285752800001,1.35342818,-0.01546383000000029,-3.45152054,,,
imu,326.372484,-0.4743351704000001,-9.536948243200001,2.6940802112,1.19641307,0.1415512799999998,-2.91318302,,,
imu,326.381077,-0.4958686712000001,-9.523190728800001,2.6928839056,1.10669015,0.1415512799999998,-2.59167589,,,
imu,326.38967,-0.4982612824000001,-9.534555632000002,2.682715308000001,1.27118217,0.27613566,-2.21035348,,,
imu,326.398263,-0.5006538936,-9.558481744000002,2.673743016,1.54035093,0.8219500899999996,-1.81407725,,,
imu,326.406857,-0.4946723656000001,-9.558481744000002,2.6540039736,1.55530475,1.13598031,-1.47013939,,,
imu,326.41545,-0.4611758088,-9.539939007200001,2.634264931200001,1.68241222,1.47991817,-1.31312428,,,
imu,326.424043,-0.4145198904,-9.549509452,2.6270870976,1.7422275,1.74161002,-1.24583209,,,
imu,326.432636,-0.3953790008,-9.558481744000002,2.6073480552,1.98896553,2.01825569,-1.14863226,,,
imu,326.441313,-0.3666676664,-9.571042952800001,2.58701086,2.02635008,2.13040934,-1.28321664,,,
imu,326.449989,-0.3313766512,-9.5698466472,2.5732533456,2.13102682,2.24256299,-1.41032411,,,
imu,326.458665,-0.2936930248,-9.561472508000001,2.5864127072,1.91419643,2.30985518,-1.61220068,,,
imu,326.467342,-0.2524204816,-9.557883591200001,2.5816274848,1.87681188,2.38462428,-1.52995467,,,
imu,326.476018,-0.2368685088,-9.5566872856,2.6025628328,1.80204278,2.23508608,-1.55986231,,,
imu,326.484694,-0.227298064,-9.573435564,2.607946208,1.90671952,2.13788625,-1.54490849,,,
imu,326.49337,-0.2326814392,-9.578818939200001,2.6103388192,1.92167334,2.0257326,-1.57481613,,,
imu,326.502047,-0.2530186344000001,-9.590183842400002,2.6115351248,1.73475059,1.85376367,-1.72435433,,,
imu,326.510723,-0.2649816904,-9.606932120800002,2.6193111112,1.60764312,1.70422547,-2.03090764,,,
imu,326.519399,-0.2907022608000001,-9.6248767048,2.6157221944,1.75718132,1.62197946,-2.30755331,,,
imu,326.528075,-0.3092449976000001,-9.630260080000001,2.6121332776,1.5926893,1.61450255,-2.3000764,,,
imu,326.536752,-0.3056560808,-9.619493329600001,2.597179457600001,1.51044329,1.63693328,-2.36736859,,,
imu,326.545428,-0.3134320672,-9.609922884800001,2.619909264,1.45810492,1.75656384,-2.44213769,,,
imu,326.554104,-0.3164228312,-9.597361676,2.615124041600001,1.27865908,1.73413311,-2.71878336,,,
imu,326.562781,-0.3194135952000001,-9.6015487456,2.6217037224,1.21136689,1.6518871,-2.89075229,,,
imu,326.571457,-0.2907022608000001,-9.597361676,2.631872320000001,1.12912088,1.88367131,-2.81598319,,,
imu,326.580133,-0.2793373576,-9.602745051200001,2.6534058208,0.9571519499999999,1.8014253,-3.01038285,,,
imu,326.588809,-0.2739539824000001,-9.599754287200001,2.668957793600001,0.7552753799999999,1.59207182,-3.09262886,,,
imu,326.597486,-0.2607946208,-9.6218859408,2.670752252,0.53844499,1.4275798,-3.1973056,,,
imu,326.606162,-0.2536167872,-9.623680399200001,2.6653688768,0.41133752,1.34533379,-3.16739796,,,
imu,326.614838,-0.2619909264,-9.621287788000002,2.673743016,0.23189168,1.15093413,-3.09262886,,,
imu,326.623515,-0.3146283728000001,-9.623082246400001,2.6880986832,-0.08961545,0.9565344699999998,-3.18982869,,,
imu,326.632191,-0.3236006648,-9.608128426400002,2.6910894472,-0.33635348,0.8892422799999999,-3.14496723,,,
imu,326.640845,-0.3337692624,-9.5704448,2.7000617392,-0.40364567,1.03878048,-3.06272122,,,
imu,326.649499,-0.3391526376000001,-9.530966715200002,2.6839116136,-0.60552224,1.03130357,-3.00290594,,,
imu,326.658154,-0.3541064576,-9.492684936000002,2.686902377600001,-0.38121494,1.27056469,-2.69635263,,,
imu,326.666808,-0.3499193880000001,-9.4765348104,2.689893141600001,-0.21672292,1.34533379,-2.56924516,,,
imu,326.675462,-0.3499193880000001,-9.499862769600002,2.685706072000001,-0.07466163,1.58459491,-2.36736859,,,
imu,326.684116,-0.3182172896000001,-9.514218436800002,2.6629762656,0.14216876,1.85376367,-2.20287657,,,
imu,326.692771,-0.3128339144,-9.527377798400002,2.6629762656,0.29918387,1.97339423,-2.21035348,,,
imu,326.701425,-0.311039456,-9.530966715200002,2.655798432,0.49358353,2.12293243,-2.20287657,,,
imu,326.710079,-0.2936930248,-9.5632669664,2.637853848,0.55339881,2.19770153,-2.1505382,,,
imu,326.718734,-0.296085636,-9.579417092000002,2.6282834032,0.56087572,2.36219355,-2.32250713,,,
imu,326.727388,-0.2978800944000001,-9.596165370400001,2.6252926392,0.40386061,2.56407012,-2.5243837,,,
imu,326.736042,-0.2924967192,-9.618895176800002,2.6252926392,0.17955331,2.66874686,-2.748691,,,
imu,326.744696,-0.2924967192,-9.654186192000001,2.6217037224,-0.02232326000000001,2.74351596,-2.98795212,,,
imu,326.753351,-0.2895059552,-9.669140012000002,2.6175166528,-0.32139966,2.78837742,-3.16739796,,,
imu,326.762005,-0.2554112456,-9.644017594400001,2.6396483064,-0.64290679,2.87062343,-3.45899745,,,
imu,326.770659,-0.2625890792,-9.6260730104,2.667163335200001,-0.94198319,2.86314652,-3.73564312,,,
imu,326.779314,-0.2817299688000001,-9.614708107200002,2.6444335288,-1.11395212,2.74351596,-3.83284295,,,
imu,326.787968,-0.2769447464000001,-9.6290637744,2.6330686256,-1.38312088,2.71360832,-3.95995042,,,
imu,326.796622,-0.2859170384,-9.575828175200002,2.6779300856,-1.4728438,2.87810034,-3.78798149,,,
imu,326.805276,-0.3170209840000001,-9.554294674400001,2.6910894472,-1.59995127,2.96782326,-3.59358183,,,
imu,326.813931,-0.3253951232,-9.637437913600001,2.6863042248,-1.68219728,2.98277708,-3.4216129,,,
imu,326.822585,-0.34393786,-9.682897526400001,2.670752252,-1.98875059,3.13979219,-3.37675144,,,
imu,326.831239,-0.3564990688,-9.679308609600001,2.700659892,-2.27287317,3.08745382,-3.38422835,,,
imu,326.839893,-0.3606861384,-9.630260080000001,2.709632184,-2.54204193,3.43886859,-3.39170526,,,
imu,326.848183,-0.3499193880000001,-9.595567217600001,2.7090340312,-2.94579507,3.5958837,-3.54872037,,,
imu,326.856472,-0.3289840400000001,-9.6117173432,2.7150155592,-3.117764,3.73046808,-3.48890509,,,
imu,326.864761,-0.3062542336,-9.5865949256,2.7012580448,-3.31964057,3.76785263,-3.5711511,,,
imu,326.873051,-0.2907022608000001,-9.527377798400002,2.709632184,-3.3420713,3.73794499,-3.50385891,,,
imu,326.88134,-0.275150288,-9.5010590752,2.7221933928,-3.32711748,3.79028336,-3.45899745,,,
imu,326.88963,-0.287113344,-9.491488630400001,2.742530588,-3.40936349,3.66317589,-3.36927453,,,
imu,326.897919,-0.2793373576,-9.4765348104,2.729371226400001,-3.14767164,3.49868387,-3.13001341,,,
imu,326.906208,-0.2823281216,-9.426289975200001,2.7538954912,-2.81121069,3.28933039,-2.96552139,,,
imu,326.914498,-0.281131816,-9.393989724,2.7826068256,-2.26539626,3.28185348,-2.80102937,,,
imu,326.922787,-0.2643835376,-9.370661764800001,2.778419756,-1.87659694,3.16222292,-2.71878336,,,
imu,326.931076,-0.2524204816,-9.385017432000001,2.802345868,-1.35321324,2.95286944,-2.57672207,,,
imu,326.939366,-0.2835244272,-9.412532460800001,2.783204978400001,-0.7550604399999999,3.05006927,-2.36736859,,,
imu,326.947655,-0.2835244272,-9.4250936696,2.7897846592,-0.45598404,3.07997691,-2.30755331,,,
imu,326.955944,-0.2859170384,-9.4460290176,2.8089255488,-0.17186146,3.05754618,-2.23278421,,,
imu,326.964234,-0.3014690112,-9.481918185600001,2.820290452000001,-0.03727708,3.11736146,-2.27764567,,,
imu,326.972523,-0.3032634696000001,-9.505844297600001,2.7957661872,0.13469185,3.1472691,-2.31503022,,,
imu,326.980812,-0.287113344,-9.516611048000001,2.784401284,0.40386061,3.19213056,-2.42718387,,,
imu,326.989102,-0.2757484408,-9.510031367200002,2.784999436800001,0.3963837,3.28185348,-2.42718387,,,
imu,326.997391,-0.2691687600000001,-9.493283088800002,2.7700456168,0.44872207,3.37905331,-2.55429134,,,
imu,327.00568,-0.2368685088,-9.496872005600002,2.784999436800001,0.60573718,3.26689966,-2.88327538,,,
imu,327.01397,-0.227298064,-9.509433214400001,2.7700456168,0.8375213899999999,3.19960747,-3.06272122,,,
imu,327.022259,-0.2129423968,-9.486703408,2.764064088800001,1.15155161,3.05754618,-2.98047521,,,
imu,327.030548,-0.200381188,-9.492086783200001,2.780812367200001,1.25622835,2.85566961,-2.80102937,,,
imu,327.038838,-0.1979885768,-9.492086783200001,2.7820086728,1.39081273,2.78090051,-2.79355246,,,
imu,327.0473,-0.200381188,-9.520798117600002,2.772438228,1.68988913,2.49677793,-2.83093701,,,
imu,327.055762,-0.2009793408,-9.459786532,2.718604476,1.92167334,2.21265535,-2.84589083,,,
imu,327.064224,-0.2099516328,-9.444832712,2.7658585472,2.116073,1.92853277,-2.90570611,,,
imu,327.072687,-0.2201202304,-9.481918185600001,2.7670548528,2.4899185,1.67431783,-3.07767504,,,
imu,327.081149,-0.2733558296,-9.5327611736,2.7772234504,2.5646876,1.68179474,-2.92813684,,,
imu,327.089611,-0.28412258,-9.552500216,2.805336632,2.38524176,1.71170238,-2.81598319,,,
imu,327.098073,-0.3026653168,-9.533957479200001,2.7927754232,2.19831901,1.79394839,-2.87579847,,,
imu,327.106536,-0.3044597752,-9.548313146400002,2.7820086728,2.02635008,1.74161002,-3.07767504,,,
imu,327.114998,-0.2996745528,-9.567454036,2.7646622416,2.00391935,1.93600968,-3.35432071,,,
imu,327.12346,-0.2895059552,-9.574631869600001,2.7568862552,2.00391935,1.88367131,-3.33936689,,,
imu,327.131923,-0.2607946208,-9.572239258400002,2.7449231992,2.04878081,1.92105586,-2.99542903,,,
imu,327.140385,-0.2266999112,-9.5489112992,2.7150155592,2.14598064,2.04816333,-2.63653735,,,
imu,327.148847,-0.2057645632,-9.548313146400002,2.7054451144,2.07121154,2.16031698,-2.4496146,,,
imu,327.157309,-0.1752587704,-9.581809703200001,2.706043267200001,2.22074974,2.1005017,-2.29259949,,,
imu,327.165772,-0.1489400472,-9.606932120800002,2.689893141600001,2.25065738,1.86124058,-2.35241477,,,
imu,327.174234,-0.1268083936,-9.582407856000001,2.673743016,2.23570356,1.71917929,-2.47952224,,,
imu,327.182696,-0.1483418944,-9.522592576000001,2.670752252,2.19831901,1.45748744,-2.72626027,,,
imu,327.191158,-0.1812402984,-9.533957479200001,2.6815190024,2.28804193,1.26308778,-3.02533667,,,
imu,327.199621,-0.2141387024,-9.520199964800002,2.6486205984,2.407672489999999,0.92662683,-3.15992105,,,
imu,327.208028,-0.2643835376,-9.52558334,2.6426390704,2.46748777,0.9640113799999996,-3.22721324,,,
imu,327.21649,-0.2895059552,-9.496872005600002,2.6402464592,2.59459524,1.07616503,-3.21973633,,,
imu,327.224952,-0.2936930248,-9.490292324800002,2.6390501536,2.6394567,1.30047233,-3.07019813,,,
imu,327.233414,-0.2799355104,-9.482516338400002,2.622900028000001,2.74413344,1.55468727,-2.99542903,,,
imu,327.241877,-0.2578038568000001,-9.5010590752,2.6270870976,2.87124091,1.63693328,-3.11505959,,,
imu,327.250344,-0.2506260232,-9.549509452,2.6330686256,3.07311748,1.80890221,-3.28702852,,,
imu,327.258811,-0.233279592,-9.574631869600001,2.6270870976,3.09554821,1.89862513,-3.30198234,,,
imu,327.267279,-0.2177276192,-9.585398620000001,2.6492187512,2.98339456,1.98834805,-3.39170526,,,
imu,327.275746,-0.2087553272,-9.596763523200002,2.6534058208,2.97591765,1.86124058,-3.6459202,,,
imu,327.284213,-0.2069608688,-9.613511801600001,2.6492187512,2.75908726,1.71917929,-4.06462716,,,
imu,327.292681,-0.2147368552,-9.608128426400002,2.641442764800001,2.60207215,1.45748744,-4.32631901,,,
imu,327.301148,-0.2314851336,-9.554294674400001,2.645629834400001,2.66936434,1.29299542,-4.43847266,,,
imu,327.309616,-0.2410555784,-9.568052188800001,2.679724544,2.5646876,1.29299542,-4.386134289999999,,,
imu,327.318083,-0.2733558296,-9.617100718400001,2.6833134608,2.47496468,1.18831868,-4.169303899999999,,,
imu,327.32655,-0.2769447464000001,-9.6326526912,2.6719485576,2.2656112,1.15093413,-3.97490424,,,
imu,327.335018,-0.245242648,-9.5985579816,2.6743411688,2.22822665,1.5023489,-3.59358183,,,
imu,327.343485,-0.2141387024,-9.5800152448,2.6743411688,2.05625772,1.61450255,-3.44404363,,,
imu,327.351952,-0.1806421456,-9.5213962704,2.6420409176,2.02635008,1.38271834,-3.39918217,,,
imu,327.36042,-0.1453511304,-9.538742701600002,2.6611818072,2.18336519,1.19579559,-3.37675144,,,
imu,327.368887,-0.1274065464,-9.5423316184,2.6534058208,2.1908421,0.94905756,-3.28702852,,,
imu,327.377354,-0.1369769912,-9.585398620000001,2.6510132096,2.25813429,0.4705353199999998,-3.53376655,,,
imu,327.385822,-0.167482784,-9.594370912,2.6474242928,2.33290339,-0.0005100100000001717,-3.72816621,,,
imu,327.394289,-0.2189239248,-9.612315496,2.6546021264,2.22822665,-0.3294940500000001,-3.70573548,,,
imu,327.402756,-0.2398592728,-9.605735815200001,2.6534058208,1.97401171,-0.4117400600000001,-3.56367419,,,
imu,327.411224,-0.260196468,-9.612315496,2.670752252,1.8917657,-0.2173404000000003,-3.36179762,,,
imu,327.419691,-0.2607946208,-9.630260080000001,2.645629834400001,1.62259694,-0.15004821,-3.18982869,,,
imu,327.428159,-0.2356722032,-9.609922884800001,2.6223018752,1.4431511,-0.1350943900000003,-3.00290594,,,
imu,327.436626,-0.2314851336,-9.571042952800001,2.6264889448,1.36090509,-0.1949096699999999,-3.07019813,,,
imu,327.445093,-0.2488315648,-9.533359326400001,2.6360593896,1.24127453,-0.3818324200000003,-3.35432071,,,
imu,327.453909,-0.2679724544000001,-9.5668558832,2.6169185,1.32352054,-0.6734319100000001,-3.56367419,,,
imu,327.462724,-0.2889078024000001,-9.575230022400001,2.5888053184,1.33847436,-0.7855855599999999,-3.69078166,,,
imu,327.47154,-0.3343674152,-9.578220786400001,2.5965813048,1.56278166,-0.7781086500000001,-3.70573548,,,
imu,327.480356,-0.3684621248000001,-9.544126076800001,2.6007683744,1.53287402,-0.7855855599999999,-4.04219643,,,
imu,327.489171,-0.3840140976,-9.520199964800002,2.5798330264,1.55530475,-0.39678624,-4.13191935,,,
imu,327.497987,-0.3672658192000001,-9.5740337168,2.5798330264,1.84690424,0.02939763000000006,-3.90013514,,,
imu,327.506802,-0.361882444,-9.624278552000002,2.5547106088,1.94410407,0.07425908999999997,-3.7954584,,,
imu,327.515618,-0.3564990688,-9.630858232800001,2.5642810536,1.90671952,0.2611818399999999,-3.84031986,,,
imu,327.524434,-0.3415452488,-9.606333968000001,2.5672718176,1.71231986,0.4481045899999998,-3.75059694,,,
imu,327.533249,-0.3517138464,-9.594370912,2.5588976784,1.73475059,0.56025824,-3.6459202,,,
imu,327.542065,-0.352910152,-9.594370912,2.5588976784,1.64502767,0.6350273399999997,-3.59358183,,,
imu,327.55088,-0.331974804,-9.602146898400001,2.5475327752,1.6674584,0.76213481,-3.57862801,,,
imu,327.559696,-0.3547046104000001,-9.626671163200001,2.5439438584,1.54035093,0.8518577299999999,-3.496382,,,
imu,327.568512,-0.3648732080000001,-9.600352440000002,2.5313826496,1.39828964,0.8518577299999999,-3.33188998,,,
imu,327.577327,-0.3762381112000001,-9.6218859408,2.5385604832,1.27865908,0.80699627,-3.22721324,,,
imu,327.586143,-0.3941826952,-9.652989886400002,2.5349715664,1.20388998,0.9565344699999998,-3.07019813,,,
imu,327.594958,-0.4103328208,-9.654186192000001,2.5349715664,1.12164397,1.1285034,-2.86832156,,,
imu,327.603774,-0.3941826952,-9.614708107200002,2.5367660248,0.8973366700000001,1.29299542,-2.62158353,,,
imu,327.61259,-0.3834159448,-9.617100718400001,2.5409530944,0.74779847,1.47991817,-2.41970696,,,
imu,326.319788,,,,,,,-82.1300524,171.6759268,114.8636632
imu,326.42132,,,,,,,-84.76680759999999,172.603674,116.804608
imu,326.522882,,,,,,,-84.5348708,171.3463324,114.8270416
imu,326.624445,,,,,,,-84.51045640000001,172.3839444,116.9022656
imu,326.726038,,,,,,,-84.43721319999999,173.0431332,117.7079408
imu,326.827814,,,,,,,-84.21748360000001,172.176422,117.1952384
imu,327.621405,-0.3684621248000001,-9.6224840936,2.5343734136,0.71789083,1.68927165,-2.35989168,,,
imu,327.630221,-0.3642750552,-9.651793580800001,2.5385604832,0.7403215599999999,1.95844041,-2.2253073,,,
imu,327.639036,-0.3517138464,-9.6499991224,2.548729080800001,0.53096808,2.1752708,-2.09819983,,,
imu,327.647852,-0.3295821928000001,-9.6505972752,2.5367660248,0.41881443,2.30985518,-2.09819983,,,
imu,327.656327,-0.3086468448,-9.6505972752,2.5343734136,0.30666078,2.44443956,-2.06081528,,,
imu,327.664802,-0.2966837888,-9.636241608,2.5469346224,0.08235347999999998,2.53416248,-2.17296893,,,
imu,327.673277,-0.281131816,-9.655980650400002,2.5409530944,-0.14943073,2.46687029,-2.21783039,,,
imu,327.681752,-0.2739539824000001,-9.669738164800002,2.543345705600001,-0.30644584,2.53416248,-2.21783039,,,
imu,327.690227,-0.2548130928,-9.665551095200001,2.5463364696,-0.66533752,2.42948574,-2.38979932,,,
imu,327.698702,-0.2416537312,-9.614708107200002,2.562486595200001,-1.09152139,2.29490136,-2.55429134,,,
imu,327.707177,-0.2506260232,-9.609324732000001,2.5846182488,-1.37564397,2.27994754,-2.96552139,,,
imu,327.715652,-0.2518223288000001,-9.609324732000001,2.575047804,-1.45041307,2.27994754,-3.11505959,,,
imu,327.724127,-0.2685706072,-9.574631869600001,2.5672718176,-1.45041307,2.18274771,-3.21225942,,,
imu,327.732602,-0.2613927736,-9.533957479200001,2.58701086,-1.36069015,2.16031698,-3.10010577,,,
imu,327.741077,-0.2709632184,-9.499862769600002,2.5911979296,-1.06161375,2.28742445,-2.91318302,,,
imu,327.749552,-0.2649816904,-9.493283088800002,2.5917960824,-0.91955246,2.324809,-2.65149117,,,
imu,327.758027,-0.2607946208,-9.5148165896,2.603759138400001,-0.73262971,2.35471664,-2.33746095,,,
imu,327.766502,-0.2440463424,-9.52558334,2.615124041600001,-0.5008455,2.30985518,-2.34493786,,,
imu,327.774977,-0.2410555784,-9.572837411200002,2.6240963336,-0.32887657,2.21265535,-2.41970696,,,
imu,327.783452,-0.2458408008,-9.5566872856,2.5917960824,-0.18681528,2.19022462,-2.44213769,,,
imu,327.791927,-0.2578038568000001,-9.5357519376,2.6175166528,-0.01484635000000001,2.16031698,-2.43466078,,,
imu,327.800402,-0.2494297176,-9.566257730400002,2.6492187512,0.0001074699999999984,2.2500399,-2.38232241,,,
imu,327.808877,-0.2470371064,-9.639830524800002,2.6581910432,-0.18681528,2.30985518,-2.38979932,,,
imu,327.817352,-0.2344758976,-9.675719692800001,2.655200279200001,-0.52327623,2.18274771,-2.39727623,,,
imu,327.825827,-0.233279592,-9.6733270816,2.6653688768,-0.85973718,2.28742445,-2.56176825,,,
imu,327.834302,-0.233279592,-9.651793580800001,2.659387348800001,-1.09152139,2.1752708,-2.65896808,,,
imu,327.842777,-0.2159331608,-9.621287788000002,2.6611818072,-1.36069015,2.13788625,-2.71130645,,,
imu,327.851252,-0.188418132,-9.603343204000002,2.6653688768,-1.74948947,2.23508608,-2.48699915,,,
imu,327.85977,-0.1710717008,-9.575828175200002,2.6815190024,-1.83173548,2.26499372,-2.08324601,,,
imu,327.868288,-0.1650901728,-9.557883591200001,2.678528238400001,-1.79435093,2.34723973,-1.83650798,,,
imu,327.876806,-0.1477437416,-9.557883591200001,2.688696836,-1.82425857,2.25751681,-1.80660034,,,
imu,327.885325,-0.1303973104,-9.554892827200002,2.679724544,-1.65228964,2.08554788,-1.80660034,,,
imu,327.893843,-0.1268083936,-9.529770409600001,2.6695559464,-1.51022835,1.82385603,-2.0757691,,,
imu,327.902361,-0.1154434904,-9.468758824,2.6599855016,-1.3233056,1.67431783,-2.47952224,,,
imu,327.910879,-0.1214250184,-9.402363863200002,2.6492187512,-0.98684465,1.49487199,-2.80102937,,,
imu,327.919397,-0.1638938672,-9.373652528800001,2.648022445600001,-0.47093786,1.13598031,-2.96552139,,,
imu,327.927916,-0.2141387024,-9.394587876800001,2.6432372232,-0.0522309,0.9565344699999998,-3.24216706,,,
imu,327.936434,-0.2733558296,-9.4250936696,2.634264931200001,0.59078336,0.9341037399999998,-3.2720747,,,
imu,327.944952,-0.2907022608000001,-9.4496179344,2.620507416800001,1.24127453,1.06868812,-3.31693616,,,
imu,327.95347,-0.3038616224,-9.4663662128,2.6217037224,1.57025857,1.29299542,-3.21973633,,,
imu,327.961989,-0.3271895816000001,-9.5010590752,2.6360593896,1.84690424,1.68927165,-3.08515195,,,
imu,327.970507,-0.3224043592,-9.541135312800002,2.6234981808,1.9665348,2.01077878,-2.99542903,,,
imu,327.979025,-0.3044597752,-9.5704448,2.6223018752,1.8917657,2.22760917,-3.03281358,,,
imu,327.987543,-0.296085636,-9.575828175200002,2.6252926392,1.83942733,2.39210119,-3.22721324,,,
imu,327.996061,-0.2859170384,-9.539939007200001,2.625890792,1.89924261,2.58650085,-3.36179762,,,
imu,328.00458,-0.2691687600000001,-9.541135312800002,2.648022445600001,1.98148862,2.78090051,-3.54872037,,,
imu,328.013098,-0.2584020096,-9.5638651192,2.6432372232,2.01139626,2.89305416,-3.7954584,,,
imu,328.021616,-0.2595983152,-9.562070660800002,2.6330686256,2.09364227,2.87810034,-4.06462716,,,
imu,328.030134,-0.2566075512,-9.559678049600002,2.64682614,2.01139626,2.89305416,-4.0945348,,,
imu,328.038653,-0.2793373576,-9.553696521600001,2.6779300856,2.13850373,2.96034635,-4.04967334,,,
imu,328.047171,-0.287113344,-9.5590798968,2.6880986832,2.24318047,3.19960747,-4.079580979999999,,,
imu,328.055689,-0.2972819416,-9.536948243200001,2.657592890400001,2.18336519,3.22951511,-4.057150249999999,,,
imu,328.064097,-0.2739539824000001,-9.522592576000001,2.643835376000001,2.17588828,3.07997691,-4.02724261,,,
imu,328.072504,-0.2637853848,-9.513022131200001,2.6516113624,2.407672489999999,3.0725,-3.7954584,,,
imu,328.080912,-0.2685706072,-9.5357519376,2.661779960000001,2.65441052,3.00520781,-3.81788913,,,
imu,328.089319,-0.2691687600000001,-9.566257730400002,2.6569947376,2.70674889,2.88557725,-3.86275059,,,
imu,328.097727,-0.2637853848,-9.573435564,2.6611818072,2.74413344,2.75099287,-3.86275059,,,
imu,328.106134,-0.2817299688000001,-9.5800152448,2.6623781128,2.94601001,2.66874686,-3.75807385,,,
imu,328.114542,-0.2853188856,-9.587193078400002,2.679724544,2.87871782,2.66874686,-3.62348947,,,
imu,328.12295,-0.281131816,-9.575828175200002,2.6719485576,2.84881018,2.64631613,-3.51133582,,,
imu,328.131357,-0.251224176,-9.578220786400001,2.6743411688,2.66936434,2.5491163,-3.36179762,,,
imu,328.139765,-0.2290925224000001,-9.5698466472,2.6534058208,2.58711833,2.7734236,-2.89075229,,,
imu,328.148172,-0.20935348,-9.523190728800001,2.6330686256,2.46001086,2.80333124,-2.56924516,,,
imu,328.15658,-0.1770532288,-9.503451686400002,2.625890792,2.60954906,2.73603905,-2.09072292,,,
imu,328.164988,-0.1537252696,-9.519601812000001,2.6085443608,2.85628709,2.75099287,-1.95613854,,,
imu,328.173395,-0.1423603664,-9.553098368800002,2.5983757632,3.17031731,2.53416248,-2.18044584,,,
imu,328.181803,-0.1280046992,-9.577024480800002,2.5828237904,3.06564057,2.27247063,-2.44213769,,,
imu,328.19021,-0.122621324,-9.569248494400002,2.569066276,3.10302512,2.06311715,-2.8982292,,,
imu,328.198618,-0.1351825328,-9.6087265792,2.5792348736,3.06564057,1.79394839,-3.2720747,,,
imu,328.207026,-0.1746606176,-9.631456385600002,2.545140164,3.03573293,1.56216418,-3.40665908,,,
imu,328.215433,-0.1979885768,-9.639830524800002,2.551121692,2.90862546,1.5023489,-3.58610492,,,
imu,328.223841,-0.2314851336,-9.636839760800001,2.5559069144,2.84133327,1.54721036,-3.60105874,,,
imu,328.232248,-0.2554112456,-9.625474857600002,2.5343734136,2.62450288,1.6518871,-3.60105874,,,
imu,328.240656,-0.2554112456,-9.641624983200002,2.5349715664,2.43010322,1.74161002,-3.66087402,,,
imu,328.249064,-0.2536167872,-9.632054538400002,2.509250996,2.20579592,1.86124058,-3.51133582,,,
imu,328.257471,-0.260196468,-9.614708107200002,2.5098491488,1.97401171,1.91357895,-3.30945925,,,
imu,328.265937,-0.2524204816,-9.588389384000001,2.506260232,1.97401171,2.13788625,-3.22721324,,,
imu,328.274403,-0.2398592728,-9.583006008800002,2.497287940000001,1.83942733,2.16779389,-3.24216706,,,
imu,328.282869,-0.2266999112,-9.5800152448,2.473959980800001,2.05625772,2.21265535,-3.20478251,,,
imu,328.291336,-0.2105497856,-9.589585689600002,2.4685766056,2.21327283,2.324809,-3.16739796,,,
imu,328.299733,-0.1991848824,-9.597959828800002,2.476352592,2.15345755,2.2500399,-3.10010577,,,
imu,328.308199,-0.1866236736,-9.5985579816,2.4619969248,2.19831901,2.08554788,-3.06272122,,,
imu,328.316665,-0.1896144376,-9.612315496,2.470371064,2.19831901,1.98087114,-2.99542903,,,
imu,328.325131,-0.1836329096,-9.630858232800001,2.4751562864,2.10859609,1.82385603,-2.93561375,,,
imu,328.333597,-0.185427368,-9.633250844,2.4572117024,1.9665348,1.78647148,-3.01038285,,,
imu,328.342063,-0.2021756464,-9.644615747200001,2.4679784528,2.01139626,1.92853277,-2.99542903,,,
imu,328.35053,-0.2027737992,-9.644615747200001,2.4566135496,1.71231986,1.88367131,-2.92813684,,,
imu,328.358996,-0.2159331608,-9.640428677600001,2.460202466400001,1.80951969,1.98087114,-2.95804448,,,
imu,328.367462,-0.2380648144,-9.6954587352,2.4637913832,1.5926893,2.12293243,-3.07767504,,,
imu,328.375928,-0.2488315648,-9.701440263200002,2.449435716,1.27118217,2.18274771,-3.21225942,,,
imu,328.384394,-0.2386629672,-9.6643547896,2.4512301744,0.97210577,2.30237827,-3.29450543,,,
imu,328.39286,-0.2410555784,-9.6087265792,2.4596043136,0.74779847,2.48182411,-3.25712088,,,
imu,328.401326,-0.2488315648,-9.597361676,2.4769507448,0.64312173,2.6238854,-3.21973633,,,
imu,328.409792,-0.2021756464,-9.613511801600001,2.4500338688,0.64312173,2.75099287,-3.15992105,,,
imu,328.418258,-0.1812402984,-9.6494009696,2.4476412576,0.5010604399999999,2.83323888,-3.1225365,,,
imu,328.426724,-0.167482784,-9.658971414400002,2.4536227856,0.40386061,2.79585433,-3.21973633,,,
imu,326.929058,,,,,,,-84.1686548,172.9210612,116.6581216
imu,327.030651,,,,,,,-84.2663124,172.5792596,116.4261848
imu,327.132183,,,,,,,-81.98356600000001,171.5294404,115.828032
imu,327.233776,,,,,,,-84.0954116,172.0909716,117.3417248
imu,327.335338,,,,,,,-82.0690164,171.3341252,114.1556456
imu,327.43684,,,,,,,-83.9000964,172.298494,117.3295176
imu,327.538463,,,,,,,-83.631538,171.8346204,114.1312312
imu,327.639995,,,,,,,-83.92451080000001,171.6515124,117.964292
imu,328.43519,-0.1489400472,-9.6470083584,2.447043104800001,0.29918387,2.54163939,-3.40665908,,,
imu,328.443656,-0.1393696024,-9.6260730104,2.447043104800001,0.34404533,2.54163939,-3.41413599,,,
imu,328.452123,-0.1650901728,-9.623082246400001,2.4596043136,0.32909151,2.33976282,-3.57862801,,,
imu,328.460589,-0.1818384512,-9.640428677600001,2.446444952,0.3216146,2.19022462,-3.60105874,,,
imu,328.469455,-0.197390424,-9.648204664000001,2.450632021600001,0.1720764,2.08554788,-3.66087402,,,
imu,328.478321,-0.2141387024,-9.635643455200002,2.4542209384,0.18703022,2.10797861,-3.48142818,,,
imu,328.487187,-0.2261017584,-9.6709344704,2.485324884000001,0.14964567,2.18274771,-3.45152054,,,
imu,328.496053,-0.2386629672,-9.710412555200001,2.461398772,-0.09709236,2.22013226,-3.60853565,,,
imu,328.504919,-0.23926112,-9.696655040800001,2.471567369600001,-0.19429219,2.31733209,-3.60105874,,,
imu,328.513785,-0.230288828,-9.675719692800001,2.4709692168,-0.56066078,2.43696265,-3.65339711,,,
imu,328.522651,-0.2314851336,-9.6505972752,2.460202466400001,-0.8672140899999999,2.35471664,-3.55619728,,,
imu,328.531517,-0.2284943696,-9.646410205600002,2.462595077600001,-1.06161375,2.36967046,-3.29450543,,,
imu,328.540383,-0.2446444952,-9.657176956,2.4745581336,-1.22610577,2.28742445,-3.496382,,,
imu,328.549249,-0.2643835376,-9.652989886400002,2.470371064,-1.39059779,2.12293243,-3.90013514,,,
imu,328.558115,-0.2757484408,-9.6846919848,2.4781470504,-1.45788998,2.19022462,-4.13191935,,,
imu,328.566981,-0.2799355104,-9.720581152800001,2.4757544392,-1.95884295,2.27994754,-4.07210407,,,
imu,328.575847,-0.2793373576,-9.7265626808,2.4925027176,-2.38502682,2.31733209,-3.66087402,,,
imu,328.584713,-0.3002727056,-9.6876827488,2.569066276,-2.69158013,2.42200883,-3.25712088,,,
imu,328.593579,-0.3056560808,-9.717590388800001,2.5612902896,-3.24487147,2.68370068,-3.00290594,,,
imu,328.602445,-0.3104413032000001,-9.835426490400001,2.557103220000001,-3.70096298,2.85566961,-2.59167589,,,
imu,328.611311,-0.3068523864000001,-10.010087108,2.615124041600001,-4.605669089999999,3.00520781,-2.12063056,,,
imu,328.620177,-0.2865151912,-10.054948568,2.6055535968,-5.87674379,3.31176112,-1.88136944,,,
imu,328.629043,-0.266177996,-10.022050164,2.5935905408,-7.58147927,3.39400713,-1.94866163,,,
imu,328.637909,-0.2805336632,-9.9783850096,2.58701086,-9.3235993,3.46129932,-1.93370781,,,
imu,328.646775,-0.3020671640000001,-9.8593526024,2.5355697192,-10.75168911,3.52859151,-2.0757691,,,
imu,328.655641,-0.31403022,-9.741516500800001,2.5146343712,-11.89565634,3.820191,-2.24026112,,,
imu,328.664507,-0.31403022,-9.612315496,2.4925027176,-12.66577807,4.13422122,-2.4496146,,,
imu,328.672934,-0.2996745528,-9.512423978400001,2.476352592,-12.83027009,4.31366706,-2.35241477,,,
imu,328.68136,-0.2787392048,-9.405354627200001,2.4817359672,-12.52371678,4.70994329,-2.25521494,,,
imu,328.689787,-0.28412258,-9.401167557600001,2.5146343712,-11.76854887,4.89686604,-2.24773803,,,
imu,328.698214,-0.2655798432,-9.435860420000001,2.548729080800001,-11.17039607,5.12117334,-1.97109236,,,
imu,328.70664,-0.221316536,-9.448421628800002,2.5559069144,-10.45261271,5.34548064,-1.80660034,,,
imu,328.715067,-0.1830347568,-9.4382530312,2.603759138400001,-10.00399811,5.48006502,-1.85893871,,,
imu,328.723494,-0.1770532288,-9.425691822400001,2.6563965848,-9.3235993,5.55483412,-1.91875399,,,
imu,328.73192,-0.1722680064,-9.448421628800002,2.6880986832,-8.89741543,5.3903421,-1.94866163,,,
imu,328.740347,-0.1722680064,-9.456795768000001,2.6988654336,-8.46375465,5.27071154,-1.86641562,,,
imu,328.748774,-0.1800439928,-9.469356976800002,2.750306574400001,-8.20953971,5.23332699,-1.91127708,,,
imu,328.7572,-0.1716698536,-9.479525574400002,2.7790179088,-7.9777555,5.22585008,-2.09072292,,,
imu,328.765627,-0.19439966,-9.48072188,2.805934784800001,-8.03757078,5.17351171,-2.0757691,,,
imu,328.774054,-0.2087553272,-9.457393920800001,2.8226830632,-7.91046331,5.001542779999999,-1.91127708,,,
imu,328.78248,-0.2111479384,-9.4699551296,2.8603666896,-7.843171119999999,5.12865025,-1.85893871,,,
imu,328.790907,-0.1985867296,-9.507638756,2.88608726,-7.62634073,5.12865025,-1.72435433,,,
imu,328.799334,-0.1591086448,-9.496872005600002,2.8932650936,-7.372125789999999,5.15108098,-1.41780102,,,
imu,328.80776,-0.1154434904,-9.4765348104,2.9237708864,-7.10295703,5.001542779999999,-1.37293956,,,
imu,328.816187,-0.0783580168,-9.472347740800002,2.9656415824,-7.01323411,4.90434295,-1.29069355,,,
imu,328.824614,-0.06041343280000001,-9.46576806,2.9674360408,-6.901080459999999,4.7921893,-1.21592445,,,
imu,328.83304,-0.06160973840000001,-9.429280739200001,2.9704268048,-7.02818793,4.530497449999999,-1.31312428,,,
imu,328.841467,-0.1052748928,-9.419710294400002,3.0021289032,-6.96089574,4.2688056,-1.37293956,,,
imu,328.849894,-0.1363788384,-9.4346641144,3.0182790288,-6.64686552,4.194036499999999,-1.23087827,,,
imu,328.85832,-0.1441548248,-9.457393920800001,3.0410088352,-6.37021985,4.32114397,-1.26078591,,,
imu,328.866747,-0.1351825328,-9.414326919200002,3.0122975008,-6.430035129999999,4.433297619999999,-1.51500085,,,
imu,328.875293,-0.1686790896,-9.392195265600002,3.0643367944,-6.44498895,4.53797436,-1.29069355,,,
imu,328.88384,-0.1399677552,-9.361689472800002,3.0601497248,-6.16086637,4.7921893,-1.11872462,,,
imu,328.892386,-0.1118545736,-9.3347725968,3.044597752,-5.80197469,4.837050759999999,-1.4776163,,,
imu,328.900932,-0.1280046992,-9.330585527200002,3.086468448,-5.390744639999999,4.98658896,-1.87389253,,,
imu,328.909478,-0.0980970592,-9.379035904000002,3.1307317552,-5.14400661,5.068834969999999,-2.18044584,,,
imu,328.918024,-0.0813487808,-9.440645642400002,3.136115130400001,-4.85988403,5.22585008,-2.14306129,,,
imu,328.92657,-0.1070693512,-9.405354627200001,3.1391058944,-4.942130039999999,5.285665359999999,-2.21035348,,,
imu,328.935117,-0.1118545736,-9.332978138400001,3.179182132,-4.8374533,5.547357209999999,-2.18044584,,,
imu,328.943663,-0.08433954480000001,-9.329987374400002,3.181574743200001,-4.77016111,5.77166451,-2.31503022,,,
imu,328.952209,-0.06699311360000001,-9.343744888800002,3.163630159200001,-4.47108471,5.853910519999999,-2.1505382,,,
imu,328.960755,-0.0376836264,-9.336567055200002,3.149274492,-4.134623759999999,5.88381816,-1.8514618,,,
imu,328.969301,-0.005981528000000001,-9.290509289600001,3.1726024512,-3.91031646,5.81652597,-1.78416961,,,
imu,328.977848,0.017944584,-9.288714831200002,3.196528563200001,-3.37945585,5.57726485,-2.001,,,
imu,328.986394,0.06101158560000001,-9.328192916,3.2043045496,-3.028041079999999,5.29314227,-2.27764567,,,
imu,328.99494,0.07058203040000001,-9.393989724,3.198921174400001,-2.75887232,4.98658896,-2.27764567,,,
imu,329.003486,0.03588916800000001,-9.3993730992,3.2234454392,-2.41493446,4.70246638,-2.02343073,,,
imu,329.012032,0.005981528000000001,-9.3688673064,3.2294269672,-2.34764227,4.44077453,-1.88884635,,,
imu,329.020579,0.0053833752,-9.3862137376,3.2431844816,-2.27287317,4.32862088,-1.88884635,,,
imu,329.029125,0.0305057928,-9.425691822400001,3.225838050400001,-2.19810407,4.27628251,-1.86641562,,,
imu,329.037671,0.04964668240000001,-9.450814240000001,3.236006648,-2.33268845,4.23889796,-1.73930815,,,
imu,329.046217,0.05084298800000001,-9.464571754400001,3.2497641624,-2.31773463,4.18655959,-1.46266248,,,
imu,329.054763,0.04725407120000001,-9.433467808800001,3.2306232728,-2.54951884,4.0444983,-1.4776163,,,
imu,329.06331,0.0466559184,-9.382624820800002,3.207893466400001,-2.79625687,4.01459066,-1.76173888,,,
imu,329.071856,0.0406743904,-9.319220624000002,3.1977248688,-2.76634923,3.72299117,-2.16549202,,,
imu,329.080264,0.0305057928,-9.3138372488,3.2132768416,-2.67662631,3.6706528,-2.73373718,,,
imu,329.088672,0.0502448352,-9.356904250400001,3.227034356,-2.33268845,3.53606842,-2.99542903,,,
imu,329.09708,0.0490485296,-9.3862137376,3.2264362032,-2.06351969,3.5211146,-3.20478251,,,
imu,329.105489,0.05861897440000001,-9.364680236800002,3.256343843200001,-2.11585806,3.46877623,-3.38422835,,,
imu,329.113897,0.05742266880000001,-9.348530111200002,3.2712976632,-2.17567334,3.28185348,-3.45152054,,,
imu,329.122305,0.06519865520000001,-9.330585527200002,3.268905052,-2.00370441,3.1472691,-3.38422835,,,
imu,329.130713,0.0675912664,-9.330585527200002,3.268306899200001,-1.78687402,3.03511545,-3.15244414,,,
imu,329.139121,0.0562263632,-9.329389221600001,3.2467733984,-1.43545925,2.97530017,-2.95056757,,,
imu,329.14753,0.0747691,-9.313239096000002,3.2264362032,-1.21862886,2.7734236,-2.8234601,,,
imu,329.155938,0.1058730456,-9.288714831200002,3.2342121896,-0.874691,2.61640849,-2.8234601,,,
imu,329.164346,0.1160416432,-9.3144354016,3.2348103424,-0.41112258,2.46687029,-2.66644499,,,
imu,329.172754,0.1064711984,-9.350922722400002,3.2467733984,-0.08213854000000001,2.12293243,-2.81598319,,,
imu,329.181162,0.08433954480000001,-9.3628857784,3.2437826344,0.08235347999999998,1.71917929,-3.01785976,,,
imu,329.189571,0.06220789120000001,-9.349726416800001,3.2515586208,0.18703022,1.53973345,-3.23469015,,,
imu,329.197979,0.0281131816,-9.3868118904,3.262923524000001,0.34404533,1.5023489,-3.33188998,,,
imu,329.206387,0.004785222400000001,-9.412532460800001,3.2575401488,0.44124516,1.5023489,-3.3468438,,,
imu,329.214795,-0.0125612088,-9.409541696800002,3.2401937176,0.40386061,1.48739508,-3.15992105,,,
imu,329.223203,-0.0406743904,-9.374250681600001,3.2276325088,0.44124516,1.63693328,-3.0477674,,,
imu,329.231612,-0.06579680800000001,-9.361689472800002,3.2348103424,0.38142988,1.74908693,-3.0477674,,,
imu,329.24002,-0.0340947096,-9.395186029600001,3.2192583696,0.68798319,2.00330187,-3.28702852,,,
imu,329.248428,0.0346928624,-9.408345391200001,3.209089772,0.8749059399999999,2.09302479,-3.60853565,,,
imu,327.741588,,,,,,,-83.55829480000001,171.8346204,116.987716
imu,327.843151,,,,,,,-83.814646,171.7247556,117.170824
imu,327.944683,,,,,,,-84.1930692,171.871242,117.0121304
imu,328.046398,,,,,,,-83.3019436,172.1275932,116.865644
imu,328.147777,,,,,,,-83.44843,171.8956564,117.9398776
imu,328.24937,,,,,,,-81.56852119999999,171.0045308,115.6937528
imu,328.350933,,,,,,,-83.75361000000001,172.05435,116.9388872
imu,328.452465,,,,,,,-81.9103228,170.8824588,115.156636
imu,329.256836,0.08015247520000002,-9.384419279200001,3.2025100912,0.74779847,2.04068642,-3.77302767,,,
imu,329.265244,0.1004896704,-9.394587876800001,3.2186602168,0.80761375,1.83880985,-3.78798149,,,
imu,329.273653,0.1297991576,-9.439449336800001,3.2132768416,1.08425942,1.71170238,-3.66835093,,,
imu,329.282061,0.1531271168,-9.464571754400001,3.1767895208,0.9272443100000001,1.34533379,-3.83284295,,,
imu,329.290643,0.10467674,-9.416121377600001,3.1899488824,0.70293701,0.8144731799999998,-4.29641137,,,
imu,329.299225,0.0346928624,-9.406550932800002,3.2527549264,0.66555246,0.2387511099999999,-4.82727198,,,
imu,329.307807,0.03110394560000001,-9.434065961600002,3.2324177312,0.77770611,-0.2248173100000002,-5.07401001,,,
imu,329.316389,-0.04964668240000001,-9.453206851200001,3.2055008552,0.5982602699999999,-0.4266938800000002,-4.909517989999999,,,
imu,329.324971,-0.17944584,-9.382624820800002,3.203108244,0.3216146,-0.4491246100000001,-4.453426479999999,,,
imu,329.333553,-0.2237091472,-9.343146736000001,3.2551475376,0.18703022,-0.31454023,-4.28145755,,,
imu,329.342135,-0.203371952,-9.474142199200001,3.280868108,0.41881443,0.2088434699999997,-4.18425772,,,
imu,329.350717,-0.2081571744,-9.5249851872,3.210286077600001,0.29918387,0.7471809899999999,-3.72816621,,,
imu,329.3593,-0.2219146888,-9.440047489600001,3.2192583696,0.06739966,1.38271834,-3.1973056,,,
imu,329.367882,-0.1531271168,-9.370661764800001,3.277877344000001,-0.01484635000000001,2.10797861,-3.03281358,,,
imu,329.376464,-0.0783580168,-9.392195265600002,3.2407918704,0.0001074699999999984,2.56407012,-3.10010577,,,
imu,329.385046,-0.0693857248,-9.399971252000002,3.1714061456,0.13469185,2.73603905,-3.1225365,,,
imu,329.39362,-0.0550300576,-9.3377633608,3.176191368,0.29918387,2.70613141,-3.15244414,,,
imu,329.402202,-0.04366515440000001,-9.283929608800001,3.224043592000001,0.56835263,2.94539253,-3.41413599,,,
imu,329.410784,-0.0167482784,-9.277349928000001,3.200715632800001,0.77770611,2.89305416,-3.81041222,,,
imu,329.419366,-0.0370854736,-9.335370749600001,3.1977248688,1.08425942,2.78837742,-3.93004278,,,
imu,329.427948,-0.09151737840000002,-9.322211388000001,3.1875562712,1.38333582,2.66874686,-3.5711511,,,
imu,329.43653,-0.1297991576,-9.3174261656,3.2294269672,1.45062801,2.90800798,-3.51133582,,,
imu,329.445112,-0.1064711984,-9.377241445600001,3.262923524000001,1.65998149,3.24446893,-3.75059694,,,
imu,329.453694,-0.08314323920000001,-9.4173176832,3.216267605600001,1.77213514,3.55849915,-3.60105874,,,
imu,329.462276,-0.09869521200000002,-9.4412437952,3.2156694528,1.65998149,3.90243701,-3.32441307,,,
imu,329.470858,-0.092713684,-9.402962016000002,3.2132768416,1.65998149,4.149175039999999,-3.00290594,,,
imu,329.479441,-0.09869521200000002,-9.444234559200002,3.2234454392,1.58521239,4.28375942,-3.23469015,,,
imu,329.488264,-0.08972292000000001,-9.463973601600001,3.1857618128,1.62259694,4.567882,-3.496382,,,
imu,329.497088,-0.0735727944,-9.451412392800002,3.179182132,1.48053565,4.58283582,-3.73564312,,,
imu,329.505911,-0.0693857248,-9.4346641144,3.198921174400001,1.27118217,4.73237402,-4.06462716,,,
imu,329.514735,-0.06400234960000001,-9.461580990400002,3.2366048008,1.03192105,4.7921893,-4.23659609,,,
imu,329.523558,-0.04845037680000001,-9.489096019200002,3.2282306616,0.91229049,4.717420199999999,-4.33379592,,,
imu,329.532382,-0.0167482784,-9.478927421600002,3.204902702400001,0.59078336,4.82209694,-4.363703559999999,,,
imu,329.541205,-0.020935348,-9.5040498392,3.2527549264,0.20946095,4.807143119999999,-4.34874974,,,
imu,329.550029,-0.0221316536,-9.4316733504,3.2366048008,0.12721494,4.814620029999999,-4.10948862,,,
imu,329.558853,-0.009570444800000001,-9.456795768000001,3.212678688800001,0.08235347999999998,4.672558739999999,-3.76555076,,,
imu,329.567676,-0.06041343280000001,-9.444832712,3.2013137856,-0.11952309,4.38095925,-3.88518132,,,
imu,329.5765,-0.080750628,-9.46576806,3.186958118400001,-0.32887657,4.07440594,-4.10948862,,,
imu,329.585323,-0.05084298800000001,-9.4729458936,3.1833692016,-0.51579932,3.97720611,-4.30388828,,,
imu,329.594147,-0.0011963056,-9.461580990400002,3.1863599656,-0.50832241,3.79028336,-3.95995042,,,
imu,329.60297,-0.0017944584,-9.503451686400002,3.204902702400001,-0.71019898,3.77532954,-3.74312003,,,
imu,329.611794,-0.07955432240000002,-9.499264616800001,3.1905470352,-1.03170611,3.67812971,-3.57862801,,,
imu,329.620618,-0.107667504,-9.3993730992,3.1528634088,-1.15133667,3.49868387,-3.24964397,,,
imu,329.629441,-0.1208268656,-9.367072848000001,3.1827710488,-1.21115195,3.52859151,-2.88327538,,,
imu,329.638265,-0.08374139200000001,-9.3622876256,3.1857618128,-1.15881358,3.57345297,-2.73373718,,,
imu,329.647088,0.0113649032,-9.3868118904,3.1929396464,-1.15881358,3.53606842,-2.748691,,,
imu,329.655912,0.0783580168,-9.364680236800002,3.1929396464,-1.0989983,3.57345297,-2.59167589,,,
imu,329.664735,-0.002990764,-9.3377633608,3.2342121896,-0.98684465,3.34914567,-2.32998404,,,
imu,329.673559,-0.007177833600000002,-9.3455393472,3.230025120000001,-0.64290679,3.17717674,-2.31503022,,,
imu,329.682382,0.004785222400000001,-9.3335762912,3.195332257600001,-0.31392275,3.19213056,-2.73373718,,,
imu,329.690815,0.0191408896,-9.33118368,3.1959304104,-0.20924601,3.03511545,-3.07019813,,,
imu,329.699249,0.02990764000000001,-9.358100556000002,3.1947341048,0.19450713,2.96034635,-2.92065993,,,
imu,329.707682,-0.03588916800000001,-9.373054376,3.2677087464,0.41133752,3.05754618,-2.69635263,,,
imu,329.716115,0.1208268656,-9.380830362400001,3.2246417448,0.5459219,2.85566961,-2.56924516,,,
imu,329.724548,0.08792846160000001,-9.4555994624,3.2228472864,0.51601426,2.88557725,-2.95804448,,,
imu,329.732981,0.007177833600000002,-9.441841948000002,3.2222491336,0.46367589,2.61640849,-3.10010577,,,
imu,329.741414,0.0221316536,-9.443038253600001,3.2156694528,0.4861066199999999,2.55659321,-3.00290594,,,
imu,329.749847,0.07177833600000001,-9.440645642400002,3.2234454392,0.30666078,2.57902394,-3.27955161,,,
imu,329.75828,0.0340947096,-9.429878892000001,3.221650980800001,0.06739966,2.36967046,-3.45899745,,,
imu,329.766713,-0.011963056,-9.436458572800001,3.214473147200001,0.04496892999999999,2.42948574,-3.20478251,,,
imu,329.775146,-0.0143556672,-9.417915836,3.20011748,-0.127,2.3995781,-3.05524431,,,
imu,329.783579,0.01495382,-9.393989724,3.1995193272,0.04496892999999999,2.50425484,-2.77112173,,,
imu,329.792012,0.0813487808,-9.489096019200002,3.0039233616,0.03001510999999998,2.45939338,-2.72626027,,,
imu,329.800445,-0.1902125904,-9.274957316800002,3.2593346072,-0.65786061,2.01077878,-3.23469015,,,
imu,329.808878,0.0466559184,-9.4765348104,3.2665124408,0.2468455,2.4743472,-3.52628964,,,
imu,329.817311,0.03349655680000001,-9.3975786408,3.2437826344,0.09730729999999999,2.48930102,-2.87579847,,,
imu,329.825744,0.0980970592,-9.452010545600002,3.2653161352,-0.07466163,2.59397776,-2.47204533,,,
imu,329.834177,0.1100601152,-9.446627170400001,3.2437826344,-0.33635348,2.39210119,-3.01038285,,,
imu,329.84261,0.09390998960000001,-9.4490197816,3.249166009600001,-0.47093786,2.13040934,-3.54124346,,,
imu,329.851043,0.07716171120000001,-9.437654878400002,3.2557456904,-0.71767589,1.90610204,-3.63096638,,,
imu,329.859476,0.0532355992,-9.437654878400002,3.268306899200001,-0.84478336,1.73413311,-3.62348947,,,
imu,329.867909,0.0275150288,-9.4382530312,3.258736454400001,-0.98684465,1.62945637,-3.80293531,,,
imu,329.876342,0.0053833752,-9.429280739200001,3.244978940000001,-1.13638285,1.68179474,-3.98985806,,,
imu,329.884775,-0.0011963056,-9.4250936696,3.2695032048,-1.18872122,1.70422547,-3.97490424,,,
imu,329.893147,-0.0011963056,-9.409541696800002,3.2850551776,-1.27844414,1.59954873,-3.88518132,,,
imu,329.901519,-0.0113649032,-9.387410043200001,3.27488658,-1.28592105,1.54721036,-3.91508896,,,
imu,329.909891,-0.0233279592,-9.3694654592,3.274288427200001,-1.33078251,1.53225654,-4.00481188,,,
imu,329.918263,-0.03110394560000001,-9.367072848000001,3.2856533304,-1.14385976,1.51730272,-4.10948862,,,
imu,329.926635,-0.0430670016,-9.3586987088,3.2832607192,-1.25601341,1.50982581,-4.057150249999999,,,
imu,329.935007,-0.068787572,-9.3545116392,3.2784754968,-1.14385976,1.62945637,-3.99733497,,,
imu,329.943379,-0.0903210728,-9.3628857784,3.2581383016,-0.8821679099999999,1.83133294,-3.85527368,,,
imu,329.951751,-0.1064711984,-9.349726416800001,3.2485678568,-0.49336859,2.0257326,-3.82536604,,,
imu,329.960123,-0.08792846160000001,-9.353913486400002,3.2366048008,-0.21672292,2.23508608,-3.63096638,,,
imu,329.968495,-0.0747691,-9.3796340568,3.233614036800001,0.06739966,2.51920866,-3.66835093,,,
imu,329.976867,-0.0747691,-9.4215047528,3.2443807872,0.11226112,2.57154703,-3.75807385,,,
imu,329.985239,-0.0747691,-9.4633754488,3.2407918704,-0.04475399000000001,2.66874686,-3.88518132,,,
imu,329.993611,-0.0813487808,-9.4496179344,3.2204546752,0.03001510999999998,2.78090051,-4.04967334,,,
imu,330.001983,-0.110658268,-9.4460290176,3.2294269672,-0.23167674,2.87062343,-4.40108811,,,
imu,330.010355,-0.1333880744,-9.4322715032,3.2348103424,-0.50832241,2.94539253,-4.6179185,,,
imu,330.018727,-0.1393696024,-9.427486280800002,3.238997412,-0.5980453299999999,3.34166876,-4.25154991,,,
imu,330.027099,-0.1609031032,-9.446627170400001,3.274288427200001,-1.04665993,3.58840679,-3.82536604,,,
imu,330.035471,-0.2129423968,-9.4699551296,3.291634858400001,-1.43545925,3.77532954,-3.81041222,,,
imu,330.043843,-0.2578038568000001,-9.528574104,3.2946256224,-1.73453565,4.03702139,-4.0197657,,,
imu,330.052215,-0.2655798432,-9.531564868,3.2814662608,-2.25044244,4.68003565,-4.102011709999999,,,
imu,330.060587,-0.2889078024000001,-9.527377798400002,3.3341037072,-2.78877996,5.25575772,-3.82536604,,,
imu,330.068959,-0.3493212352000001,-9.591978300800001,3.3646095,-3.42431731,5.99597181,-3.48890509,,,
imu,328.554075,,,,,,,-83.8634748,171.6515124,117.5614544
imu,328.655638,,,,,,,-83.69257400000001,171.9078636,115.7792032
imu,328.757169,,,,,,,-83.8268532,171.8468276,117.0975808
imu,328.858732,,,,,,,-84.1686548,172.6280884,116.2796984
imu,328.960325,,,,,,,-83.55829480000001,173.336106,116.8168152
imu,329.06378,,,,,,,-84.1564476,173.7511508,116.1210048
imu,329.163419,,,,,,,-84.1076188,173.7999796,115.2665008
imu,329.265135,,,,,,,-83.96113240000001,174.3615108,116.2186624
imu,330.077331,-0.4252866408000001,-9.6775141512,3.3580298192,-4.14957758,7.02030848,-3.48142818,,,
imu,330.085703,-0.5197947832,-9.813892989600001,3.3927226816,-4.99446841,8.36615228,-3.60105874,,,
imu,330.09416,-0.6741182056000001,-9.879091644800003,3.365207652800001,-6.34778912,9.9512572,-4.13939626,,,
imu,330.102617,-0.7770004872000001,-9.941299536000002,3.4196395576,-8.08990915,12.23919166,-5.62730135,,,
imu,330.111074,-0.9887465784000001,-10.0866506664,3.4316026136,-10.12362867,15.1103251,-7.54886722,,,
imu,330.119531,-1.2872248256,-10.1488585576,3.4411730584,-12.58353206,18.75158027,-9.51529455,,,
imu,330.127989,-1.4337722616,-10.3283043976,3.456126878400001,-15.42475786,23.50689503,-11.37704514,,,
imu,330.136446,-1.5067469032,-10.3893159832,3.376572556000001,-18.75945972,29.28654646,-13.25374955,,,
imu,330.144903,-1.5534028216,-10.539452336,3.4316026136,-23.0063446,35.18582845,-15.69869912,,,
imu,330.15336,-1.5719455584,-10.5250966688,3.3293184848,-27.63455189,41.08511043999999,-18.38290981,,,
imu,330.161817,-1.4977746112,-10.410849484,3.221650980800001,-32.12069789,47.06663844,-20.68579809,,,
imu,330.170275,-1.4062572328,-10.276265104,3.1456855752,-36.55450552,52.71170549,-22.83914817,,,
imu,330.178732,-1.3021786456,-10.057939332,3.0368217656,-39.91911502,57.94554248999999,-24.40182236,,,
imu,330.187189,-1.1418736952,-9.889858395200001,2.9889695416,-42.62575644,62.67842652,-25.64298942,,,
imu,330.195646,-1.0300191216,-9.820472670400001,3.0045215144,-44.51741467,66.95521904,-26.86172575,,,
imu,330.204103,-0.8529658928000001,-9.717590388800001,3.0182790288,-45.79596628,70.45441292000001,-28.22252337,,,
imu,330.212561,-0.5251781584,-9.447225323200001,2.987773236,-46.64085711,73.14610052,-30.16651997,,,
imu,330.221018,-0.2458408008,-9.255816427200001,3.094244434400001,-46.82030295,74.94803583000001,-32.02827056,,,
imu,330.229475,-0.008972292000000002,-9.085941032000001,3.249166009600001,-46.49879582,75.62095773,-33.43392964,,,
imu,330.237932,0.2009793408,-8.9639178608,3.3269258736,-45.6613819,75.31440442,-34.05451317,,,
imu,330.246389,0.442633072,-8.80779998,3.419041404800001,-44.7641527,74.46951359,-33.86759042,,,
imu,330.254846,0.6388271904000001,-8.8341187032,3.6989769152,-43.35101671,73.01151614,-32.40959297,,,
imu,330.263304,0.7022313872,-8.910084108800001,3.905937784,-41.78834252,70.9628428,-29.93473576,,,
imu,330.271761,0.726755652,-8.911878567200002,3.9196952984,-40.62942147,68.54032396000001,-27.43744782,,,
imu,330.280218,0.7632429728000001,-8.868213412800001,3.938836188000001,-40.14342232,66.05798984,-26.18132694,,,
imu,330.288675,0.8362176144000002,-8.695945406400002,4.025568344000001,-39.38825441,63.48593279999999,-24.25976107,,,
imu,330.297144,0.9319220624000001,-8.58349268,4.130245084,-38.08727207,60.69704537,-21.20170488,,,
imu,330.305612,0.9749890640000002,-8.555977651200001,4.214584628800001,-36.63675153,57.4296357,-19.00349334,,,
imu,330.314081,0.9971207176000002,-8.5996428056,4.336009647200001,-35.02921588,53.60145778,-18.03149504,,,
imu,330.32255,1.0174579128,-8.58349268,4.4197510392,-33.74318736,49.78823368,-17.35109623,,,
imu,330.331018,1.0054948568,-8.549397970400001,4.547157585600001,-32.5020203,45.9151943,-16.1323599,,,
imu,330.339487,0.9235479232000001,-8.575118540800002,4.700882855200001,-31.35057616,42.13187783999999,-15.15288469,,,
imu,330.347956,0.9044070336000001,-8.5763148464,4.8025688312,-30.67017735,38.79717598,-14.20331712,,,
imu,330.356424,0.8936402832000001,-8.515901413600002,4.8617859584,-29.90005562,35.91108872,-12.53596619,,,
imu,330.364893,0.8792846160000001,-8.441730466400001,4.90485296,-29.25704136,33.29417022,-11.13030711,,,
imu,330.373361,0.8996218112000001,-8.3167165312,4.9742386848,-28.47944272,30.84922065,-9.859232409999999,,,
imu,330.38183,0.9313239096000001,-8.273649529600002,5.0519985488,-27.44015223,28.35940962,-8.68535754,,,
imu,330.390299,0.9408943544,-8.2509197232,5.132151024000001,-26.19898517,25.82473713,-7.578774859999999,,,
imu,330.398767,0.8888550608000001,-8.3095386976,5.2422111392,-24.7260339,23.21529554,-6.67406875,,,
imu,330.407236,0.8296379336000002,-8.212637944,5.2721187792,-23.66431268,20.59090013,-6.12825432,,,
imu,330.415705,0.7907580016000001,-8.273649529600002,5.419264368,-22.57268382,18.09361219,-6.090869769999999,,,
imu,330.424173,0.7740097232000002,-8.279032904800001,5.422255132000001,-21.79508518,15.81315464,-5.93385466,,,
imu,330.432642,0.6950535536000001,-8.1988804296,5.402516089600001,-21.04739418,13.89906568,-5.6646859,,,
imu,330.44111,0.6322475096000001,-8.176748776000002,5.487453787200002,-20.39690301,12.30648385,-5.24597894,,,
imu,330.449579,0.6172936896000001,-8.123513176800001,5.508987288000001,-19.83613476,11.11765516,-4.96185636,,,
imu,330.458048,0.6005454112,-8.1330836216,5.553250595200001,-19.03610539,10.04098012,-4.430995749999999,,,
imu,330.466516,0.6113121616,-8.0116586032,5.532913400000001,-18.04915327,8.87458216,-3.85527368,,,
imu,330.474985,0.6304530512000001,-7.914757849600001,5.612467722400001,-16.98743205,7.84276858,-3.33188998,,,
imu,330.483541,0.6501920936000001,-7.993115866400001,5.702788795200001,-15.61168061,6.706278259999999,-2.80102937,,,
imu,330.49201,0.6418179544000001,-8.058314521600002,5.693816503200001,-14.43032883,5.29314227,-2.09072292,,,
imu,330.500827,0.5820026744000001,-8.1641875672,5.749444713600001,-13.69759165,3.9697292,-1.6271545,,,
imu,330.509644,0.5497024232000001,-8.199478582400001,5.755426241600001,-13.15177722,2.85566961,-1.11872462,,,
imu,330.51846,0.4982612824000001,-8.117531648800002,5.688433128000001,-13.06953121,2.01077878,-1.1037708,,,
imu,330.527277,0.451605364,-8.125905788,5.7608096168,-12.65830116,1.21074941,-1.44770866,,,
imu,330.536094,0.4276792520000001,-8.136672538400001,5.733294588000001,-12.38165549,0.6051196999999999,-1.70940051,,,
imu,330.544911,0.4061457512000001,-8.0565200632,5.669890391200001,-12.22464038,0.3509047599999997,-1.94866163,,,
imu,330.553728,0.4216977240000001,-7.933898739200001,5.7111629344,-11.76107196,0.1714589200000001,-2.31503022,,,
imu,330.562545,0.4031549872,-7.874083459200001,5.791315409600001,-10.47504344,0.0368745399999999,-2.41223005,,,
imu,330.571362,0.3744436528,-7.889635432,5.809858146400001,-9.06938436,-0.2472480400000001,-2.44213769,,,
imu,330.580179,0.3379563320000001,-7.994312172000001,5.848738078400001,-7.57400236,-0.3369709599999999,-2.4496146,,,
imu,330.588996,0.3098431504,-7.996106630400001,5.828999036,-6.86369591,-0.3294940500000001,-2.45709151,,,
imu,330.597813,0.2775428992,-8.0319957984,5.8690752736,-6.39265058,-0.2397711300000003,-2.4496146,,,
imu,330.60663,0.2542149400000001,-8.0170419784,5.8523269952,-6.026281989999999,0.006966899999999665,-2.60662971,,,
imu,330.615447,0.2566075512,-8.085829550400002,5.819428591200001,-5.764590139999999,0.2462280199999998,-2.98047521,,,
imu,330.624264,0.2775428992,-8.082240633600001,5.7464539496,-5.24120644,0.6350273399999997,-3.37675144,,,
imu,330.63308,0.3170209840000001,-8.0170419784,5.729107518400001,-4.69539201,0.7322271699999998,-3.98238115,,,
imu,330.641897,0.3385544848000001,-7.905187404800001,5.750641019200001,-3.865455,0.5677351499999999,-4.4683803,,,
imu,330.650714,0.3505175408000001,-7.888439126400002,5.802680312800001,-2.54204193,0.2686587499999997,-4.79736434,,,
imu,330.659531,0.3576953744,-8.030799492800002,5.870271579200001,-1.25601341,-0.2023865800000002,-4.931948719999999,,,
imu,330.668348,0.3116376088,-8.1426540664,5.828999036,-0.47093786,-0.57623208,-4.5431494,,,
imu,330.677165,0.2554112456,-8.158206039200001,5.806269229600001,-0.21672292,-0.8454008399999999,-4.5431494,,,
imu,330.685982,0.2584020096,-8.179141387200001,5.821223049600001,-0.09709236,-0.6285704500000002,-4.43847266,,,
imu,330.694799,0.2207183832,-8.1701690952,5.7638003808,-0.13447691,-0.3444478700000002,-4.49081103,,,
imu,330.703271,0.1979885768,-8.1845247624,5.709368476000001,-0.01484635000000001,-0.1799558500000003,-4.92447181,,,
imu,330.711744,0.227298064,-8.106166745600001,5.628019695200001,0.20198404,0.27613566,-5.522624609999999,,,
imu,330.720216,0.2697669128,-8.043958854400001,5.647160584800001,0.7253677399999999,0.4630584099999999,-5.88151629,,,
imu,330.728689,0.305057928,-8.0026863112,5.686040516800001,1.42072037,0.4630584099999999,-6.10582359,,,
imu,330.737161,0.3152265256,-8.055921910400002,5.7416687272,2.116073,0.2387511099999999,-6.464715269999999,,,
imu,330.745634,0.3241988176,-8.068483119200001,5.747052102400001,3.02077911,-0.3220171400000003,-6.60677656,,,
imu,330.754106,0.3373581792000001,-8.0445570072,5.7434631856,3.74603938,-0.9575544899999997,-6.53948437,,,
imu,330.762578,0.3481249296000001,-7.968591601600001,5.768585603200001,4.35166909,-1.60056875,-6.554438189999999,,,
imu,330.771051,0.3576953744,-7.909374474400002,5.813447063200001,5.09188318,-2.16881391,-6.10582359,,,
imu,330.779523,0.4025568344,-7.8878409736,5.813447063200001,6.17603513,-2.909028,-5.33570186,,,
imu,330.787996,0.5090280328000001,-7.839988749600002,5.761407769600001,7.53683275,-3.81373411,-4.647826139999999,,,
imu,330.796468,0.6830904976000001,-7.795725442400001,5.751239172,9.219137499999999,-4.74087095,-4.034719519999999,,,
imu,330.804941,0.8631344904,-7.672505965600001,5.751239172,10.85658079,-6.46803716,-3.7206893,,,
imu,330.813413,1.0066911624,-7.582184892800002,5.800287701600001,12.98002323,-9.01766347,-3.85527368,,,
imu,330.821886,1.0252338992,-7.524164071200001,5.770380061600001,15.69414156,-11.96356601,-4.07210407,,,
imu,330.830358,1.0102800792,-7.492461972800001,5.694414656000001,18.80453612,-14.99171456,-4.04967334,,,
imu,330.83883,0.9857558144000002,-7.374625871200001,5.6340012232,21.77286939,-18.16940131,-3.98238115,,,
imu,330.847303,0.9438851184000001,-7.2866974096,5.7015924896,25.13000198,-21.26484205,-3.61601256,,,
imu,330.855775,0.8840698384000001,-7.345914536800001,5.700396184000001,28.60676513,-24.45000571,-3.39918217,,,
imu,330.864248,0.8589474208000002,-7.447600512800001,5.6178510976,32.34522012999999,-27.53049263,-2.91318302,,,
imu,330.87272,0.8200674888,-7.561249544800002,5.586747152000001,35.44813778,-30.67079483,-2.09072292,,,
imu,330.881193,0.6926609424000001,-7.6108962272,5.562222887200001,38.18468684,-33.75875866,-0.9318018699999999,,,
imu,330.889665,0.5580765624000001,-7.672505965600001,5.484463023200001,40.98852809,-36.65232283,0.10001171,,,
imu,329.366667,,,,,,,-81.8248724,173.336106,113.6673576
imu,329.468138,,,,,,,-83.98554680000001,174.2150244,116.0355544
imu,329.569731,,,,,,,-82.0201876,173.030926,113.8260512
imu,329.671263,,,,,,,-84.51045640000001,173.9830876,116.2796984
imu,329.772825,,,,,,,-84.43721319999999,174.2638532,115.6815456
imu,329.876737,,,,,,,-84.5836996,174.5202044,115.9256896
imu,329.97595,,,,,,,-84.6935644,174.8864204,115.5594736
imu,330.077482,,,,,,,-84.74239320000001,174.373718,115.5472664
imu,330.898138,0.3995660704000001,-7.831614610400001,5.4156754512,43.67273878,-39.23185678,0.9673332700000001,,,
imu,330.906602,0.2075590216,-8.0654923552,5.317578392000001,45.87095032,-40.93659226,2.27579252,,,
imu,330.915067,0.0406743904,-8.252116028800002,5.200938596000001,47.39623996,-41.9384982,3.67397469,,,
imu,330.923532,-0.07955432240000002,-8.3394463376,5.076522813600001,48.45048427,-42.37215898,5.146925960000001,,,
imu,330.931997,-0.173464312,-8.336455573600002,4.950910725600001,49.30285201,-42.67123538,6.238554820000001,,,
imu,330.940462,-0.2386629672,-8.414813590400001,4.865973028000001,50.24494266999999,-42.57403555,7.12830711,,,
imu,330.948926,-0.3062542336,-8.6145966256,4.758903676800001,51.03001822,-42.3123437,7.943290300000001,,,
imu,330.957391,-0.3870048616000001,-8.814977813600002,4.5962061152,51.41134063,-41.85625219,8.96762697,,,
imu,330.965856,-0.4025568344,-8.91247672,4.477173708,51.44872518,-41.44502214,9.91719454,,,
imu,330.974321,-0.4803166984,-9.002797792800001,4.390441552,50.95524912,-40.85434625,10.5602088,,,
imu,330.982786,-0.5006538936,-9.120633894400001,4.3533560784,50.52158833999999,-40.09170143,11.20322306,,,
imu,330.991251,-0.5467116592000001,-9.274359164000002,4.225949532,49.64678987,-39.13465695,11.97334479,,,
imu,330.999715,-0.6083213976,-9.370063612000001,4.103926360800001,48.68974539,-37.95330517,12.81823562,,,
imu,331.00818,-0.6065269392000001,-9.398774946400001,4.050092608800001,47.34390158999999,-36.65979974,13.33414241,,,
imu,331.016645,-0.5676470072,-9.401765710400001,4.0040348432,45.75879667,-35.36629431,13.31918859,,,
imu,331.02511,-0.5849934384000001,-9.4286825864,3.9196952984,44.3606145,-34.20737326,12.93038927,,,
imu,331.033575,-0.5628617848,-9.447823476,3.7958776688,43.13440126,-33.28771333,12.31728265,,,
imu,331.042039,-0.535346756,-9.439449336800001,3.706752901600001,41.9680033,-32.45029941,11.68922221,,,
imu,331.050504,-0.5694414656000001,-9.5118258256,3.7043602904,40.59972877,-31.73999296,10.94900812,,,
imu,331.058969,-0.6059287864000001,-9.516012895200001,3.6254041208,39.41090008,-30.76799466,10.35833223,,,
imu,331.067434,-0.5718340768000001,-9.5501076048,3.514745852800001,38.13234847,-29.99039602,9.99196364,,,
imu,331.075899,-0.5329541448,-9.519601812000001,3.416648793600001,37.0332427,-28.82399806,9.70784106,,,
imu,331.084363,-0.5144114080000001,-9.555490980000002,3.3873393064,35.94909075,-27.7323692,9.52091831,,,
imu,331.092828,-0.4958686712000001,-9.6159044128,3.3035979144,35.18644593,-26.56597124,9.33399556,,,
imu,331.101293,-0.4498109056,-9.652989886400002,3.241988176,34.16210925999999,-25.58649603,9.24427264,,,
imu,331.109774,-0.3965753064,-9.576426328,3.18516366,33.16020331999999,-24.93600486,9.147072810000001,,,
imu,331.118256,-0.3523119992,-9.597361676,3.177387673600001,32.14334356,-24.41262116,8.57135074,,,
imu,331.126737,-0.3331711096,-9.6051376624,3.1020204208,31.4255602,-23.85932982,7.748890640000001,,,
imu,331.135218,-0.340947096,-9.614109954400002,3.054168196800001,30.65543847,-23.55277651,6.896522900000001,,,
imu,331.1437,-0.3253951232,-9.606333968000001,2.978800944,29.91522438,-23.096685,6.17873954,,,
imu,331.152181,-0.3062542336,-9.6117173432,2.9351357896,29.21987175,-22.69293186,5.954432239999999,,,
imu,331.160663,-0.2966837888,-9.642223136000002,2.8938632464,28.7338726,-22.23684035,5.85723241,,,
imu,331.169144,-0.3218062064,-9.658373261600001,2.8484036336,28.26282727,-21.66859519,5.7002173,,,
imu,331.177625,-0.3385544848000001,-9.697253193600002,2.793373576,27.76935121,-21.03305784,5.819847859999999,,,
imu,331.186107,-0.361882444,-9.722375611200002,2.745521352,27.11138313,-20.30779757,5.73012494,,,
imu,331.194588,-0.3553027632,-9.770825988000002,2.7419324352,26.1917232,-19.64982949,5.59554056,,,
imu,331.203069,-0.3062542336,-9.780396432800002,2.7221933928,25.5935704,-18.9843845,5.535725279999999,,,
imu,331.211551,-0.2859170384,-9.809107767200002,2.7263804624,24.56175682,-18.6853081,5.012341579999999,,,
imu,331.220032,-0.2649816904,-9.859950755200002,2.7144174064,23.32058976,-18.43857007,4.316988950000001,,,
imu,331.228513,-0.2081571744,-9.886867631200001,2.7180063232,22.17662253,-18.13949367,3.64406705,,,
imu,331.236995,-0.1369769912,-9.8749045752,2.700659892,20.78591727,-18.15444749,3.13563717,,,
imu,331.245476,-0.09570444800000001,-9.845595088000001,2.6833134608,19.35782746,-18.37875479,2.87394532,,,
imu,331.253957,-0.09869521200000002,-9.802528086400002,2.6653688768,18.09422967,-18.64792355,2.90385296,,,
imu,330.178974,,,,,,,-85.9997348,175.3136724,113.142448
imu,330.280567,,,,,,,-89.8205884,177.4499324,109.175108
imu,330.382099,,,,,,,-88.51441799999999,177.8893916,103.4499312
imu,330.483845,,,,,,,-90.7361284,179.8181292,104.3776784
imu,330.585255,,,,,,,-88.40455320000001,179.9768228,100.202816
imu,330.686787,,,,,,,-90.69950680000001,180.843534,102.9250216
imu,330.78838,,,,,,,-91.22441640000001,180.9533988,103.1691656
imu,330.889942,,,,,,,-91.016894,179.8913724,105.2810112
imu,330.991535,,,,,,,-89.77175960000001,177.5964188,110.0662336
imu,331.093067,,,,,,,-87.23266199999999,175.7897532,112.837268
imu,331.194721,,,,,,,-86.4636084,174.3004748,115.0956
