Type,Timestamp,Data Accelerometer X,Data Accelerometer Y,Data Accelerometer Z,Data Gyroscope X,Data Gyroscope Y,Data Gyroscope Z,Data Magnetometer X,Data Magnetometer Y,Data Magnetometer Z
imu,473.482044,0.6507902464,-8.509321732800002,5.270922473600001,-1.03170611,5.21089626,-1.03647861,,,
imu,473.490839,0.6603606912000002,-8.505732816000002,5.273315084800001,-1.00179847,5.15108098,-1.12620153,,,
imu,473.499633,0.6711274416,-8.492573454400002,5.2613520288,-0.83730645,4.94920441,-1.14863226,,,
imu,473.508427,0.6789034280000001,-8.47881594,5.255968653600001,-0.53823005,4.88191222,-1.11124771,,,
imu,473.517222,0.6789034280000001,-8.487788232000002,5.2595575704,-0.52327623,4.694989469999999,-1.14115535,,,
imu,473.526016,0.6878757200000001,-8.484199315200001,5.2631464872,-0.44103022,4.567882,-1.23087827,,,
imu,473.53481,0.6908664840000001,-8.4853956208,5.281689224000001,-0.26158438,4.56040509,-1.09629389,,,
imu,473.543605,0.7010350816000002,-8.472834412000001,5.272716932000001,-0.20924601,4.23142105,-1.1037708,,,
imu,473.552399,0.7052221512000001,-8.470441800800002,5.2858762936,-0.07466163,4.22394414,-0.96918642,,,
imu,473.561194,0.7153907488000001,-8.47881594,5.297839349600001,0.20946095,4.16412886,-0.8944173199999998,,,
imu,473.569988,0.726755652,-8.5033402048,5.3032227248,0.11226112,3.91739083,-0.8944173199999998,,,
imu,473.578782,0.7153907488000001,-8.505732816000002,5.299035655200001,0.14964567,3.85757555,-0.8645096799999998,,,
imu,473.587577,0.7273538048000001,-8.493769760000001,5.2948485856,0.14964567,3.64074516,-1.01404788,,,
imu,473.596371,0.7315408744,-8.4889845376,5.290063363200001,0.26179932,3.4463455,-1.21592445,,,
imu,473.605165,0.7345316384000001,-8.47881594,5.290661516,0.29170696,3.32671494,-1.37293956,,,
imu,473.61396,0.723764888,-8.4746288704,5.2888670576,0.41881443,3.1472691,-1.41780102,,,
imu,473.622754,0.7219704296,-8.4853956208,5.2954467384,0.41881443,2.95286944,-1.52247776,,,
imu,473.631227,0.7231667352000001,-8.4710399536,5.2888670576,0.57582954,2.80333124,-1.75426197,,,
imu,473.639699,0.7249611936,-8.451899064000001,5.283483682400001,0.66555246,2.67622377,-1.97856927,,,
imu,473.648172,0.7219704296,-8.448908300000001,5.300231960800001,0.9272443100000001,2.66126995,-2.09072292,,,
imu,473.656644,0.7165870544000001,-8.449506452800001,5.299633808,1.11416706,2.42948574,-2.26269185,,,
imu,473.665116,0.7291482632,-8.459675050400001,5.2954467384,1.39081273,2.29490136,-2.24773803,,,
imu,473.673589,0.7195778184000001,-8.4471138416,5.2972411968,1.55530475,2.11545552,-2.27764567,,,
imu,473.682061,0.7082129152000001,-8.4435249248,5.2948485856,1.87681188,1.86871749,-2.57672207,,,
imu,473.690534,0.7076147624000001,-8.445917536000001,5.3098024056,2.08616536,1.77151766,-2.68139881,,,
imu,473.699006,0.7141944432000001,-8.4477119944,5.309204252800001,2.2656112,1.59207182,-2.68139881,,,
imu,473.707479,0.7052221512000001,-8.459675050400001,5.3014282664,2.46001086,1.56964109,-2.71130645,,,
imu,473.715951,0.6932590952000001,-8.463263967200001,5.304419030400001,2.81142563,1.45748744,-2.76364482,,,
imu,473.724424,0.6878757200000001,-8.4794140928,5.3098024056,2.98339456,1.21822632,-2.73373718,,,
imu,473.732896,0.6753145112000001,-8.4931716072,5.309204252800001,3.04320984,1.15093413,-2.83093701,,,
imu,473.741368,0.6693329832000001,-8.497956829600001,5.3050171832,3.15536349,1.07616503,-2.69635263,,,
imu,473.749841,0.6699311360000001,-8.4919753016,5.3020264192,3.26004023,1.0537343,-2.69635263,,,
imu,473.758313,0.6591643856000001,-8.494367912800001,5.296044891200001,3.282470959999999,0.9939190199999999,-2.71878336,,,
imu,473.766786,0.6573699272000001,-8.486591926400001,5.2858762936,3.24508641,1.03130357,-2.74121409,,,
imu,473.775258,0.6472013296000001,-8.471638106400002,5.279296612800001,3.37219388,1.04625739,-2.65896808,,,
imu,473.783731,0.6537810104000001,-8.4602732032,5.269726168,3.55163972,1.03878048,-2.68887572,,,
imu,473.792203,0.6687348304,-8.451899064000001,5.2613520288,3.69370101,0.9565344699999998,-2.62158353,,,
imu,473.800675,0.6824923448,-8.451899064000001,5.2529778896,3.84323921,0.8593346399999997,-2.4496146,,,
imu,473.809148,0.6890720256,-8.4722362592,5.253576042400001,4.20213089,0.6948426199999997,-2.34493786,,,
imu,473.81762,0.7034276928000001,-8.462665814400001,5.2374259168,4.41148437,0.3733354899999997,-2.3000764,,,
imu,473.826093,0.7118018320000001,-8.456684286400002,5.2272573192,4.68813004,0.05182836000000002,-2.17296893,,,
imu,473.83456,0.7219704296,-8.4746288704,5.221873944000001,5.09936009,-0.03789456000000024,-1.81407725,,,
imu,473.843028,0.7363260968000002,-8.508723580000002,5.2146961104,5.15917537,-0.3893093300000001,-1.64210832,,,
imu,473.851495,0.7285501104000001,-8.5278644696,5.2164905688,5.34609812,-0.71829337,-1.4028472,,,
imu,473.859962,0.7476910000000001,-8.535042303200001,5.203929360000001,5.56292851,-1.00241595,-1.15610917,,,
imu,473.86843,0.7584577504000002,-8.530257080800002,5.194957068000001,5.60031306,-1.39121527,-1.23835518,,,
imu,473.876897,0.7482891528000001,-8.557772109600002,5.188377387200001,5.83209727,-1.70524549,-1.14115535,,,
imu,473.885364,0.7500836112000001,-8.5721277768,5.185984776,5.87695873,-2.05666026,-1.05143243,,,
imu,473.893832,0.7506817640000001,-8.605624333600002,5.196751526400001,5.81714345,-2.47536722,-0.8196482199999999,,,
imu,473.902299,0.7369242496000001,-8.6630470024,5.2117053464,5.72742053,-2.86416654,-0.7822636699999999,,,
imu,473.910686,0.7129981376000001,-8.6869731144,5.213499804800001,5.36852885,-3.08099693,-0.6402023799999998,,,
imu,473.919154,0.7094092208000001,-8.674411905600001,5.193162609600001,5.13674464,-3.29782732,-0.5579563699999999,,,
imu,473.927621,0.70282954,-8.675010058400002,5.18897554,4.99468335,-3.45484243,-0.34860289,,,
imu,473.936088,0.6800997336000001,-8.6726174472,5.178208789600001,4.86009897,-3.64924209,-0.17663396,,,
imu,473.944556,0.6675385248000001,-8.6768045168,5.154880830400001,4.47877656,-3.76139574,-0.12429559,,,
imu,473.953023,0.6675385248000001,-8.664243308000001,5.139927010400001,4.17222325,-3.87354939,-0.12429559,,,
imu,473.96149,0.6495939408000001,-8.6516820992,5.1225805792,4.01520814,-4.07542596,-0.2738337899999999,,,
imu,473.969958,0.6370327320000001,-8.632541209600001,5.1070286064,3.91800831,-4.22496416,-0.4831872699999999,,,
imu,473.978425,0.6107140088,-8.609213250400002,5.0938692448,3.97782359,-4.43431764,-0.7598329399999999,,,
imu,473.986892,0.6005454112,-8.5996428056,5.085495105600001,3.97034668,-4.59133275,-0.9467556899999998,,,
imu,473.99536,0.5790119104,-8.576912999200001,5.06934498,3.90305449,-4.53151747,-1.05143243,,,
imu,474.003827,0.5826008272000001,-8.5649499432,5.062765299200001,3.75351629,-4.62124039,-1.24583209,,,
imu,474.012295,0.5772174520000001,-8.5763148464,5.062765299200001,4.03016196,-4.61376348,-1.1037708,,,
imu,474.020762,0.5766192992000001,-8.5757166936,5.063961604800001,3.95539286,-4.48665601,-1.18601681,,,
imu,474.029229,0.5784137576,-8.576912999200001,5.063961604800001,4.04511578,-4.45674837,-1.15610917,,,
imu,474.037693,0.5855915912,-8.590670513600001,5.066354216000001,4.089977240000001,-4.51656365,-1.07386316,,,
imu,474.046156,0.5742266880000001,-8.6145966256,5.074130202400001,4.35166909,-4.37450236,-0.8645096799999998,,,
imu,474.05462,0.5592728680000001,-8.626559681600002,5.078317272000001,4.32176145,-4.3296409,-0.8794635,,,
imu,474.063083,0.5544876456000001,-8.652878404800001,5.0759246608,4.41148437,-4.16514888,-0.8346020399999998,,,
imu,474.071547,0.5497024232000001,-8.671421141600002,5.0711394384,4.34419218,-3.9557954,-0.76730985,,,
imu,474.080011,0.5449172008000001,-8.6797952808,5.065756063200001,4.26194617,-3.69410355,-0.8420789499999999,,,
imu,474.088474,0.5431227424,-8.689365725600002,5.0609708408,4.18717707,-3.57447299,-0.9243249599999999,,,
imu,474.096938,0.5455153536,-8.704917698400001,5.0585782296,4.05259269,-3.35016569,-1.02152479,,,
imu,474.105401,0.5335522976000001,-8.716880754400002,5.037044728800001,3.87314685,-2.91650491,-1.05143243,,,
imu,474.113865,0.5425245896,-8.730040116000001,5.042428104,3.61893191,-2.57256705,-1.14863226,,,
imu,474.122328,0.5377393672000002,-8.7306382688,5.033455812000001,3.52920899,-2.19872155,-1.23835518,,,
imu,474.130792,0.5347486032000001,-8.745592088800002,5.031661353600001,3.31985551,-1.88469133,-1.44770866,,,
imu,474.139255,0.5395338256000001,-8.7426013248,5.049007784800001,2.90862546,-1.57813802,-1.64958523,,,
imu,474.147719,0.5245800056000001,-8.7593496032,5.0567837712,2.63197979,-1.34635381,-1.91127708,,,
imu,474.156182,0.5269726168000001,-8.750377311200001,5.046017020800001,2.45253395,-1.0398005,-2.06081528,,,
imu,474.164646,0.5108224912,-8.7318345744,5.020296450400001,2.15345755,-0.6210935399999999,-2.32250713,,,
imu,474.173109,0.5185984776000001,-8.745592088800002,5.017305686400001,1.89924261,-0.2472480400000001,-2.44213769,,,
imu,474.181573,0.5096261856000001,-8.7144881432,5.044820715200001,1.5179202,-0.08275602000000015,-2.76364482,,,
imu,474.190037,0.4982612824000001,-8.7485828528,5.036446576000001,1.33847436,0.21632038,-2.95804448,,,
imu,474.1985,0.4779240872000001,-8.760545908800001,5.0083333944,1.03939796,0.7546578999999998,-2.92813684,,,
imu,474.206964,0.4785222400000001,-8.750377311200001,5.028670589600001,0.56835263,1.02382666,-2.9729983,,,
imu,474.215427,0.4617739616000001,-8.7324327272,5.044820715200001,0.1720764,1.38271834,-3.24216706,,,
imu,474.223891,0.4617739616000001,-8.733629032800001,5.0400354928,-0.21672292,1.79394839,-3.2720747,,,
imu,474.232354,0.4575868920000001,-8.7497791584,5.028670589600001,-0.74758353,2.36219355,-3.30945925,,,
imu,474.240823,0.4689517952000001,-8.731236421600002,5.040633645600001,-1.11395212,2.78837742,-3.35432071,,,
imu,474.249292,0.4761296288000001,-8.716880754400002,5.041231798400001,-1.48779762,3.18465365,-3.47395127,,,
imu,474.25776,0.4797185456,-8.710301073600002,5.049605937600001,-1.73453565,3.46129932,-3.56367419,,,
imu,474.266229,0.4910834488,-8.692954642400002,5.048409632,-2.05604278,3.78280645,-3.66835093,,,
imu,474.274697,0.4970649768000001,-8.663645155200001,5.0609708408,-2.39998064,4.16412886,-3.70573548,,,
imu,474.283166,0.5102243384,-8.6516820992,5.0747283552,-2.54951884,4.23889796,-3.69825857,,,
imu,474.291635,0.517402172,-8.637326432,5.073532049600001,-2.69158013,4.44825144,-3.80293531,,,
imu,474.300103,0.5335522976000001,-8.618185542400001,5.073532049600001,-2.65419558,4.59031273,-3.7954584,,,
imu,474.308572,0.5467116592000001,-8.599044652800002,5.081906188800001,-2.67662631,4.70246638,-3.60105874,,,
imu,473.513391,,,,,,,-93.580406,178.3288508,102.0705176
imu,473.615045,,,,,,,-93.336262,178.524166,101.8874096
imu,473.716516,,,,,,,-93.22639720000001,178.4265084,100.996284
imu,474.317041,0.5730303824,-8.5822963744,5.0884858696,-2.63176485,4.77723548,-3.55619728,,,
imu,474.325509,0.5993491056000001,-8.578707457600002,5.108224912000001,-2.39250373,4.717420199999999,-3.3468438,,,
imu,474.333978,0.6107140088,-8.578707457600002,5.114206440000001,-2.34764227,4.4931129,-3.30945925,,,
imu,474.342446,0.6262659816,-8.5727259296,5.126169496,-2.26539626,4.455728349999999,-3.14496723,,,
imu,474.350915,0.6388271904000001,-8.577511152000001,5.1435159272,-2.08595042,4.29123633,-2.99542903,,,
imu,474.359384,0.6477994824000001,-8.581698221600002,5.152488219200001,-1.85416621,3.96225229,-2.78607555,,,
imu,474.367852,0.6448087184,-8.578109304800002,5.1644512752,-1.81678166,3.73794499,-2.74121409,,,
imu,474.376321,0.6567717744000001,-8.578109304800002,5.1662457336,-1.89155076,3.4463455,-2.68887572,,,
imu,474.38479,0.6495939408000001,-8.5613610264,5.173423567200001,-1.77939711,3.11736146,-2.58419898,,,
imu,474.393258,0.6555754688000001,-8.539229372800001,5.175218025600001,-1.5476129,2.81828506,-2.35989168,,,
imu,474.401727,0.6513883992,-8.526668164000002,5.177012484,-1.37564397,2.60893158,-2.27764567,,,
imu,474.410195,0.6609588440000002,-8.518294024800001,5.190171845600001,-1.20367504,2.44443956,-2.2253073,,,
imu,474.418664,0.6711274416,-8.512312496800002,5.184788470400001,-1.03170611,2.28742445,-2.15801511,,,
imu,474.427133,0.6711274416,-8.5033402048,5.191966304,-0.77749117,1.95844041,-2.1505382,,,
imu,474.435601,0.6771089696000001,-8.500947593600001,5.197947832000001,-0.62047606,1.71170238,-2.17296893,,,
imu,474.44442,0.6759126640000002,-8.486591926400001,5.2117053464,-0.40364567,1.61450255,-2.3000764,,,
imu,474.453238,0.6771089696000001,-8.487190079200001,5.2146961104,-0.06718472,1.45001053,-2.24026112,,,
imu,474.462056,0.6759126640000002,-8.4895826904,5.2117053464,0.25432241,1.18831868,-2.35241477,,,
imu,474.470874,0.6753145112000001,-8.4794140928,5.210509040800001,0.29918387,0.9116730099999999,-2.47204533,,,
imu,474.479693,0.6765108168000001,-8.4961623712,5.208714582400001,0.620691,0.70231953,-2.38979932,,,
imu,474.488511,0.6836886504,-8.504536510400001,5.213499804800001,0.8973366700000001,0.66493498,-2.26269185,,,
imu,474.497329,0.6675385248000001,-8.500947593600001,5.2117053464,1.09921324,0.4854891399999999,-2.33746095,,,
imu,474.506147,0.6765108168000001,-8.505134663200002,5.208714582400001,1.36090509,0.2013665599999999,-2.35241477,,,
imu,474.514966,0.6717255944000001,-8.511714344000001,5.2021349016,1.57773548,0.0368745399999999,-2.3748455,,,
imu,474.523784,0.6759126640000002,-8.518294024800001,5.209312735200001,1.71231986,-0.1799558500000003,-2.32998404,,,
imu,474.532602,0.6854831088000001,-8.5236774,5.212901652,1.92167334,-0.3294940500000001,-2.30755331,,,
imu,474.54142,0.6920627896000001,-8.5242755528,5.206920124,2.01139626,-0.4715553400000001,-2.23278421,,,
imu,474.550239,0.7165870544000001,-8.542818289600001,5.2021349016,2.18336519,-0.80053938,-2.18792275,,,
imu,474.559057,0.7315408744,-8.545809053600001,5.192564456800001,2.31794957,-1.21924634,-2.05333837,,,
imu,474.567875,0.7530743752000001,-8.543416442400002,5.191966304,2.5646876,-1.60056875,-1.88884635,,,
imu,474.576693,0.7542706808000001,-8.546407206400001,5.188377387200001,2.80394872,-2.20619846,-1.89632326,,,
imu,474.585512,0.7674300424000001,-8.5380330672,5.178806942400001,3.11050203,-2.79687435,-1.80660034,,,
imu,474.59433,0.7764023344000002,-8.538631220000001,5.157273441600001,3.48434753,-3.40250406,-1.58229304,,,
imu,474.603148,0.7722152648000001,-8.530257080800002,5.1536845248,3.58154736,-4.03804141,-1.55986231,,,
imu,474.611966,0.7494854584000001,-8.5308552336,5.156675288800001,3.85071612,-4.72591713,-1.43275484,,,
imu,474.620785,0.7393168608000001,-8.526668164000002,5.160862358400001,4.17222325,-5.3764083,-1.253309,,,
imu,474.629603,0.7052221512000001,-8.535042303200001,5.1614605112,4.359146,-5.952130370000001,-1.09629389,,,
imu,474.638421,0.6645477608,-8.556575804000001,5.168638344800001,4.72551459,-6.4231757,-0.82712513,,,
imu,474.646875,0.6382290376000002,-8.5589684152,5.162058664000001,4.94982189,-6.75215974,-0.6476792899999999,,,
imu,474.655328,0.6143029256000001,-8.5487998176,5.156077136,5.08440627,-7.07366687,-0.40094126,,,
imu,474.663781,0.5826008272000001,-8.570333318400001,5.153086372000001,5.37600576,-7.26806653,-0.03457266999999997,,,
imu,474.672235,0.5443190480000001,-8.594259430400001,5.144712232800001,5.37600576,-7.484896920000001,0.2271191799999999,,,
imu,474.680688,0.5239818528000001,-8.608016944800001,5.157273441600001,5.38348267,-7.454989279999999,0.3766573800000002,,,
imu,474.689141,0.5108224912,-8.598446500000001,5.1536845248,5.3311443,-7.38769709,0.54862631,,,
imu,474.697595,0.4851019208000001,-8.605026180800001,5.152488219200001,5.35357503,-7.484896920000001,0.52619558,,,
imu,474.706048,0.4539979752000001,-8.612204014400001,5.1435159272,5.30871357,-7.41012782,0.5411494000000001,,,
imu,474.714501,0.4318663216,-8.630148598400002,5.1387307048,5.16665228,-7.0960976,0.5561032200000002,,,
imu,474.722955,0.4103328208,-8.6726174472,5.135739940800001,4.97972953,-6.737205919999999,0.5785339500000002,,,
imu,474.731408,0.4019586816,-8.688767572800002,5.135739940800001,4.77037605,-6.385791149999999,0.5561032200000002,,,
imu,474.739862,0.3876030144000001,-8.685178656000001,5.1213842736,4.48625347,-5.952130370000001,0.4663803,,,
imu,474.748315,0.3911919312,-8.681589739200001,5.102841536800001,4.30680763,-5.451177400000001,0.44394957,,,
imu,474.756768,0.3762381112000001,-8.681589739200001,5.089682175200001,4.1348387,-4.83807078,0.5112417599999999,,,
imu,474.765222,0.3738455000000001,-8.677402669600001,5.073532049600001,4.089977240000001,-4.26982562,0.5112417599999999,,,
imu,474.773675,0.367863972,-8.679197128,5.047213326400001,4.00025432,-3.63428827,0.3542266500000002,,,
imu,474.782128,0.3798270280000001,-8.670224836000001,5.041231798400001,3.947915950000001,-3.10342766,0.18225772,,,
imu,474.790582,0.3798270280000001,-8.672019294400002,5.043026256800001,3.947915950000001,-2.51275177,-0.07195722000000004,,,
imu,474.799035,0.3750418056000001,-8.678000822400001,5.026876131200001,3.947915950000001,-1.95946043,-0.49066418,,,
imu,474.807489,0.3624805968,-8.6594580856,5.017903839200001,3.77594702,-1.286538530000001,-0.8794635,,,
imu,474.815942,0.3553027632,-8.665439613600002,5.006538936,3.589024269999999,-0.6883857300000003,-1.32060119,,,
imu,474.824395,0.3481249296000001,-8.6558691688,4.987996199200001,3.33480933,0.02939763000000006,-1.76921579,,,
imu,474.832849,0.3487230824000001,-8.6690285304,4.983210976800001,3.32733242,0.7995193599999997,-2.05333837,,,
imu,474.841302,0.3612842912,-8.673813752800001,4.967659004000001,3.06564057,1.65936401,-2.54681443,,,
imu,474.849755,0.3636769024000001,-8.6833841976,4.9778276016,2.99087147,2.51173175,-2.89075229,,,
imu,474.858205,0.3762381112000001,-8.694749100800001,4.9778276016,2.93105619,3.2220382,-3.32441307,,,
imu,474.866655,0.3935845424,-8.70312324,4.978425754400001,2.82637945,3.80523718,-3.63844329,,,
imu,474.875104,0.4085383624000001,-8.709702920800002,4.967060851200001,2.63197979,4.29871324,-3.90761205,,,
imu,474.883554,0.4109309736,-8.7174789072,4.9682571568,2.63197979,4.96415823,-4.169303899999999,,,
imu,474.892003,0.4163143488000001,-8.734825338400002,4.971247920800001,2.61702597,5.49501884,-4.408565019999999,,,
imu,474.900453,0.4354552384000001,-8.740208713600001,4.962873781600001,2.33290339,6.14551001,-4.670256869999999,,,
imu,474.908902,0.4539979752000001,-8.7485828528,4.965864545600001,2.30299575,6.80347809,-4.670256869999999,,,
imu,474.917352,0.4731388648000001,-8.7515736168,4.959284864800001,2.1908421,7.14741595,-4.80484125,,,
imu,474.925801,0.4886908376000001,-8.765929284,4.945527350400001,2.09364227,7.61098437,-4.931948719999999,,,
imu,474.934251,0.517402172,-8.7563588392,4.957490406400001,1.7422275,7.90258386,-5.20111748,,,
imu,474.9427,0.5389356728,-8.7527699224,4.952705184000001,1.63007385,8.20166026,-5.31327113,,,
imu,474.95115,0.5413282840000001,-8.761742214400002,4.961677476,1.42072037,8.33624464,-5.60487062,,,
imu,474.9596,0.5658525488000001,-8.7551625336,4.9682571568,1.13659779,8.612890310000001,-5.634778259999999,,,
imu,474.968049,0.5861897440000001,-8.760545908800001,4.962275628800001,0.80761375,8.62784413,-5.634778259999999,,,
imu,474.976499,0.6160973840000001,-8.770714506400001,4.9598830176,0.7403215599999999,8.710090139999998,-5.44785551,,,
imu,474.984948,0.6322475096000001,-8.7426013248,4.9539014896,0.5982602699999999,8.732520869999998,-5.41047096,,,
imu,474.993398,0.6382290376000002,-8.724058588,4.941340280800001,0.47862971,8.597936489999999,-5.39551714,,,
imu,475.001767,0.6525847048000001,-8.733629032800001,4.9449291976,0.3889067899999999,8.44839829,-5.328224949999999,,,
imu,475.010217,0.6537810104000001,-8.750377311200001,4.9652663928,0.1720764,8.0820297,-5.41794787,,,
imu,475.018666,0.646005024,-8.758751450400002,4.9724442264,-0.07466163,7.812860939999999,-5.46280933,,,
imu,475.027116,0.6507902464,-8.7581532976,4.9808183656,-0.11204618,7.40163089,-5.49271697,,,
imu,475.035566,0.6424161072,-8.739012408,4.9873980464,-0.49336859,6.96797011,-5.5151477,,,
imu,475.044015,0.6238733704,-8.7174789072,4.983809129600001,-0.6503837,6.6614168,-5.41047096,,,
imu,475.052465,0.6154992312,-8.742003172,4.9724442264,-0.70272207,6.38477113,-5.193640569999999,,,
imu,475.060936,0.6160973840000001,-8.737816102400002,4.985603588000001,-0.98684465,6.138033099999999,-5.00671782,,,
imu,475.069407,0.6172936896000001,-8.7318345744,4.994575880000001,-1.06161375,5.97354108,-4.74502597,,,
imu,475.077878,0.6232752176,-8.7282456576,4.996968491200001,-1.36069015,5.704372319999999,-4.52071867,,,
imu,475.086349,0.6160973840000001,-8.719273365600001,5.001155560800001,-1.42050543,5.308096089999999,-4.42351884,,,
imu,475.094821,0.601143564,-8.7067121568,4.999361102400001,-1.54013599,5.158557889999999,-4.25154991,,,
imu,475.103292,0.5915731192000001,-8.688169420000001,5.0017537136,-1.59995127,4.87443531,-4.23659609,,,
imu,475.111763,0.5873860496000001,-8.6797952808,5.000557408000001,-1.57752054,4.59778964,-4.169303899999999,,,
imu,475.120234,0.5718340768000001,-8.660056238400001,4.996370338400001,-1.6971511,4.30619015,-4.0945348,,,
imu,475.128705,0.5658525488000001,-8.652280252,5.0017537136,-1.61490509,4.06692903,-3.98985806,,,
imu,473.81817,,,,,,,-92.97004600000001,178.7194812,102.9982648
imu,473.919672,,,,,,,-90.50419160000001,177.9382204,100.6178608
imu,474.021295,,,,,,,-92.60383000000002,178.1945716,103.1691656
imu,474.122766,,,,,,,-90.1990116,177.7673196,100.5202032
imu,474.224329,,,,,,,-92.43292920000002,177.9260132,103.8283544
imu,474.325922,,,,,,,-92.3474788,178.2434004,101.3625
imu,474.427515,,,,,,,-92.6282444,178.7194812,103.8283544
imu,474.529047,,,,,,,-92.43292920000002,178.3288508,103.5720032
imu,475.137176,0.5508987288,-8.649887640800001,5.021492756000001,-1.59247436,3.90243701,-3.9449966,,,
imu,475.145648,0.5604691736,-8.647495029600002,5.0328576592,-1.51022835,3.7454219,-3.78798149,,,
imu,475.154119,0.5365430616000001,-8.652878404800001,5.047213326400001,-1.55508981,3.70803735,-3.58610492,,,
imu,475.16259,0.5197947832,-8.649887640800001,5.054391160000001,-1.52518217,3.51363769,-3.37675144,,,
imu,475.171061,0.5257763112000001,-8.6516820992,5.049605937600001,-1.66724346,3.53606842,-3.16739796,,,
imu,475.179532,0.5293652280000001,-8.6415135016,5.062765299200001,-1.58499745,3.52859151,-2.88327538,,,
imu,475.188003,0.5311596864,-8.639719043200001,5.064559757600001,-1.68967419,3.5211146,-2.76364482,,,
imu,475.196475,0.5269726168000001,-8.625961528800001,5.06934498,-1.5476129,3.47625314,-2.41970696,,,
imu,475.204946,0.5449172008000001,-8.615792931200001,5.0795135776,-1.49527453,3.61831443,-2.09819983,,,
imu,475.213417,0.5455153536,-8.608016944800001,5.0860932584,-1.40555161,3.5958837,-2.03090764,,,
imu,475.221888,0.5479079648000001,-8.601437264000001,5.0825043416,-1.16629049,3.61831443,-2.05333837,,,
imu,475.230359,0.5562821040000001,-8.5972501944,5.075326508000001,-1.05413684,3.76785263,-1.99352309,,,
imu,475.23883,0.5640580904000001,-8.581100068800001,5.081906188800001,-0.9494601,3.79028336,-2.01595382,,,
imu,475.247302,0.5658525488000001,-8.584688985600001,5.075326508000001,-0.66533752,3.79028336,-1.98604618,,,
imu,475.255773,0.5784137576,-8.5900723608,5.075326508000001,-0.56066078,3.90243701,-2.24773803,,,
imu,475.264235,0.5820026744000001,-8.588277902400002,5.085495105600001,-0.19429219,4.00711375,-2.25521494,,,
imu,475.272697,0.5909749664,-8.595455736,5.083700647200001,-0.14943073,4.1192674,-2.35989168,,,
imu,475.28116,0.5951620360000001,-8.588277902400002,5.078317272000001,-0.09709236,4.126744309999999,-2.54681443,,,
imu,475.289622,0.6041343280000001,-8.596053888800002,5.0842988,0.14216876,4.126744309999999,-2.66644499,,,
imu,475.298084,0.6172936896000001,-8.610409556000002,5.078915424800001,0.25432241,4.15665195,-2.72626027,,,
imu,475.306546,0.6178918424000002,-8.605624333600002,5.076522813600001,0.26927623,4.32114397,-2.93561375,,,
imu,475.315009,0.6268641344,-8.5996428056,5.089084022400001,0.46367589,4.38095925,-2.98047521,,,
imu,475.323471,0.6286585928,-8.590670513600001,5.0795135776,0.43376825,4.433297619999999,-3.10758268,,,
imu,475.331933,0.6340419680000001,-8.599044652800002,5.0860932584,0.45619898,4.4183438,-3.22721324,,,
imu,475.340396,0.6418179544000001,-8.606222486400002,5.090280328,0.68798319,4.4183438,-3.27955161,,,
imu,475.348858,0.6466031768,-8.625961528800001,5.081308036,0.53096808,4.33609779,-3.33936689,,,
imu,475.35732,0.6513883992,-8.615792931200001,5.0825043416,0.71789083,4.2688056,-3.31693616,,,
imu,475.365782,0.6531828576,-8.6145966256,5.0825043416,0.83004448,4.30619015,-3.26459779,,,
imu,475.374245,0.6507902464,-8.631344904000002,5.098056314400001,0.7253677399999999,4.33609779,-3.31693616,,,
imu,475.382707,0.6519865520000001,-8.630148598400002,5.092672939200001,0.65807555,4.23142105,-3.40665908,,,
imu,475.391169,0.6525847048000001,-8.632541209600001,5.095663703200001,0.6132140899999999,4.17908268,-3.30945925,,,
imu,475.399631,0.6663422192,-8.6349338208,5.1070286064,0.4711528,4.13422122,-3.40665908,,,
imu,475.408094,0.6687348304,-8.639120890400001,5.0968600088,0.44872207,4.05197521,-3.4216129,,,
imu,475.416556,0.6687348304,-8.639120890400001,5.1004489256,0.46367589,3.88748319,-3.45152054,,,
imu,475.425018,0.6651459136000001,-8.6319430568,5.0986544672,0.19450713,3.84262173,-3.39918217,,,
imu,475.43348,0.6651459136000001,-8.6421116544,5.108823064800001,0.02253820000000001,3.66317589,-3.50385891,,,
imu,475.441943,0.6681366776000001,-8.637326432,5.104635995200001,0.11973803,3.54354533,-3.46647436,,,
imu,475.450405,0.6555754688000001,-8.636728279200002,5.105832300800001,0.23189168,3.62579134,-3.42908981,,,
imu,475.458867,0.6513883992,-8.634335668000002,5.0986544672,0.17955331,3.45382241,-3.42908981,,,
imu,475.467713,0.6513883992,-8.633737515200002,5.081906188800001,0.29918387,3.48373005,-3.41413599,,,
imu,475.47656,0.648995788,-8.62835414,5.083700647200001,0.32909151,3.46877623,-3.5711511,,,
imu,475.485406,0.6477994824000001,-8.632541209600001,5.089682175200001,0.29170696,3.49120696,-3.53376655,,,
imu,475.494252,0.6483976352,-8.626559681600002,5.087289564000001,0.3963837,3.42391477,-3.56367419,,,
imu,475.503098,0.6507902464,-8.618783695200001,5.083700647200001,0.51601426,3.43886859,-3.496382,,,
imu,475.511944,0.6609588440000002,-8.631344904000002,5.081906188800001,0.52349117,3.43139168,-3.44404363,,,
imu,475.52079,0.6567717744000001,-8.646896876800001,5.089084022400001,0.60573718,3.49868387,-3.48890509,,,
imu,475.529636,0.6573699272000001,-8.6421116544,5.081906188800001,0.32909151,3.28185348,-3.63844329,,,
imu,475.538482,0.6579680800000002,-8.632541209600001,5.080111730400001,0.29918387,3.18465365,-3.95995042,,,
imu,475.547328,0.6436124128,-8.6139984728,5.070541285600001,0.30666078,3.02763854,-4.18425772,,,
imu,475.556175,0.6304530512000001,-8.619381848000002,5.071737591200002,0.20946095,2.90053107,-4.25902682,,,
imu,475.565021,0.6184899952000001,-8.6385227376,5.076522813600001,0.22441477,2.90800798,-4.169303899999999,,,
imu,475.573867,0.5915731192000001,-8.668430377600002,5.087887716800001,0.03001510999999998,2.75846978,-4.21416536,,,
imu,475.582713,0.5808063688,-8.687571267200001,5.0986544672,-0.10456927,2.68370068,-4.20668845,,,
imu,475.591559,0.5742266880000001,-8.692954642400002,5.101645231200001,-0.30644584,2.83323888,-4.11696553,,,
imu,475.600405,0.5736285352000001,-8.694150948,5.099252620000001,-0.58309151,2.95286944,-3.98985806,,,
imu,475.609251,0.5790119104,-8.712693684800001,5.083102494400001,-0.77001426,3.16222292,-3.95247351,,,
imu,475.618097,0.5861897440000001,-8.722264129600001,5.081308036,-0.88964482,3.38653022,-3.69825857,,,
imu,475.626944,0.5903768136,-8.747984700000002,5.0950655504,-1.07656757,3.52859151,-3.7206893,,,
imu,475.63579,0.6059287864000001,-8.753368075200001,5.081906188800001,-1.45041307,3.70803735,-3.84779677,,,
imu,475.644636,0.6059287864000001,-8.7551625336,5.095663703200001,-1.78687402,3.73794499,-4.04967334,,,
imu,475.653482,0.6095177032000001,-8.767723742400001,5.0986544672,-2.26539626,3.72299117,-4.34874974,,,
imu,475.662328,0.5993491056000001,-8.768920048000002,5.087887716800001,-2.76634923,3.6706528,-4.625395409999999,,,
imu,475.670779,0.5885823552,-8.771910812000002,5.0777191192,-3.22244074,3.62579134,-5.03662546,,,
imu,475.67923,0.5646562432000001,-8.773107117600002,5.0842988,-4.02247011,3.73794499,-5.48524006,,,
imu,475.68768,0.5455153536,-8.8012202992,5.0968600088,-4.844930209999999,3.90243701,-5.77683955,,,
imu,475.696131,0.5461135064000001,-8.822753800000001,5.0860932584,-5.50289829,4.20151341,-5.85908556,,,
imu,475.704582,0.5305615336,-8.810790744000002,5.089682175200001,-6.28049693,4.3435747,-6.046008309999999,,,
imu,475.713033,0.5317578392000001,-8.805407368800001,5.0920747864,-7.162772309999999,4.65760492,-6.4123769,,,
imu,475.721484,0.5251781584,-8.795836924000001,5.1070286064,-7.940370949999999,4.92677368,-6.621730379999999,,,
imu,475.729935,0.5293652280000001,-8.7976313824,5.112411981600001,-8.80769251,5.10621952,-6.91332987,,,
imu,475.738385,0.5114206440000001,-8.830529786400001,5.135141788,-9.71239862,5.51744957,-7.24231391,,,
imu,475.746836,0.4922797544,-8.813183355200001,5.147104844,-10.62458164,5.876341249999999,-7.50400576,,,
imu,475.755287,0.4821111568000001,-8.754564380800002,5.148301149600001,-11.52928775,6.2128022,-7.76569761,,,
imu,475.763738,0.4713444064,-8.724656740800002,5.1644512752,-12.14239437,6.64646298,-7.92271272,,,
imu,475.772189,0.4653628784000001,-8.685178656000001,5.165647580800001,-12.86017773,7.102554489999999,-8.07972783,,,
imu,475.78064,0.46356842,-8.643307960000001,5.178806942400001,-13.36860761,7.528738359999999,-8.03486637,,,
imu,475.78909,0.4450256832000001,-8.601437264000001,5.203331207200001,-13.75740693,8.007260599999999,-8.11711238,,,
imu,475.797541,0.451605364,-8.547603512000002,5.215294263200001,-14.10134479,8.508213569999999,-8.21431221,,,
imu,475.805992,0.4539979752000001,-8.496760524,5.24879082,-14.43032883,8.76242851,-8.33394277,,,
imu,475.814443,0.4629702672000001,-8.4435249248,5.268529862400001,-14.38546737,9.098889459999999,-8.26665058,,,
imu,475.822894,0.472540712,-8.408233909600002,5.308606100000001,-14.04152951,9.48768878,-8.31151204,,,
imu,475.831344,0.4695499480000001,-8.3819151864,5.3397100456,-13.82469912,9.74190372,-8.49095788,,,
imu,475.839795,0.4845037680000001,-8.338848184800002,5.366626921600001,-13.34617688,9.9512572,-8.26665058,,,
imu,475.848246,0.5030465048,-8.266471696,5.3899548808,-12.70316262,10.21294905,-8.15449693,,,
imu,475.856697,0.5215892416000001,-8.216825013600001,5.416273604000001,-12.06762527,10.3998718,-7.997481819999999,,,
imu,475.865148,0.5395338256000001,-8.192898901600001,5.460536911200001,-11.2675959,10.58679455,-7.90028199,,,
imu,475.873634,0.5497024232000001,-8.182132151200001,5.485061176,-10.55728945,10.51950236,-7.91523581,,,
imu,475.882121,0.5616654792000001,-8.1653838728,5.518557732800001,-9.68249098,10.45221017,-7.76569761,,,
imu,475.890607,0.5861897440000001,-8.138466996800002,5.538894928,-9.07686127,10.34753343,-7.758220699999999,,,
imu,475.899094,0.5909749664,-8.110951968000002,5.562222887200001,-8.17215516,10.15313377,-7.50400576,,,
imu,475.90758,0.6029380224,-8.1103538152,5.59272868,-7.259972139999999,10.13070304,-7.227360089999999,,,
imu,475.916066,0.6113121616,-8.10497044,5.610075111200001,-6.22815856,10.01107248,-6.771268579999999,,,
imu,475.924553,0.631051204,-8.107961204,5.6351975288,-5.42812919,9.801718999999999,-6.113300499999999,,,
imu,475.933039,0.6561736216000001,-8.1115501208,5.6369919872,-4.56828454,9.52507333,-5.761885729999999,,,
imu,475.941526,0.6771089696000001,-8.1181298016,5.661516252000001,-3.70843989,9.30824294,-5.35813259,,,
imu,475.950012,0.7004369288000002,-8.130092857600001,5.679460836000001,-2.97570271,8.97178199,-5.05157928,,,
imu,474.630891,,,,,,,-92.13995640000002,178.6706524,103.9382192
imu,474.732423,,,,,,,-92.176578,178.3654724,104.597408
imu,474.841646,,,,,,,-91.68829000000001,178.1701572,104.6340296
imu,474.943391,,,,,,,-92.0667132,178.0480852,104.9147952
imu,475.044801,,,,,,,-89.3567148,177.669662,103.681868
imu,475.146364,,,,,,,-92.0178844,178.402094,104.4020928
imu,475.247957,,,,,,,-89.51540840000001,177.5964188,102.2292112
imu,475.349489,,,,,,,-92.23761400000001,178.4387156,104.8293448
imu,475.958499,0.7058203040000001,-8.136672538400001,5.689031280800001,-2.23548862,8.51569048,-4.78988743,,,
imu,475.966985,0.7213722768,-8.140859608000001,5.693816503200001,-1.68967419,7.89510695,-4.52819558,,,
imu,475.975471,0.7165870544000001,-8.151028205600001,5.7105647816,-1.04665993,7.32686179,-4.31136519,,,
imu,475.983958,0.7010350816000002,-8.1779450816,5.715948156800001,-0.70272207,6.65393989,-4.20668845,,,
imu,475.992444,0.6992406232000001,-8.1773469288,5.728509365600001,-0.18681528,6.10812546,-3.97490424,,,
imu,476.000931,0.6932590952000001,-8.192898901600001,5.724322296000001,0.08235347999999998,5.57726485,-3.82536604,,,
imu,476.009417,0.6789034280000001,-8.192300748800001,5.726714907200001,0.3216146,5.136127159999999,-3.58610492,,,
imu,476.017904,0.663949608,-8.215628708,5.724322296000001,0.49358353,4.762281659999999,-3.30198234,,,
imu,476.02639,0.6567717744000001,-8.2323769864,5.724920448800001,0.6132140899999999,4.44077453,-3.10010577,,,
imu,476.034876,0.6537810104000001,-8.2539104872,5.717742615200001,0.7552753799999999,4.02206757,-2.71878336,,,
imu,476.043363,0.6442105656,-8.258695709600001,5.705181406400001,0.7104139199999999,3.73046808,-2.51690679,,,
imu,476.051849,0.6334438152,-8.260490168,5.727911212800001,0.64312173,3.51363769,-2.35241477,,,
imu,476.060336,0.6340419680000001,-8.267069848800002,5.713555545600001,0.65807555,3.19213056,-2.19539966,,,
imu,476.068822,0.6232752176,-8.277238446400002,5.705181406400001,0.620691,2.97530017,-2.11315365,,,
imu,476.077316,0.6053306336000001,-8.283219974400001,5.706377712,0.59078336,2.80333124,-1.95613854,,,
imu,476.08581,0.5951620360000001,-8.273649529600002,5.705779559200001,0.43376825,2.60893158,-2.01595382,,,
imu,476.094454,0.5849934384000001,-8.2778365992,5.697405420000001,0.46367589,2.56407012,-2.01595382,,,
imu,476.102948,0.5772174520000001,-8.281425516,5.6788626832,0.620691,2.64631613,-1.93370781,,,
imu,476.111442,0.5658525488000001,-8.289799655200001,5.681853447200001,0.68050628,2.69117759,-1.88884635,,,
imu,476.119936,0.5706377712,-8.279631057600001,5.669292238400001,0.76275229,2.78090051,-1.89632326,,,
imu,476.12843,0.5700396184000001,-8.2742476824,5.6686940856,0.80013684,2.94539253,-1.96361545,,,
imu,476.136924,0.5784137576,-8.265275390400001,5.660918099200001,0.9870595899999999,3.10988455,-2.05333837,,,
imu,476.145418,0.5724322296000001,-8.263480932,5.651945807200002,1.02444414,3.2220382,-2.25521494,,,
imu,476.153912,0.5772174520000001,-8.2610883208,5.6477587376,0.9571519499999999,3.25194584,-2.41970696,,,
imu,476.162406,0.6017417168000001,-8.2610883208,5.6387864456,1.01696723,3.38653022,-2.49447606,,,
imu,476.1709,0.6101158560000001,-8.262284626400001,5.6304123064,1.01696723,3.46129932,-2.6739219,,,
imu,476.179394,0.6041343280000001,-8.272453224000001,5.624430778400002,1.03192105,3.55102224,-2.75616791,,,
imu,476.187888,0.6107140088,-8.2778365992,5.623234472800001,1.00201341,3.55102224,-2.8982292,,,
imu,476.196382,0.6119103144000001,-8.2850144328,5.6274215424,1.15155161,3.58092988,-2.92813684,,,
imu,476.204877,0.6053306336000001,-8.296977488800001,5.632804917600001,1.07678251,3.5958837,-3.06272122,,,
imu,476.213371,0.6035361752000001,-8.2921922664,5.623234472800001,1.19641307,3.64822207,-3.24964397,,,
imu,476.221865,0.6095177032000001,-8.304753475200002,5.6178510976,1.34595127,3.64822207,-3.28702852,,,
imu,476.230359,0.58319898,-8.3059497808,5.617252944800001,1.48801256,3.49120696,-3.30945925,,,
imu,476.238853,0.5891805080000001,-8.310735003200001,5.6202437088,1.71231986,3.43139168,-3.21973633,,,
imu,476.247347,0.5957601888000001,-8.3119313088,5.613664028000001,1.69736604,3.48373005,-3.20478251,,,
imu,476.255841,0.5957601888000001,-8.323894364800001,5.6028972776,1.84690424,3.73046808,-3.16739796,,,
imu,476.264335,0.5861897440000001,-8.3191091424,5.6064861944,1.92167334,3.67812971,-3.14496723,,,
imu,476.272829,0.5915731192000001,-8.320903600800001,5.601700972000001,1.95158098,3.82766791,-3.01038285,,,
imu,476.281268,0.5927694248,-8.313725767200001,5.5969157496,2.0413039,4.02954448,-2.85336774,,,
imu,476.289708,0.5963583416000001,-8.311333156000002,5.604691736,2.05625772,3.99963684,-2.85336774,,,
imu,476.298147,0.6065269392000001,-8.3125294616,5.600504666400001,2.03382699,4.05197521,-2.91318302,,,
imu,476.306587,0.6119103144000001,-8.3131276144,5.5969157496,1.91419643,4.07440594,-2.98047521,,,
imu,476.315026,0.6160973840000001,-8.325688823200002,5.583158235200001,1.77961205,4.194036499999999,-3.0477674,,,
imu,476.323465,0.6298548984000001,-8.3149220728,5.578971165600001,1.76465823,4.32862088,-3.07767504,,,
imu,476.331905,0.6262659816,-8.3226980592,5.5759804016,1.5926893,4.32862088,-2.98795212,,,
imu,476.340344,0.6262659816,-8.325090670400002,5.583756388,1.83195042,4.36600543,-2.99542903,,,
imu,476.348783,0.6304530512000001,-8.3400444904,5.5771767072,1.82447351,4.35105161,-2.98047521,,,
imu,476.357223,0.62806044,-8.3370537264,5.580765624000001,1.77961205,4.53797436,-2.89075229,,,
imu,476.365662,0.6304530512000001,-8.331670351200001,5.5759804016,1.72727368,4.6426511,-2.92065993,,,
imu,476.374102,0.6454068712000001,-8.335259268000001,5.566409956800001,1.82447351,4.65012801,-2.92813684,,,
imu,476.382541,0.6495939408000001,-8.3334648096,5.565811804000001,1.70484295,4.79966621,-2.86832156,,,
imu,476.39098,0.6657440664000001,-8.345427865600001,5.567008109600001,1.73475059,4.82957385,-2.80850628,,,
imu,476.39942,0.6699311360000001,-8.328081434400001,5.546670914400001,1.67493531,4.75480475,-2.76364482,,,
imu,476.407859,0.6968480120000001,-8.3328666568,5.545474608800001,1.76465823,4.74732784,-2.76364482,,,
imu,476.416298,0.6986424704000002,-8.355596463200001,5.557437664800001,1.73475059,4.807143119999999,-2.73373718,,,
imu,476.424738,0.7129981376000001,-8.363970602400002,5.559830276,1.5926893,4.70994329,-2.80102937,,,
imu,476.433177,0.7177833600000001,-8.362176144000001,5.559232123200001,1.40576655,4.70246638,-2.90570611,,,
imu,476.441617,0.7285501104000001,-8.350811240800002,5.5562413592,1.45810492,4.58283582,-2.92065993,,,
imu,476.450056,0.7405131664000002,-8.347222324,5.568204415200001,1.5926893,4.44077453,-2.81598319,,,
imu,476.458495,0.7429057776,-8.332268504000002,5.578971165600001,1.48053565,4.32862088,-2.86084465,,,
imu,476.466935,0.7482891528000001,-8.3436334072,5.559232123200001,1.53287402,4.08188285,-2.91318302,,,
imu,476.475374,0.7369242496000001,-8.348418629600001,5.523342955200001,1.67493531,3.90991392,-3.09262886,,,
imu,476.48421,0.7315408744,-8.3334648096,5.5436801504,1.64502767,3.84262173,-3.06272122,,,
imu,476.493045,0.7261574992000001,-8.3334648096,5.571793332000001,1.42819728,3.55849915,-3.06272122,,,
imu,476.501881,0.7183815128000002,-8.3675595192,5.56282104,1.33847436,3.31176112,-3.00290594,,,
imu,476.510716,0.7112036792,-8.38909302,5.553848748000001,1.23379762,3.28185348,-3.07767504,,,
imu,476.519552,0.6896701784000001,-8.383111492000001,5.553848748000001,1.18893616,3.37905331,-2.96552139,,,
imu,476.528387,0.6974461648000001,-8.368157672,5.568802568000001,0.94219813,3.28185348,-2.86832156,,,
imu,476.537223,0.7064184568,-8.350213088,5.577774860000001,0.8449983,3.25942275,-2.48699915,,,
imu,476.546058,0.7231667352000001,-8.338848184800002,5.5801674712,0.9197674,3.32671494,-2.24026112,,,
imu,476.554894,0.7321390272000001,-8.344829712800001,5.582560082400001,0.9870595899999999,3.11736146,-2.06081528,,,
imu,476.563729,0.7399150136000001,-8.3358574208,5.559232123200001,1.08425942,3.24446893,-1.98604618,,,
imu,476.572565,0.7512799168000001,-8.322099906400002,5.558633970400001,1.15902852,3.1472691,-2.09819983,,,
imu,476.5814,0.7656355840000001,-8.3215017536,5.550259831200001,1.35342818,2.95286944,-2.12063056,,,
imu,476.590236,0.7668318896,-8.307744239200002,5.538296775200001,1.25622835,2.76594669,-2.20287657,,,
imu,476.599071,0.771617112,-8.2957811832,5.535904164000002,1.33847436,2.48182411,-2.40475314,,,
imu,476.607907,0.7662337368000001,-8.293388572000001,5.541287539200001,1.45062801,2.30985518,-2.50942988,,,
imu,476.616742,0.7560651392000002,-8.301164558400002,5.536502316800001,1.53287402,2.06311715,-2.56176825,,,
imu,476.625578,0.7554669864000001,-8.306547933600001,5.530520788800001,1.45810492,1.98087114,-2.60662971,,,
imu,476.634413,0.7435039304000001,-8.3119313088,5.530520788800001,1.68241222,1.92105586,-2.76364482,,,
imu,476.643249,0.7423076248,-8.317912836800001,5.536502316800001,1.69736604,1.85376367,-2.83841392,,,
imu,476.652084,0.7333353328000001,-8.3149220728,5.542483844800001,1.91419643,1.71170238,-2.8234601,,,
imu,476.66092,0.7261574992000001,-8.317912836800001,5.541885692,1.97401171,1.69674856,-2.91318302,,,
imu,476.669755,0.7243630408,-8.329875892800002,5.5353060112,2.06373463,1.53973345,-2.83841392,,,
imu,476.678591,0.7195778184000001,-8.3358574208,5.542483844800001,2.01887317,1.47991817,-2.85336774,,,
imu,476.687017,0.7195778184000001,-8.3424371016,5.541885692,2.07868845,1.50982581,-2.88327538,,,
imu,476.695444,0.7279519576000001,-8.3478204768,5.5371004696,2.25065738,1.59207182,-2.87579847,,,
imu,476.703871,0.7357279440000001,-8.349016782400001,5.537698622400001,2.37776485,1.52477963,-2.70382954,,,
imu,476.712297,0.7309427216000001,-8.334661115200001,5.538296775200001,2.30299575,1.42010289,-2.71878336,,,
imu,476.720724,0.7213722768,-8.350811240800002,5.5353060112,2.39271867,1.33037997,-2.6739219,,,
imu,476.729151,0.7327371800000001,-8.351409393600001,5.535904164000002,2.31047266,1.18831868,-2.70382954,,,
imu,476.737577,0.723764888,-8.3609798384,5.5442783032,2.36281103,1.13598031,-2.63653735,,,
imu,476.746004,0.7177833600000001,-8.349614935200002,5.543081997600001,2.54225687,1.08364194,-2.53933752,,,
imu,476.754431,0.7201759712000001,-8.365765060800001,5.553250595200001,2.47496468,1.10607267,-2.43466078,,,
imu,476.762857,0.7135962904,-8.368157672,5.551456136800001,2.39271867,1.10607267,-2.3000764,,,
imu,476.771284,0.7165870544000001,-8.366961366400002,5.553848748000001,2.29551884,0.9041961000000001,-2.3000764,,,
imu,475.451082,,,,,,,-92.1277492,177.3888964,101.789752
imu,475.552583,,,,,,,-92.2864428,178.5119588,104.0969128
imu,475.654268,,,,,,,-92.3474788,178.3532652,104.292228
imu,475.75583,,,,,,,-92.56720840000001,179.3054268,103.2057872
imu,475.857301,,,,,,,-92.9334244,179.7693004,102.9372288
imu,475.958864,,,,,,,-93.49495560000001,180.1355164,102.0216888
imu,476.060884,,,,,,,-90.63847080000001,179.3298412,100.5446176
imu,476.161989,,,,,,,-92.99446040000001,179.9768228,101.7653376
imu,476.779711,0.7189796656000002,-8.3478204768,5.534707858400001,2.23570356,0.8742884599999998,-2.06081528,,,
imu,476.788137,0.7315408744,-8.3268851288,5.5251374136,2.43010322,0.9565344699999998,-2.01595382,,,
imu,476.796564,0.7405131664000002,-8.327483281600001,5.526931872,2.60207215,0.98644211,-1.96361545,,,
imu,476.804991,0.7387187080000002,-8.328679587200002,5.531118941600001,2.31047266,0.7995193599999997,-2.0757691,,,
imu,476.813417,0.7387187080000002,-8.362176144000001,5.5400912336,2.17588828,0.7696117199999999,-1.99352309,,,
imu,476.821844,0.7321390272000001,-8.3645687552,5.5550450536,2.10859609,0.5976427899999996,-1.84398489,,,
imu,476.830271,0.7285501104000001,-8.3370537264,5.546072761600001,2.08616536,0.47801223,-2.01595382,,,
imu,476.838697,0.7118018320000001,-8.3340629624,5.560428428800001,2.05625772,0.3733354899999997,-2.16549202,,,
imu,476.847124,0.6932590952000001,-8.3304740456,5.5526524424,1.64502767,0.2013665599999999,-2.14306129,,,
imu,476.855551,0.6932590952000001,-8.304155322400002,5.538894928,1.5926893,0.1789358299999999,-2.03838455,,,
imu,476.863977,0.7141944432000001,-8.290397808000002,5.530520788800001,1.84690424,0.2312741999999997,-1.76921579,,,
imu,476.872404,0.7177833600000001,-8.289201502400001,5.5484653728,1.97401171,0.2312741999999997,-1.79912343,,,
imu,476.880831,0.7183815128000002,-8.303557169600001,5.539493080800001,2.01139626,0.01444380999999995,-1.73930815,,,
imu,476.889302,0.7219704296,-8.299968252800001,5.541885692,2.43758013,-0.1350943900000003,-1.76921579,,,
imu,476.897773,0.7285501104000001,-8.2957811832,5.5526524424,2.65441052,-0.4117400600000001,-1.88136944,,,
imu,476.906244,0.7243630408,-8.2909959608,5.550857984000001,2.93105619,-0.59866281,-1.98604618,,,
imu,476.914715,0.7303445688000001,-8.285612585600001,5.532913400000001,3.20770186,-0.80053938,-2.13558438,,,
imu,476.923187,0.7183815128000002,-8.272453224000001,5.5275300248,3.65631646,-1.00241595,-2.12810747,,,
imu,476.931658,0.7231667352000001,-8.273051376800002,5.518557732800001,4.11988488,-1.20429252,-1.91127708,,,
imu,476.940129,0.7381205552000002,-8.277238446400002,5.517361427200001,4.56102257,-1.33139999,-1.70940051,,,
imu,476.9486,0.741709472,-8.289201502400001,5.5125762048,5.01711408,-1.69029167,-1.7766927,,,
imu,476.957071,0.7590559032000002,-8.2957811832,5.5191558856,5.39095958,-2.05666026,-1.6271545,,,
imu,476.965542,0.7835801680000001,-8.304753475200002,5.504800218400001,5.67508216,-2.303398290000001,-1.38789338,,,
imu,476.974014,0.7883653904000001,-8.3197072952,5.511978052000001,5.94425092,-2.69219761,-1.14115535,,,
imu,476.982485,0.7937487656000001,-8.317912836800001,5.499416843200001,6.48258844,-3.11090457,-0.8645096799999998,,,
imu,476.990956,0.7799912512000001,-8.308342392,5.4742944256,7.02092596,-3.44736552,-0.5803870999999998,,,
imu,476.999427,0.7871690848,-8.3161183784,5.4724999672,7.2751409,-3.82121102,-0.32617216,,,
imu,477.007898,0.7937487656000001,-8.310136850400001,5.468312897600001,7.76861696,-4.29225635,-0.05700339999999993,,,
imu,477.016369,0.7871690848,-8.310735003200001,5.450368313600001,8.127508639999999,-4.81564005,0.1074886200000003,,,
imu,477.024841,0.7847764736,-8.311333156000002,5.433620035200001,8.501354139999998,-5.28668538,0.2869344599999999,,,
imu,477.033312,0.7728134176000001,-8.317314684000001,5.4228532848,8.87519964,-5.757730710000001,0.36170356,,,
imu,477.041783,0.7650374312,-8.3215017536,5.4108902288,9.346244969999999,-6.1988684,0.4364726600000002,,,
imu,477.050254,0.7458965416000001,-8.3544001576,5.4090957704,9.660275189999998,-6.5727139,0.54862631,,,
imu,477.058725,0.7333353328000001,-8.371148436,5.394740103200001,9.97430541,-6.7970212,0.7056414200000001,,,
imu,477.067196,0.7159889016000002,-8.399261617600002,5.384571505600001,10.09393597,-7.043759229999999,0.8477027100000001,,,
imu,477.075668,0.7135962904,-8.427972952000001,5.3809825888,10.10888979,-7.305451079999999,1.01967164,,,
imu,477.084139,0.7094092208000001,-8.450702758400002,5.3690195328,10.10888979,-7.49237383,1.14677911,,,
imu,477.092592,0.6908664840000001,-8.484797468000002,5.3516731016,10.21356653,-7.58209675,1.07948692,,,
imu,477.101046,0.6789034280000001,-8.496760524,5.340906351200001,10.12384361,-7.64938894,0.97481018,,,
imu,477.109499,0.6657440664000001,-8.5069291216,5.326550684000001,9.95187468,-7.73163495,1.03462546,,,
imu,477.117952,0.6525847048000001,-8.528462622400001,5.3163820864,9.82476721,-7.873696239999999,0.87013344,,,
imu,477.126406,0.6519865520000001,-8.560762873600002,5.3050171832,9.548121539999999,-7.86621933,0.7654567000000001,,,
imu,477.134859,0.646005024,-8.564351790400002,5.293652280000001,9.346244969999999,-7.64191203,0.7579797899999998,,,
imu,477.143312,0.6388271904000001,-8.559566568000001,5.2840818352,8.957445649999999,-7.656865849999999,0.52619558,,,
imu,477.151766,0.6244715232,-8.5793056104,5.2804929184,8.94996874,-7.60452748,0.52619558,,,
imu,477.160219,0.6184899952000001,-8.578707457600002,5.270324320800001,8.763045989999998,-7.51480456,0.50376485,,,
imu,477.168672,0.601143564,-8.5757166936,5.251781584000001,8.830338179999998,-7.440035460000001,0.50376485,,,
imu,477.177126,0.5760211464000001,-8.573324082400001,5.238622222400001,8.785476719999998,-7.170866699999999,0.4065650199999999,,,
imu,477.185834,0.5604691736,-8.5793056104,5.2272573192,8.66584616,-6.998897769999999,0.242073,,,
imu,477.194288,0.5497024232000001,-8.569735165600001,5.202733054400001,8.449015769999999,-6.76711356,0.21964227,,,
imu,477.202741,0.5544876456000001,-8.562557332,5.193162609600001,8.59855397,-6.51289862,0.1673038999999998,,,
imu,477.211194,0.5389356728,-8.5440145952,5.175218025600001,8.68079998,-6.22129913,-0.04952648999999987,,,
imu,477.219648,0.5323559920000001,-8.5511924288,5.157273441600001,8.74809217,-5.94465346,0.01028879000000016,,,
imu,477.228101,0.5317578392000001,-8.5470053592,5.149497455200001,9.00978402,-5.712869250000001,-0.01214194000000002,,,
imu,477.236554,0.520392936,-8.552986887200001,5.139927010400001,9.039691659999999,-5.50351577,-0.08691103999999994,,,
imu,477.245008,0.5305615336,-8.560762873600002,5.132151024000001,8.994830199999999,-5.204439369999999,-0.04204958000000003,,,
imu,477.253461,0.5407301312,-8.570931471200002,5.1279639544,9.024737839999998,-4.92031679,-0.1093417699999999,,,
imu,477.261915,0.5479079648000001,-8.575118540800002,5.108823064800001,9.106983849999999,-4.65862494,-0.01214194000000002,,,
imu,477.270368,0.5592728680000001,-8.577511152000001,5.094467397600001,9.151845309999999,-4.47170219,0.02524261000000028,,,
imu,477.278821,0.5796100632000001,-8.571529624000002,5.084896952800001,9.106983849999999,-4.31468708,0.0177657,,,
imu,477.287275,0.5915731192000001,-8.586483444,5.070541285600001,9.241568229999999,-4.15019506,0.10001171,,,
imu,477.295748,0.61310662,-8.595455736,5.0502040904,9.308860419999998,-3.9557954,0.15982699,,,
imu,477.304222,0.6250696760000001,-8.6020354168,5.037044728800001,9.36119879,-4.13524124,-0.08691103999999994,,,
imu,477.312696,0.6382290376000002,-8.621774459200001,5.0310632008,9.54064463,-4.12028742,-0.07195722000000004,,,
imu,477.32117,0.6537810104000001,-8.619980000800002,5.0208946032,9.71261356,-4.09037978,-0.03457266999999997,,,
imu,477.329643,0.6579680800000002,-8.639719043200001,5.013118616800001,9.74999811,-4.37450236,-0.2813106999999999,,,
imu,477.338117,0.6705292888000001,-8.649289488,4.998164796800001,9.92944395,-4.53151747,-0.3560797999999998,,,
imu,477.346591,0.6759126640000002,-8.670822988800001,4.985603588000001,10.10888979,-4.63619421,-0.37851053,,,
imu,477.355064,0.6783052752000002,-8.6768045168,4.965864545600001,10.52759675,-4.71096331,-0.3411259799999999,,,
imu,477.363538,0.6681366776000001,-8.684580503200001,4.958686712,10.39301237,-4.97265516,-0.54300255,,,
imu,477.372012,0.6633514552,-8.7108992264,4.9473218088,10.57245821,-5.02499353,-0.6102947399999998,,,
imu,477.380486,0.6651459136000001,-8.707310309600002,4.934760600000001,10.66218113,-5.08480881,-0.6177716499999999,,,
imu,477.388959,0.6555754688000001,-8.7144881432,4.932966141600001,10.7145195,-5.137147179999999,-0.4981410899999998,,,
imu,477.397433,0.6412198016000001,-8.7354234912,4.907843724000001,10.65470422,-5.339023750000001,-0.52057182,,,
imu,477.405907,0.6364345792000001,-8.733030880000001,4.901862196000001,10.76685787,-5.57080796,-0.54300255,,,
imu,477.41438,0.648995788,-8.737816102400002,4.888104681600001,10.57993512,-5.712869250000001,-0.5355256399999999,,,
imu,477.422854,0.6388271904000001,-8.7114973792,4.879132389600001,10.67713495,-5.69791543,-0.5579563699999999,,,
imu,477.431328,0.6394253432000001,-8.704917698400001,4.8755434728,10.68461186,-5.89231509,-0.7523560299999998,,,
imu,477.439802,0.6328456624000001,-8.727049352000002,4.834869082400001,10.69208877,-6.09419166,-0.8196482199999999,,,
imu,477.448275,0.6346401208000001,-8.7557606864,4.813335581600001,10.7892886,-6.26616059,-0.7523560299999998,,,
imu,477.456749,0.6226770648,-8.777892340000001,4.8163263456,10.9388268,-6.430652609999999,-0.6775869299999999,,,
imu,477.465223,0.6232752176,-8.7832757152,4.821111568000001,10.91639607,-6.602621539999999,-0.8121713099999999,,,
imu,477.473696,0.6364345792000001,-8.771910812000002,4.8079522064,11.00611899,-6.625052269999999,-0.7523560299999998,,,
imu,477.48217,0.6298548984000001,-8.7910517016,4.7744556496,11.2379032,-6.669913729999999,-0.5579563699999999,,,
imu,477.490644,0.6406216488000002,-8.809594438400001,4.749333232000001,11.3874414,-6.83440575,-0.1392494099999999,,,
imu,477.499575,0.6597625384000001,-8.7760978816,4.737370176000001,11.49959505,-6.96899013,-0.06448030999999999,,,
imu,477.508506,0.666940372,-8.771910812000002,4.714640369600001,11.51454887,-7.260589619999999,-0.1093417699999999,,,
imu,477.517437,0.6735200528,-8.766527436800002,4.6859290352,11.81362527,-7.507327650000001,-0.01961884999999985,,,
imu,477.526368,0.6765108168000001,-8.7557606864,4.668582604000001,12.16504004,-7.783973319999999,-0.01214194000000002,,,
imu,477.535299,0.6789034280000001,-8.742003172,4.654226936800001,12.21737841,-8.20268028,-0.02709575999999991,,,
imu,477.54423,0.6693329832000001,-8.747386547200001,4.6344878944,12.53888554,-8.63634106,0.07758098000000002,,,
imu,477.553161,0.6585662328000002,-8.750975464000001,4.6320952832,12.89030031,-8.88307909,-0.04204958000000003,,,
imu,477.562092,0.6591643856000001,-8.7701163536,4.6243192968,13.21928435,-9.22701695,-0.1392494099999999,,,
imu,477.571023,0.6519865520000001,-8.799425840800001,4.619534074400001,13.48845311,-9.59338554,-0.12429559,,,
imu,477.579954,0.6466031768,-8.834716856000002,4.614748852000001,13.71276041,-10.0120925,-0.18411087,,,
imu,477.588885,0.6418179544000001,-8.855652204000002,4.603982101600001,13.84734479,-10.20649216,-0.2140185099999998,,,
imu,476.263848,,,,,,,-90.1135612,179.4030844,98.9576816
imu,476.365411,,,,,,,-92.8723884,179.6106068,101.484572
imu,476.466943,,,,,,,-92.1643708,179.0979044,99.22624
imu,476.568444,,,,,,,-93.0799108,180.111102,101.0939416
imu,476.670007,,,,,,,-93.3484692,180.2575884,101.4601576
imu,476.7716,,,,,,,-92.8723884,180.0988948,101.4723648
imu,476.873254,,,,,,,-92.89680280000002,180.3430388,101.1915992
imu,476.974938,,,,,,,-92.7136948,180.3064172,101.7165088
imu,477.597816,0.6274622872000001,-8.8568485096,4.594411656800001,13.79500642,-10.43827637,-0.37851053,,,
imu,477.606747,0.6137047728000001,-8.865222648800001,4.574672614400001,14.03426754,-10.93175243,-0.6402023799999998,,,
imu,477.615678,0.5975546472000001,-8.886756149600002,4.5651021696,14.05669827,-11.08876754,-0.8046943999999998,,,
imu,477.624609,0.5909749664,-8.900513664000002,4.5298111544,14.06417518,-11.17101355,-0.8121713099999999,,,
imu,477.63354,0.5736285352000001,-8.9076914976,4.513062876000001,14.18380574,-11.2831672,-0.85703277,,,
imu,477.642471,0.5640580904000001,-8.920850859200002,4.482557083200001,14.37072849,-11.38036703,-0.90937114,,,
imu,477.651402,0.5550857984,-8.920850859200002,4.4598272768,14.44549759,-11.47756686,-1.12620153,,,
imu,477.660333,0.5329541448,-8.951954804800001,4.447864220800001,14.50531287,-11.49999759,-1.29069355,,,
imu,477.669265,0.5269726168000001,-8.9836569032,4.443677151200001,14.72962017,-11.46261304,-1.4028472,,,
imu,477.678196,0.505439116,-9.018349765600002,4.4197510392,14.69971253,-11.38784394,-1.61220068,,,
imu,477.687127,0.5000557408,-9.032705432800002,4.4125732056,14.74457399,-11.44018231,-1.78416961,,,
imu,477.696058,0.4827093096,-9.045266641600001,4.390441552,14.57260506,-11.3579363,-2.04586146,,,
imu,477.704529,0.4797185456,-9.066201989600001,4.3653191344,14.36325158,-11.20092119,-2.27764567,,,
imu,477.713,0.4659610312,-9.094315171200002,4.3467763976,14.14642119,-11.19344428,-2.49447606,,,
imu,477.721471,0.4432312248,-9.103885616000001,4.314476146400001,14.02679063,-10.9840908,-2.76364482,,,
imu,477.729942,0.4408386136,-9.0805576568,4.280381436800001,13.83239097,-10.86446024,-2.92813684,,,
imu,477.738414,0.4252866408000001,-9.096707782400001,4.264231311200001,13.62303749,-10.72239895,-3.21973633,,,
imu,477.746885,0.4001642232,-9.139176631200002,4.257651630400001,13.35386873,-10.60276839,-3.59358183,,,
imu,477.755356,0.385808556,-9.154728604,4.236716282400001,12.91273104,-10.43827637,-4.0945348,,,
imu,477.763827,0.3636769024000001,-9.187627008000002,4.215780934400001,12.42673189,-10.43827637,-4.49081103,,,
imu,477.772298,0.3415452488,-9.198991911200002,4.1978363504,12.00054802,-10.20649216,-4.87213344,,,
imu,477.780769,0.3170209840000001,-9.210954967200001,4.199032656000001,11.51454887,-10.03452323,-5.2908404,,,
imu,477.789241,0.2853188856,-9.2169364952,4.186471447200001,10.79676551,-9.87003121,-5.64225517,,,
imu,477.797712,0.2464389536,-9.244451524,4.175106544,10.2659049,-9.65320082,-5.9637623,,,
imu,477.806183,0.2225128416,-9.236077384800002,4.1529748904,9.877105579999998,-9.27187841,-6.06096213,,,
imu,477.814654,0.1926052016,-9.224712481600001,4.139815528800001,9.2939066,-9.00270965,-6.47219218,,,
imu,477.823125,0.1740624648,-9.2169364952,4.1200764864,8.86024582,-8.6662487,-6.73388403,,,
imu,477.831596,0.155519728,-9.225908787200002,4.100337444,8.48640032,-8.34474157,-6.91332987,,,
imu,477.840068,0.13458438,-9.228899551200001,4.084187318400001,8.0228319,-8.03071135,-7.1600679,,,
imu,477.848539,0.116639796,-9.217534648,4.072224262400001,7.39477146,-7.75406568,-7.43671357,,,
imu,477.85701,0.09091922560000001,-9.211553120000001,4.064448276,6.99849523,-7.462466190000001,-7.57129795,,,
imu,477.865481,0.0783580168,-9.214543884000001,4.0506907616,6.62464973,-7.043759229999999,-7.63111323,,,
imu,477.873952,0.06101158560000001,-9.211553120000001,4.040522164,6.34052715,-6.759636649999999,-7.713359239999999,,,
imu,477.882423,0.0550300576,-9.2133475784,4.0441110808,6.14612749,-6.35588351,-7.556344129999999,,,
imu,477.890895,0.05084298800000001,-9.2103568144,4.0267646496,5.75732817,-6.10914548,-7.518959579999999,,,
imu,477.899366,0.05383375200000001,-9.210954967200001,4.0189886632,5.65265143,-5.6754847,-7.317083009999999,,,
imu,477.907717,0.06160973840000001,-9.2091605088,4.021979427200001,5.43582104,-5.466131219999999,-6.9357606,,,
imu,477.916069,0.04545961280000001,-9.220525412,4.0189886632,5.36105194,-5.26425465,-6.71893021,,,
imu,477.924421,0.0382817792,-9.221721717600001,4.0159978992,5.09936009,-5.12967027,-6.599299649999999,,,
imu,477.932772,0.02990764000000001,-9.228899551200001,4.010614524,4.98720644,-4.8530246,-6.42733072,,,
imu,477.941124,0.0305057928,-9.2133475784,3.987884717600001,4.86757588,-4.76330168,-6.2628387,,,
imu,477.949476,0.0227298064,-9.212151272800002,3.9902773288,4.60588403,-4.6287173,-6.1880696,,,
imu,477.957827,0.01495382,-9.203178980800002,3.9848939536,4.61336094,-4.38945618,-5.77683955,,,
imu,477.966179,-0.004187069600000001,-9.1930103832,3.973529050400001,4.59093021,-4.38197927,-5.57496298,,,
imu,477.974531,-0.0131593616,-9.190019619200001,3.981305036800001,4.49373038,-4.1801027,-5.43290169,,,
imu,477.982882,-0.0233279592,-9.171476882400002,3.9890810232,4.359146,-3.92588776,-5.25345585,,,
imu,477.991234,-0.0263187232,-9.191215924800002,3.964556758400001,4.32923836,-3.70158046,-5.01419473,,,
imu,477.999585,-0.0352910152,-9.221721717600001,3.935845424,4.41896128,-3.45484243,-4.70016451,,,
imu,478.007937,-0.0442633072,-9.226506940000002,3.944817716,4.23951544,-3.11090457,-4.44594957,,,
imu,478.016289,-0.04964668240000001,-9.1930103832,3.9723327448,4.14231561,-2.85668963,-4.28145755,,,
imu,478.02464,-0.0693857248,-9.191215924800002,3.945415868800001,4.11240797,-2.56509014,-4.25902682,,,
imu,478.032992,-0.07955432240000002,-9.2312921624,3.923882368,4.17222325,-2.03422953,-4.04967334,,,
imu,478.041344,-0.0735727944,-9.2342829264,3.916106381600001,3.97034668,-1.5631842,-3.95247351,,,
imu,478.049695,-0.07297464160000001,-9.2139457312,3.929863896000001,3.8357623,-1.144477240000001,-3.70573548,,,
imu,478.058047,-0.080750628,-9.2169364952,3.935845424,3.90305449,-0.7855855599999999,-3.6459202,,,
imu,478.066399,-0.080750628,-9.224114328800002,3.93285466,3.73856247,-0.3818324200000003,-3.52628964,,,
imu,478.07475,-0.0861340032,-9.242058912800001,3.9310602016,3.75351629,0.2088434699999997,-3.41413599,,,
imu,478.083102,-0.08374139200000001,-9.237273690400002,3.937041729600001,3.63388573,0.7546578999999998,-3.30198234,,,
imu,478.091454,-0.08314323920000001,-9.252825663200001,3.937041729600001,3.52173208,1.1285034,-3.33936689,,,
imu,478.099805,-0.07716171120000001,-9.261199802400002,3.926873132,3.31985551,1.61450255,-3.2720747,,,
imu,478.108269,-0.07177833600000001,-9.2761536224,3.920293451200001,3.10302512,1.98087114,-3.26459779,,,
imu,478.116732,-0.068787572,-9.28632222,3.925078673600001,2.95348692,2.28742445,-3.23469015,,,
imu,478.125196,-0.06220789120000001,-9.274957316800002,3.913713770400001,2.59459524,2.65379304,-3.3468438,,,
imu,478.133659,-0.04785222400000001,-9.288714831200002,3.906535936800001,2.38524176,2.93791562,-3.46647436,,,
imu,478.142123,-0.0442633072,-9.2964908176,3.9053396312,2.33290339,3.26689966,-3.39918217,,,
imu,478.150586,-0.0382817792,-9.303070498400002,3.915508228800001,1.95158098,3.51363769,-3.48890509,,,
imu,478.15905,-0.02990764000000001,-9.3108464848,3.9053396312,1.61512003,3.797760269999999,-3.36927453,,,
imu,478.167514,-0.0101685976,-9.307855720800001,3.8963673392,1.25622835,3.94729847,-3.44404363,,,
imu,478.175977,-0.007775986400000001,-9.304266804000001,3.8933765752,0.9571519499999999,4.126744309999999,-3.39918217,,,
imu,478.184441,-0.008972292000000002,-9.2964908176,3.8867968944,0.57582954,4.30619015,-3.38422835,,,
imu,478.192904,0.0,-9.2958926648,3.890385811200001,0.23189168,4.46320526,-3.24216706,,,
imu,478.201368,0.003588916800000001,-9.304864956800001,3.908330395200001,-0.22419983,4.2688056,-3.30945925,,,
imu,478.209831,0.002990764,-9.3006778872,3.887395047200001,-0.44103022,4.27628251,-3.26459779,,,
imu,478.218295,0.0017944584,-9.269573941600001,3.8897876584,-0.68029134,4.40338998,-3.1973056,,,
imu,478.226758,0.0191408896,-9.2576108856,3.8897876584,-0.85973718,4.48563599,-2.95804448,,,
imu,478.235222,0.023926112,-9.2552182744,3.9005544088,-1.22610577,4.38095925,-2.71130645,,,
imu,478.243685,0.03110394560000001,-9.256414580000001,3.8981617976,-1.31582869,4.32114397,-2.66644499,,,
imu,478.252149,0.04545961280000001,-9.242058912800001,3.890385811200001,-1.41302852,4.18655959,-2.68139881,,,
imu,478.260612,0.0514411408,-9.218730953600001,3.9035451728,-1.4728438,3.94729847,-2.83841392,,,
imu,478.269076,0.04127254320000001,-9.225310634400001,3.911321159200001,-1.50275144,3.87252937,-2.88327538,,,
imu,478.277522,0.04605776560000001,-9.239068148800001,3.937041729600001,-1.73453565,3.70056044,-2.83841392,,,
imu,478.285986,0.04486146000000001,-9.254021968800002,3.9496029384,-2.13081188,3.64822207,-2.79355246,,,
imu,478.294449,0.05443190480000001,-9.255816427200001,3.9531918552,-2.34764227,3.63326825,-2.60662971,,,
imu,478.302913,0.05981528000000001,-9.255816427200001,3.970538286400001,-2.45231901,3.52859151,-2.5243837,,,
imu,478.311735,0.0592171272,-9.2432552184,3.987884717600001,-2.48970356,3.5211146,-2.29259949,,,
imu,478.320557,0.0592171272,-9.225908787200002,3.988482870400001,-2.7439185,3.4463455,-2.27016876,,,
imu,478.32938,0.07058203040000001,-9.1965993,3.978912425600001,-2.78130305,3.39400713,-2.03090764,,,
imu,478.338202,0.08493769760000001,-9.172673188000001,3.987884717600001,-2.86354906,3.38653022,-1.94866163,,,
imu,478.347024,0.0980970592,-9.124222811200001,4.007025607200001,-2.80373378,3.34166876,-1.93370781,,,
imu,478.355846,0.0933118368,-9.108072685600002,4.013605288000001,-2.5196112,3.06502309,-2.01595382,,,
imu,478.364669,0.08792846160000001,-9.09192256,4.00762376,-2.2205348,2.88557725,-2.23278421,,,
imu,478.373491,0.07895616960000001,-9.0817539624,4.010614524,-1.89155076,2.7734236,-2.41970696,,,
imu,478.382313,0.07118018320000001,-9.063211225600002,4.022577580000001,-1.6971511,2.68370068,-2.66644499,,,
imu,478.391135,0.06220789120000001,-9.0608186144,4.0261664968,-1.33825942,2.63136231,-2.66644499,,,
imu,478.399958,0.0526374464,-9.0572296976,4.0441110808,-1.0242292,2.53416248,-2.70382954,,,
imu,478.40878,0.0442633072,-9.0596223088,4.048896303200001,-0.7550604399999999,2.63136231,-2.53933752,,,
imu,477.076257,,,,,,,-92.9456316,180.2209668,102.7541208
imu,477.177911,,,,,,,-89.45437240000001,179.317634,102.400112
imu,477.279443,,,,,,,-92.115542,179.805922,103.7062824
imu,477.380944,,,,,,,-89.124778,178.0480852,101.9240312
imu,477.482598,,,,,,,-90.93144360000001,178.5119588,105.6228128
imu,477.584069,,,,,,,-89.71072360000001,177.1691668,104.0847056
imu,477.685632,,,,,,,-89.8450028,177.303446,106.977812
imu,477.787499,,,,,,,-89.64968760000001,176.5221852,108.747856
imu,478.417602,0.0323002512,-9.073977976,4.048896303200001,-0.52327623,2.64631613,-2.3748455,,,
imu,478.426424,0.03648732080000001,-9.063211225600002,4.055475984000001,-0.37373803,2.75846978,-2.21783039,,,
imu,478.435246,0.03648732080000001,-9.0673982952,4.0536815256,-0.03727708,2.87810034,-2.01595382,,,
imu,478.444069,0.04545961280000001,-9.066800142400002,4.054877831200001,0.29170696,3.02763854,-1.59724686,,,
imu,478.452891,0.04725407120000001,-9.070987212,4.061457512,0.6281679099999999,3.19960747,-1.34303192,,,
imu,478.461713,0.0735727944,-9.090128101600001,4.066840887200001,0.8973366700000001,3.37905331,-1.20097063,,,
imu,478.470535,0.08912476720000001,-9.1014930048,4.0817947072,1.1440747,3.49120696,-1.32060119,,,
imu,478.479358,0.09869521200000002,-9.115250519200002,4.0817947072,1.27118217,3.6706528,-1.4028472,,,
imu,477.890433,,,,,,,-89.53982280000001,176.204798,108.8333064
imu,477.990317,,,,,,,-89.3567148,175.41133,109.9807832
imu,478.091941,,,,,,,-89.0759492,175.167186,110.3103776
imu,478.193595,,,,,,,-89.4421652,175.1183572,109.9441616
imu,478.295066,,,,,,,-87.64770680000001,174.5690332,109.4558736
imu,478.396567,,,,,,,-89.05153480000001,174.8131772,110.1394768
