Type,Timestamp,Data Accelerometer X,Data Accelerometer Y,Data Accelerometer Z,Data Gyroscope X,Data Gyroscope Y,Data Gyroscope Z,Data Magnetometer X,Data Magnetometer Y,Data Magnetometer Z
imu,349.179173,0.6466031768,-9.660765872800003,2.177276192,1.60764312,1.62945637,-5.32074804,,,
imu,349.187613,0.631051204,-9.676317845600002,2.1778743448,1.5926893,1.69674856,-5.193640569999999,,,
imu,349.196054,0.6202844536000002,-9.676317845600002,2.1748835808,1.68241222,1.70422547,-5.18616366,,,
imu,349.204495,0.6077232448000001,-9.669140012000002,2.1760798864,1.61512003,1.68179474,-5.238502029999999,,,
imu,349.212935,0.5975546472000001,-9.662560331200002,2.1689020528,1.54782784,1.70422547,-5.34317877,,,
imu,349.221376,0.6065269392000001,-9.6643547896,2.1724909696,1.60016621,1.75656384,-5.500193879999999,,,
imu,349.229816,0.5927694248,-9.676317845600002,2.1790706504,1.65250458,1.98834805,-5.634778259999999,,,
imu,349.238257,0.5861897440000001,-9.681103068,2.164714983200001,1.76465823,2.19022462,-5.69459354,,,
imu,349.246698,0.5837971328000001,-9.693664276800002,2.165313136,1.87681188,2.33228591,-5.67216281,,,
imu,349.255138,0.5843952856000001,-9.6942624296,2.1689020528,1.87681188,2.41453192,-5.60487062,,,
imu,349.263579,0.5855915912,-9.682897526400001,2.1665094416,1.83942733,2.5491163,-5.567486069999999,,,
imu,349.27202,0.5814045216000001,-9.6817012208,2.1659112888,1.80204278,2.73603905,-5.589916799999999,,,
imu,349.28046,0.5760211464000001,-9.697253193600002,2.1677057472,1.69736604,2.6986545,-5.53010152,,,
imu,349.288901,0.5808063688,-9.714001472000001,2.1605279136,1.67493531,2.72856214,-5.56000916,,,
imu,349.297342,0.5814045216000001,-9.724768222400002,2.174285428,1.42819728,2.74351596,-5.567486069999999,,,
imu,349.305782,0.58319898,-9.716992236000001,2.1700983584,1.30108981,2.90800798,-5.46280933,,,
imu,349.314223,0.5826008272000001,-9.7163940832,2.1689020528,1.13659779,2.89305416,-5.32074804,,,
imu,349.322664,0.5766192992000001,-9.702636568800001,2.178472497600001,0.8973366700000001,2.96782326,-5.32074804,,,
imu,349.331104,0.5736285352000001,-9.6775141512,2.1683039,0.71789083,2.87810034,-5.305794219999999,,,
imu,349.339545,0.5772174520000001,-9.672130776000001,2.1635186776,0.7253677399999999,2.87810034,-5.350655679999999,,,
imu,349.347986,0.5640580904000001,-9.6709344704,2.165313136,0.7552753799999999,2.93043871,-5.15625602,,,
imu,349.356426,0.5670488544000001,-9.680504915200002,2.177276192,0.68798319,2.81080815,-5.00671782,,,
imu,349.364867,0.5688433128,-9.688879054400001,2.174285428,0.53096808,2.80333124,-4.89456417,,,
imu,349.373308,0.5658525488000001,-9.690673512800002,2.1826595672,0.56087572,2.6986545,-4.78241052,,,
imu,349.381748,0.5676470072,-9.690673512800002,2.1904355536,0.4861066199999999,2.70613141,-4.66277996,,,
imu,349.390227,0.5688433128,-9.708019944000002,2.2018004568,0.4711528,2.60145467,-4.49828794,,,
imu,349.398706,0.5598710208000001,-9.7008421104,2.191631859200001,0.29170696,2.54163939,-4.430995749999999,,,
imu,349.407185,0.5676470072,-9.692467971200001,2.1826595672,0.15712258,2.60893158,-4.35622665,,,
imu,349.415663,0.5718340768000001,-9.675719692800001,2.1844540256,0.10478421,2.60145467,-4.27398064,,,
imu,349.424142,0.5748248408000001,-9.657176956,2.1838558728,0.11973803,2.49677793,-4.28145755,,,
imu,349.432621,0.5658525488000001,-9.66016772,2.180266956,0.15712258,2.35471664,-4.318842099999999,,,
imu,349.4411,0.5622636320000001,-9.654784344800001,2.171294664,0.35152224,2.49677793,-4.35622665,,,
imu,349.449579,0.571235924,-9.657176956,2.1671075944,0.38142988,2.48930102,-4.23659609,,,
imu,349.458057,0.5670488544000001,-9.656578803200002,2.1760798864,0.3963837,2.41453192,-4.28145755,,,
imu,349.466536,0.5628617848,-9.6494009696,2.1808651088,0.35899915,2.51920866,-4.341272829999999,,,
imu,349.475015,0.5634599376000001,-9.672130776000001,2.1814632616,0.63564482,2.48182411,-4.25154991,,,
imu,349.483494,0.5562821040000001,-9.690075360000002,2.1808651088,0.67302937,2.49677793,-4.23659609,,,
imu,349.491973,0.565254396,-9.6984494992,2.1886410952,0.63564482,2.66126995,-4.13939626,,,
imu,349.500451,0.5724322296000001,-9.699645804800001,2.19821154,0.5010604399999999,2.89305416,-4.13191935,,,
imu,349.50893,0.5616654792000001,-9.693664276800002,2.2125672072,0.5010604399999999,2.8481927,-4.19921154,,,
imu,349.517409,0.565254396,-9.694860582400002,2.1964170816,0.44124516,2.93791562,-4.23659609,,,
imu,349.525888,0.5634599376000001,-9.692467971200001,2.2209413464,0.31413769,2.94539253,-4.40108811,,,
imu,349.534367,0.5568802568000001,-9.678710456800001,2.2077819848,0.23936859,3.07997691,-4.64034923,,,
imu,349.542845,0.565254396,-9.6745233872,2.2023986096,0.15712258,3.13231528,-4.86465653,,,
imu,349.551324,0.5550857984,-9.661364025600001,2.1988096928,0.09730729999999999,3.27437657,-5.07401001,,,
imu,349.559803,0.5580765624000001,-9.654186192000001,2.2047912208,-0.007369440000000005,3.22951511,-5.1413022,,,
imu,349.568282,0.5479079648000001,-9.651195428000001,2.2125672072,0.08235347999999998,3.40148404,-5.13382529,,,
imu,349.576761,0.5574784096000001,-9.651195428000001,2.2077819848,0.18703022,3.51363769,-5.15625602,,,
imu,349.585239,0.5580765624000001,-9.652989886400002,2.2143616656,0.31413769,3.76785263,-4.98428709,,,
imu,349.593821,0.5640580904000001,-9.661364025600001,2.234100708,0.21693786,3.73046808,-4.991764,,,
imu,349.602403,0.5640580904000001,-9.6703363176,2.2263247216,0.35152224,3.73794499,-4.9169949,,,
imu,349.610985,0.5640580904000001,-9.676317845600002,2.2233339576,0.4711528,3.80523718,-4.77493361,,,
imu,349.619567,0.5718340768000001,-9.679308609600001,2.2364933192,0.34404533,3.81271409,-4.70764142,,,
imu,349.628148,0.5784137576,-9.6912716656,2.255036056,0.09730729999999999,3.78280645,-4.59548777,,,
imu,349.63673,0.5814045216000001,-9.690075360000002,2.2466619168,0.05244583999999999,3.78280645,-4.55810322,,,
imu,349.645312,0.5826008272000001,-9.675719692800001,2.228717332800001,-0.06718472,3.73794499,-4.6179185,,,
imu,349.653894,0.5784137576,-9.660765872800003,2.2358951664,-0.26158438,3.77532954,-4.63287232,,,
imu,349.662476,0.5820026744000001,-9.6643547896,2.2335025552,-0.30644584,3.70056044,-4.670256869999999,,,
imu,349.671057,0.58319898,-9.675121540000001,2.2317080968,-0.24663056,3.68560662,-4.78988743,,,
imu,349.679639,0.5784137576,-9.687084596000002,2.2245302632,-0.32139966,3.76037572,-4.82727198,,,
imu,349.688221,0.5837971328000001,-9.699047652,2.2293154856,-0.29896893,3.57345297,-5.00671782,,,
imu,349.696803,0.5814045216000001,-9.697851346400002,2.231109944,-0.33635348,3.68560662,-4.887087259999999,,,
imu,349.705385,0.5951620360000001,-9.685290137600001,2.225128416,-0.33635348,3.90991392,-4.89456417,,,
imu,349.713966,0.6029380224,-9.6817012208,2.205389373600001,-0.15690764,3.90243701,-4.759979789999999,,,
imu,349.722548,0.6053306336000001,-9.675719692800001,2.2113709016,-0.07466163,3.75289881,-4.70016451,,,
imu,349.73113,0.6023398696000001,-9.672130776000001,2.21316536,-0.04475399000000001,3.6706528,-4.81979507,,,
imu,349.739712,0.6256678288,-9.662560331200002,2.2077819848,0.03749201999999999,3.43886859,-5.0665331,,,
imu,349.748294,0.6316493568000001,-9.658373261600001,2.2059875264,0.14964567,3.35662258,-5.07401001,,,
imu,349.756875,0.6376308848000001,-9.6505972752,2.2185487352,0.23936859,3.17717674,-5.25345585,,,
imu,349.765457,0.6286585928,-9.652989886400002,2.2269228744,0.15712258,2.84071579,-5.2908404,,,
imu,349.774039,0.6172936896000001,-9.659569567200002,2.2305117912,0.11973803,2.46687029,-5.41794787,,,
imu,349.782621,0.6149010784000001,-9.658373261600001,2.2466619168,0.09730729999999999,2.34723973,-5.37308641,,,
imu,349.791203,0.6137047728000001,-9.661962178400001,2.249652680800001,-0.11204618,2.19770153,-5.305794219999999,,,
imu,349.799916,0.6029380224,-9.6458120528,2.2424748472,-0.15690764,1.8761944,-5.238502029999999,,,
imu,349.808629,0.5957601888000001,-9.6248767048,2.2448674584,-0.17186146,1.53225654,-5.17868675,,,
imu,349.817343,0.5861897440000001,-9.600352440000002,2.2466619168,-0.20924601,1.30794924,-5.25345585,,,
imu,349.826056,0.5628617848,-9.6009505928,2.2418766944,-0.11952309,1.10607267,-5.328224949999999,,,
imu,349.83477,0.5514968816000001,-9.620689635200002,2.2412785416,-0.0522309,0.86681155,-5.4403786,,,
imu,349.843483,0.5329541448,-9.636839760800001,2.2574286672,0.1720764,0.6350273399999997,-5.477763149999999,,,
imu,349.852197,0.5197947832,-9.642223136000002,2.2586249728,0.29170696,0.5079198699999998,-5.46280933,,,
imu,349.86091,0.5060372688000001,-9.652989886400002,2.2693917232,0.36647606,0.21632038,-5.60487062,,,
imu,349.869623,0.4797185456,-9.6494009696,2.2765695568,0.52349117,0.1415512799999998,-5.64973208,,,
imu,349.878337,0.4563905864000001,-9.661364025600001,2.293915988,0.36647606,-0.007986920000000008,-5.70207045,,,
imu,349.88705,0.4300718632,-9.6733270816,2.304084585600001,0.45619898,-0.0603252900000002,-5.68711663,,,
imu,349.895764,0.4181088072000001,-9.6876827488,2.3046827384,0.620691,-0.1276174800000001,-5.57496298,,,
imu,349.904477,0.3882011672000001,-9.687084596000002,2.3004956688,0.6132140899999999,0.01444380999999995,-5.53010152,,,
imu,349.913191,0.3822196392,-9.673925234400002,2.311860572000001,0.5982602699999999,0.05930526999999985,-5.2908404,,,
imu,349.921904,0.3606861384,-9.667345553600002,2.3034864328,0.78518302,0.1415512799999998,-5.05905619,,,
imu,349.930618,0.3606861384,-9.646410205600002,2.2951122936,0.88985976,0.3658585799999998,-4.89456417,,,
imu,349.939331,0.3612842912,-9.624278552000002,2.2795603208,1.18145925,0.8294269999999999,-4.56558013,,,
imu,349.948044,0.3606861384,-9.605735815200001,2.2664009592,1.35342818,1.01634975,-4.43847266,,,
imu,349.956758,0.3630787496,-9.599156134400001,2.2813547792,1.69736604,1.30047233,-4.32631901,,,
imu,349.965471,0.3696584304000001,-9.627269316000001,2.2963085992,1.85438115,1.67431783,-4.35622665,,,
imu,349.974185,0.3720510416,-9.656578803200002,2.2921215296,1.86933497,1.83880985,-4.57305704,,,
imu,349.982898,0.3846122504,-9.675719692800001,2.2957104464,1.86185806,1.98087114,-4.887087259999999,,,
imu,349.991612,0.3977716120000001,-9.688879054400001,2.3022901272,1.86933497,2.13788625,-5.07401001,,,
imu,350.000064,0.400762376,-9.699047652,2.329805156,1.61512003,2.30237827,-5.4403786,,,
imu,350.008516,0.3911919312,-9.734936820000001,2.3304033088,1.23379762,2.45939338,-5.53757843,,,
imu,350.016968,0.391790084,-9.7427128064,2.3226273224,1.03192105,2.60893158,-5.25345585,,,
imu,350.02542,0.4199032656,-9.727160833600001,2.3321977672,0.64312173,2.75099287,-4.84970271,,,
imu,350.033872,0.442633072,-9.681103068,2.314851336,0.1720764,2.89305416,-4.63287232,,,
imu,350.042324,0.4581850448000001,-9.655980650400002,2.3166457944,0.03001510999999998,2.72856214,-4.5431494,,,
imu,350.050776,0.4522035168,-9.637437913600001,2.3064771968,-0.03727708,2.60145467,-4.59548777,,,
imu,350.059228,0.4551942808000001,-9.623082246400001,2.2921215296,0.17955331,2.30237827,-4.363703559999999,,,
imu,350.067608,0.4528016696000001,-9.612913648800001,2.3064771968,0.2468455,2.08554788,-4.31136519,,,
imu,350.07606,0.4629702672000001,-9.620689635200002,2.3160476416,0.51601426,2.00330187,-4.0945348,,,
imu,350.084512,0.4647647256,-9.630260080000001,2.3100661136,0.56835263,1.86124058,-3.8702275,,,
imu,350.092964,0.4719425592000001,-9.625474857600002,2.3166457944,0.70293701,1.69674856,-3.66835093,,,
imu,350.101416,0.46356842,-9.602146898400001,2.3064771968,0.79265993,1.45001053,-3.51881273,,,
imu,350.109868,0.4533998224,-9.591978300800001,2.28793446,0.97958268,1.16588795,-3.48890509,,,
imu,350.11832,0.4390441552000001,-9.588987536800001,2.2837473904,1.22632071,1.00139593,-3.46647436,,,
imu,350.126772,0.4210995712,-9.5865949256,2.261017584,1.49548947,0.7546578999999998,-3.63096638,,,
imu,350.135224,0.4127254320000001,-9.597361676,2.2484563752,2.00391935,0.7546578999999998,-3.51881273,,,
imu,350.143676,0.4103328208,-9.5877912312,2.2352970136,2.29551884,0.8369039099999998,-3.52628964,,,
imu,350.152129,0.4169125016,-9.597361676,2.2382877776,2.64693361,0.9565344699999998,-3.47395127,,,
imu,350.160581,0.4216977240000001,-9.635045302400002,2.2305117912,2.94601001,1.16588795,-3.35432071,,,
imu,350.169033,0.4205014184,-9.6775141512,2.2394840832,3.21517877,1.29299542,-3.30198234,,,
imu,350.177485,0.4216977240000001,-9.686486443200002,2.246063764000001,3.43200916,1.56216418,-3.24216706,,,
imu,350.185937,0.4360533912000001,-9.7074217912,2.249652680800001,3.47687062,1.63693328,-3.21973633,,,
imu,350.194389,0.4486146000000001,-9.7163940832,2.2646065008,3.25256332,1.83133294,-3.3468438,,,
imu,350.202845,0.451605364,-9.710412555200001,2.249652680800001,2.99087147,1.82385603,-3.60853565,,,
imu,350.211301,0.4414367664,-9.70502918,2.253839750400001,2.54973378,1.63693328,-4.102011709999999,,,
imu,350.219757,0.4522035168,-9.6984494992,2.2526434448,2.4899185,1.71170238,-4.34874974,,,
imu,350.228213,0.4468201416000001,-9.6954587352,2.2448674584,2.25813429,1.70422547,-4.341272829999999,,,
imu,350.236669,0.4444275304,-9.706823638400001,2.2406803888,1.95905789,1.45748744,-4.25154991,,,
imu,350.245125,0.4402404608,-9.708019944000002,2.2502508336,1.85438115,1.29299542,-4.10948862,,,
imu,350.25358,0.4330626272,-9.692467971200001,2.2628120424,1.71979677,1.22570323,-3.98985806,,,
imu,350.262036,0.4258847936,-9.702038416,2.2831492376,1.4431511,0.9640113799999996,-3.65339711,,,
imu,350.270492,0.4139217376000001,-9.710412555200001,2.2933178352,1.16650543,0.6275504299999999,-3.55619728,,,
imu,350.278948,0.4037531400000001,-9.718786694400002,2.3052808912,0.97210577,0.3808123999999999,-3.28702852,,,
imu,350.287404,0.3822196392,-9.6984494992,2.3046827384,0.8524752099999999,0.1191205499999999,-3.07019813,,,
imu,350.29586,0.3732473472,-9.673925234400002,2.304084585600001,0.5010604399999999,-0.20986349,-2.92813684,,,
imu,350.304316,0.3451341656,-9.657176956,2.307673502400001,0.5010604399999999,-0.53884753,-2.74121409,,,
imu,350.312772,0.3283858872000001,-9.635045302400002,2.2927196824,0.67302937,-0.5238937100000003,-2.35241477,,,
imu,350.321228,0.3128339144,-9.631456385600002,2.290327071200001,0.65807555,-0.76315483,-2.1505382,,,
imu,350.329684,0.2942911776,-9.630858232800001,2.3016919744,1.02444414,-0.6659550000000003,-1.80660034,,,
imu,350.33814,0.2781410520000001,-9.637437913600001,2.305879044,1.26370526,-0.4939860700000001,-1.53743158,,,
imu,350.346596,0.2715613712,-9.632054538400002,2.290327071200001,1.60016621,-0.3444478700000002,-1.36546265,,,
imu,350.355051,0.266177996,-9.618297024,2.2885326128,1.87681188,0.006966899999999665,-1.12620153,,,
imu,350.363507,0.2703650656,-9.612315496,2.280756626400001,2.03382699,0.2686587499999997,-1.07386316,,,
imu,350.371963,0.2655798432,-9.6009505928,2.263410195200001,2.06373463,0.5303505999999998,-1.12620153,,,
imu,350.380419,0.2727576768,-9.595567217600001,2.252045292,2.31794957,0.92662683,-1.26826282,,,
imu,350.388875,0.281131816,-9.5949690648,2.237091472,2.51982614,1.45748744,-1.11872462,,,
imu,350.397331,0.296085636,-9.621287788000002,2.2329044024,2.78151799,2.03320951,-1.01404788,,,
imu,350.405792,0.3206099008000001,-9.625474857600002,2.2197450408,3.09554821,2.55659321,-0.7523560299999998,,,
imu,350.414253,0.3535083048,-9.6326526912,2.2107727488,3.29742478,2.94539253,-0.54300255,,,
imu,350.422714,0.3852104032000001,-9.633848996800001,2.2077819848,3.27499405,3.36409949,-0.6177716499999999,,,
imu,350.431175,0.4073420568000001,-9.657775108800001,2.1976133872,3.45443989,3.84262173,-0.6102947399999998,,,
imu,350.439636,0.4384460024000001,-9.668541859200001,2.1940244704,3.64136264,4.15665195,-0.54300255,,,
imu,350.448097,0.4886908376000001,-9.682299373600001,2.1826595672,3.61893191,4.37348234,-0.5056179999999999,,,
imu,350.456558,0.5180003248000001,-9.676317845600002,2.1700983584,3.49182444,4.530497449999999,-0.43832581,,,
imu,350.465019,0.5359449088000001,-9.678710456800001,2.159331608,3.50677826,4.70246638,-0.4682334499999998,,,
imu,349.186438,,,,,,,53.15013800000001,-12.40864920000002,23.1875912
imu,349.295813,,,,,,,51.22140040000001,-11.34662280000001,25.81213919999999
imu,349.397376,,,,,,,51.53878760000001,-11.52973080000002,26.0806976
imu,349.498938,,,,,,,51.563202,-11.480902,26.49574239999999
imu,349.600501,,,,,,,51.258022,-11.3832444,26.32484159999999
imu,349.702063,,,,,,,51.3556796,-11.62738840000002,26.2393912
imu,350.47348,0.565254396,-9.687084596000002,2.1407888712,3.70865483,4.94920441,-0.3934643499999999,,,
imu,350.481941,0.601143564,-9.688280901600002,2.132414732,3.57407045,4.90434295,-0.3336490699999999,,,
imu,350.490402,0.6340419680000001,-9.692467971200001,2.1168627592,3.47687062,4.85200458,-0.31869525,,,
imu,350.498863,0.6567717744000001,-9.706823638400001,2.1186572176,3.43200916,4.72489711,-0.2738337899999999,,,
imu,350.507324,0.6866794144,-9.719983000000001,2.1120775368,3.63388573,4.73237402,-0.23644924,,,
imu,350.515785,0.7034276928000001,-9.738525736800002,2.1102830784,3.45443989,4.51554363,-0.4458027199999999,,,
imu,350.524246,0.7177833600000001,-9.745703570400002,2.1037033976,3.17031731,4.18655959,-0.6102947399999998,,,
imu,350.532707,0.7183815128000002,-9.746301723200002,2.1150683008,3.08059439,4.08188285,-0.71497148,,,
imu,350.541168,0.726755652,-9.754675862400001,2.1043015504,2.81142563,3.79028336,-0.9318018699999999,,,
imu,350.549629,0.726755652,-9.755274015200001,2.1031052448,2.61702597,3.46129932,-1.04395552,,,
imu,350.55809,0.7118018320000001,-9.7474980288,2.1019089392,2.36281103,3.32671494,-1.26078591,,,
imu,350.566551,0.7106055264000001,-9.752881404000002,2.1060960088,2.00391935,3.19213056,-1.56733922,,,
imu,350.575012,0.6878757200000001,-9.731946056000002,2.0947311056,1.79456587,3.04259236,-1.72435433,,,
imu,350.583473,0.6795015808000001,-9.722375611200002,2.0971237168,1.62259694,3.00520781,-1.80660034,,,
imu,350.591934,0.6567717744000001,-9.721179305600002,2.1186572176,1.39081273,3.03511545,-2.10567674,,,
imu,350.600395,0.648995788,-9.716992236000001,2.133611037600001,1.16650543,3.02763854,-2.45709151,,,
imu,350.608879,0.6495939408000001,-9.719983000000001,2.1401907184,0.82256757,3.0725,-2.86832156,,,
imu,350.617363,0.648995788,-9.725964528,2.1545463856,0.5459219,3.03511545,-2.90570611,,,
imu,350.625847,0.6340419680000001,-9.7361331256,2.1659112888,0.34404533,3.01268472,-2.95804448,,,
imu,350.63433,0.6376308848000001,-9.7295534448,2.186248484,-0.14943073,2.90053107,-3.18235178,,,
imu,350.642814,0.646005024,-9.7128051664,2.191631859200001,-0.50832241,2.78090051,-3.4216129,,,
imu,350.651298,0.6579680800000002,-9.6817012208,2.1964170816,-0.77749117,2.73603905,-3.45152054,,,
imu,350.659782,0.6501920936000001,-9.671532623200001,2.2006041512,-0.7999219,2.63883922,-3.39918217,,,
imu,350.668266,0.6477994824000001,-9.6535880392,2.195220776,-0.7251528,2.4743472,-3.28702852,,,
imu,350.67675,0.6286585928,-9.648204664000001,2.1988096928,-0.5008455,2.31733209,-3.01785976,,,
imu,350.685234,0.6388271904000001,-9.651793580800001,2.2006041512,-0.38869185,2.33228591,-2.61410662,,,
imu,350.693718,0.6382290376000002,-9.6470083584,2.1964170816,-0.26158438,2.21265535,-2.27016876,,,
imu,350.702202,0.6412198016000001,-9.6428212888,2.2035949152,0.17955331,2.15284007,-2.04586146,,,
imu,350.710685,0.6418179544000001,-9.6326526912,2.2077819848,0.33656842,2.00330187,-1.96361545,,,
imu,350.719169,0.6316493568000001,-9.636241608,2.2035949152,0.40386061,1.85376367,-2.25521494,,,
imu,350.727653,0.6220789120000001,-9.637437913600001,2.2065856792,0.50853735,1.77899457,-2.34493786,,,
imu,350.736137,0.6172936896000001,-9.639232372,2.2000059984,0.66555246,1.71170238,-2.47952224,,,
imu,350.744621,0.6226770648,-9.633250844,2.2047912208,0.78518302,1.83880985,-2.4496146,,,
imu,350.753105,0.6238733704,-9.630858232800001,2.201202304,0.70293701,1.96591732,-2.3748455,,,
imu,350.761589,0.6268641344,-9.618297024,2.2077819848,0.6954601,2.09302479,-2.34493786,,,
imu,350.770073,0.6334438152,-9.620091482400001,2.188042942400001,0.80761375,2.05564024,-2.38232241,,,
imu,350.778557,0.6418179544000001,-9.6218859408,2.1838558728,1.00949032,2.15284007,-2.36736859,,,
imu,350.78704,0.6442105656,-9.633250844,2.1736872752,1.1440747,2.23508608,-2.36736859,,,
imu,350.795524,0.6495939408000001,-9.651793580800001,2.1838558728,1.23379762,2.22760917,-2.5991528,,,
imu,350.804008,0.6477994824000001,-9.66016772,2.1904355536,1.28613599,2.25751681,-2.56924516,,,
imu,350.812837,0.6394253432000001,-9.658971414400002,2.1934263176,1.17398234,2.21265535,-2.73373718,,,
imu,350.821666,0.6412198016000001,-9.657176956,2.1904355536,1.25622835,2.4743472,-2.72626027,,,
imu,350.830495,0.6424161072,-9.667943706400001,2.2023986096,1.25622835,2.42200883,-2.77112173,,,
imu,350.839324,0.6472013296000001,-9.669140012000002,2.19821154,1.13659779,2.46687029,-2.96552139,,,
imu,350.848153,0.6531828576,-9.675121540000001,2.1946226232,0.9945364999999999,2.45191647,-3.09262886,,,
imu,350.856981,0.646005024,-9.690075360000002,2.2000059984,0.9571519499999999,2.49677793,-3.15244414,,,
imu,350.86581,0.6543791632000001,-9.708019944000002,2.2107727488,0.80761375,2.51173175,-3.14496723,,,
imu,350.874639,0.6579680800000002,-9.693664276800002,2.2029967624,0.7403215599999999,2.38462428,-3.26459779,,,
imu,350.883468,0.6699311360000001,-9.679308609600001,2.2083801376,0.6954601,2.324809,-3.37675144,,,
imu,350.892297,0.6741182056000001,-9.668541859200001,2.2065856792,0.46367589,2.3995781,-3.28702852,,,
imu,350.901126,0.6657440664000001,-9.667345553600002,2.1868466368,0.44872207,2.324809,-3.07019813,,,
imu,350.909955,0.6717255944000001,-9.654186192000001,2.1850521784,0.5010604399999999,2.16779389,-3.0477674,,,
imu,350.918784,0.6705292888000001,-9.6523917336,2.186248484,0.59078336,2.22013226,-2.9729983,,,
imu,350.927612,0.6633514552,-9.6499991224,2.188042942400001,0.46367589,2.35471664,-2.93561375,,,
imu,350.936441,0.6609588440000002,-9.652989886400002,2.2077819848,0.44872207,2.36219355,-3.01038285,,,
imu,350.94527,0.6579680800000002,-9.662560331200002,2.216156124,0.6954601,2.49677793,-3.24964397,,,
imu,350.954099,0.6495939408000001,-9.671532623200001,2.201202304,0.7253677399999999,2.54163939,-3.44404363,,,
imu,350.962928,0.6591643856000001,-9.648204664000001,2.204193068,0.47862971,2.45939338,-3.75807385,,,
imu,350.971757,0.6531828576,-9.624278552000002,2.2185487352,0.47862971,2.54163939,-3.84031986,,,
imu,350.980586,0.6424161072,-9.630858232800001,2.2215394992,0.44872207,2.60145467,-3.66835093,,,
imu,350.989414,0.6436124128,-9.6434194416,2.2185487352,0.53844499,2.74351596,-3.60105874,,,
imu,350.998243,0.6466031768,-9.635045302400002,2.2215394992,0.5459219,2.72108523,-3.62348947,,,
imu,351.007072,0.6561736216000001,-9.634447149600001,2.2179505824,0.6281679099999999,2.70613141,-3.74312003,,,
imu,351.015522,0.6591643856000001,-9.6434194416,2.22811918,0.76275229,2.66874686,-3.74312003,,,
imu,351.023971,0.6472013296000001,-9.66016772,2.222735804800001,0.8375213899999999,2.52668557,-3.84031986,,,
imu,351.032421,0.6286585928,-9.6523917336,2.2173524296,1.01696723,2.45939338,-3.73564312,,,
imu,351.04087,0.6220789120000001,-9.648802816800002,2.205389373600001,1.10669015,2.3995781,-3.7954584,,,
imu,351.04932,0.6334438152,-9.630858232800001,2.2000059984,1.33847436,2.36967046,-3.57862801,,,
imu,351.05777,0.6418179544000001,-9.636241608,2.1964170816,1.57773548,2.39210119,-3.37675144,,,
imu,351.066219,0.6507902464,-9.631456385600002,2.1820614144,1.76465823,2.37714737,-3.15244414,,,
imu,351.074669,0.6615569968000001,-9.636839760800001,2.1718928168,1.91419643,2.33228591,-2.96552139,,,
imu,351.083118,0.6573699272000001,-9.638634219200002,2.1754817336,2.05625772,2.3995781,-2.86084465,,,
imu,351.091568,0.6645477608,-9.639232372,2.1665094416,2.13850373,2.5491163,-2.76364482,,,
imu,351.100017,0.6705292888000001,-9.658373261600001,2.1808651088,2.15345755,2.69117759,-2.84589083,,,
imu,351.108467,0.6735200528,-9.663158484000002,2.1760798864,2.09364227,2.81080815,-2.77859864,,,
imu,351.116916,0.6789034280000001,-9.661962178400001,2.1695002056,1.88428879,2.90053107,-2.8234601,,,
imu,351.125366,0.6980443176000002,-9.660765872800003,2.1700983584,1.88428879,3.1472691,-3.01038285,,,
imu,351.133816,0.6956517064000001,-9.669738164800002,2.1748835808,1.76465823,3.18465365,-3.33936689,,,
imu,351.142265,0.7129981376000001,-9.668541859200001,2.1683039,1.72727368,3.39400713,-3.48142818,,,
imu,351.150715,0.7243630408,-9.6733270816,2.1611260664,1.64502767,3.61083752,-3.78050458,,,
imu,351.159095,0.7458965416000001,-9.680504915200002,2.1689020528,1.45062801,3.75289881,-3.96742733,,,
imu,351.167544,0.76264482,-9.671532623200001,2.1581353024,1.33847436,4.00711375,-4.034719519999999,,,
imu,351.175994,0.7883653904000001,-9.669140012000002,2.1605279136,1.2188438,4.1192674,-4.079580979999999,,,
imu,351.184443,0.7979358352000001,-9.6667474008,2.174285428,1.2936129,4.08188285,-4.10948862,,,
imu,351.192893,0.8194693360000002,-9.661364025600001,2.1808651088,1.32352054,4.02954448,-4.23659609,,,
imu,351.201342,0.8416009896000001,-9.6535880392,2.1611260664,1.24875144,3.820191,-4.43847266,,,
imu,351.209792,0.8457880592000001,-9.633848996800001,2.1659112888,1.24127453,3.4463455,-4.58801086,,,
imu,351.218261,0.8721067824000002,-9.636839760800001,2.170696511200001,1.27118217,3.17717674,-4.887087259999999,,,
imu,351.226729,0.86732156,-9.6535880392,2.1814632616,1.33099745,2.85566961,-4.87961035,,,
imu,351.235198,0.8445917536,-9.671532623200001,2.1736872752,1.47305874,2.46687029,-4.954379449999999,,,
imu,351.243666,0.840404684,-9.6799067624,2.1850521784,1.63755076,2.16779389,-4.991764,,,
imu,351.252135,0.8326286976000001,-9.679308609600001,2.1808651088,1.45810492,1.73413311,-5.22354821,,,
imu,351.260604,0.8194693360000002,-9.672130776000001,2.1874447896,1.36090509,1.33785688,-5.12634838,,,
imu,351.269072,0.7937487656000001,-9.676915998400002,2.1946226232,1.39828964,1.08364194,-5.33570186,,,
imu,351.277541,0.7907580016000001,-9.673925234400002,2.186248484,1.33099745,0.78456554,-5.48524006,,,
imu,351.28601,0.7752060288000001,-9.669738164800002,2.1868466368,1.2188438,0.35838167,-5.55253225,,,
imu,349.803626,,,,,,,52.91820120000001,-11.55414520000002,25.92200399999999
imu,349.905494,,,,,,,51.196986,-12.22554120000001,26.04407599999999
imu,350.006751,,,,,,,53.1379308,-12.67720760000002,23.57822159999999
imu,350.108313,,,,,,,50.8673916,-12.01801880000002,25.9586256
imu,350.209876,,,,,,,53.71166920000001,-13.08004520000001,24.1153384
imu,350.311438,,,,,,,51.624238,-11.89594680000001,26.09290479999999
imu,350.413001,,,,,,,51.74631000000001,-12.05464040000002,27.03285919999999
imu,350.514563,,,,,,,51.84396760000001,-11.77387480000001,26.70326479999999
imu,351.294478,0.7596540560000001,-9.6733270816,2.1958189288,1.16650543,0.3060432999999998,-5.634778259999999,,,
imu,351.302947,0.7458965416000001,-9.669738164800002,2.1946226232,1.11416706,0.02192071999999978,-5.829177919999999,,,
imu,351.311415,0.7153907488000001,-9.661364025600001,2.1886410952,1.07678251,-0.23229422,-5.94880848,,,
imu,351.319884,0.6914646368,-9.654784344800001,2.1934263176,0.9272443100000001,-0.4266938800000002,-6.068439039999999,,,
imu,351.328353,0.6741182056000001,-9.6434194416,2.1850521784,1.10669015,-0.6360473600000001,-6.135731229999999,,,
imu,351.336821,0.6298548984000001,-9.634447149600001,2.18325772,1.06182869,-0.7930624700000002,-6.10582359,,,
imu,351.34529,0.6077232448000001,-9.620091482400001,2.1718928168,1.10669015,-0.88278539,-6.02357758,,,
imu,351.353759,0.5879842024,-9.6087265792,2.1724909696,1.30856672,-0.7556779200000001,-5.92637775,,,
imu,351.362227,0.5718340768000001,-9.609324732000001,2.1760798864,1.47305874,-0.7332471900000002,-5.9637623,,,
imu,351.370696,0.5622636320000001,-9.614708107200002,2.1689020528,1.63755076,-0.6659550000000003,-5.84413174,,,
imu,351.379164,0.5389356728,-9.631456385600002,2.178472497600001,2.05625772,-0.5837089900000003,-5.69459354,,,
imu,351.387633,0.5269726168000001,-9.648802816800002,2.1766780392,2.27308811,-0.39678624,-5.567486069999999,,,
imu,351.396102,0.5096261856000001,-9.647606511200001,2.1856503312,2.39271867,-0.3070633200000001,-5.49271697,,,
imu,351.40457,0.4886908376000001,-9.642223136000002,2.186248484,2.39271867,-0.2173404000000003,-5.47028624,,,
imu,351.413039,0.4779240872000001,-9.651793580800001,2.19821154,2.37028794,-0.07527911000000032,-5.545055339999999,,,
imu,351.421494,0.4755314760000001,-9.667345553600002,2.192230012,2.32542648,0.19388965,-5.38804023,,,
imu,351.429948,0.4671573368000001,-9.675719692800001,2.1736872752,2.38524176,0.4929660499999997,-5.260932759999999,,,
imu,351.438403,0.4701481008,-9.678710456800001,2.1605279136,2.4151494,0.7995193599999997,-5.17120984,,,
imu,351.446858,0.4665591840000001,-9.680504915200002,2.1545463856,2.50487232,1.07616503,-5.00671782,,,
imu,351.455312,0.4779240872000001,-9.681103068,2.1581353024,2.47496468,1.1285034,-4.93942563,,,
imu,351.463767,0.4791203928000001,-9.693664276800002,2.1587334552,2.57964142,1.4275798,-4.84970271,,,
imu,351.472221,0.4880926848000001,-9.727160833600001,2.164714983200001,2.49739541,1.64441019,-4.63287232,,,
imu,351.480676,0.4988594352000001,-9.734338667200001,2.1665094416,2.46748777,1.89862513,-4.46090339,,,
imu,351.489131,0.5066354216000001,-9.7301515976,2.159331608,2.36281103,2.07807097,-4.37118047,,,
imu,351.497585,0.5072335744,-9.7086180968,2.1635186776,2.31794957,2.16779389,-4.27398064,,,
imu,351.50604,0.5185984776000001,-9.6984494992,2.1539482328,2.20579592,2.27994754,-4.22164227,,,
imu,351.514495,0.5329541448,-9.686486443200002,2.1228442872,2.08616536,2.36967046,-4.16182699,,,
imu,351.522949,0.5467116592000001,-9.667943706400001,2.1228442872,1.98896553,2.38462428,-4.17678081,,,
imu,351.531404,0.5718340768000001,-9.654186192000001,2.1216479816,2.05625772,2.33976282,-4.18425772,,,
imu,351.539859,0.5766192992000001,-9.6523917336,2.1270313568,2.15345755,2.25751681,-4.057150249999999,,,
imu,351.548313,0.5766192992000001,-9.6703363176,2.1150683008,2.25065738,2.29490136,-4.00481188,,,
imu,351.556768,0.5778156048000002,-9.7074217912,2.0959274112,2.31047266,2.1752708,-4.07210407,,,
imu,351.565222,0.5861897440000001,-9.7086180968,2.1162646064,2.31794957,2.05564024,-4.04219643,,,
imu,351.573677,0.5772174520000001,-9.711010708000002,2.1246387456,2.2656112,2.0257326,-4.079580979999999,,,
imu,351.582132,0.5933675776,-9.7301515976,2.1043015504,2.15345755,2.03320951,-4.146873169999999,,,
imu,351.590586,0.5945638832000001,-9.731347903200001,2.1096849256,1.90671952,1.8014253,-4.057150249999999,,,
imu,351.599041,0.5718340768000001,-9.70502918,2.1096849256,1.77961205,1.71170238,-4.10948862,,,
imu,351.607496,0.571235924,-9.701440263200002,2.1120775368,1.54035093,1.68179474,-4.169303899999999,,,
imu,351.61595,0.5790119104,-9.699047652,2.111479384,1.2936129,1.61450255,-4.146873169999999,,,
imu,351.624769,0.5718340768000001,-9.696056888000001,2.1060960088,1.31604363,1.63693328,-4.0197657,,,
imu,351.633587,0.5664507016000001,-9.696056888000001,2.1168627592,1.30856672,1.68179474,-3.97490424,,,
imu,351.642405,0.5598710208000001,-9.696056888000001,2.1156664536,1.20388998,1.77899457,-3.8702275,,,
imu,351.651223,0.5538894928000001,-9.685290137600001,2.1306202736,1.12912088,1.68179474,-3.81788913,,,
imu,351.660042,0.5479079648000001,-9.6954587352,2.1455740936,1.03939796,1.66684092,-3.95247351,,,
imu,351.66886,0.5508987288,-9.714599624800002,2.1389944128,1.18893616,1.64441019,-4.04219643,,,
imu,351.677678,0.5622636320000001,-9.744507264800001,2.1360036488,1.21136689,1.60702564,-4.10948862,,,
imu,351.686496,0.5514968816000001,-9.730749750400001,2.1401907184,1.17398234,1.6518871,-4.13939626,,,
imu,351.695315,0.5544876456000001,-9.7074217912,2.1282276624,0.9272443100000001,1.82385603,-4.15435008,,,
imu,351.704133,0.5544876456000001,-9.686486443200002,2.12344244,0.8823828499999999,1.8014253,-3.98985806,,,
imu,351.712951,0.5574784096000001,-9.692467971200001,2.126433204,1.03192105,1.8014253,-3.85527368,,,
imu,351.721769,0.5568802568000001,-9.685888290400001,2.1090867728,1.1440747,1.86124058,-3.88518132,,,
imu,351.730588,0.5700396184000001,-9.682299373600001,2.0983200224,1.46558183,1.90610204,-3.84779677,,,
imu,351.739406,0.5634599376000001,-9.683495679200002,2.1102830784,1.61512003,1.76404075,-3.9449966,,,
imu,351.748224,0.5550857984,-9.689477207200001,2.1090867728,1.83195042,1.74908693,-4.012288789999999,,,
imu,351.757042,0.5467116592000001,-9.6817012208,2.10848862,1.84690424,1.7266562,-4.18425772,,,
imu,351.765861,0.5419264368000001,-9.690075360000002,2.0989181752,1.88428879,1.79394839,-4.22164227,,,
imu,351.774679,0.5592728680000001,-9.682897526400001,2.106694161600001,1.71231986,1.74908693,-4.124442439999999,,,
imu,351.783497,0.5676470072,-9.7056273328,2.1216479816,1.6674584,1.85376367,-3.95995042,,,
imu,351.792315,0.5766192992000001,-9.696056888000001,2.1258350512,1.52539711,1.90610204,-3.9449966,,,
imu,351.801134,0.58319898,-9.692467971200001,2.1282276624,1.31604363,1.8761944,-4.012288789999999,,,
imu,351.809952,0.58319898,-9.6846919848,2.1312184264,0.9945364999999999,1.77899457,-4.06462716,,,
imu,351.81877,0.5826008272000001,-9.6709344704,2.1395925656,0.7403215599999999,1.53225654,-4.26650373,,,
imu,351.827248,0.5766192992000001,-9.662560331200002,2.1366018016,0.6281679099999999,1.48739508,-4.430995749999999,,,
imu,351.835725,0.580208216,-9.656578803200002,2.132414732,0.47862971,1.30047233,-4.48333412,,,
imu,351.844203,0.5706377712,-9.665551095200001,2.135405496,0.45619898,1.13598031,-4.44594957,,,
imu,351.85268,0.5646562432000001,-9.668541859200001,2.1401907184,0.47862971,0.9341037399999998,-4.408565019999999,,,
imu,351.861158,0.5706377712,-9.672728928800002,2.1449759408,0.47862971,0.8742884599999998,-4.33379592,,,
imu,351.869635,0.5628617848,-9.685290137600001,2.156340844,0.57582954,0.6798887999999996,-4.244073,,,
imu,351.878113,0.5473098120000001,-9.706823638400001,2.180266956,0.76275229,0.4705353199999998,-4.124442439999999,,,
imu,351.88659,0.5269726168000001,-9.714001472000001,2.1934263176,0.74779847,0.3957662200000001,-3.78798149,,,
imu,351.895068,0.5096261856000001,-9.711010708000002,2.1976133872,0.67302937,0.4032431299999999,-3.51133582,,,
imu,351.903545,0.4910834488,-9.689477207200001,2.1994078456,0.53096808,0.3209971199999999,-3.48890509,,,
imu,351.912023,0.4701481008,-9.6709344704,2.1886410952,0.68798319,0.3733354899999997,-3.30198234,,,
imu,351.920501,0.4761296288000001,-9.6523917336,2.178472497600001,0.80761375,0.5976427899999996,-3.24216706,,,
imu,351.928978,0.4773259344000001,-9.657775108800001,2.165313136,1.12164397,0.6798887999999996,-3.1225365,,,
imu,351.937456,0.4557924336,-9.637437913600001,2.1497611632,1.30856672,1.03130357,-3.01785976,,,
imu,351.945933,0.4569887392,-9.630260080000001,2.1485648576,1.54782784,1.25561087,-3.04029049,,,
imu,351.954411,0.4593813504000001,-9.6248767048,2.1665094416,1.78708896,1.52477963,-3.10758268,,,
imu,351.962888,0.4665591840000001,-9.6458120528,2.178472497600001,1.86185806,1.85376367,-3.2720747,,,
imu,351.971366,0.4851019208000001,-9.6745233872,2.1671075944,1.86933497,2.07807097,-3.53376655,,,
imu,351.979843,0.4982612824000001,-9.6643547896,2.1419851768,1.88428879,2.38462428,-3.66835093,,,
imu,351.988321,0.517402172,-9.6470083584,2.1497611632,1.61512003,2.51173175,-3.86275059,,,
imu,351.996798,0.5311596864,-9.638634219200002,2.1515556216,1.64502767,2.71360832,-3.74312003,,,
imu,352.005276,0.5431227424,-9.669738164800002,2.1515556216,1.63007385,2.81828506,-3.54124346,,,
imu,352.013753,0.5730303824,-9.678112304,2.1276295096,1.77213514,3.02763854,-3.33188998,,,
imu,352.022231,0.5927694248,-9.679308609600001,2.1198535232,1.8917657,3.15474601,-3.24216706,,,
imu,352.030745,0.6202844536000002,-9.679308609600001,2.1150683008,2.10111918,2.97530017,-3.33188998,,,
imu,352.03926,0.6286585928,-9.684093832000002,2.1043015504,2.27308811,2.75846978,-3.45899745,,,
imu,352.047774,0.6214807592000001,-9.696056888000001,2.1031052448,2.28804193,2.48930102,-3.90013514,,,
imu,352.056288,0.6089195504,-9.703832874400002,2.102507092,2.34785721,2.30237827,-4.19173463,,,
imu,352.064803,0.6089195504,-9.692467971200001,2.1001144808,2.25813429,2.14536316,-4.25154991,,,
imu,352.073317,0.6208826064000001,-9.6745233872,2.0869551192,2.31047266,2.04068642,-4.28145755,,,
imu,352.081832,0.6041343280000001,-9.682299373600001,2.0863569664,2.21327283,1.64441019,-4.35622665,,,
imu,352.090346,0.601143564,-9.7128051664,2.0959274112,2.12354991,1.55468727,-4.30388828,,,
imu,352.09886,0.5784137576,-9.749890640000002,2.1001144808,2.10111918,1.41262598,-4.18425772,,,
imu,352.107375,0.5634599376000001,-9.773218599200002,2.0881514248,2.06373463,1.29299542,-3.90761205,,,
imu,350.616076,,,,,,,51.4655444,-11.26117240000002,25.9097968
imu,350.717608,,,,,,,51.86838200000001,-11.66401000000001,26.0074544
imu,350.819201,,,,,,,51.53878760000001,-11.78608200000002,25.89758959999999
imu,350.920733,,,,,,,52.4421204,-11.78608200000002,25.6290312
imu,351.022265,,,,,,,51.55099480000001,-11.2489652,26.04407599999999
imu,351.123858,,,,,,,54.49292999999999,-11.95698280000002,23.2730416
imu,351.225573,,,,,,,51.6974812,-11.45648760000002,26.0562832
imu,351.326983,,,,,,,53.78491240000001,-12.44527080000002,23.72470799999999
imu,352.115889,0.5497024232000001,-9.7510869456,2.0881514248,1.73475059,1.2032725,-3.89265823,,,
imu,352.124404,0.5311596864,-9.746301723200002,2.0971237168,1.56278166,1.3528107,-3.76555076,,,
imu,352.132918,0.5293652280000001,-9.7403201952,2.0923384944,1.42072037,1.47991817,-3.61601256,,,
imu,352.141433,0.5275707696,-9.7086180968,2.075590216,1.01696723,1.45001053,-3.75807385,,,
imu,352.149947,0.5197947832,-9.692467971200001,2.0600382432,0.82256757,1.33037997,-3.88518132,,,
imu,352.158461,0.5138132552000001,-9.6745233872,2.0642253128,0.65807555,1.2780416,-3.95995042,,,
imu,352.166976,0.5132151024,-9.6745233872,2.0654216184,0.6132140899999999,1.36028761,-3.98238115,,,
imu,352.17549,0.5132151024,-9.682299373600001,2.048673340000001,0.76275229,1.39019525,-3.99733497,,,
imu,352.184005,0.5156077136000001,-9.703234721600001,2.057645632,0.7552753799999999,1.49487199,-4.04967334,,,
imu,352.192519,0.5245800056000001,-9.706823638400001,2.072599452,0.76275229,1.68179474,-3.80293531,,,
imu,352.201033,0.5197947832,-9.731946056000002,2.0869551192,0.83004448,1.82385603,-3.56367419,,,
imu,352.209548,0.5197947832,-9.755274015200001,2.084562508,0.66555246,1.80890221,-3.57862801,,,
imu,352.218062,0.5168040192000001,-9.7786019744,2.0863569664,0.31413769,1.71917929,-3.60105874,,,
imu,352.226577,0.5114206440000001,-9.767835224,2.0959274112,0.14964567,1.6518871,-3.54124346,,,
imu,352.234989,0.5126169496,-9.754675862400001,2.0935348,-0.127,1.61450255,-3.54124346,,,
imu,352.243402,0.5048409632,-9.738525736800002,2.1019089392,-0.4260764,1.577118,-3.51881273,,,
imu,352.251918,0.4862982264000001,-9.718188541600002,2.1072923144,-0.49336859,1.60702564,-3.59358183,,,
imu,352.260331,0.4898871432,-9.7217774584,2.0935348,-0.55318387,1.68927165,-3.4216129,,,
imu,352.268744,0.4862982264000001,-9.724170069600001,2.0959274112,-0.76253735,1.8014253,-3.45899745,,,
imu,352.277156,0.4946723656000001,-9.7217774584,2.1120775368,-0.77749117,1.84628676,-3.33188998,,,
imu,352.285569,0.4910834488,-9.716992236000001,2.1156664536,-0.64290679,1.97339423,-3.17487487,,,
imu,352.293982,0.5000557408,-9.70502918,2.117460912,-0.69524516,2.11545552,-3.07767504,,,
imu,352.302394,0.4952705184000001,-9.693066124000001,2.1180590648,-0.85973718,2.13040934,-3.10758268,,,
imu,352.310807,0.499457588,-9.689477207200001,2.129423968,-0.89712173,2.13788625,-3.21973633,,,
imu,352.31922,0.5072335744,-9.678112304,2.133611037600001,-0.77749117,2.16779389,-3.22721324,,,
imu,352.327632,0.5066354216000001,-9.675719692800001,2.1306202736,-0.91207555,2.22013226,-3.29450543,,,
imu,352.336045,0.5030465048,-9.6733270816,2.1431814824,-1.00927538,2.28742445,-3.37675144,,,
imu,352.344458,0.5168040192000001,-9.6846919848,2.1449759408,-1.05413684,2.324809,-3.37675144,,,
imu,352.35287,0.5209910888,-9.683495679200002,2.147368552000001,-1.0242292,2.3995781,-3.38422835,,,
imu,352.361283,0.5191966304000001,-9.676317845600002,2.1545463856,-1.06909066,2.38462428,-3.29450543,,,
imu,352.369696,0.5221873944000001,-9.671532623200001,2.1689020528,-1.04665993,2.36219355,-3.13001341,,,
imu,352.378109,0.5281689224000001,-9.669140012000002,2.177276192,-0.98684465,2.3995781,-2.99542903,,,
imu,352.386521,0.5281689224000001,-9.678112304,2.1796688032,-1.21862886,2.2500399,-3.04029049,,,
imu,352.394934,0.5317578392000001,-9.693066124000001,2.1844540256,-1.12142903,2.30237827,-2.90570611,,,
imu,352.403347,0.520392936,-9.704431027200002,2.2006041512,-1.09152139,2.37714737,-2.71130645,,,
imu,352.411759,0.5275707696,-9.693066124000001,2.189239248,-1.23358268,2.39210119,-2.65896808,,,
imu,352.420172,0.5311596864,-9.6733270816,2.195220776,-1.26349032,2.4743472,-2.60662971,,,
imu,352.428585,0.5341504504000001,-9.661364025600001,2.201202304,-1.30835178,2.4743472,-2.58419898,,,
imu,352.437052,0.5467116592000001,-9.6505972752,2.2000059984,-1.19619813,2.66874686,-2.53933752,,,
imu,352.445519,0.5485061176,-9.644615747200001,2.1988096928,-1.10647521,2.78090051,-2.5991528,,,
imu,352.453987,0.5550857984,-9.657176956,2.2059875264,-1.03918302,2.90053107,-2.55429134,,,
imu,352.462454,0.5592728680000001,-9.672130776000001,2.2173524296,-1.01675229,3.10240764,-2.65149117,,,
imu,352.470921,0.5664507016000001,-9.690673512800002,2.2137635128,-0.95693701,3.17717674,-2.6739219,,,
imu,352.479389,0.5772174520000001,-9.679308609600001,2.2245302632,-0.90459864,3.10240764,-2.6739219,,,
imu,352.487856,0.601143564,-9.683495679200002,2.225128416,-0.94198319,3.15474601,-2.86832156,,,
imu,352.496323,0.6160973840000001,-9.6817012208,2.2305117912,-1.06161375,3.16222292,-3.0477674,,,
imu,352.504791,0.6256678288,-9.673925234400002,2.2263247216,-1.06161375,3.10240764,-3.26459779,,,
imu,352.513258,0.6190881480000001,-9.6703363176,2.2388859304,-1.18872122,3.07997691,-3.21225942,,,
imu,352.521725,0.6274622872000001,-9.657775108800001,2.2502508336,-1.34573633,3.0725,-3.24964397,,,
imu,352.530193,0.6298548984000001,-9.659569567200002,2.2508489864,-1.37564397,2.93043871,-3.29450543,,,
imu,352.53866,0.6232752176,-9.648204664000001,2.2478582224,-1.38312088,2.82576197,-3.24964397,,,
imu,352.547128,0.6376308848000001,-9.6428212888,2.2436711528,-1.42050543,2.9229618,-3.18235178,,,
imu,352.555595,0.6304530512000001,-9.634447149600001,2.2502508336,-1.56256672,2.69117759,-3.21973633,,,
imu,352.564062,0.6274622872000001,-9.612913648800001,2.2586249728,-1.49527453,2.51173175,-3.29450543,,,
imu,352.57253,0.6196863008000001,-9.609922884800001,2.2562323616,-1.38312088,2.38462428,-3.25712088,,,
imu,352.580997,0.6256678288,-9.636241608,2.2562323616,-1.30835178,2.39210119,-3.27955161,,,
imu,352.589464,0.6244715232,-9.633848996800001,2.280756626400001,-1.21115195,2.2500399,-3.38422835,,,
imu,352.597932,0.5993491056000001,-9.639830524800002,2.3004956688,-1.27844414,2.18274771,-3.4216129,,,
imu,352.606399,0.5963583416000001,-9.668541859200001,2.3124587248,-1.14385976,2.11545552,-3.496382,,,
imu,352.614866,0.5933675776,-9.673925234400002,2.2981030576,-1.28592105,2.22013226,-3.45152054,,,
imu,352.623334,0.5879842024,-9.667943706400001,2.304084585600001,-1.18872122,2.25751681,-3.38422835,,,
imu,352.631801,0.5897786608000001,-9.651195428000001,2.320832864,-1.24105959,2.16779389,-3.44404363,,,
imu,352.640613,0.5855915912,-9.6535880392,2.323823628,-1.27096723,2.05564024,-3.38422835,,,
imu,352.649424,0.5921712720000001,-9.665551095200001,2.3226273224,-1.14385976,2.13788625,-3.21225942,,,
imu,352.658236,0.5814045216000001,-9.684093832000002,2.3274125448,-1.15881358,2.13788625,-3.13001341,,,
imu,352.667048,0.5945638832000001,-9.669140012000002,2.3226273224,-1.27844414,2.13788625,-3.21225942,,,
imu,352.675859,0.6023398696000001,-9.651793580800001,2.3190384056,-1.28592105,2.03320951,-3.40665908,,,
imu,352.684671,0.5921712720000001,-9.634447149600001,2.3220291696,-1.2485365,1.82385603,-3.68330475,,,
imu,352.693482,0.5915731192000001,-9.632054538400002,2.3190384056,-1.12142903,1.77899457,-3.81788913,,,
imu,352.702294,0.5993491056000001,-9.6458120528,2.3363848368,-1.11395212,1.73413311,-3.85527368,,,
imu,352.711106,0.5855915912,-9.648802816800002,2.3441608232,-1.1737674,1.71917929,-3.88518132,,,
imu,352.719917,0.5921712720000001,-9.632054538400002,2.3429645176,-1.20367504,1.65936401,-3.72816621,,,
imu,352.728729,0.5909749664,-9.6296619272,2.3513386568,-1.33078251,1.47244126,-3.69825857,,,
imu,352.737541,0.5969564944000001,-9.633250844,2.344758976,-1.51770526,1.44253362,-3.52628964,,,
imu,352.746352,0.5897786608000001,-9.620689635200002,2.348347892800001,-1.41302852,1.21822632,-3.41413599,,,
imu,352.755164,0.5766192992000001,-9.6075302736,2.3543294208,-1.30835178,1.23318014,-3.26459779,,,
imu,352.763975,0.5754229936,-9.602146898400001,2.362105407200001,-1.22610577,1.22570323,-3.28702852,,,
imu,352.772787,0.5748248408000001,-9.5985579816,2.3668906296,-1.11395212,1.21074941,-3.16739796,,,
imu,352.781599,0.5754229936,-9.600352440000002,2.3638998656,-0.94198319,1.07616503,-3.21225942,,,
imu,352.79041,0.565254396,-9.617698871200002,2.350740504,-0.71767589,1.09111885,-3.06272122,,,
imu,352.799222,0.5598710208000001,-9.61530626,2.3740684632,-0.67281443,1.11354958,-3.04029049,,,
imu,352.808033,0.5724322296000001,-9.603343204000002,2.3764610744,-0.44103022,1.23318014,-3.1225365,,,
imu,352.816845,0.5748248408000001,-9.5907819952,2.380648144,-0.29149202,1.2780416,-3.01785976,,,
imu,352.825657,0.5790119104,-9.591380148,2.3991908808,0.0001074699999999984,1.46496435,-3.04029049,,,
imu,352.834468,0.5760211464000001,-9.606333968000001,2.3997890336,0.07487657,1.55468727,-2.98047521,,,
imu,352.842951,0.5826008272000001,-9.623680399200001,2.4159391592,-0.01484635000000001,1.46496435,-3.13001341,,,
imu,352.851434,0.5867878968000001,-9.632054538400002,2.4219206872,-0.17933837,1.21074941,-3.1973056,,,
imu,352.859916,0.5849934384000001,-9.633250844,2.4093594784,-0.23167674,1.31542615,-3.20478251,,,
imu,352.868399,0.5945638832000001,-9.620689635200002,2.4177336176,-0.23915365,1.3528107,-3.2720747,,,
imu,352.876881,0.6047324808000001,-9.609922884800001,2.4009853392,-0.37373803,1.25561087,-3.13749032,,,
imu,352.885364,0.5945638832000001,-9.602146898400001,2.4051724088,-0.15690764,1.21074941,-2.99542903,,,
imu,352.893847,0.6071250920000001,-9.593174606400002,2.3991908808,-0.17933837,1.19579559,-2.98047521,,,
imu,352.902329,0.6029380224,-9.594370912,2.3944056584,-0.007369440000000005,1.24065705,-3.02533667,,,
imu,352.910812,0.6113121616,-9.612913648800001,2.3812462968,0.05992275,1.25561087,-3.09262886,,,
imu,352.919295,0.6166955368000001,-9.597361676,2.3728721576,0.21693786,1.10607267,-3.1973056,,,
imu,352.927777,0.6071250920000001,-9.578818939200001,2.3920130472,0.35152224,1.17336486,-3.24216706,,,
imu,351.428546,,,,,,,51.4655444,-11.87153240000001,26.1295264
imu,351.530108,,,,,,,51.30685080000001,-11.99360440000001,24.81114879999999
imu,351.63164,,,,,,,51.30685080000001,-11.96919000000001,25.6046168
imu,351.733233,,,,,,,51.14815720000001,-11.92036120000002,26.1783552
imu,351.834796,,,,,,,51.196986,-11.94477560000002,25.88538239999999
imu,351.936328,,,,,,,50.7941484,-12.0058116,26.2393912
imu,352.037951,,,,,,,51.59982359999999,-12.0424332,25.83655359999999
imu,352.143451,,,,,,,52.12473319999999,-11.76166760000001,25.94641839999999
imu,352.93626,0.6053306336000001,-9.584800467200001,2.4123502424,0.65807555,1.18831868,-3.0477674,,,
imu,352.944742,0.6059287864000001,-9.642223136000002,2.4302948264,0.6954601,1.33785688,-2.88327538,,,
imu,352.953225,0.5891805080000001,-9.6817012208,2.413546548,0.6954601,1.60702564,-2.76364482,,,
imu,352.961708,0.5987509528,-9.6745233872,2.4003871864,0.6281679099999999,1.8014253,-2.64401426,,,
imu,352.97019,0.6035361752000001,-9.6284656216,2.398592728,0.50853735,2.00330187,-2.92065993,,,
imu,352.978673,0.6047324808000001,-9.583006008800002,2.4123502424,0.46367589,2.11545552,-3.20478251,,,
imu,352.987155,0.5963583416000001,-9.559678049600002,2.4147428536,0.40386061,2.08554788,-3.83284295,,,
imu,352.995638,0.5951620360000001,-9.560874355200001,2.4147428536,0.31413769,2.19770153,-4.22911918,,,
imu,353.004121,0.6029380224,-9.5668558832,2.4111539368,0.2468455,2.16779389,-4.647826139999999,,,
imu,353.012603,0.6053306336000001,-9.5704448,2.4021816448,0.20946095,2.24256299,-4.86465653,,,
imu,353.021086,0.6053306336000001,-9.575230022400001,2.4111539368,0.14964567,2.39210119,-4.86465653,,,
imu,353.029569,0.6089195504,-9.575230022400001,2.4183317704,0.35899915,2.30985518,-4.887087259999999,,,
imu,353.038051,0.6113121616,-9.600352440000002,2.4231169928,0.52349117,2.1005017,-4.92447181,,,
imu,353.04651,0.5903768136,-9.618297024,2.4069668672,0.6132140899999999,2.01825569,-4.86465653,,,
imu,353.054968,0.5921712720000001,-9.627867468800002,2.4093594784,0.77770611,1.94348659,-4.715118329999999,,,
imu,353.063426,0.5826008272000001,-9.627867468800002,2.4081631728,1.09921324,1.69674856,-4.7674567,,,
imu,353.071885,0.5664507016000001,-9.6015487456,2.3938075056,1.26370526,1.41262598,-4.57305704,,,
imu,353.080343,0.5556839512000001,-9.595567217600001,2.413546548,1.33847436,1.27056469,-4.46090339,,,
imu,353.088802,0.5526931872,-9.593174606400002,2.4159391592,1.6674584,1.13598031,-4.22911918,,,
imu,353.09726,0.5443190480000001,-9.6087265792,2.410555784,1.68988913,1.06868812,-3.98985806,,,
imu,353.105719,0.5335522976000001,-9.6434194416,2.4249114512,1.98896553,1.1285034,-3.62348947,,,
imu,353.114177,0.5305615336,-9.658971414400002,2.423715145600001,2.01887317,1.11354958,-3.2720747,,,
imu,353.122636,0.5209910888,-9.665551095200001,2.410555784,1.92915025,1.21074941,-2.93561375,,,
imu,353.131094,0.5359449088000001,-9.664952942400001,2.4123502424,1.68988913,1.30794924,-2.87579847,,,
imu,353.139553,0.535346756,-9.6523917336,2.413546548,1.77961205,1.53225654,-2.73373718,,,
imu,353.148011,0.5299633808,-9.633848996800001,2.4027797976,1.68241222,1.60702564,-2.70382954,,,
imu,353.15647,0.5299633808,-9.610521037600002,2.37765738,1.67493531,1.70422547,-2.83093701,,,
imu,353.164928,0.5299633808,-9.593772759200002,2.365694324000001,1.53287402,2.05564024,-2.94309066,,,
imu,353.173386,0.5425245896,-9.5812115504,2.3549275736,1.68988913,2.30237827,-3.04029049,,,
imu,353.181845,0.5449172008000001,-9.595567217600001,2.3453571288,1.92915025,2.6238854,-3.00290594,,,
imu,353.190303,0.5634599376000001,-9.594370912,2.344758976,2.13102682,2.79585433,-3.01038285,,,
imu,353.198762,0.5897786608000001,-9.596165370400001,2.3393756008,2.27308811,3.11736146,-3.13001341,,,
imu,353.20722,0.5999472584000001,-9.605735815200001,2.329805156,2.48244159,3.41643786,-3.10010577,,,
imu,353.215679,0.6154992312,-9.603343204000002,2.3232254752,2.73665653,3.49868387,-3.24216706,,,
imu,353.224137,0.6364345792000001,-9.627269316000001,2.314851336,2.97591765,3.65569898,-3.2720747,,,
imu,353.232596,0.6549773160000001,-9.640428677600001,2.3226273224,2.90862546,3.76785263,-3.35432071,,,
imu,353.241054,0.6687348304,-9.6667474008,2.3232254752,2.98339456,3.86505246,-3.4216129,,,
imu,353.249519,0.6872775672000001,-9.682897526400001,2.325019933600001,2.87871782,3.80523718,-3.50385891,,,
imu,353.257984,0.6998387760000001,-9.7128051664,2.3363848368,2.60207215,3.86505246,-3.51133582,,,
imu,353.266449,0.7076147624000001,-9.7492924872,2.3459552816,2.3403803,3.81271409,-3.53376655,,,
imu,353.274913,0.7094092208000001,-9.769031529600001,2.3429645176,2.06373463,3.65569898,-3.54872037,,,
imu,353.283378,0.7219704296,-9.7750130576,2.3411700592,1.70484295,3.50616078,-3.63844329,,,
imu,353.291843,0.7123999848000001,-9.772022293600001,2.3525349624,1.03192105,3.28933039,-3.78050458,,,
imu,353.300308,0.7082129152000001,-9.7570684736,2.3585164904,0.66555246,3.21456129,-3.83284295,,,
imu,353.308773,0.7082129152000001,-9.745105417600001,2.37765738,0.03749201999999999,3.02016163,-4.15435008,,,
imu,353.317237,0.70282954,-9.736731278400002,2.3800499912,-0.58309151,2.7734236,-4.363703559999999,,,
imu,353.325702,0.6950535536000001,-9.718188541600002,2.3950038112,-1.06909066,2.58650085,-4.22911918,,,
imu,353.334167,0.6693329832000001,-9.7086180968,2.3902185888,-1.62985891,2.41453192,-4.46090339,,,
imu,353.342556,0.6681366776000001,-9.697253193600002,2.40756502,-2.03361205,2.27247063,-4.58801086,,,
imu,353.351021,0.6388271904000001,-9.684093832000002,2.4117520896,-2.42241137,2.07059406,-4.63287232,,,
imu,353.359485,0.6125084672000001,-9.672728928800002,2.4386689656,-2.69158013,1.89862513,-4.7674567,,,
imu,353.36795,0.6005454112,-9.690075360000002,2.4655858416,-2.98317962,1.9509635,-4.715118329999999,,,
imu,353.376415,0.5826008272000001,-9.708019944000002,2.4655858416,-3.21496383,2.05564024,-4.647826139999999,,,
imu,353.38488,0.5562821040000001,-9.725366375200002,2.4895119536,-3.5663786,2.0257326,-4.78241052,,,
imu,353.393345,0.4916816016,-9.773816752000002,2.5606921368,-4.18696213,2.19022462,-4.78241052,,,
imu,353.401809,0.370854736,-9.842006171200001,2.6025628328,-5.009422229999999,2.5491163,-4.92447181,,,
imu,353.410274,0.2542149400000001,-9.942495841600001,2.6007683744,-6.1832971,3.57345297,-5.23102512,,,
imu,353.418739,0.2051664104,-9.990348065600001,2.58701086,-7.81326348,4.85948149,-5.73197809,,,
imu,353.427204,0.203371952,-9.9813757736,2.604955444,-9.40584531,6.45954023,-6.397423079999999,,,
imu,353.435669,0.1860255208,-10.0244427752,2.699463586400001,-11.01338096,8.10446043,-7.19745245,,,
imu,353.444133,0.1070693512,-10.1482604048,2.787392048000001,-12.89008537,9.83910355,-7.92271272,,,
imu,353.452598,0.0101685976,-10.2768632568,2.779616061600001,-15.10325073,11.76066942,-9.01434158,,,
imu,353.461063,-0.04127254320000001,-10.3396693008,2.7550917968,-17.87718434,13.42802035,-11.01067655,,,
imu,353.469528,-0.1333880744,-10.3193321056,2.7592788664,-20.89037907,15.86549301,-13.62759505,,,
imu,353.477993,-0.2009793408,-10.285237396,2.779616061600001,-24.09797346,18.84130319,-16.0575908,,,
imu,353.486458,-0.221316536,-10.25832052,2.742530588,-27.17846038,22.12366668,-17.88943375,,,
imu,353.494922,-0.2111479384,-10.174579128,2.679724544,-30.00473236,25.60790674,-19.18293918,,,
imu,353.503387,-0.176455076,-10.0705005408,2.678528238400001,-32.62912777,29.10710062,-20.38672169,,,
imu,353.511852,-0.1537252696,-9.939505077600002,2.6803226968,-34.72266257,32.49414085,-21.23908943,,,
imu,353.520317,-0.1178361016,-9.8198745176,2.6755374744,-36.25542912,35.34284356,-22.0391188,,,
imu,353.528782,-0.0562263632,-9.7193848472,2.7209970872,-37.33210416,38.0644388,-22.36810284,,,
imu,353.537246,-0.0005981528000000001,-9.616502565600001,2.7772234504,-38.21437954,40.44209618,-22.89148654,,,
imu,353.545711,0.0532355992,-9.572837411200002,2.8418239528,-38.52093285,42.28141604,-23.26533204,,,
imu,353.554176,0.1022841288,-9.495077547200001,2.838833188800001,-38.84243998,43.87399787,-23.12327075,,,
imu,353.562641,0.1740624648,-9.3664746952,2.8466091752,-38.87234762,45.17498020999999,-22.91391727,,,
imu,353.571106,0.2410555784,-9.184038091200001,2.8513943976,-38.64804032,45.99744030999999,-22.58493323,,,
imu,353.57957,0.311039456,-9.002797792800001,2.9261634976,-37.75081112,46.45353181999999,-22.4877334,,,
imu,353.588035,0.3642750552,-8.8951302888,3.0350273072,-36.30776749,46.64045457,-22.06154953,,,
imu,353.5965,0.391790084,-8.919654553600001,3.1570504784,-34.3712478,46.61802384,-21.34376617,,,
imu,353.604965,0.400762376,-8.985451361600001,3.2019119384,-32.36743592,46.37128581,-20.62598281,,,
imu,353.61343,0.43366078,-8.9956199592,3.239595564800001,-30.73746954,45.74322537,-20.14746057,,,
imu,353.621895,0.4922797544,-8.951954804800001,3.314962817600001,-28.92058041,45.11516493,-19.86333799,,,
imu,353.630359,0.5455153536,-8.8801764688,3.3442723048,-27.08126055,44.26279718999999,-19.44463103,,,
imu,353.638824,0.5969564944000001,-8.805407368800001,3.3801614728,-24.78584918,43.34313726,-18.79413986,,,
imu,353.647289,0.6292567456000001,-8.786266479200002,3.448350892000001,-22.23622287,42.08701637999999,-18.24832543,,,
imu,353.656119,0.6663422192,-8.780883104,3.5183347696,-19.61930437,40.68135729999999,-17.29128095,,,
imu,353.664949,0.6908664840000001,-8.812585202400001,3.593702022400001,-16.9500475,39.14111384,-16.23703664,,,
imu,353.67378,0.7165870544000001,-8.878382010400001,3.6864157064,-14.45275956,37.53357819,-15.27251525,,,
imu,353.68261,0.7452983888000001,-8.973488305600002,3.738455000000001,-12.26202493,35.62696614,-14.38276296,,,
imu,353.69144,0.7614485144,-9.017153460000001,3.750418056,-10.80402748,33.55586207,-13.7397487,,,
imu,353.70027,0.7572614448000001,-9.007583015200002,3.7779330848,-9.6226757,31.5595271,-13.22384191,,,
imu,353.7091,0.7464946944,-9.003395945600001,3.8299723784,-8.47123156,29.68282269,-12.77522731,,,
imu,353.717931,0.7458965416000001,-9.0398832664,3.872441227200001,-7.678679099999999,27.77621064,-12.25932052,,,
imu,353.726761,0.7297464160000001,-9.069192753600001,3.8586837128,-6.833788269999999,25.77239876,-11.62378317,,,
imu,353.735591,0.7285501104000001,-9.0787631984,3.876030144,-6.310404569999999,23.92560199,-11.30227604,,,
imu,353.744421,0.7225685824,-9.058426003200001,3.8826098248,-5.70477486,22.34049707,-10.8985229,,,
imu,352.240966,,,,,,,54.2243716,-12.90914440000002,24.090924
imu,352.342529,,,,,,,51.5265804,-12.03022600000001,26.39808479999999
imu,352.444091,,,,,,,53.9924348,-12.62837880000001,23.6148432
imu,352.545837,,,,,,,51.51437320000001,-12.10346920000001,26.5079496
imu,352.647247,,,,,,,51.66085959999999,-11.73725320000001,24.85997759999999
imu,352.748809,,,,,,,51.13594999999999,-11.72504600000002,26.09290479999999
imu,352.850341,,,,,,,51.47775160000001,-11.89594680000001,25.2994368
imu,352.951904,,,,,,,51.1237428,-11.2855868,25.53137359999999
imu,353.753251,0.7177833600000001,-9.011770084800002,3.8742356856,-5.16643734,20.65071541,-10.48729285,,,
imu,353.762082,0.7213722768,-8.9806661392,3.8778246024,-4.43370016,19.05065667,-10.0760628,,,
imu,353.770912,0.7016332344,-8.945973276800002,3.896965492000001,-3.66357843,17.6524745,-9.47043309,,,
imu,353.779742,0.7118018320000001,-8.934608373600001,3.908928548,-2.67662631,16.26924615,-8.49843479,,,
imu,353.788572,0.7052221512000001,-8.972890152800002,3.9131156176,-1.53265908,14.8860178,-7.57129795,,,
imu,353.797402,0.6705292888000001,-8.997414417600002,3.914910076,-0.5008455,13.50278945,-6.80117622,,,
imu,353.806232,0.6765108168000001,-8.9878439728,3.9107230064,0.49358353,12.00740745,-6.12825432,,,
imu,353.815063,0.6920627896000001,-8.954945568800001,3.922087909600001,1.45810492,10.6241791,-5.48524006,,,
imu,353.823893,0.6872775672000001,-8.948964040800002,3.9639586056,2.42262631,9.21852002,-4.909517989999999,,,
imu,353.832723,0.6711274416,-8.990834736800002,3.986090259200001,3.3123786,7.88015313,-4.3936112,,,
imu,353.841553,0.646005024,-9.037490655200001,3.974725356,4.11988488,6.5866477,-3.95995042,,,
imu,353.850383,0.6196863008000001,-9.087137337600002,3.9519955496,4.56102257,5.41277283,-3.48890509,,,
imu,353.858846,0.6029380224,-9.115848672,3.9543881608,4.99468335,4.44825144,-3.10758268,,,
imu,353.867308,0.580208216,-9.130802492,3.9519955496,5.30871357,3.47625314,-2.76364482,,,
imu,353.87577,0.5688433128,-9.142167395200001,3.9376398824,5.48815941,2.80333124,-2.41223005,,,
imu,353.884233,0.5610673264,-9.152934145600002,3.902348867200001,5.82462036,2.2500399,-2.19539966,,,
imu,353.892695,0.5359449088000001,-9.143961853600002,3.867057852000001,6.01154311,1.62197946,-2.02343073,,,
imu,353.901157,0.5209910888,-9.140372936800002,3.841935434400001,6.24332732,1.17336486,-2.23278421,,,
imu,353.909619,0.5000557408,-9.154728604,3.84313174,6.39286552,0.7920424499999998,-2.35989168,,,
imu,353.918082,0.4845037680000001,-9.1894214664,3.8568892544,6.62464973,0.5527813299999997,-2.5243837,,,
imu,353.926544,0.4737370176,-9.247442288000002,3.8455243512,6.81904939,0.2088434699999997,-2.71130645,,,
imu,353.935006,0.4593813504000001,-9.283331456,3.8066444192,6.76671102,0.02192071999999978,-2.98795212,,,
imu,353.943468,0.4378478496000001,-9.2659850248,3.790494293600001,6.76671102,-0.01546383000000029,-3.15992105,,,
imu,353.951931,0.4163143488000001,-9.255816427200001,3.804849960800001,6.54988063,0.05930526999999985,-3.2720747,,,
imu,353.960393,0.4139217376000001,-9.292303748000002,3.8054481136,6.40781934,0.2088434699999997,-3.26459779,,,
imu,353.968855,0.4097346680000001,-9.329987374400002,3.762381112,6.3031426,0.4256738599999998,-3.21973633,,,
imu,353.977318,0.4228940296000001,-9.335370749600001,3.7402494584,6.1536044,0.5527813299999997,-3.42908981,,,
imu,353.98578,0.4402404608,-9.328791068800001,3.728286402400001,5.94425092,0.5527813299999997,-3.69825857,,,
imu,353.994242,0.4468201416000001,-9.304266804000001,3.688210164800001,5.89938946,0.6724118899999998,-3.90013514,,,
imu,354.002704,0.4408386136,-9.2761536224,3.6642840528,5.81714345,0.78456554,-4.146873169999999,,,
imu,354.011167,0.4318663216,-9.2378718432,3.642750552,5.94425092,0.7172733499999997,-4.43847266,,,
imu,354.019629,0.4486146000000001,-9.215142036800001,3.626002273600001,6.25828114,0.6125966099999998,-4.5431494,,,
imu,354.028091,0.4498109056,-9.198393758400002,3.6080576896,6.4526808,0.4107200399999997,-4.56558013,,,
imu,354.036553,0.4701481008,-9.176860257600001,3.586524188800001,6.76671102,0.3209971199999999,-4.6179185,,,
imu,354.045016,0.4809148512,-9.173271340800001,3.5661869936,7.10317197,0.02192071999999978,-4.647826139999999,,,
imu,354.053478,0.4964668240000001,-9.1852343968,3.564392535200001,7.65646331,-0.4042631500000002,-4.49081103,,,
imu,354.062264,0.5060372688000001,-9.2157401896,3.581140813600001,8.12003173,-0.9201699400000001,-4.35622665,,,
imu,354.071051,0.5042428104000001,-9.2755554696,3.593103869600001,8.56864633,-1.38373836,-4.169303899999999,,,
imu,354.079838,0.5018501992000001,-9.3168280128,3.569775910400001,8.650892339999999,-1.9370297,-4.07210407,,,
imu,354.088624,0.5048409632,-9.348530111200002,3.572766674400001,8.628461609999999,-2.57256705,-3.95247351,,,
imu,354.097411,0.5042428104000001,-9.343744888800002,3.5685796048,8.74809217,-3.11090457,-3.74312003,,,
imu,354.106197,0.502448352,-9.3455393472,3.564990688,8.606030879999999,-3.61933445,-3.62348947,,,
imu,354.114984,0.5096261856000001,-9.364680236800002,3.547046104000001,8.37424667,-4.1801027,-3.48890509,,,
imu,354.12377,0.5066354216000001,-9.372456223200002,3.5279052144,8.35181594,-4.75582477,-3.20478251,,,
imu,354.132557,0.5090280328000001,-9.3628857784,3.5135495472,8.194800829999998,-5.443700489999999,-2.9729983,,,
imu,354.141343,0.5120187968000001,-9.3664746952,3.509960630400001,8.149939369999998,-5.92222273,-2.84589083,,,
imu,354.15013,0.5168040192000001,-9.371259917600002,3.5015864912,8.239662289999998,-6.475514069999999,-2.56176825,,,
imu,354.158916,0.5036446576000001,-9.3622876256,3.46928624,8.35929285,-7.08114378,-2.26269185,,,
imu,354.167703,0.5036446576000001,-9.352717180800001,3.4555287256,8.48640032,-7.679296580000001,-1.94118472,,,
imu,353.053497,,,,,,,51.502166,-12.0424332,25.6290312
imu,353.155151,,,,,,,51.5265804,-11.51752360000002,26.0318688
imu,353.256591,,,,,,,53.7238764,-12.59175720000001,24.6524552
imu,353.358154,,,,,,,51.55099480000001,-11.7128388,25.7022744
imu,353.459777,,,,,,,54.00464200000001,-12.70162200000002,23.17538399999999
imu,353.561279,,,,,,,49.26824840000001,-11.20013640000002,24.090924
imu,353.662872,,,,,,,47.717934,-10.90716360000001,18.26808959999999
imu,353.764587,,,,,,,46.99770920000001,-10.90716360000001,20.1724128
imu,353.865974,,,,,,,46.0211332,-10.63860520000002,19.90385439999999
imu,353.967506,,,,,,,46.7657724,-10.12590280000001,20.09916959999999
imu,354.069069,,,,,,,46.8756372,-10.28459640000001,19.37894479999999
imu,354.170662,,,,,,,46.985502,-10.24797480000002,19.57425999999999
