Type,Timestamp,Data Accelerometer X,Data Accelerometer Y,Data Accelerometer Z,Data Gyroscope X,Data Gyroscope Y,Data Gyroscope Z,Data Magnetometer X,Data Magnetometer Y,Data Magnetometer Z
imu,406.657084,-0.6226770648,-9.572837411200002,2.7491102688,1.67493531,2.22760917,-3.55619728,,,
imu,406.665572,-0.62806044,-9.574631869600001,2.7449231992,1.69736604,2.21265535,-3.40665908,,,
imu,406.67406,-0.6184899952000001,-9.578818939200001,2.7491102688,1.63007385,2.33976282,-3.40665908,,,
imu,406.682548,-0.6154992312,-9.591380148,2.745521352,1.54782784,2.34723973,-3.36179762,,,
imu,406.691035,-0.6125084672000001,-9.580613397600002,2.7550917968,1.368382,2.35471664,-3.36179762,,,
imu,406.699523,-0.6095177032000001,-9.5812115504,2.7473158104,1.51044329,2.49677793,-3.24964397,,,
imu,406.708011,-0.6059287864000001,-9.583604161600002,2.745521352,1.368382,2.55659321,-3.29450543,,,
imu,406.716498,-0.6089195504,-9.589585689600002,2.7521010328,1.32352054,2.60893158,-3.31693616,,,
imu,406.724986,-0.5927694248,-9.579417092000002,2.7383435184,1.30108981,2.60893158,-3.31693616,,,
imu,406.733474,-0.5843952856000001,-9.572837411200002,2.7371472128,1.30856672,2.68370068,-3.30198234,,,
imu,406.741961,-0.5808063688,-9.5740337168,2.7359509072,1.27865908,2.66874686,-3.28702852,,,
imu,406.750449,-0.5748248408000001,-9.573435564,2.7281749208,1.46558183,2.72856214,-3.25712088,,,
imu,406.758937,-0.5730303824,-9.567454036,2.731165684800001,1.5179202,2.63136231,-3.4216129,,,
imu,406.767425,-0.5670488544000001,-9.575230022400001,2.736549060000001,1.46558183,2.64631613,-3.2720747,,,
imu,406.775912,-0.5544876456000001,-9.582407856000001,2.7353527544,1.39828964,2.57902394,-3.24964397,,,
imu,406.7844,-0.5610673264,-9.574631869600001,2.722791545600001,1.47305874,2.53416248,-3.39918217,,,
imu,406.792888,-0.5520950344000001,-9.572239258400002,2.731165684800001,1.43567419,2.42200883,-3.39918217,,,
imu,406.801375,-0.5497024232000001,-9.574631869600001,2.727576768,1.69736604,2.36967046,-3.45152054,,,
imu,406.809863,-0.5413282840000001,-9.575230022400001,2.7233896984,1.67493531,2.3995781,-3.36927453,,,
imu,406.818351,-0.5485061176,-9.581809703200001,2.718604476,1.53287402,2.13788625,-3.496382,,,
imu,406.826838,-0.5544876456000001,-9.580613397600002,2.7347546016,1.75718132,2.04068642,-3.52628964,,,
imu,406.835326,-0.5514968816000001,-9.5949690648,2.7209970872,1.49548947,2.00330187,-3.73564312,,,
imu,406.843823,-0.5604691736,-9.5985579816,2.7162118648,1.57025857,1.86871749,-3.78050458,,,
imu,406.852319,-0.5700396184000001,-9.602745051200001,2.715613712000001,1.58521239,1.97339423,-3.66087402,,,
imu,406.860816,-0.5670488544000001,-9.597959828800002,2.7203989344,1.57025857,2.00330187,-3.51881273,,,
imu,406.869313,-0.5814045216000001,-9.593772759200002,2.7102303368,1.51044329,1.89862513,-3.57862801,,,
imu,406.877809,-0.5820026744000001,-9.594370912,2.7078377256,1.57025857,1.79394839,-3.7206893,,,
imu,406.886306,-0.5933675776,-9.591978300800001,2.712622948,1.50296638,1.89862513,-3.76555076,,,
imu,406.894802,-0.6041343280000001,-9.591380148,2.7108284896,1.27865908,1.96591732,-3.77302767,,,
imu,406.903299,-0.5999472584000001,-9.592576453600001,2.7144174064,1.30108981,1.97339423,-3.81788913,,,
imu,406.911796,-0.5999472584000001,-9.605735815200001,2.7168100176,1.2188438,1.98834805,-3.81041222,,,
imu,406.920292,-0.6083213976,-9.606932120800002,2.7108284896,1.11416706,2.11545552,-3.7206893,,,
imu,406.928789,-0.6077232448000001,-9.588389384000001,2.7144174064,1.22632071,2.28742445,-3.65339711,,,
imu,406.937285,-0.6023398696000001,-9.596763523200002,2.724586004,1.15155161,2.36967046,-3.63096638,,,
imu,406.945782,-0.5981528,-9.595567217600001,2.7239878512,0.9945364999999999,2.39210119,-3.67582784,,,
imu,406.954279,-0.5855915912,-9.597959828800002,2.7198007816,0.81509066,2.38462428,-3.68330475,,,
imu,406.962775,-0.5820026744000001,-9.599754287200001,2.730567532,0.9197674,2.44443956,-3.5711511,,,
imu,406.971272,-0.5790119104,-9.597361676,2.7203989344,0.9571519499999999,2.63136231,-3.51881273,,,
imu,406.979768,-0.5748248408000001,-9.583604161600002,2.730567532,0.81509066,2.66874686,-3.69078166,,,
imu,406.988265,-0.571235924,-9.581809703200001,2.7377453656,0.68798319,2.43696265,-3.7954584,,,
imu,406.996762,-0.565254396,-9.568650341600001,2.7353527544,0.70293701,2.23508608,-3.76555076,,,
imu,407.005258,-0.5700396184000001,-9.568650341600001,2.742530588,0.64312173,2.31733209,-3.70573548,,,
imu,407.013755,-0.5820026744000001,-9.562070660800002,2.7413342824,0.7702292,2.22013226,-3.57862801,,,
imu,407.022251,-0.5694414656000001,-9.566257730400002,2.746119504800001,0.91229049,2.15284007,-3.5711511,,,
imu,407.030748,-0.5796100632000001,-9.5704448,2.7592788664,0.94967504,2.1752708,-3.55619728,,,
imu,407.039245,-0.580208216,-9.564463272000001,2.7526991856,1.09921324,2.03320951,-3.59358183,,,
imu,407.047834,-0.5879842024,-9.561472508000001,2.7491102688,1.16650543,1.95844041,-3.59358183,,,
imu,407.056423,-0.5873860496000001,-9.562668813600002,2.757484408000001,1.05435178,1.96591732,-3.54872037,,,
imu,407.065013,-0.6017417168000001,-9.577024480800002,2.743726893600001,1.26370526,2.04068642,-3.48890509,,,
imu,407.073602,-0.6047324808000001,-9.574631869600001,2.748512116,1.35342818,2.03320951,-3.36927453,,,
imu,407.082275,-0.6172936896000001,-9.572837411200002,2.746119504800001,1.33847436,2.1005017,-3.48142818,,,
imu,407.090865,-0.6208826064000001,-9.572837411200002,2.7473158104,1.24127453,2.10797861,-3.47395127,,,
imu,407.099454,-0.6244715232,-9.577024480800002,2.7359509072,1.25622835,2.15284007,-3.37675144,,,
imu,407.108044,-0.6149010784000001,-9.5776226336,2.747913963200001,1.15155161,2.27994754,-3.41413599,,,
imu,407.116633,-0.6053306336000001,-9.596763523200002,2.7497084216,1.22632071,2.41453192,-3.35432071,,,
imu,407.125223,-0.5927694248,-9.597361676,2.7592788664,1.24127453,2.5491163,-3.51881273,,,
imu,407.133812,-0.5867878968000001,-9.591978300800001,2.7580825608,1.00949032,2.37714737,-3.65339711,,,
imu,407.142401,-0.5808063688,-9.5800152448,2.759877019200001,1.00949032,2.39210119,-3.86275059,,,
imu,407.150991,-0.5766192992000001,-9.577024480800002,2.7658585472,0.80761375,2.35471664,-4.10948862,,,
imu,407.15958,-0.5909749664,-9.591380148,2.7766252976,0.81509066,2.24256299,-4.19173463,,,
imu,407.16817,-0.5939657304000001,-9.588389384000001,2.7772234504,0.71789083,2.25751681,-4.11696553,,,
imu,407.176759,-0.5999472584000001,-9.582407856000001,2.7790179088,0.80761375,2.0257326,-3.98985806,,,
imu,407.185349,-0.6059287864000001,-9.550705757600001,2.771241922400001,0.74779847,1.9509635,-3.89265823,,,
imu,407.193938,-0.6166955368000001,-9.519003659200001,2.7658585472,0.80761375,1.85376367,-3.78050458,,,
imu,407.202527,-0.6274622872000001,-9.502853533600002,2.7562881024,0.9646288599999999,1.7266562,-3.54872037,,,
imu,407.211117,-0.6412198016000001,-9.516012895200001,2.748512116,1.16650543,1.63693328,-3.13749032,,,
imu,407.219706,-0.6376308848000001,-9.529770409600001,2.748512116,1.38333582,1.68927165,-2.64401426,,,
imu,407.228296,-0.6340419680000001,-9.5489112992,2.7431287408,1.56278166,1.70422547,-2.26269185,,,
imu,407.236885,-0.6364345792000001,-9.557285438400001,2.730567532,1.65998149,1.8014253,-2.27764567,,,
imu,407.245475,-0.6448087184,-9.557883591200001,2.7377453656,1.83942733,1.93600968,-2.35989168,,,
imu,407.254119,-0.6328456624000001,-9.572239258400002,2.745521352,1.87681188,2.07807097,-2.50195297,,,
imu,407.262763,-0.6274622872000001,-9.577024480800002,2.7443250464,2.01887317,2.24256299,-2.65149117,,,
imu,407.271408,-0.6334438152,-9.574631869600001,2.739539824,2.03382699,2.48930102,-2.81598319,,,
imu,407.280052,-0.6238733704,-9.596763523200002,2.7413342824,1.84690424,2.70613141,-3.00290594,,,
imu,407.288697,-0.6160973840000001,-9.6015487456,2.7233896984,1.70484295,2.80333124,-3.1973056,,,
imu,407.297341,-0.6029380224,-9.591978300800001,2.7168100176,1.57025857,3.08745382,-3.30198234,,,
imu,407.305986,-0.5766192992000001,-9.591380148,2.725184156800001,1.48801256,3.24446893,-3.39918217,,,
imu,407.31463,-0.5538894928000001,-9.593174606400002,2.7138192536,1.45062801,3.31923803,-3.43656672,,,
imu,407.323274,-0.5401319784,-9.611119190400002,2.739539824,1.33099745,3.31923803,-3.38422835,,,
imu,407.331919,-0.5359449088000001,-9.606333968000001,2.7419324352,1.20388998,3.21456129,-3.46647436,,,
imu,407.340563,-0.5341504504000001,-9.605735815200001,2.7401379768,1.1440747,3.1472691,-3.45899745,,,
imu,407.349208,-0.520392936,-9.617100718400001,2.7413342824,1.10669015,3.10240764,-3.39170526,,,
imu,407.357852,-0.5096261856000001,-9.6117173432,2.742530588,1.00949032,3.07997691,-3.16739796,,,
imu,407.366497,-0.4940742128000001,-9.6087265792,2.743726893600001,0.76275229,2.81828506,-3.16739796,,,
imu,407.375141,-0.4868963792000001,-9.613511801600001,2.7443250464,0.77770611,2.63883922,-3.14496723,,,
imu,407.383785,-0.4851019208000001,-9.612913648800001,2.7526991856,0.5459219,2.37714737,-3.24964397,,,
imu,407.39243,-0.4821111568000001,-9.613511801600001,2.7550917968,0.59078336,2.16031698,-3.28702852,,,
imu,407.401074,-0.4940742128000001,-9.602146898400001,2.7646622416,0.4711528,1.92105586,-3.33936689,,,
imu,407.409719,-0.4946723656000001,-9.593174606400002,2.7532973384,0.36647606,1.80890221,-3.26459779,,,
imu,407.418363,-0.4886908376000001,-9.584800467200001,2.7532973384,0.35899915,1.69674856,-3.23469015,,,
imu,407.427008,-0.517402172,-9.5740337168,2.7383435184,0.3739529699999999,1.40514907,-3.35432071,,,
imu,407.435652,-0.5287670752,-9.575828175200002,2.7550917968,0.3889067899999999,1.36028761,-3.51133582,,,
imu,407.444297,-0.5299633808,-9.565061424800001,2.740736129600001,0.620691,1.50982581,-3.51881273,,,
imu,407.452768,-0.5371412144000001,-9.567454036,2.7431287408,0.68798319,1.577118,-3.51133582,,,
imu,407.461239,-0.5329541448,-9.557285438400001,2.7413342824,0.70293701,1.61450255,-3.57862801,,,
imu,407.46971,-0.5437208952000001,-9.5602762024,2.7670548528,0.73284465,1.68179474,-3.74312003,,,
imu,407.478181,-0.535346756,-9.580613397600002,2.7700456168,0.78518302,1.80890221,-3.7954584,,,
imu,407.486652,-0.5311596864,-9.587193078400002,2.763465936,0.68050628,1.94348659,-3.99733497,,,
imu,407.495124,-0.5401319784,-9.560874355200001,2.7556899496,0.78518302,1.78647148,-4.30388828,,,
imu,407.503595,-0.5514968816000001,-9.5423316184,2.7580825608,0.7403215599999999,1.62197946,-4.58053395,,,
imu,407.512066,-0.5616654792000001,-9.533957479200001,2.762269630400001,0.74779847,1.48739508,-4.73007215,,,
imu,407.520537,-0.56824516,-9.536948243200001,2.750306574400001,0.7702292,1.41262598,-4.67773378,,,
imu,407.529008,-0.5814045216000001,-9.555490980000002,2.761671477600001,0.9945364999999999,1.46496435,-4.52071867,,,
imu,407.537479,-0.6065269392000001,-9.5656595776,2.7556899496,1.09921324,1.43505671,-4.3936112,,,
imu,407.545951,-0.6214807592000001,-9.577024480800002,2.763465936,1.05435178,1.47991817,-4.244073,,,
imu,407.554422,-0.6262659816,-9.590183842400002,2.7664567,1.15155161,1.50982581,-3.95995042,,,
imu,407.562893,-0.6298548984000001,-9.596763523200002,2.7628677832,1.19641307,1.59954873,-3.68330475,,,
imu,407.571364,-0.6244715232,-9.597959828800002,2.7628677832,1.03192105,1.59207182,-3.60105874,,,
imu,407.579835,-0.631051204,-9.600352440000002,2.7652603944,0.97958268,1.71917929,-3.48142818,,,
imu,407.588306,-0.6256678288,-9.593772759200002,2.761671477600001,0.82256757,1.93600968,-3.41413599,,,
imu,407.596778,-0.6160973840000001,-9.585996772800002,2.7610733248,0.67302937,2.09302479,-3.39918217,,,
imu,407.605249,-0.6047324808000001,-9.585996772800002,2.7592788664,0.63564482,2.22760917,-3.51133582,,,
imu,407.61372,-0.6107140088,-9.577024480800002,2.7676530056,0.76275229,2.26499372,-3.61601256,,,
imu,407.622191,-0.6071250920000001,-9.573435564,2.7538954912,0.6281679099999999,2.31733209,-3.74312003,,,
imu,406.725611,,,,,,,64.00233880000002,-33.44165480000001,125.288612
imu,406.827204,,,,,,,64.17323960000002,-32.74584440000001,128.2305472
imu,406.928706,,,,,,,64.01454600000001,-32.89233080000002,128.1328896
imu,407.630662,-0.5927694248,-9.572837411200002,2.75150288,0.5010604399999999,2.37714737,-3.85527368,,,
imu,407.639133,-0.5849934384000001,-9.575230022400001,2.7562881024,0.59078336,2.35471664,-3.8702275,,,
imu,407.647605,-0.5879842024,-9.571042952800001,2.757484408000001,0.66555246,2.42948574,-3.83284295,,,
imu,407.656078,-0.5867878968000001,-9.575828175200002,2.7664567,0.67302937,2.30985518,-3.89265823,,,
imu,407.664552,-0.5754229936,-9.575230022400001,2.778419756,0.64312173,2.20517844,-3.78798149,,,
imu,407.673026,-0.5760211464000001,-9.579417092000002,2.7718400752,0.56087572,2.12293243,-3.67582784,,,
imu,407.6815,-0.5706377712,-9.5740337168,2.7778216032,0.5459219,2.0257326,-3.62348947,,,
imu,407.689973,-0.5700396184000001,-9.581809703200001,2.778419756,0.35899915,1.80890221,-3.44404363,,,
imu,407.698447,-0.5772174520000001,-9.591380148,2.78141052,0.32909151,1.73413311,-3.30945925,,,
imu,407.706921,-0.580208216,-9.588389384000001,2.780812367200001,0.32909151,1.56216418,-3.24216706,,,
imu,407.715394,-0.5772174520000001,-9.591978300800001,2.801747715200001,0.19450713,1.50982581,-3.18235178,,,
imu,407.723868,-0.5837971328000001,-9.575230022400001,2.8029440208,0.11973803,1.50982581,-3.00290594,,,
imu,407.732342,-0.5909749664,-9.571042952800001,2.805934784800001,-0.15690764,1.34533379,-3.01785976,,,
imu,407.740816,-0.6035361752000001,-9.5776226336,2.804140326400001,-0.33635348,1.34533379,-3.1225365,,,
imu,407.749289,-0.6077232448000001,-9.5842023144,2.814308924,-0.127,1.40514907,-3.07019813,,,
imu,407.757763,-0.6065269392000001,-9.584800467200001,2.817299688,-0.26158438,1.53225654,-3.11505959,,,
imu,407.766237,-0.6059287864000001,-9.578220786400001,2.8184959936,-0.38121494,1.59207182,-3.07019813,,,
imu,407.77471,-0.6137047728000001,-9.572837411200002,2.8184959936,-0.32139966,1.64441019,-2.95056757,,,
imu,407.783184,-0.6077232448000001,-9.556089132800002,2.8256738272,-0.34383039,1.75656384,-3.02533667,,,
imu,407.791658,-0.6095177032000001,-9.552500216,2.8304590496,-0.32887657,1.85376367,-3.01785976,,,
imu,407.800132,-0.5987509528,-9.551303910400001,2.8256738272,-0.36626112,1.99582496,-2.93561375,,,
imu,407.808605,-0.5891805080000001,-9.537546396000002,2.8328516608,-0.3513073,1.96591732,-3.17487487,,,
imu,407.817079,-0.5754229936,-9.5447242296,2.8340479664,-0.25410747,2.03320951,-3.23469015,,,
imu,407.825553,-0.5778156048000002,-9.5393408544,2.829262744000001,-0.37373803,1.99582496,-3.3468438,,,
imu,407.834026,-0.5736285352000001,-9.5459205352,2.8406276472,-0.2017691,2.04068642,-3.33936689,,,
imu,407.8425,-0.5694414656000001,-9.537546396000002,2.843020258400001,0.03749201999999999,2.12293243,-3.37675144,,,
imu,407.850974,-0.5700396184000001,-9.5327611736,2.838833188800001,0.06739966,2.04068642,-3.54124346,,,
imu,407.859427,-0.5730303824,-9.535153784800002,2.8484036336,0.11226112,2.05564024,-3.51881273,,,
imu,407.867881,-0.5808063688,-9.530368562400001,2.8436184112,0.14964567,2.05564024,-3.56367419,,,
imu,407.876334,-0.5873860496000001,-9.5429297712,2.8507962448,0.15712258,2.19022462,-3.42908981,,,
imu,407.884787,-0.5772174520000001,-9.5447242296,2.8537870088,0.18703022,2.20517844,-3.40665908,,,
imu,407.893241,-0.5915731192000001,-9.549509452,2.8543851616,0.21693786,2.10797861,-3.47395127,,,
imu,407.901694,-0.5939657304000001,-9.537546396000002,2.859768536800001,0.3216146,2.03320951,-3.45899745,,,
imu,407.910147,-0.5993491056000001,-9.544126076800001,2.8495999392,0.29170696,2.12293243,-3.48142818,,,
imu,407.918601,-0.5969564944000001,-9.5429297712,2.8537870088,0.29918387,2.1005017,-3.50385891,,,
imu,407.927054,-0.6101158560000001,-9.554294674400001,2.859170384,0.26179932,2.22013226,-3.36927453,,,
imu,407.935507,-0.6059287864000001,-9.5501076048,2.864553759200001,0.33656842,2.28742445,-3.2720747,,,
imu,407.943961,-0.6107140088,-9.5423316184,2.8585722312,0.43376825,2.33976282,-3.22721324,,,
imu,407.952414,-0.6196863008000001,-9.530966715200002,2.8573759256,0.40386061,2.36219355,-3.30198234,,,
imu,407.960868,-0.6083213976,-9.5291722568,2.8693389816,0.32909151,2.63136231,-3.14496723,,,
imu,407.969321,-0.6101158560000001,-9.5213962704,2.8633574536,0.43376825,2.65379304,-3.17487487,,,
imu,407.977774,-0.5975546472000001,-9.520798117600002,2.866348217600001,0.56835263,2.71360832,-3.24964397,,,
imu,407.986228,-0.5933675776,-9.5213962704,2.8657500648,0.70293701,2.85566961,-3.25712088,,,
imu,407.994681,-0.5903768136,-9.5118258256,2.865151912,0.9048135799999999,2.84071579,-3.23469015,,,
imu,408.003134,-0.5843952856000001,-9.523190728800001,2.8657500648,0.9571519499999999,2.9229618,-3.18235178,,,
imu,408.011588,-0.5778156048000002,-9.529770409600001,2.864553759200001,0.9197674,2.67622377,-3.42908981,,,
imu,408.020041,-0.5694414656000001,-9.536350090400001,2.8633574536,0.9272443100000001,2.82576197,-3.3468438,,,
imu,408.028495,-0.5736285352000001,-9.5429297712,2.8675445232,1.13659779,2.81080815,-3.42908981,,,
imu,408.036948,-0.5688433128,-9.5429297712,2.8723297456,1.08425942,2.75099287,-3.46647436,,,
imu,408.045401,-0.5688433128,-9.534555632000002,2.8717315928,1.12164397,2.70613141,-3.41413599,,,
imu,408.053855,-0.5760211464000001,-9.536350090400001,2.864553759200001,1.06182869,2.6238854,-3.43656672,,,
imu,408.062322,-0.5730303824,-9.5381445488,2.8723297456,1.03192105,2.48930102,-3.41413599,,,
imu,408.070789,-0.5778156048000002,-9.544126076800001,2.877114968,1.04687487,2.56407012,-3.39170526,,,
imu,408.079257,-0.5790119104,-9.548313146400002,2.874124204,1.07678251,2.63136231,-3.25712088,,,
imu,408.087724,-0.5790119104,-9.5429297712,2.870535287200001,0.9646288599999999,2.57154703,-3.25712088,,,
imu,408.096191,-0.5843952856000001,-9.551902063200002,2.8813020376,1.03939796,2.54163939,-3.24964397,,,
imu,408.104659,-0.5891805080000001,-9.551303910400001,2.8699371344,0.94219813,2.5491163,-3.43656672,,,
imu,408.113126,-0.5873860496000001,-9.5566872856,2.887283565600001,0.9646288599999999,2.48930102,-3.43656672,,,
imu,408.121594,-0.5891805080000001,-9.553098368800002,2.877114968,1.00949032,2.53416248,-3.32441307,,,
imu,408.130061,-0.5784137576,-9.5459205352,2.87113344,0.9197674,2.65379304,-3.18235178,,,
imu,408.138528,-0.5724322296000001,-9.551902063200002,2.863955606400001,1.01696723,2.63883922,-3.24964397,,,
imu,408.146996,-0.5730303824,-9.548313146400002,2.8783112736,0.9870595899999999,2.60145467,-3.20478251,,,
imu,408.155463,-0.5754229936,-9.554294674400001,2.8675445232,0.9048135799999999,2.56407012,-3.24964397,,,
imu,408.16393,-0.5562821040000001,-9.5566872856,2.8765168152,0.8524752099999999,2.6986545,-3.23469015,,,
imu,408.172556,-0.5574784096000001,-9.5566872856,2.892068788,0.8449983,2.74351596,-3.10010577,,,
imu,408.181024,-0.5562821040000001,-9.559678049600002,2.8807038848,0.88985976,2.71360832,-3.10010577,,,
imu,408.189491,-0.5550857984,-9.547116840800001,2.8902743296,0.8375213899999999,2.72856214,-3.17487487,,,
imu,408.197958,-0.5586747152,-9.543527924000001,2.8819001904,0.7403215599999999,2.66126995,-3.10758268,,,
imu,408.206426,-0.5491042704000001,-9.5393408544,2.8854891072,0.71789083,2.67622377,-3.13749032,,,
imu,408.214893,-0.5461135064000001,-9.526779645600001,2.8842928016,0.76275229,2.56407012,-3.13749032,,,
imu,408.223361,-0.5407301312,-9.519003659200001,2.8902743296,0.6954601,2.57902394,-3.13001341,,,
imu,408.231828,-0.5514968816000001,-9.523190728800001,2.8926669408,0.60573718,2.57154703,-3.13749032,,,
imu,408.240295,-0.5365430616000001,-9.520798117600002,2.892068788,0.65059864,2.58650085,-2.93561375,,,
imu,408.248763,-0.5413282840000001,-9.533359326400001,2.9022373856,0.79265993,2.60893158,-2.92065993,,,
imu,408.25723,-0.5281689224000001,-9.536948243200001,2.9016392328,0.78518302,2.51920866,-2.92065993,,,
imu,408.266047,-0.5293652280000001,-9.5357519376,2.895059552,0.9048135799999999,2.51920866,-2.98047521,,,
imu,408.274864,-0.5275707696,-9.532163020800002,2.896854010400001,0.94967504,2.44443956,-2.95804448,,,
imu,408.283681,-0.5257763112000001,-9.540537160000001,2.8926669408,1.08425942,2.48930102,-3.02533667,,,
imu,408.292498,-0.5191966304000001,-9.535153784800002,2.8866854128,1.26370526,2.46687029,-2.96552139,,,
imu,408.301315,-0.517402172,-9.541135312800002,2.8944613992,1.38333582,2.44443956,-2.98047521,,,
imu,408.310132,-0.5132151024,-9.536948243200001,2.889078024,1.45062801,2.43696265,-3.25712088,,,
imu,408.318948,-0.5185984776000001,-9.541733465600002,2.8866854128,1.39081273,2.45191647,-3.48890509,,,
imu,408.327765,-0.5239818528000001,-9.545322382400002,2.8795075792,1.38333582,2.5491163,-3.51881273,,,
imu,408.336582,-0.5233837000000001,-9.530368562400001,2.8848909544,1.24127453,2.51173175,-3.60853565,,,
imu,408.345399,-0.5072335744,-9.534555632000002,2.8926669408,1.21136689,2.60893158,-3.496382,,,
imu,408.354216,-0.5096261856000001,-9.571042952800001,2.910611524800001,1.1440747,2.49677793,-3.51881273,,,
imu,408.363033,-0.4976631296000001,-9.593174606400002,2.9195838168,0.9646288599999999,2.42948574,-3.75807385,,,
imu,408.37185,-0.502448352,-9.582407856000001,2.922574580800001,0.8674290299999999,2.28742445,-3.93751969,,,
imu,408.380667,-0.5072335744,-9.545322382400002,2.9165930528,0.7702292,2.24256299,-4.057150249999999,,,
imu,408.389484,-0.5084298800000001,-9.530966715200002,2.9261634976,0.7253677399999999,2.27994754,-4.0945348,,,
imu,408.398301,-0.5168040192000001,-9.549509452,2.9273598032,0.53844499,2.13040934,-4.079580979999999,,,
imu,408.407118,-0.5185984776000001,-9.557285438400001,2.9303505672,0.5459219,2.04816333,-3.9449966,,,
imu,408.415935,-0.5293652280000001,-9.553098368800002,2.939921012000001,0.50853735,1.95844041,-3.81788913,,,
imu,408.424752,-0.5389356728,-9.5237888816,2.9405191648,0.51601426,1.83133294,-3.92256587,,,
imu,408.433569,-0.5526931872,-9.488497866400001,2.928556108800001,0.65059864,1.66684092,-3.85527368,,,
imu,408.442385,-0.5658525488000001,-9.474142199200001,2.9171912056,0.82256757,1.77151766,-3.55619728,,,
imu,407.030299,,,,,,,63.80702360000002,-32.70922280000001,127.9986104
imu,407.132014,,,,,,,64.03896040000001,-32.62377240000001,128.1450968
imu,407.233454,,,,,,,63.90468120000001,-32.57494360000002,128.401448
imu,407.335047,,,,,,,64.25869,-32.22093480000001,127.8155024
imu,407.43661,,,,,,,65.80900440000002,-32.56273640000001,127.2539712
imu,407.538111,,,,,,,64.07558200000001,-32.13548440000002,128.1084752
imu,407.639704,,,,,,,65.8944548,-32.92895240000002,126.0698728
imu,407.741267,,,,,,,63.6605372,-32.55052920000001,128.3892408
imu,408.451202,-0.5574784096000001,-9.458590226400002,2.901041080000001,1.01696723,1.82385603,-3.28702852,,,
imu,408.460019,-0.5622636320000001,-9.464571754400001,2.898050316,1.16650543,1.92105586,-3.13001341,,,
imu,408.468541,-0.5610673264,-9.467562518400001,2.8926669408,1.50296638,1.83133294,-3.01785976,,,
imu,408.477063,-0.5688433128,-9.478927421600002,2.8926669408,1.79456587,1.93600968,-3.04029049,,,
imu,408.485585,-0.5586747152,-9.496872005600002,2.8884798712,1.8917657,1.93600968,-3.22721324,,,
imu,408.494107,-0.5622636320000001,-9.516012895200001,2.892068788,2.20579592,2.01077878,-3.40665908,,,
imu,408.502629,-0.5688433128,-9.520798117600002,2.899246621600001,2.2656112,1.92853277,-3.67582784,,,
imu,408.511151,-0.5837971328000001,-9.553696521600001,2.8986484688,2.35533412,2.01825569,-3.81788913,,,
imu,408.519674,-0.5861897440000001,-9.562668813600002,2.901041080000001,2.31794957,2.18274771,-3.90013514,,,
imu,408.528196,-0.5808063688,-9.5602762024,2.9058263024,2.21327283,2.39210119,-3.8702275,,,
imu,408.536718,-0.5861897440000001,-9.573435564,2.910611524800001,1.94410407,2.4743472,-3.77302767,,,
imu,408.54524,-0.5736285352000001,-9.572239258400002,2.9046299968,1.80951969,2.45939338,-3.74312003,,,
imu,408.553762,-0.5772174520000001,-9.5632669664,2.8998447744,1.51044329,2.48182411,-3.80293531,,,
imu,408.562284,-0.5688433128,-9.562668813600002,2.9022373856,1.54035093,2.55659321,-3.84031986,,,
imu,408.570806,-0.5616654792000001,-9.562668813600002,2.9022373856,1.43567419,2.68370068,-3.57862801,,,
imu,408.579328,-0.5520950344000001,-9.558481744000002,2.895657704800001,1.32352054,2.88557725,-3.42908981,,,
imu,408.58785,-0.5395338256000001,-9.557285438400001,2.8962558576,1.35342818,2.76594669,-3.40665908,,,
imu,408.596372,-0.5437208952000001,-9.5602762024,2.8944613992,1.32352054,2.66126995,-3.38422835,,,
imu,408.604894,-0.5233837000000001,-9.558481744000002,2.8974521632,1.27118217,2.68370068,-3.41413599,,,
imu,408.613416,-0.5090280328000001,-9.5489112992,2.8926669408,1.30108981,2.81828506,-3.17487487,,,
imu,408.621938,-0.4970649768000001,-9.5381445488,2.8878817184,1.34595127,2.63883922,-3.15244414,,,
imu,408.63046,-0.4970649768000001,-9.540537160000001,2.8813020376,1.15902852,2.55659321,-3.51133582,,,
imu,408.638982,-0.4988594352000001,-9.549509452,2.88608726,1.2188438,2.42200883,-3.66835093,,,
imu,408.647504,-0.4946723656000001,-9.544126076800001,2.8908724824,1.27118217,2.34723973,-3.71321239,,,
imu,408.656026,-0.5072335744,-9.532163020800002,2.887283565600001,1.23379762,2.28742445,-3.73564312,,,
imu,408.664548,-0.5060372688000001,-9.5184055064,2.8753205096,1.18893616,2.16031698,-3.88518132,,,
imu,408.672999,-0.5072335744,-9.526181492800001,2.875918662400001,1.32352054,2.03320951,-3.80293531,,,
imu,408.68145,-0.5090280328000001,-9.547116840800001,2.8902743296,1.33847436,2.07059406,-3.83284295,,,
imu,408.689901,-0.5120187968000001,-9.551303910400001,2.8926669408,1.28613599,1.99582496,-3.82536604,,,
imu,408.698351,-0.5168040192000001,-9.559678049600002,2.9016392328,1.2936129,1.92853277,-3.78798149,,,
imu,408.706802,-0.5197947832,-9.5877912312,2.9094152192,1.16650543,1.77899457,-3.81788913,,,
imu,408.715253,-0.5329541448,-9.575828175200002,2.9124059832,0.9945364999999999,1.71917929,-3.98985806,,,
imu,408.723704,-0.5335522976000001,-9.556089132800002,2.905228149600001,0.82256757,1.56216418,-4.20668845,,,
imu,408.732155,-0.5449172008000001,-9.536350090400001,2.9136022888,0.9048135799999999,1.52477963,-4.19921154,,,
imu,408.740606,-0.5568802568000001,-9.532163020800002,2.9016392328,0.8449983,1.63693328,-3.97490424,,,
imu,408.749056,-0.5538894928000001,-9.533957479200001,2.913004136000001,0.82256757,1.52477963,-3.7206893,,,
imu,408.757507,-0.5467116592000001,-9.535153784800002,2.913004136000001,0.7403215599999999,1.6518871,-3.48890509,,,
imu,408.765958,-0.5497024232000001,-9.5172092008,2.9088170664,0.63564482,1.67431783,-3.50385891,,,
imu,408.774409,-0.5580765624000001,-9.5219944232,2.9058263024,0.8973366700000001,1.75656384,-3.37675144,,,
imu,408.78286,-0.5419264368000001,-9.528574104,2.904031844000001,0.8973366700000001,1.82385603,-3.31693616,,,
imu,408.79131,-0.5311596864,-9.529770409600001,2.9088170664,0.9347212199999999,1.86124058,-3.44404363,,,
imu,408.799761,-0.5299633808,-9.5219944232,2.905228149600001,1.09173633,1.80890221,-3.53376655,,,
imu,408.808212,-0.5299633808,-9.529770409600001,2.9112096776,1.30108981,1.8014253,-3.66835093,,,
imu,408.816663,-0.5335522976000001,-9.536350090400001,2.9153967472,1.31604363,1.71917929,-3.96742733,,,
imu,408.825114,-0.5323559920000001,-9.534555632000002,2.913004136000001,1.35342818,1.81637912,-4.124442439999999,,,
imu,408.833565,-0.5281689224000001,-9.526181492800001,2.9112096776,1.46558183,1.83133294,-4.11696553,,,
imu,408.842015,-0.5293652280000001,-9.537546396000002,2.9112096776,1.49548947,1.8014253,-4.386134289999999,,,
imu,408.850466,-0.5299633808,-9.526181492800001,2.8998447744,1.45810492,1.70422547,-4.50576485,,,
imu,408.858917,-0.5317578392000001,-9.527377798400002,2.8926669408,1.37585891,1.67431783,-4.55062631,,,
imu,408.867368,-0.5323559920000001,-9.523190728800001,2.9064244552,1.48801256,1.56964109,-4.53567249,,,
imu,408.875807,-0.535346756,-9.522592576000001,2.8938632464,1.67493531,1.47991817,-4.48333412,,,
imu,408.884247,-0.5425245896,-9.533359326400001,2.889078024,1.79456587,1.39767216,-4.30388828,,,
imu,408.892686,-0.5574784096000001,-9.5429297712,2.8813020376,1.73475059,1.42010289,-4.169303899999999,,,
imu,408.901125,-0.565254396,-9.5381445488,2.8878817184,1.65998149,1.21074941,-4.19921154,,,
imu,408.909565,-0.5843952856000001,-9.547116840800001,2.892068788,1.63755076,1.1285034,-4.29641137,,,
imu,408.918004,-0.5921712720000001,-9.553098368800002,2.891470635200001,1.57773548,1.17336486,-4.22164227,,,
imu,408.926444,-0.5975546472000001,-9.5459205352,2.8902743296,1.65250458,1.2780416,-4.034719519999999,,,
imu,408.934883,-0.6077232448000001,-9.554294674400001,2.8789094264,1.63755076,1.36028761,-3.89265823,,,
imu,408.943322,-0.6202844536000002,-9.555490980000002,2.88608726,1.63007385,1.47244126,-3.81041222,,,
imu,408.951762,-0.6137047728000001,-9.557883591200001,2.8747223568,1.61512003,1.48739508,-3.90013514,,,
imu,408.960201,-0.6208826064000001,-9.558481744000002,2.8813020376,1.45062801,1.59954873,-3.97490424,,,
imu,408.96864,-0.6172936896000001,-9.5566872856,2.8813020376,1.50296638,1.80890221,-3.97490424,,,
imu,408.97708,-0.6250696760000001,-9.558481744000002,2.8753205096,1.41324346,1.79394839,-4.16182699,,,
imu,408.985519,-0.6208826064000001,-9.565061424800001,2.889676176800001,1.4431511,2.04068642,-4.146873169999999,,,
imu,408.993959,-0.6137047728000001,-9.565061424800001,2.8926669408,1.31604363,2.11545552,-4.124442439999999,,,
imu,409.002398,-0.6119103144000001,-9.566257730400002,2.8836946488,1.31604363,2.12293243,-3.96742733,,,
imu,409.010837,-0.6047324808000001,-9.559678049600002,2.8908724824,1.18893616,2.20517844,-3.99733497,,,
imu,409.019277,-0.6149010784000001,-9.5632669664,2.889078024,1.12164397,2.27994754,-4.012288789999999,,,
imu,409.027716,-0.6101158560000001,-9.5638651192,2.8962558576,0.9945364999999999,2.39210119,-3.97490424,,,
imu,409.036156,-0.6017417168000001,-9.547714993600001,2.8938632464,0.94967504,2.40705501,-3.90013514,,,
imu,409.044595,-0.6053306336000001,-9.5429297712,2.8842928016,0.8449983,2.35471664,-3.95247351,,,
imu,409.053034,-0.5933675776,-9.541135312800002,2.8938632464,0.7403215599999999,2.33228591,-3.93751969,,,
imu,409.061474,-0.601143564,-9.534555632000002,2.8926669408,0.71789083,2.38462428,-3.75059694,,,
imu,409.069913,-0.6023398696000001,-9.543527924000001,2.8938632464,0.77770611,2.2500399,-3.76555076,,,
imu,409.078366,-0.6005454112,-9.537546396000002,2.896854010400001,0.83004448,2.25751681,-3.66835093,,,
imu,409.08682,-0.6077232448000001,-9.538742701600002,2.901041080000001,0.97210577,2.33228591,-3.60105874,,,
imu,409.095273,-0.5981528,-9.529770409600001,2.910013372,0.91229049,2.29490136,-3.66835093,,,
imu,409.103727,-0.6023398696000001,-9.52558334,2.9034336912,0.85995212,2.21265535,-3.69825857,,,
imu,409.11218,-0.601143564,-9.5327611736,2.910013372,0.8524752099999999,2.19022462,-3.72816621,,,
imu,409.120633,-0.5951620360000001,-9.5291722568,2.9124059832,0.79265993,2.26499372,-3.55619728,,,
imu,409.129087,-0.6059287864000001,-9.5291722568,2.913004136000001,0.9197674,2.30985518,-3.5711511,,,
imu,409.13754,-0.6065269392000001,-9.527975951200002,2.9237708864,0.9048135799999999,2.31733209,-3.66087402,,,
imu,409.145993,-0.6137047728000001,-9.526779645600001,2.913004136000001,0.94219813,2.37714737,-3.71321239,,,
imu,409.154447,-0.6089195504,-9.519003659200001,2.9195838168,0.94219813,2.33976282,-3.57862801,,,
imu,409.1629,-0.6202844536000002,-9.519601812000001,2.910611524800001,1.00201341,2.45191647,-3.59358183,,,
imu,409.171354,-0.6166955368000001,-9.520199964800002,2.9171912056,1.03192105,2.52668557,-3.60105874,,,
imu,409.179807,-0.6160973840000001,-9.5291722568,2.9183875112,1.16650543,2.58650085,-3.53376655,,,
imu,409.18826,-0.6220789120000001,-9.527975951200002,2.914798594400001,1.18893616,2.66874686,-3.5711511,,,
imu,409.196714,-0.6137047728000001,-9.5237888816,2.9255653448,1.15155161,2.86314652,-3.60105874,,,
imu,409.205167,-0.5993491056000001,-9.522592576000001,2.9255653448,1.2188438,2.87810034,-3.496382,,,
imu,409.21362,-0.5981528,-9.524387034400002,2.924967192,1.368382,2.85566961,-3.53376655,,,
imu,409.222074,-0.5975546472000001,-9.523190728800001,2.922574580800001,1.43567419,2.9977309,-3.48890509,,,
imu,409.230527,-0.5879842024,-9.5219944232,2.9237708864,1.368382,2.98277708,-3.43656672,,,
imu,409.23898,-0.5706377712,-9.522592576000001,2.9333413312,1.33847436,3.05754618,-3.37675144,,,
imu,409.247434,-0.5640580904000001,-9.5184055064,2.928556108800001,1.2936129,3.09493073,-3.39918217,,,
imu,409.255887,-0.5604691736,-9.5184055064,2.928556108800001,1.28613599,3.11736146,-3.47395127,,,
imu,407.842905,,,,,,,66.2606708,-33.00219560000001,125.3984768
imu,407.944437,,,,,,,63.77040200000002,-32.12327720000001,128.4746912
imu,408.045969,,,,,,,64.12441079999999,-31.75706120000001,128.035232
imu,408.147562,,,,,,,64.4051764,-32.20872760000002,128.2915832
imu,408.249094,,,,,,,63.831438,-31.65940360000001,128.3648264
imu,408.350809,,,,,,,64.00233880000002,-31.35422360000002,128.1206824
imu,408.452219,,,,,,,63.90468120000001,-31.32980920000001,128.6211776
imu,408.553873,,,,,,,64.1610324,-31.50071000000001,127.60798
imu,409.264389,-0.5676470072,-9.5237888816,2.9273598032,1.30108981,2.98277708,-3.496382,,,
imu,409.272843,-0.5586747152,-9.516611048000001,2.917789358400001,1.4431511,3.04259236,-3.496382,,,
imu,409.281745,-0.5616654792000001,-9.520199964800002,2.927957956,1.36090509,2.87062343,-3.56367419,,,
imu,409.290647,-0.5514968816000001,-9.519003659200001,2.9261634976,1.50296638,2.76594669,-3.58610492,,,
imu,409.299548,-0.5514968816000001,-9.5219944232,2.920181969600001,1.35342818,2.58650085,-3.66835093,,,
imu,409.30845,-0.5604691736,-9.522592576000001,2.9142004416,1.45062801,2.6986545,-3.69078166,,,
imu,409.317352,-0.5622636320000001,-9.524387034400002,2.9124059832,1.48053565,2.64631613,-3.65339711,,,
imu,409.326254,-0.565254396,-9.5237888816,2.9261634976,1.51044329,2.5491163,-3.63844329,,,
imu,409.335156,-0.5634599376000001,-9.5237888816,2.914798594400001,1.45062801,2.50425484,-3.75807385,,,
imu,409.344058,-0.5754229936,-9.528574104,2.928556108800001,1.49548947,2.51173175,-3.72816621,,,
imu,409.352959,-0.5748248408000001,-9.528574104,2.921976428000001,1.5179202,2.50425484,-3.59358183,,,
imu,409.361861,-0.5772174520000001,-9.528574104,2.9291542616,1.46558183,2.59397776,-3.58610492,,,
imu,409.370763,-0.5748248408000001,-9.530368562400001,2.918985664,1.57773548,2.6986545,-3.48890509,,,
imu,409.379665,-0.5742266880000001,-9.530966715200002,2.9118078304,1.65250458,2.56407012,-3.50385891,,,
imu,409.388567,-0.5754229936,-9.5381445488,2.9171912056,1.42819728,2.49677793,-3.59358183,,,
imu,409.397469,-0.5748248408000001,-9.533957479200001,2.9231727336,1.64502767,2.61640849,-3.51881273,,,
imu,409.406371,-0.565254396,-9.5327611736,2.9171912056,1.4431511,2.58650085,-3.56367419,,,
imu,409.415272,-0.5724322296000001,-9.533957479200001,2.9183875112,1.61512003,2.58650085,-3.53376655,,,
imu,409.424174,-0.5640580904000001,-9.538742701600002,2.9195838168,1.62259694,2.63136231,-3.57862801,,,
imu,409.433076,-0.565254396,-9.541733465600002,2.920181969600001,1.51044329,2.50425484,-3.60853565,,,
imu,409.441978,-0.5592728680000001,-9.549509452,2.9171912056,1.54035093,2.5491163,-3.55619728,,,
imu,409.45088,-0.5526931872,-9.5447242296,2.9142004416,1.39828964,2.54163939,-3.61601256,,,
imu,409.459782,-0.5586747152,-9.541733465600002,2.9136022888,1.39081273,2.46687029,-3.60853565,,,
imu,409.468683,-0.5592728680000001,-9.523190728800001,2.9171912056,1.34595127,2.37714737,-3.54872037,,,
imu,409.477585,-0.5622636320000001,-9.524387034400002,2.9165930528,1.35342818,2.33228591,-3.60853565,,,
imu,409.485981,-0.5700396184000001,-9.526181492800001,2.921976428000001,1.22632071,2.34723973,-3.54872037,,,
imu,409.494378,-0.565254396,-9.520798117600002,2.9153967472,1.27118217,2.324809,-3.69825857,,,
imu,409.502774,-0.5736285352000001,-9.519003659200001,2.9159949,1.30856672,2.21265535,-3.61601256,,,
imu,409.51117,-0.5772174520000001,-9.5213962704,2.9142004416,1.30108981,2.18274771,-3.63844329,,,
imu,409.519566,-0.5820026744000001,-9.520798117600002,2.9153967472,1.39081273,2.22760917,-3.73564312,,,
imu,409.527962,-0.5915731192000001,-9.5249851872,2.899246621600001,1.64502767,2.24256299,-3.7206893,,,
imu,409.536358,-0.5927694248,-9.530966715200002,2.910013372,1.75718132,2.16779389,-3.61601256,,,
imu,409.544754,-0.6047324808000001,-9.532163020800002,2.908218913600001,1.82447351,2.25751681,-3.78050458,,,
imu,409.553151,-0.5969564944000001,-9.537546396000002,2.9046299968,1.92167334,2.56407012,-3.58610492,,,
imu,409.561547,-0.6035361752000001,-9.5249851872,2.8962558576,1.79456587,2.64631613,-3.60105874,,,
imu,409.569943,-0.5975546472000001,-9.5249851872,2.899246621600001,1.68988913,2.78837742,-3.54872037,,,
imu,409.578339,-0.5891805080000001,-9.5393408544,2.913004136000001,1.77961205,2.90053107,-3.54872037,,,
imu,409.586735,-0.565254396,-9.558481744000002,2.9046299968,1.8917657,3.06502309,-3.46647436,,,
imu,409.595131,-0.5467116592000001,-9.558481744000002,2.910611524800001,1.77961205,2.90053107,-3.68330475,,,
imu,409.603528,-0.5461135064000001,-9.5501076048,2.9076207608,1.60016621,2.83323888,-3.89265823,,,
imu,409.611924,-0.5473098120000001,-9.547116840800001,2.9136022888,1.50296638,2.83323888,-4.22164227,,,
imu,409.62032,-0.5401319784,-9.555490980000002,2.918985664,1.42819728,2.75099287,-4.28145755,,,
imu,409.628716,-0.5604691736,-9.572837411200002,2.9195838168,1.26370526,2.52668557,-4.34874974,,,
imu,409.637112,-0.5646562432000001,-9.573435564,2.9303505672,1.30856672,2.42200883,-4.22911918,,,
imu,409.645508,-0.5616654792000001,-9.555490980000002,2.931546872800001,1.1440747,2.19022462,-4.16182699,,,
imu,409.653904,-0.571235924,-9.520199964800002,2.917789358400001,1.18145925,2.10797861,-4.08705789,,,
imu,409.662301,-0.5951620360000001,-9.4938812416,2.9094152192,1.09173633,1.98834805,-4.0197657,,,
imu,409.670697,-0.6101158560000001,-9.485507102400002,2.9028355384,1.27865908,1.8014253,-3.75059694,,,
imu,409.679093,-0.6178918424000002,-9.4843107968,2.901041080000001,1.37585891,1.85376367,-3.21225942,,,
imu,409.687559,-0.6119103144000001,-9.496872005600002,2.898050316,1.68241222,1.80890221,-2.91318302,,,
imu,409.696025,-0.61310662,-9.516611048000001,2.8974521632,1.70484295,1.89114822,-2.77859864,,,
imu,409.704491,-0.6154992312,-9.520798117600002,2.889676176800001,1.83195042,1.89114822,-2.748691,,,
imu,409.712957,-0.6160973840000001,-9.5249851872,2.887283565600001,2.0413039,2.01825569,-2.62158353,,,
imu,409.721423,-0.6143029256000001,-9.536948243200001,2.8884798712,2.00391935,2.04816333,-2.80102937,,,
imu,409.729889,-0.6292567456000001,-9.554294674400001,2.891470635200001,2.0413039,2.1752708,-2.87579847,,,
imu,409.738355,-0.6274622872000001,-9.5501076048,2.88608726,2.06373463,2.324809,-3.08515195,,,
imu,409.746822,-0.6250696760000001,-9.551303910400001,2.88608726,1.98896553,2.55659321,-3.29450543,,,
imu,409.755288,-0.61310662,-9.5590798968,2.889078024,2.03382699,2.72856214,-3.36179762,,,
imu,409.763754,-0.6035361752000001,-9.556089132800002,2.896854010400001,1.77961205,2.88557725,-3.51881273,,,
imu,409.77222,-0.5921712720000001,-9.558481744000002,2.8932650936,1.65998149,2.96782326,-3.58610492,,,
imu,409.780686,-0.5891805080000001,-9.556089132800002,2.8932650936,1.56278166,3.01268472,-3.63844329,,,
imu,409.789152,-0.5766192992000001,-9.556089132800002,2.887283565600001,1.48801256,3.08745382,-3.67582784,,,
imu,409.797618,-0.5598710208000001,-9.551303910400001,2.891470635200001,1.43567419,3.10240764,-3.48890509,,,
imu,409.806084,-0.5479079648000001,-9.5602762024,2.891470635200001,1.36090509,2.94539253,-3.39170526,,,
imu,409.81455,-0.5479079648000001,-9.5590798968,2.8878817184,1.41324346,2.95286944,-3.35432071,,,
imu,409.823016,-0.5239818528000001,-9.560874355200001,2.898050316,1.45810492,2.95286944,-3.18982869,,,
imu,409.831482,-0.5233837000000001,-9.5704448,2.905228149600001,1.42819728,2.78837742,-3.21973633,,,
imu,409.839948,-0.5251781584,-9.576426328,2.898050316,1.33847436,2.63883922,-3.11505959,,,
imu,409.848415,-0.5185984776000001,-9.575230022400001,2.9094152192,1.03939796,2.37714737,-3.14496723,,,
imu,409.856881,-0.5263744640000001,-9.568650341600001,2.9022373856,1.00201341,2.27994754,-3.11505959,,,
imu,409.865347,-0.5263744640000001,-9.5590798968,2.8974521632,0.8823828499999999,2.19770153,-3.01038285,,,
imu,409.873813,-0.5245800056000001,-9.5357519376,2.9046299968,0.8524752099999999,2.12293243,-3.09262886,,,
imu,409.882279,-0.5389356728,-9.527975951200002,2.8986484688,0.73284465,2.09302479,-3.20478251,,,
imu,409.890843,-0.5413282840000001,-9.51062952,2.887283565600001,0.73284465,2.13788625,-3.30198234,,,
imu,409.899407,-0.5508987288,-9.502255380800001,2.8908724824,0.8749059399999999,2.07807097,-3.30198234,,,
imu,409.907971,-0.5568802568000001,-9.513022131200001,2.8926669408,0.8674290299999999,2.1752708,-3.33188998,,,
imu,409.916535,-0.5508987288,-9.519003659200001,2.8938632464,1.03939796,2.05564024,-3.33936689,,,
imu,409.925099,-0.5598710208000001,-9.5237888816,2.9094152192,1.20388998,2.16779389,-3.39170526,,,
imu,409.933663,-0.5610673264,-9.5501076048,2.9237708864,1.2188438,2.2500399,-3.51881273,,,
imu,409.942227,-0.5586747152,-9.5566872856,2.9165930528,1.23379762,2.38462428,-3.69078166,,,
imu,409.950791,-0.5604691736,-9.5327611736,2.9213782752,1.21136689,2.18274771,-3.81041222,,,
imu,409.959355,-0.5574784096000001,-9.513620284000002,2.9291542616,0.94219813,2.09302479,-4.079580979999999,,,
imu,409.967919,-0.5760211464000001,-9.51062952,2.918985664,0.9272443100000001,2.23508608,-3.98985806,,,
imu,409.976483,-0.5700396184000001,-9.502255380800001,2.9136022888,0.9945364999999999,2.324809,-3.81041222,,,
imu,409.985047,-0.5778156048000002,-9.508835061600001,2.9165930528,1.12912088,2.26499372,-3.54872037,,,
imu,409.993611,-0.5604691736,-9.519003659200001,2.9207801224,1.41324346,2.36967046,-3.496382,,,
imu,410.002175,-0.5676470072,-9.527377798400002,2.931546872800001,1.2936129,2.36219355,-3.42908981,,,
imu,410.010739,-0.5628617848,-9.520798117600002,2.9153967472,1.2936129,2.28742445,-3.42908981,,,
imu,410.019303,-0.5640580904000001,-9.5357519376,2.905228149600001,1.48053565,2.38462428,-3.32441307,,,
imu,410.027867,-0.56824516,-9.554294674400001,2.9159949,1.48053565,2.42948574,-3.21973633,,,
imu,410.036431,-0.5670488544000001,-9.541733465600002,2.9213782752,1.5926893,2.48182411,-3.25712088,,,
imu,410.044995,-0.5550857984,-9.5423316184,2.9159949,1.5179202,2.43696265,-3.38422835,,,
imu,410.053559,-0.5556839512000001,-9.536350090400001,2.9076207608,1.52539711,2.57154703,-3.42908981,,,
imu,410.062123,-0.5497024232000001,-9.527377798400002,2.9142004416,1.62259694,2.55659321,-3.59358183,,,
imu,410.070687,-0.5407301312,-9.527377798400002,2.9088170664,1.45810492,2.63136231,-3.66087402,,,
imu,410.079251,-0.5383375200000001,-9.530966715200002,2.9016392328,1.45810492,2.57154703,-3.81788913,,,
imu,408.655405,,,,,,,64.0267532,-31.52512440000002,127.4981152
imu,408.756907,,,,,,,63.6971588,-31.378638,128.3892408
imu,408.8585,,,,,,,66.2972924,-32.58715080000001,125.349648
imu,408.960032,,,,,,,63.88026680000001,-31.81809720000002,128.0108176
imu,409.061625,,,,,,,63.51405080000001,-31.80589000000001,127.4492864
imu,409.163187,,,,,,,63.45301480000001,-31.51291720000003,128.6944208
imu,409.264719,,,,,,,63.44080760000001,-31.81809720000002,128.645592
imu,409.367441,,,,,,,63.73378039999999,-31.72043960000002,128.0596464
imu,410.087815,-0.5389356728,-9.533957479200001,2.8962558576,1.60764312,2.5491163,-3.90013514,,,
imu,410.096175,-0.5245800056000001,-9.538742701600002,2.8938632464,1.60016621,2.51920866,-3.99733497,,,
imu,410.104536,-0.5365430616000001,-9.547116840800001,2.8986484688,1.70484295,2.46687029,-3.90013514,,,
imu,410.112896,-0.5311596864,-9.554294674400001,2.9076207608,1.77961205,2.24256299,-3.99733497,,,
imu,410.121257,-0.5365430616000001,-9.551902063200002,2.9076207608,1.57773548,2.19022462,-3.95995042,,,
imu,410.129618,-0.5401319784,-9.554294674400001,2.904031844000001,1.60016621,2.21265535,-3.81041222,,,
imu,410.137978,-0.5443190480000001,-9.556089132800002,2.895657704800001,1.52539711,2.09302479,-3.71321239,,,
imu,410.146339,-0.5455153536,-9.553098368800002,2.895059552,1.45062801,2.03320951,-3.54872037,,,
imu,410.154699,-0.5604691736,-9.565061424800001,2.898050316,1.28613599,1.93600968,-3.51881273,,,
imu,410.16306,-0.5562821040000001,-9.554892827200002,2.8938632464,1.19641307,1.82385603,-3.54124346,,,
imu,410.17142,-0.5634599376000001,-9.550705757600001,2.904031844000001,1.15155161,1.74908693,-3.48142818,,,
imu,410.179781,-0.5724322296000001,-9.547714993600001,2.9004429272,1.03939796,1.71917929,-3.41413599,,,
imu,410.188141,-0.5903768136,-9.540537160000001,2.9022373856,1.0693056,1.73413311,-3.45899745,,,
imu,410.196502,-0.5837971328000001,-9.520798117600002,2.9022373856,1.01696723,1.71917929,-3.5711511,,,
imu,410.204862,-0.6035361752000001,-9.5249851872,2.9004429272,1.0693056,1.8761944,-3.42908981,,,
imu,410.213223,-0.6071250920000001,-9.522592576000001,2.9034336912,0.9571519499999999,2.01077878,-3.50385891,,,
imu,410.221583,-0.6143029256000001,-9.527975951200002,2.905228149600001,0.9646288599999999,2.07807097,-3.60105874,,,
imu,410.229944,-0.6107140088,-9.522592576000001,2.9058263024,1.06182869,2.10797861,-3.65339711,,,
imu,410.238305,-0.61310662,-9.520798117600002,2.9016392328,1.21136689,2.27247063,-3.54872037,,,
imu,410.246665,-0.6226770648,-9.520199964800002,2.907022608,1.18893616,2.48930102,-3.50385891,,,
imu,410.255026,-0.6065269392000001,-9.5213962704,2.907022608,1.26370526,2.53416248,-3.54872037,,,
imu,410.263386,-0.6077232448000001,-9.519601812000001,2.9183875112,1.4431511,2.68370068,-3.45152054,,,
imu,410.271747,-0.6125084672000001,-9.520798117600002,2.9183875112,1.58521239,2.81080815,-3.4216129,,,
imu,410.280107,-0.5915731192000001,-9.552500216,2.9034336912,1.63007385,2.91548489,-3.36927453,,,
imu,410.288468,-0.5861897440000001,-9.536948243200001,2.8962558576,1.56278166,2.95286944,-3.2720747,,,
imu,410.297286,-0.5820026744000001,-9.532163020800002,2.8962558576,1.57773548,2.81080815,-3.18982869,,,
imu,410.306104,-0.5562821040000001,-9.533957479200001,2.895059552,1.55530475,2.87810034,-3.24216706,,,
imu,410.314923,-0.5628617848,-9.541733465600002,2.9022373856,1.46558183,2.89305416,-3.14496723,,,
imu,410.323741,-0.5688433128,-9.552500216,2.8974521632,1.39081273,2.86314652,-3.10758268,,,
imu,410.332559,-0.5586747152,-9.551303910400001,2.9004429272,1.30108981,2.74351596,-3.17487487,,,
imu,410.341377,-0.55329134,-9.547714993600001,2.898050316,1.33847436,2.76594669,-3.15992105,,,
imu,410.350196,-0.5526931872,-9.559678049600002,2.905228149600001,1.23379762,2.84071579,-3.05524431,,,
imu,410.358943,-0.5514968816000001,-9.5590798968,2.9076207608,1.07678251,2.69117759,-3.03281358,,,
imu,410.367761,-0.5443190480000001,-9.557285438400001,2.899246621600001,0.9646288599999999,2.68370068,-3.01785976,,,
imu,410.37658,-0.5371412144000001,-9.557285438400001,2.9118078304,0.94967504,2.79585433,-2.84589083,,,
imu,410.385398,-0.5323559920000001,-9.552500216,2.9207801224,0.9870595899999999,2.63883922,-2.87579847,,,
imu,410.394216,-0.5407301312,-9.546518688,2.9034336912,0.73284465,2.48182411,-2.88327538,,,
imu,410.403034,-0.5317578392000001,-9.540537160000001,2.9064244552,0.68050628,2.57154703,-2.78607555,,,
imu,410.411853,-0.5221873944000001,-9.539939007200001,2.9118078304,0.68798319,2.54163939,-2.78607555,,,
imu,410.420671,-0.5269726168000001,-9.531564868,2.9195838168,0.7104139199999999,2.52668557,-2.84589083,,,
imu,410.429489,-0.5221873944000001,-9.5327611736,2.9153967472,0.8524752099999999,2.51173175,-2.89075229,,,
imu,410.438307,-0.5209910888,-9.538742701600002,2.922574580800001,0.80761375,2.42200883,-2.92065993,,,
imu,410.447126,-0.5227855472,-9.544126076800001,2.914798594400001,0.82256757,2.36967046,-2.95056757,,,
imu,410.455944,-0.5239818528000001,-9.523190728800001,2.922574580800001,1.00949032,2.43696265,-2.95056757,,,
imu,410.464762,-0.5126169496,-9.528574104,2.9237708864,0.8973366700000001,2.26499372,-3.02533667,,,
imu,410.47358,-0.5269726168000001,-9.519003659200001,2.9231727336,0.9945364999999999,2.33228591,-3.18235178,,,
imu,410.482399,-0.5245800056000001,-9.519601812000001,2.9207801224,1.00201341,2.42948574,-3.22721324,,,
imu,410.491217,-0.5185984776000001,-9.517807353600002,2.9291542616,0.9870595899999999,2.40705501,-3.23469015,,,
imu,410.499692,-0.5245800056000001,-9.517807353600002,2.9303505672,1.00201341,2.40705501,-3.30198234,,,
imu,410.508167,-0.5227855472,-9.5184055064,2.93094872,1.01696723,2.29490136,-3.38422835,,,
imu,410.516642,-0.5209910888,-9.507040603200002,2.9231727336,1.12912088,2.34723973,-3.35432071,,,
imu,410.525117,-0.5126169496,-9.51062952,2.9237708864,1.20388998,2.4743472,-3.32441307,,,
imu,410.533592,-0.5126169496,-9.51062952,2.9237708864,1.31604363,2.40705501,-3.26459779,,,
imu,410.542067,-0.5102243384,-9.513022131200001,2.9273598032,1.42819728,2.37714737,-3.39918217,,,
imu,410.550542,-0.5096261856000001,-9.517807353600002,2.920181969600001,1.62259694,2.48930102,-3.4216129,,,
imu,410.559017,-0.5144114080000001,-9.5237888816,2.927957956,1.64502767,2.49677793,-3.47395127,,,
imu,410.567492,-0.5036446576000001,-9.5291722568,2.922574580800001,1.77213514,2.4743472,-3.60105874,,,
imu,410.575967,-0.4898871432,-9.551303910400001,2.914798594400001,1.83942733,2.42200883,-3.53376655,,,
imu,410.584442,-0.4892889904,-9.552500216,2.918985664,1.68241222,2.33976282,-3.69825857,,,
imu,410.592917,-0.4809148512,-9.558481744000002,2.9237708864,1.69736604,2.33976282,-3.84031986,,,
imu,410.601392,-0.4862982264000001,-9.573435564,2.9213782752,1.74970441,2.30237827,-3.95247351,,,
imu,410.609867,-0.4755314760000001,-9.5668558832,2.928556108800001,1.53287402,2.24256299,-3.9449966,,,
imu,410.618342,-0.4791203928000001,-9.5590798968,2.928556108800001,1.32352054,2.06311715,-4.04967334,,,
imu,410.626817,-0.4922797544,-9.557883591200001,2.93094872,1.23379762,1.9509635,-3.98238115,,,
imu,410.635292,-0.5042428104000001,-9.552500216,2.922574580800001,1.2188438,1.79394839,-3.92256587,,,
imu,410.643767,-0.5132151024,-9.553098368800002,2.924369039200001,1.1440747,1.67431783,-3.84031986,,,
imu,410.652242,-0.5215892416000001,-9.5393408544,2.9213782752,1.06182869,1.50982581,-3.84031986,,,
imu,410.660717,-0.5239818528000001,-9.529770409600001,2.920181969600001,1.0693056,1.45001053,-3.66835093,,,
imu,410.669192,-0.5461135064000001,-9.5172092008,2.917789358400001,1.03939796,1.3528107,-3.54124346,,,
imu,410.677666,-0.5556839512000001,-9.519003659200001,2.920181969600001,1.22632071,1.577118,-3.35432071,,,
imu,410.686141,-0.5616654792000001,-9.5219944232,2.9213782752,1.05435178,1.55468727,-3.46647436,,,
imu,410.694616,-0.5658525488000001,-9.523190728800001,2.9159949,1.05435178,1.49487199,-3.48142818,,,
imu,410.703197,-0.58319898,-9.5219944232,2.9207801224,1.15902852,1.68927165,-3.47395127,,,
imu,410.711778,-0.5861897440000001,-9.517807353600002,2.9261634976,1.42819728,1.59207182,-3.48890509,,,
imu,410.720358,-0.5993491056000001,-9.5219944232,2.927957956,1.45810492,1.74161002,-3.59358183,,,
imu,410.728939,-0.5969564944000001,-9.511227672800002,2.9142004416,1.41324346,2.00330187,-3.54872037,,,
imu,410.737519,-0.5981528,-9.513620284000002,2.9142004416,1.36090509,2.16031698,-3.60853565,,,
imu,410.7461,-0.6041343280000001,-9.5172092008,2.9195838168,1.34595127,2.27247063,-3.65339711,,,
imu,410.75468,-0.5963583416000001,-9.514218436800002,2.904031844000001,1.39828964,2.35471664,-3.6459202,,,
imu,410.763261,-0.5987509528,-9.5213962704,2.9016392328,1.5926893,2.57154703,-3.60105874,,,
imu,409.4678,,,,,,,63.64833000000001,-31.43967400000001,128.4502768
imu,409.569485,,,,,,,63.67274440000001,-31.64719640000002,127.8887456
imu,409.670895,,,,,,,63.35535720000001,-31.84251160000002,128.1450968
imu,409.772427,,,,,,,65.7357612,-32.56273640000001,126.570368
imu,409.874081,,,,,,,63.67274440000001,-32.15989880000001,128.279376
imu,409.975613,,,,,,,66.3217068,-32.61156520000002,125.4839272
imu,410.077175,,,,,,,63.50184359999999,-31.79368280000001,127.4492864
imu,410.179867,,,,,,,63.84364520000001,-31.56174600000001,125.6304136
imu,410.771841,-0.5915731192000001,-9.530966715200002,2.9004429272,1.87681188,2.71360832,-3.51133582,,,
imu,410.780422,-0.5939657304000001,-9.5357519376,2.9004429272,1.82447351,2.6986545,-3.51133582,,,
imu,410.789002,-0.5891805080000001,-9.5489112992,2.901041080000001,1.95905789,2.69117759,-3.52628964,,,
imu,410.797583,-0.5808063688,-9.5602762024,2.901041080000001,1.83195042,2.88557725,-3.36179762,,,
imu,410.806163,-0.5814045216000001,-9.567454036,2.9088170664,1.7422275,2.83323888,-3.36927453,,,
imu,410.814744,-0.5826008272000001,-9.554294674400001,2.9058263024,1.64502767,2.93791562,-3.22721324,,,
imu,410.823324,-0.5700396184000001,-9.5489112992,2.895657704800001,1.45062801,2.94539253,-3.14496723,,,
imu,410.831905,-0.5640580904000001,-9.557883591200001,2.898050316,1.33099745,2.97530017,-2.98047521,,,
imu,410.840485,-0.5514968816000001,-9.575230022400001,2.9058263024,1.11416706,2.96034635,-2.89075229,,,
imu,410.849066,-0.5287670752,-9.596165370400001,2.9118078304,1.03192105,2.9977309,-2.86084465,,,
imu,410.857646,-0.5257763112000001,-9.591380148,2.9136022888,0.82256757,2.90800798,-2.9729983,,,
imu,410.866227,-0.5090280328000001,-9.573435564,2.9237708864,0.7552753799999999,2.85566961,-3.01785976,,,
imu,410.874808,-0.5018501992000001,-9.572239258400002,2.9303505672,0.51601426,2.72108523,-3.0477674,,,
imu,410.883388,-0.5102243384,-9.584800467200001,2.94590254,0.3739529699999999,2.48930102,-3.11505959,,,
imu,410.891969,-0.5162058664000001,-9.585996772800002,2.9441080816,0.14964567,2.33976282,-3.30198234,,,
imu,410.900549,-0.5197947832,-9.556089132800002,2.953678526400001,0.14216876,2.33976282,-3.21225942,,,
imu,410.90889,-0.5180003248000001,-9.5219944232,2.941117317600001,-0.06718472,2.08554788,-3.11505959,,,
imu,410.917231,-0.5269726168000001,-9.4938812416,2.9363320952,-0.07466163,1.94348659,-3.0477674,,,
imu,410.925572,-0.5485061176,-9.4663662128,2.933939484000001,0.02253820000000001,1.84628676,-3.0477674,,,
imu,410.933913,-0.5700396184000001,-9.4490197816,2.9273598032,0.26927623,1.63693328,-2.80850628,,,
imu,410.942254,-0.5628617848,-9.453206851200001,2.918985664,0.5010604399999999,1.74908693,-2.38979932,,,
imu,410.950595,-0.5580765624000001,-9.470553282400001,2.9267616504,0.81509066,1.74908693,-2.08324601,,,
imu,410.958937,-0.5610673264,-9.4801237272,2.9171912056,0.9571519499999999,1.83133294,-1.99352309,,,
imu,410.967278,-0.5550857984,-9.498666464000001,2.9261634976,1.21136689,1.99582496,-2.11315365,,,
imu,410.975619,-0.55329134,-9.501657228000001,2.9112096776,1.58521239,2.15284007,-2.05333837,,,
imu,410.98396,-0.5497024232000001,-9.506442450400002,2.9171912056,1.58521239,2.23508608,-2.18792275,,,
imu,410.992301,-0.5413282840000001,-9.519601812000001,2.921976428000001,1.62259694,2.55659321,-2.28512258,,,
imu,411.000642,-0.5473098120000001,-9.5327611736,2.9291542616,1.78708896,2.9229618,-2.31503022,,,
imu,411.008983,-0.5317578392000001,-9.527975951200002,2.93094872,1.85438115,3.04259236,-2.63653735,,,
imu,411.017324,-0.5150095608,-9.5447242296,2.931546872800001,1.6674584,3.21456129,-2.69635263,,,
imu,411.025665,-0.4976631296000001,-9.539939007200001,2.9195838168,1.38333582,3.35662258,-2.80850628,,,
imu,411.034006,-0.4910834488,-9.5447242296,2.9183875112,1.5179202,3.5211146,-2.81598319,,,
imu,411.042347,-0.4683536424000001,-9.5566872856,2.928556108800001,1.32352054,3.52859151,-2.96552139,,,
imu,411.050688,-0.4522035168,-9.569248494400002,2.9183875112,1.39828964,3.70803735,-2.89075229,,,
imu,411.059029,-0.4384460024000001,-9.557285438400001,2.9255653448,1.41324346,3.58092988,-2.93561375,,,
imu,411.06737,-0.4252866408000001,-9.575828175200002,2.9273598032,1.17398234,3.36409949,-2.96552139,,,
imu,411.075711,-0.4133235848,-9.588987536800001,2.9441080816,0.9870595899999999,3.34166876,-2.98047521,,,
imu,411.084053,-0.4043512928,-9.582407856000001,2.9512859152,0.9571519499999999,3.10240764,-2.91318302,,,
imu,411.092394,-0.3941826952,-9.582407856000001,2.949491456800001,0.78518302,2.96034635,-2.8982292,,,
imu,411.100735,-0.3780325696000001,-9.572239258400002,2.9441080816,0.68050628,2.89305416,-2.86832156,,,
imu,411.109076,-0.3720510416,-9.5566872856,2.948893304,0.52349117,2.60145467,-2.84589083,,,
imu,411.117538,-0.3744436528,-9.548313146400002,2.951884068,0.3963837,2.37714737,-2.72626027,,,
imu,411.126001,-0.3864067088000001,-9.527975951200002,2.9447062344,0.35152224,2.1752708,-2.89075229,,,
imu,411.134464,-0.3870048616000001,-9.520199964800002,2.948893304,0.27675314,2.08554788,-2.92813684,,,
imu,411.142926,-0.3983697648000001,-9.506442450400002,2.951884068,0.22441477,1.8014253,-3.15992105,,,
imu,411.151389,-0.3989679176000001,-9.4831144912,2.941117317600001,0.28423005,1.66684092,-3.07019813,,,
imu,411.159852,-0.4145198904,-9.481918185600001,2.9447062344,0.3889067899999999,1.47991817,-3.0477674,,,
imu,411.168314,-0.4175106544000001,-9.486105255200002,2.957865596,0.71789083,1.40514907,-3.0477674,,,
imu,411.176777,-0.4294737104000001,-9.487899713600001,2.9447062344,0.7253677399999999,1.53225654,-3.08515195,,,
imu,411.18524,-0.4342589328000001,-9.493283088800002,2.963248971200001,0.65059864,1.40514907,-3.24964397,,,
imu,411.193702,-0.4456238360000001,-9.519003659200001,2.989567694400001,0.81509066,1.33785688,-3.39170526,,,
imu,411.202165,-0.4372496968000001,-9.529770409600001,2.9752120272,0.8375213899999999,1.40514907,-3.48890509,,,
imu,411.210628,-0.454596128,-9.516012895200001,2.9871750832,0.85995212,1.39767216,-3.62348947,,,
imu,411.21909,-0.46356842,-9.4843107968,2.978800944,0.71789083,1.34533379,-3.85527368,,,
imu,411.227553,-0.4707462536000001,-9.477132963200003,2.987773236,0.68050628,1.25561087,-3.95995042,,,
imu,411.236016,-0.4761296288000001,-9.4801237272,2.9829880136,0.8449983,1.33037997,-3.75807385,,,
imu,411.244478,-0.4665591840000001,-9.491488630400001,2.984782472,0.8375213899999999,1.53973345,-3.48890509,,,
imu,411.252941,-0.4761296288000001,-9.502255380800001,2.9853806248,0.9646288599999999,1.59954873,-3.30945925,,,
imu,411.261404,-0.4755314760000001,-9.509433214400001,2.987773236,1.00949032,1.50982581,-3.44404363,,,
imu,411.269866,-0.4821111568000001,-9.510031367200002,2.990764,1.15155161,1.51730272,-3.39170526,,,
imu,411.278329,-0.4833074624000001,-9.5154147424,2.9931566112,1.42072037,1.48739508,-3.39170526,,,
imu,411.286792,-0.4671573368000001,-9.510031367200002,2.9865769304,1.49548947,1.577118,-3.47395127,,,
imu,411.295254,-0.4701481008,-9.508835061600001,2.9859787776,1.4431511,1.6518871,-3.48890509,,,
imu,411.303717,-0.4779240872000001,-9.513620284000002,2.9770064856,1.67493531,1.71917929,-3.47395127,,,
imu,411.312558,-0.4653628784000001,-9.505844297600001,2.9704268048,1.64502767,1.83133294,-3.55619728,,,
imu,411.321398,-0.4599795032,-9.516012895200001,2.9602582072,1.8917657,1.86871749,-3.68330475,,,
imu,411.330239,-0.454596128,-9.511227672800002,2.963248971200001,2.01139626,1.89114822,-3.88518132,,,
imu,411.33908,-0.4420349192,-9.516611048000001,2.963847124,2.02635008,1.77899457,-4.057150249999999,,,
imu,411.347921,-0.4533998224,-9.517807353600002,2.9584637488,1.93662716,1.74161002,-4.124442439999999,,,
imu,411.356762,-0.4539979752000001,-9.5213962704,2.949491456800001,2.06373463,1.71170238,-4.08705789,,,
imu,411.365602,-0.4456238360000001,-9.520199964800002,2.954874832000001,2.02635008,1.60702564,-4.27398064,,,
imu,411.374443,-0.454596128,-9.536350090400001,2.945304387200001,2.0413039,1.48739508,-4.13191935,,,
imu,411.383284,-0.4629702672000001,-9.541135312800002,2.94590254,2.16093446,1.43505671,-4.13939626,,,
imu,411.392125,-0.4647647256,-9.543527924000001,2.9447062344,1.99644244,1.34533379,-4.02724261,,,
imu,411.400966,-0.4647647256,-9.5501076048,2.9482951512,1.87681188,1.25561087,-3.93004278,,,
imu,411.409807,-0.4767277816000001,-9.559678049600002,2.9417154704,1.7422275,1.14345722,-3.81788913,,,
imu,411.418647,-0.4779240872000001,-9.557285438400001,2.935733942400001,1.54035093,1.18831868,-3.80293531,,,
imu,411.427488,-0.4851019208000001,-9.561472508000001,2.9530803736,1.53287402,1.3528107,-3.69825857,,,
imu,411.436329,-0.4851019208000001,-9.557285438400001,2.9465006928,1.27118217,1.19579559,-3.72816621,,,
imu,411.44517,-0.4910834488,-9.5447242296,2.9423136232,1.18145925,1.28551851,-3.72816621,,,
imu,411.453896,-0.4886908376000001,-9.5459205352,2.9417154704,1.20388998,1.31542615,-3.81041222,,,
imu,411.462736,-0.4803166984,-9.535153784800002,2.938126553600001,1.18893616,1.37524143,-3.88518132,,,
imu,411.471577,-0.4773259344000001,-9.530966715200002,2.9333413312,1.23379762,1.51730272,-4.102011709999999,,,
imu,411.480418,-0.4910834488,-9.531564868,2.9363320952,1.30856672,1.62197946,-4.11696553,,,
imu,411.489259,-0.4970649768000001,-9.526181492800001,2.928556108800001,1.54035093,1.61450255,-4.19921154,,,
imu,411.4981,-0.4880926848000001,-9.5291722568,2.9363320952,1.5926893,1.75656384,-4.19173463,,,
imu,411.50694,-0.4827093096,-9.530368562400001,2.9345376368,1.45062801,1.75656384,-4.26650373,,,
imu,411.515413,-0.4857000736000001,-9.534555632000002,2.9387247064,1.43567419,1.7266562,-4.32631901,,,
imu,411.523885,-0.4898871432,-9.524387034400002,2.9423136232,1.50296638,1.65936401,-4.37118047,,,
imu,411.532358,-0.502448352,-9.5213962704,2.927957956,1.55530475,1.6518871,-4.42351884,,,
imu,411.54083,-0.5108224912,-9.5237888816,2.9387247064,1.53287402,1.59207182,-4.48333412,,,
imu,411.549303,-0.5030465048,-9.527975951200002,2.938126553600001,1.48801256,1.577118,-4.32631901,,,
imu,411.557775,-0.5162058664000001,-9.528574104,2.9423136232,1.60016621,1.55468727,-4.25154991,,,
imu,411.566248,-0.535346756,-9.528574104,2.9441080816,1.60764312,1.53225654,-4.25902682,,,
imu,411.57472,-0.5431227424,-9.535153784800002,2.9345376368,1.47305874,1.38271834,-4.20668845,,,
imu,411.583192,-0.5425245896,-9.5393408544,2.952482220800001,1.52539711,1.39767216,-4.04967334,,,
imu,410.28027,,,,,,,63.67274440000001,-31.53733160000001,128.0840608
imu,410.381863,,,,,,,63.465222,-31.72043960000002,127.0342416
imu,410.483395,,,,,,,63.50184359999999,-31.7692684,127.6934304
imu,410.584988,,,,,,,63.6971588,-31.68381800000002,127.5347368
imu,410.68652,,,,,,,63.35535720000001,-31.95237640000002,127.6446016
imu,410.788296,,,,,,,63.77040200000002,-31.36643080000001,128.6211776
imu,410.889645,,,,,,,66.04094120000002,-32.30638520000002,127.4492864
imu,410.991238,,,,,,,62.87927639999999,-31.11007960000001,127.8887456
imu,411.591665,-0.5556839512000001,-9.530368562400001,2.9405191648,1.62259694,1.55468727,-3.98238115,,,
imu,411.600137,-0.5622636320000001,-9.52558334,2.948893304,1.2936129,1.62197946,-4.04967334,,,
imu,411.60861,-0.5592728680000001,-9.527377798400002,2.9375284008,1.28613599,1.69674856,-3.95995042,,,
imu,411.617082,-0.5730303824,-9.527975951200002,2.9393228592,1.13659779,1.62197946,-3.90761205,,,
imu,411.625555,-0.5592728680000001,-9.527975951200002,2.942911776,1.25622835,1.8014253,-3.80293531,,,
imu,411.634027,-0.5580765624000001,-9.541135312800002,2.957267443200001,1.37585891,2.01077878,-3.74312003,,,
imu,411.642499,-0.5544876456000001,-9.534555632000002,2.9554729848,1.18893616,2.0257326,-3.7954584,,,
imu,411.650972,-0.5455153536,-9.5357519376,2.9560711376,1.25622835,2.19022462,-3.73564312,,,
imu,411.100778,,,,,,,65.8944548,-31.51291720000003,125.16654
imu,411.194467,,,,,,,63.7581948,-30.70724200000001,127.852124
imu,411.296029,,,,,,,63.95351,-31.59836760000001,125.3008192
imu,411.397592,,,,,,,63.6605372,-30.30440440000002,127.5591512
imu,411.499124,,,,,,,63.7215732,-30.69503480000002,127.5103224
imu,411.600778,,,,,,,63.5628796,-30.78048520000001,128.0230248
