Type,Timestamp,Data Accelerometer X,Data Accelerometer Y,Data Accelerometer Z,Data Gyroscope X,Data Gyroscope Y,Data Gyroscope Z,Data Magnetometer X,Data Magnetometer Y,Data Magnetometer Z
imu,211.296908,-0.6286585928,-9.727758986400001,1.7836916496,1.76465823,3.02763854,-3.45899745,,,
imu,211.305379,-0.6089195504,-9.734338667200001,1.788476872,1.60764312,3.18465365,-3.88518132,,,
imu,211.31385,-0.6017417168000001,-9.759461084800002,1.7759156632,1.60016621,3.45382241,-4.29641137,,,
imu,211.322321,-0.565254396,-9.725964528,1.7711304408,1.40576655,3.7454219,-4.55810322,,,
imu,211.330793,-0.520392936,-9.724170069600001,1.7926639416,1.49548947,3.80523718,-4.53567249,,,
imu,211.339264,-0.4964668240000001,-9.7474980288,1.782495344,1.45810492,3.57345297,-4.363703559999999,,,
imu,211.347735,-0.4731388648000001,-9.762451848800001,1.7860842608,1.33099745,3.31176112,-4.08705789,,,
imu,211.356206,-0.4611758088,-9.751685098400001,1.8040288448,1.1440747,3.03511545,-3.75807385,,,
imu,211.364677,-0.4605776560000001,-9.746899876,1.797449164,1.10669015,2.51173175,-3.33188998,,,
imu,211.373148,-0.4851019208000001,-9.745105417600001,1.8040288448,1.03939796,2.10797861,-3.15244414,,,
imu,211.38162,-0.517402172,-9.725964528,1.7890750248,0.8449983,1.77151766,-2.88327538,,,
imu,211.390091,-0.5508987288,-9.7325442088,1.7848879552,0.7253677399999999,1.577118,-2.72626027,,,
imu,211.398562,-0.5903768136,-9.737329431200001,1.7783082744,0.76275229,1.56216418,-2.78607555,,,
imu,211.407033,-0.6125084672000001,-9.709814402400001,1.7818971912,1.08425942,1.86124058,-2.65149117,,,
imu,211.415504,-0.6358364264000002,-9.7128051664,1.7812990384,1.12912088,2.37714737,-2.748691,,,
imu,211.423849,-0.6394253432000001,-9.688879054400001,1.770532288,1.21136689,2.93043871,-2.91318302,,,
imu,211.43232,-0.6149010784000001,-9.6846919848,1.77950458,1.24127453,3.3715764,-3.1973056,,,
imu,211.440791,-0.6119103144000001,-9.728955292000002,1.77950458,1.4431511,3.76037572,-3.57862801,,,
imu,211.449263,-0.5754229936,-9.758862932000001,1.7878787192,1.68988913,4.20899032,-3.69825857,,,
imu,211.457734,-0.5395338256000001,-9.776209363200001,1.7890750248,1.50296638,4.35105161,-3.66835093,,,
imu,211.466205,-0.5335522976000001,-9.802528086400002,1.7908694832,1.39081273,4.42582071,-3.54872037,,,
imu,211.475018,-0.5066354216000001,-9.820472670400001,1.8028325392,1.35342818,4.4931129,-3.24216706,,,
imu,211.483831,-0.4988594352000001,-9.789966877600001,1.7896731776,1.36090509,4.4931129,-2.83841392,,,
imu,211.492644,-0.4773259344000001,-9.772620446400001,1.7908694832,1.08425942,4.59031273,-2.69635263,,,
imu,211.501457,-0.4689517952000001,-9.7815927384,1.7830934968,0.88985976,4.48563599,-2.62906044,,,
imu,211.51027,-0.4958686712000001,-9.7744149048,1.7807008856,0.64312173,4.20899032,-2.71130645,,,
imu,211.519083,-0.4886908376000001,-9.763050001600002,1.77950458,0.56087572,4.126744309999999,-2.84589083,,,
imu,211.527896,-0.4821111568000001,-9.731946056000002,1.7777101216,0.26179932,4.216467229999999,-2.85336774,,,
imu,211.536709,-0.4641665728000001,-9.754675862400001,1.7729248992,0.20946095,4.25385178,-2.83841392,,,
imu,211.545521,-0.4671573368000001,-9.756470320800002,1.7842898024,0.32909151,4.05945212,-2.60662971,,,
imu,211.554334,-0.4569887392,-9.749890640000002,1.7747193576,0.5982602699999999,4.194036499999999,-2.36736859,,,
imu,211.563147,-0.4533998224,-9.7301515976,1.7729248992,0.620691,4.23142105,-2.45709151,,,
imu,211.57196,-0.4563905864000001,-9.711608860800002,1.7663452184,0.44872207,4.126744309999999,-2.81598319,,,
imu,211.580773,-0.4450256832000001,-9.717590388800001,1.7663452184,0.35899915,4.08935976,-2.95056757,,,
imu,211.589586,-0.4551942808000001,-9.7122070136,1.76455076,0.4861066199999999,4.14169813,-3.11505959,,,
imu,211.598399,-0.4450256832000001,-9.6984494992,1.76455076,0.53096808,4.01459066,-3.1973056,,,
imu,211.607212,-0.4528016696000001,-9.7056273328,1.755578468,0.58330645,3.9697292,-3.10010577,,,
imu,211.616025,-0.4420349192,-9.709814402400001,1.7681396768,0.58330645,3.91739083,-3.09262886,,,
imu,211.624838,-0.4414367664,-9.718188541600002,1.7723267464,0.57582954,3.84262173,-3.09262886,,,
imu,211.633651,-0.4575868920000001,-9.731347903200001,1.7687378296,0.66555246,3.820191,-3.0477674,,,
imu,211.642464,-0.4611758088,-9.745105417600001,1.7747193576,0.79265993,3.76785263,-3.13749032,,,
imu,211.651277,-0.4581850448000001,-9.748096181600001,1.773523052,0.66555246,3.78280645,-3.1225365,,,
imu,211.66009,-0.4803166984,-9.758264779200001,1.7818971912,0.85995212,3.85009864,-3.09262886,,,
imu,211.668903,-0.4767277816000001,-9.768433376800001,1.77950458,0.71789083,3.91739083,-3.21973633,,,
imu,211.677382,-0.4683536424000001,-9.7504887928,1.7777101216,0.63564482,4.01459066,-3.40665908,,,
imu,211.68586,-0.4522035168,-9.749890640000002,1.7759156632,0.49358353,3.99215993,-3.51881273,,,
imu,211.694339,-0.4438293776000001,-9.7570684736,1.7860842608,0.49358353,3.88000628,-3.54124346,,,
imu,211.702818,-0.4372496968000001,-9.7540777096,1.7723267464,0.49358353,3.77532954,-3.47395127,,,
imu,211.711297,-0.4456238360000001,-9.765442612800001,1.7830934968,0.31413769,3.73046808,-3.40665908,,,
imu,211.719776,-0.4462219888000001,-9.764246307200002,1.791467636,0.34404533,3.7454219,-3.18235178,,,
imu,211.728254,-0.4300718632,-9.746899876,1.785486108,0.44124516,3.75289881,-3.15244414,,,
imu,211.736733,-0.4480164472000001,-9.7427128064,1.788476872,0.26927623,3.65569898,-3.21973633,,,
imu,211.745212,-0.4456238360000001,-9.718786694400002,1.7789064272,0.3889067899999999,3.5958837,-3.29450543,,,
imu,211.753691,-0.4713444064,-9.724170069600001,1.7753175104,0.25432241,3.64074516,-3.45152054,,,
imu,211.76217,-0.4857000736000001,-9.706225485600001,1.758569232,0.42629134,3.67812971,-3.6459202,,,
imu,211.770648,-0.4821111568000001,-9.6775141512,1.755578468,0.6132140899999999,3.75289881,-3.54872037,,,
imu,211.779127,-0.4874945320000001,-9.688879054400001,1.7639526072,0.80761375,3.95477538,-3.63844329,,,
imu,211.787606,-0.4946723656000001,-9.696655040800001,1.7609618432,0.9646288599999999,4.01459066,-3.84031986,,,
imu,211.796085,-0.4749333232000001,-9.710412555200001,1.76455076,1.09173633,4.15665195,-4.012288789999999,,,
imu,211.804564,-0.4623721144,-9.7301515976,1.761559996,0.9870595899999999,4.1192674,-4.102011709999999,,,
imu,211.813042,-0.4450256832000001,-9.746301723200002,1.755578468,1.18145925,4.104313579999999,-3.98238115,,,
imu,211.821521,-0.4414367664,-9.766638918400002,1.7519895512,0.97210577,3.97720611,-3.98238115,,,
imu,211.83,-0.4402404608,-9.7750130576,1.7591673848,0.94967504,3.797760269999999,-3.93751969,,,
imu,211.838479,-0.4533998224,-9.7845835024,1.7543821624,1.03192105,3.4463455,-3.74312003,,,
imu,211.846958,-0.4474182944000001,-9.786377960800001,1.755578468,0.83004448,3.24446893,-3.72816621,,,
imu,211.855436,-0.4575868920000001,-9.7959484056,1.7513913984,0.81509066,3.06502309,-3.53376655,,,
imu,211.863915,-0.4767277816000001,-9.790565030400002,1.752587704,0.7253677399999999,2.96034635,-3.44404363,,,
imu,211.872394,-0.4964668240000001,-9.789368724800001,1.7567747736,0.7253677399999999,2.87062343,-3.30198234,,,
imu,211.880861,-0.5221873944000001,-9.7989391696,1.7651489128,0.6132140899999999,2.96782326,-3.21225942,,,
imu,211.889329,-0.5221873944000001,-9.785779808000001,1.7603636904,0.29918387,3.13231528,-3.32441307,,,
imu,211.897796,-0.5036446576000001,-9.769031529600001,1.7579710792,0.12721494,3.38653022,-3.23469015,,,
imu,211.906263,-0.4833074624000001,-9.7510869456,1.7543821624,0.06739966,3.77532954,-3.30198234,,,
imu,211.914731,-0.4468201416000001,-9.7086180968,1.7519895512,0.10478421,3.90991392,-3.44404363,,,
imu,211.923198,-0.4282774048000001,-9.717590388800001,1.767541524,0.07487657,3.87252937,-3.78798149,,,
imu,211.931665,-0.4294737104000001,-9.731946056000002,1.7567747736,-0.08961545,3.71551426,-4.17678081,,,
imu,211.940133,-0.4539979752000001,-9.7301515976,1.7669433712,0.01506129,3.49868387,-4.22911918,,,
imu,211.9486,-0.4593813504000001,-9.7504887928,1.7669433712,-0.02980017,3.25194584,-4.034719519999999,,,
imu,211.957067,-0.4498109056,-9.749890640000002,1.7699341352,-0.03727708,3.22951511,-3.7954584,,,
imu,211.965535,-0.4462219888000001,-9.7474980288,1.782495344,0.11973803,3.23699202,-3.48142818,,,
imu,211.974002,-0.4605776560000001,-9.7361331256,1.7747193576,0.08235347999999998,3.08745382,-3.45899745,,,
imu,211.98247,-0.4462219888000001,-9.7301515976,1.767541524,0.09730729999999999,3.12483837,-3.38422835,,,
imu,211.990937,-0.4462219888000001,-9.710412555200001,1.7783082744,0.21693786,3.26689966,-3.41413599,,,
imu,211.999404,-0.454596128,-9.711010708000002,1.7807008856,0.17955331,3.15474601,-3.58610492,,,
imu,212.007872,-0.4671573368000001,-9.714001472000001,1.7753175104,0.23936859,2.98277708,-3.69078166,,,
imu,212.016339,-0.4737370176,-9.718786694400002,1.767541524,0.57582954,3.13979219,-3.59358183,,,
imu,212.024806,-0.4857000736000001,-9.718188541600002,1.7717285936,0.77770611,3.08745382,-3.59358183,,,
imu,212.033274,-0.4928779072000001,-9.7265626808,1.7711304408,0.7104139199999999,3.16969983,-3.62348947,,,
imu,212.041741,-0.5078317272000001,-9.714001472000001,1.7639526072,0.73284465,3.2220382,-3.81041222,,,
imu,212.050208,-0.4946723656000001,-9.741516500800001,1.7872805664,0.9197674,3.35662258,-3.90013514,,,
imu,212.058676,-0.5006538936,-9.780396432800002,1.785486108,0.83004448,3.41643786,-3.88518132,,,
imu,212.067143,-0.4982612824000001,-9.768433376800001,1.7962528584,0.6281679099999999,3.55102224,-3.96742733,,,
imu,212.07561,-0.490485296,-9.763050001600002,1.7908694832,0.68798319,3.63326825,-3.89265823,,,
imu,212.084065,-0.4701481008,-9.745703570400002,1.7896731776,0.59078336,3.67812971,-3.84031986,,,
imu,212.09252,-0.4845037680000001,-9.772022293600001,1.7938602472,0.3963837,3.5958837,-3.78798149,,,
imu,212.100974,-0.4946723656000001,-9.76484446,1.7908694832,0.26927623,3.48373005,-3.69825857,,,
imu,212.109429,-0.4910834488,-9.734936820000001,1.7920657888,0.13469185,3.48373005,-3.57862801,,,
imu,212.117884,-0.5042428104000001,-9.745703570400002,1.7962528584,0.007584380000000002,3.31176112,-3.41413599,,,
imu,212.126338,-0.505439116,-9.738525736800002,1.7777101216,-0.02232326000000001,3.28185348,-3.37675144,,,
imu,212.134793,-0.5000557408,-9.715795930400002,1.7938602472,-0.23167674,3.28933039,-3.48890509,,,
imu,212.143248,-0.4719425592000001,-9.7056273328,1.7950565528,-0.11204618,3.31176112,-3.36179762,,,
imu,212.151702,-0.4510072112,-9.699645804800001,1.773523052,0.03001510999999998,3.25942275,-3.21225942,,,
imu,212.160157,-0.4474182944000001,-9.690075360000002,1.7741212048,0.11226112,3.19213056,-3.00290594,,,
imu,212.168612,-0.4348570856000001,-9.685290137600001,1.7627563016,0.32909151,3.13231528,-2.71130645,,,
imu,212.177066,-0.4456238360000001,-9.6942624296,1.76455076,0.49358353,2.9977309,-2.76364482,,,
imu,212.185521,-0.4492127528000001,-9.709216249600003,1.767541524,0.80013684,2.66874686,-2.94309066,,,
imu,212.193975,-0.4629702672000001,-9.723571916800001,1.7507932456,1.18893616,2.44443956,-3.1973056,,,
imu,212.20243,-0.4898871432,-9.7331423616,1.7633544544,1.33847436,2.42200883,-3.39170526,,,
imu,212.210885,-0.5048409632,-9.746899876,1.7627563016,1.39081273,2.324809,-3.45899745,,,
imu,212.219339,-0.5275707696,-9.734338667200001,1.7507932456,1.55530475,2.27994754,-3.60105874,,,
imu,212.227794,-0.5514968816000001,-9.730749750400001,1.7424191064,1.49548947,2.40705501,-3.71321239,,,
imu,212.236249,-0.5467116592000001,-9.7492924872,1.7484006344,1.18893616,2.49677793,-3.66835093,,,
imu,212.244703,-0.5383375200000001,-9.7510869456,1.7460080232,1.06182869,2.72856214,-3.36927453,,,
imu,212.253158,-0.5251781584,-9.7534795568,1.752587704,0.91229049,2.81828506,-3.24216706,,,
imu,212.261613,-0.5150095608,-9.722375611200002,1.7418209536,0.8749059399999999,2.9229618,-3.11505959,,,
imu,212.270067,-0.517402172,-9.722375611200002,1.7501950928,0.74779847,3.00520781,-2.92065993,,,
imu,212.278522,-0.5168040192000001,-9.716992236000001,1.7364375784,0.68798319,2.88557725,-2.8982292,,,
imu,212.287341,-0.517402172,-9.7331423616,1.740624648,0.50853735,2.83323888,-2.87579847,,,
imu,212.296161,-0.5281689224000001,-9.734338667200001,1.7394283424,0.71789083,2.93043871,-2.86832156,,,
imu,212.304981,-0.5299633808,-9.7331423616,1.7340449672,0.79265993,3.19213056,-2.71130645,,,
imu,212.3138,-0.5287670752,-9.730749750400001,1.7238763696,0.7552753799999999,3.33419185,-2.60662971,,,
imu,212.32262,-0.5215892416000001,-9.7295534448,1.7292597448,0.81509066,3.3715764,-2.64401426,,,
imu,212.331439,-0.5120187968000001,-9.745105417600001,1.7328486616,0.9048135799999999,3.5958837,-2.59167589,,,
imu,212.340259,-0.5060372688000001,-9.748096181600001,1.7364375784,0.8973366700000001,3.73046808,-2.6739219,,,
imu,212.349078,-0.4851019208000001,-9.7474980288,1.7340449672,0.81509066,3.79028336,-2.64401426,,,
imu,212.357898,-0.4731388648000001,-9.7636481544,1.7382320368,0.91229049,3.86505246,-2.66644499,,,
imu,212.366718,-0.4647647256,-9.785779808000001,1.7472043288,0.91229049,3.93234465,-2.53186061,,,
imu,212.375537,-0.4366515440000001,-9.7911631832,1.7460080232,0.83004448,4.02954448,-2.39727623,,,
imu,212.384357,-0.4288755576000001,-9.770825988000002,1.7537840096,0.65807555,3.99963684,-2.41970696,,,
imu,212.393176,-0.4210995712,-9.773816752000002,1.755578468,0.4711528,3.80523718,-2.45709151,,,
imu,212.401996,-0.4055475984,-9.769629682400002,1.7579710792,0.32909151,3.58840679,-2.38979932,,,
imu,212.410816,-0.4097346680000001,-9.787574266400002,1.7609618432,0.08983038999999998,3.42391477,-2.46456842,,,
imu,212.419635,-0.4169125016,-9.76484446,1.770532288,-0.127,3.15474601,-2.51690679,,,
imu,212.428455,-0.4324644744,-9.743310959200002,1.7771119688,-0.23915365,2.9977309,-2.5243837,,,
imu,212.437274,-0.4504090584,-9.768433376800001,1.7699341352,-0.31392275,2.90800798,-2.44213769,,,
imu,212.446094,-0.4623721144,-9.7510869456,1.7789064272,-0.24663056,2.9229618,-2.0757691,,,
imu,212.454913,-0.4575868920000001,-9.746301723200002,1.785486108,-0.17186146,2.98277708,-1.79164652,,,
imu,212.463733,-0.4522035168,-9.7295534448,1.7789064272,-0.17186146,2.96782326,-1.75426197,,,
imu,212.472553,-0.4587831976000001,-9.706823638400001,1.7603636904,-0.02232326000000001,3.13231528,-1.76173888,,,
imu,212.481372,-0.4587831976000001,-9.697253193600002,1.7633544544,0.15712258,3.20708438,-1.88136944,,,
imu,212.489857,-0.4647647256,-9.689477207200001,1.7489987872,0.42629134,3.36409949,-2.06829219,,,
imu,212.498343,-0.4551942808000001,-9.669738164800002,1.725670828,0.76275229,3.70803735,-2.40475314,,,
imu,212.506828,-0.4533998224,-9.665551095200001,1.716698536,0.97958268,3.820191,-2.58419898,,,
imu,212.515313,-0.4384460024000001,-9.676915998400002,1.7101188552,1.08425942,4.07440594,-2.65896808,,,
imu,212.523732,-0.4175106544000001,-9.706823638400001,1.7131096192,1.42819728,4.246374869999999,-2.60662971,,,
imu,212.532217,-0.3852104032000001,-9.720581152800001,1.7101188552,1.46558183,4.410866889999999,-2.53933752,,,
imu,212.540702,-0.3570972216000001,-9.7427128064,1.7172966888,1.57025857,4.3435747,-2.49447606,,,
imu,212.549187,-0.3415452488,-9.768433376800001,1.7208856056,1.41324346,4.13422122,-2.55429134,,,
imu,212.557672,-0.3337692624,-9.7815927384,1.722680064,1.20388998,4.08935976,-2.5991528,,,
imu,212.566158,-0.3259932760000001,-9.802528086400002,1.7155022304,1.09921324,3.90991392,-2.49447606,,,
imu,212.574643,-0.3397507904000001,-9.8132948368,1.7184929944,0.94967504,3.69308353,-2.55429134,,,
imu,212.583128,-0.3367600264,-9.8013317808,1.7250726752,0.68050628,3.55849915,-2.57672207,,,
imu,212.591613,-0.3499193880000001,-9.802528086400002,1.7334468144,0.77770611,3.37905331,-2.56176825,,,
imu,212.600098,-0.3624805968,-9.8013317808,1.7232782168,0.4711528,3.13231528,-2.62158353,,,
imu,212.608583,-0.3564990688,-9.794752100000002,1.7208856056,0.32909151,3.20708438,-2.75616791,,,
imu,212.617068,-0.3630787496,-9.794153947200002,1.7190911472,0.31413769,3.18465365,-2.71130645,,,
imu,212.625554,-0.3606861384,-9.798341016800002,1.7196893,0.07487657,3.19213056,-2.76364482,,,
imu,212.634039,-0.3487230824000001,-9.789368724800001,1.7125114664,0.03001510999999998,3.24446893,-2.748691,,,
imu,212.642524,-0.3493212352000001,-9.7606573904,1.7304560504,-0.01484635000000001,3.25942275,-2.88327538,,,
imu,212.651009,-0.3559009160000001,-9.742114653600002,1.7143059248,0.07487657,3.18465365,-3.09262886,,,
imu,211.35663,,,,,,,-85.23068119999999,180.4895252,118.8554176
imu,211.458192,,,,,,,-85.03536600000001,180.8069124,118.513616
imu,211.559755,,,,,,,-85.1208164,180.5871828,118.6234808
imu,211.661409,,,,,,,-86.02414920000001,180.7092548,117.9154632
imu,211.76288,,,,,,,-85.767798,180.5871828,118.1718144
imu,211.864564,,,,,,,-85.79221240000001,180.4651108,119.06294
imu,211.966157,,,,,,,-83.4728444,179.9402012,117.5126256
imu,212.659494,-0.3582935272000001,-9.744507264800001,1.7119133136,0.02253820000000001,3.12483837,-3.3468438,,,
imu,212.667979,-0.3660695136000001,-9.748096181600001,1.722680064,-0.007369440000000005,2.96782326,-3.59358183,,,
imu,212.676465,-0.3744436528,-9.751685098400001,1.7262689808,-0.06718472,2.98277708,-3.71321239,,,
imu,212.68495,-0.3780325696000001,-9.7534795568,1.7382320368,0.007584380000000002,2.87062343,-3.81788913,,,
imu,212.693402,-0.3798270280000001,-9.761853696000001,1.7448117176,-0.02980017,2.83323888,-3.81041222,,,
imu,212.701854,-0.3911919312,-9.746301723200002,1.7430172592,-0.07466163,2.82576197,-3.70573548,,,
imu,212.710306,-0.3887993200000001,-9.738525736800002,1.7412228008,-0.14943073,2.80333124,-3.60853565,,,
imu,212.718758,-0.3941826952,-9.722375611200002,1.7484006344,-0.08213854000000001,2.64631613,-3.45152054,,,
imu,212.72721,-0.3887993200000001,-9.731347903200001,1.7567747736,-0.26158438,2.60145467,-3.53376655,,,
imu,212.735662,-0.3935845424,-9.738525736800002,1.7513913984,-0.09709236,2.63136231,-3.37675144,,,
imu,212.744114,-0.3887993200000001,-9.7295534448,1.7460080232,-0.19429219,2.42200883,-3.48890509,,,
imu,212.752567,-0.4013605288,-9.749890640000002,1.7537840096,-0.23915365,2.33228591,-3.66835093,,,
imu,212.761019,-0.4145198904,-9.790565030400002,1.7663452184,-0.08213854000000001,2.2500399,-3.63844329,,,
imu,212.769471,-0.4342589328000001,-9.789966877600001,1.758569232,-0.17186146,2.16031698,-3.70573548,,,
imu,212.777923,-0.4342589328000001,-9.737329431200001,1.7663452184,-0.30644584,2.27247063,-3.75059694,,,
imu,212.786375,-0.4354552384000001,-9.719983000000001,1.7759156632,-0.48589168,2.26499372,-3.60853565,,,
imu,212.794827,-0.439642308,-9.745105417600001,1.7866824136,-0.30644584,2.38462428,-3.45899745,,,
imu,212.803279,-0.4390441552000001,-9.743310959200002,1.7759156632,-0.127,2.51173175,-3.39918217,,,
imu,212.811731,-0.4318663216,-9.723571916800001,1.7860842608,-0.23915365,2.57902394,-3.44404363,,,
imu,212.820183,-0.4384460024000001,-9.725366375200002,1.791467636,-0.24663056,2.75846978,-3.44404363,,,
imu,212.828635,-0.4360533912000001,-9.728955292000002,1.797449164,-0.22419983,2.72108523,-3.54124346,,,
imu,212.837087,-0.4342589328000001,-9.728955292000002,1.7956547056,-0.17933837,2.86314652,-3.51133582,,,
imu,212.84554,-0.4288755576000001,-9.724768222400002,1.8016362336,-0.11204618,3.05006927,-3.47395127,,,
imu,212.853992,-0.4199032656,-9.7074217912,1.785486108,0.05992275,3.12483837,-3.42908981,,,
imu,212.862444,-0.4091365152000001,-9.706225485600001,1.7801027328,0.08983038999999998,3.2220382,-3.46647436,,,
imu,212.870896,-0.3971734592000001,-9.696056888000001,1.7807008856,0.16459949,3.39400713,-3.35432071,,,
imu,212.879348,-0.3882011672000001,-9.689477207200001,1.7789064272,0.3739529699999999,3.36409949,-3.37675144,,,
imu,212.8878,-0.370854736,-9.699047652,1.7723267464,0.26179932,3.17717674,-3.56367419,,,
imu,212.896265,-0.3541064576,-9.70502918,1.7693359824,0.4711528,3.06502309,-3.54872037,,,
imu,212.90473,-0.3576953744,-9.722973764,1.76455076,0.65807555,2.9229618,-3.47395127,,,
imu,212.913195,-0.3600879856,-9.7325442088,1.7753175104,0.7552753799999999,2.72856214,-3.53376655,,,
imu,212.921659,-0.3553027632,-9.7474980288,1.7693359824,0.97958268,2.72856214,-3.56367419,,,
imu,212.930124,-0.3547046104000001,-9.783387196800001,1.7753175104,0.94219813,2.42200883,-3.65339711,,,
imu,212.938589,-0.3696584304000001,-9.788770572,1.7717285936,0.67302937,2.24256299,-3.69078166,,,
imu,212.947054,-0.3870048616000001,-9.7427128064,1.7603636904,0.68798319,2.12293243,-3.71321239,,,
imu,212.955519,-0.3959771536000001,-9.7427128064,1.7627563016,0.73284465,2.03320951,-3.58610492,,,
imu,212.963983,-0.4091365152000001,-9.7606573904,1.7699341352,0.6132140899999999,1.96591732,-3.32441307,,,
imu,212.972448,-0.4234921824,-9.7403201952,1.758569232,0.56087572,1.86871749,-3.27955161,,,
imu,212.980913,-0.43366078,-9.710412555200001,1.7579710792,0.41133752,1.9509635,-3.36179762,,,
imu,212.989378,-0.4563905864000001,-9.7331423616,1.7597655376,0.53096808,2.00330187,-3.496382,,,
imu,212.997843,-0.4599795032,-9.748694334400001,1.7609618432,0.41133752,2.25751681,-3.44404363,,,
imu,213.006307,-0.4761296288000001,-9.760059237600002,1.7747193576,0.30666078,2.4743472,-3.53376655,,,
imu,213.014772,-0.4755314760000001,-9.76484446,1.7789064272,0.38142988,2.6986545,-3.54124346,,,
imu,213.023237,-0.4713444064,-9.785181655200002,1.7687378296,0.35899915,2.78837742,-3.23469015,,,
imu,213.031702,-0.4683536424000001,-9.802528086400002,1.773523052,0.43376825,3.02016163,-2.95804448,,,
imu,213.040167,-0.4522035168,-9.8061170032,1.7741212048,0.33656842,3.2220382,-2.89075229,,,
imu,213.048632,-0.4420349192,-9.803126239200001,1.7663452184,0.35152224,3.50616078,-2.88327538,,,
imu,213.057096,-0.4109309736,-9.797742864000002,1.7669433712,0.27675314,3.72299117,-3.11505959,,,
imu,213.065561,-0.4025568344,-9.769031529600001,1.7549803152,0.26927623,3.7454219,-3.29450543,,,
imu,213.074026,-0.382817792,-9.766638918400002,1.7472043288,0.21693786,3.68560662,-3.46647436,,,
imu,213.082491,-0.3738455000000001,-9.738525736800002,1.7484006344,0.13469185,3.62579134,-3.51133582,,,
imu,213.090956,-0.3582935272000001,-9.7086180968,1.7382320368,0.20198404,3.5958837,-3.52628964,,,
imu,213.099422,-0.3600879856,-9.693664276800002,1.7358394256,0.22441477,3.39400713,-3.33188998,,,
imu,213.107888,-0.3535083048,-9.697851346400002,1.7274652864,0.14964567,3.18465365,-3.18982869,,,
imu,213.116354,-0.3469286240000001,-9.7086180968,1.7358394256,0.26179932,3.09493073,-3.08515195,,,
imu,213.12482,-0.3481249296000001,-9.706823638400001,1.7298578976,0.20198404,2.85566961,-3.13001341,,,
imu,213.133286,-0.3702565832000001,-9.708019944000002,1.7531858568,0.30666078,2.69117759,-3.08515195,,,
imu,213.141752,-0.367863972,-9.713403319200001,1.7531858568,0.12721494,2.39210119,-3.20478251,,,
imu,213.150218,-0.3846122504,-9.725964528,1.7519895512,0.20198404,2.34723973,-3.35432071,,,
imu,213.158684,-0.4043512928,-9.7325442088,1.7549803152,0.1720764,2.35471664,-3.51133582,,,
imu,213.16715,-0.4091365152000001,-9.752283251200002,1.7621581488,0.25432241,2.46687029,-3.46647436,,,
imu,213.175616,-0.4181088072000001,-9.7911631832,1.7663452184,0.40386061,2.61640849,-3.45899745,,,
imu,213.184083,-0.4025568344,-9.7959484056,1.770532288,0.26179932,2.71360832,-3.50385891,,,
imu,213.192549,-0.3935845424,-9.803126239200001,1.7902713304,0.10478421,2.76594669,-3.65339711,,,
imu,213.201015,-0.3959771536000001,-9.802528086400002,1.7872805664,-0.01484635000000001,2.73603905,-3.76555076,,,
imu,213.209481,-0.3893974728000001,-9.800135475200001,1.7944584,-0.04475399000000001,2.87810034,-3.81788913,,,
imu,213.217947,-0.3840140976,-9.803126239200001,1.7860842608,-0.31392275,2.87062343,-3.91508896,,,
imu,213.226413,-0.3786307224000001,-9.7989391696,1.7789064272,-0.24663056,2.81080815,-3.77302767,,,
imu,213.234879,-0.3654713608,-9.785779808000001,1.773523052,-0.28401511,2.83323888,-3.78798149,,,
imu,213.243345,-0.3582935272000001,-9.7504887928,1.7723267464,-0.30644584,2.75099287,-3.75059694,,,
imu,213.251811,-0.3666676664,-9.739722042400002,1.7896731776,-0.47841477,2.68370068,-3.75059694,,,
imu,213.260277,-0.3744436528,-9.746301723200002,1.788476872,-0.49336859,2.60893158,-3.8702275,,,
imu,213.268743,-0.4109309736,-9.7474980288,1.7986454696,-0.55318387,2.36219355,-4.07210407,,,
imu,213.277209,-0.4193051128000001,-9.739722042400002,1.812402984,-0.5681376899999999,2.23508608,-4.25902682,,,
imu,213.285676,-0.4444275304,-9.7361331256,1.8231697344,-0.90459864,2.27247063,-4.00481188,,,
imu,213.294142,-0.4557924336,-9.7361331256,1.8315438736,-1.12890594,2.27994754,-3.69078166,,,
imu,213.302956,-0.4665591840000001,-9.738525736800002,1.83931986,-1.20367504,2.43696265,-3.17487487,,,
imu,213.31177,-0.4689517952000001,-9.725366375200002,1.845301388,-1.28592105,2.70613141,-2.68887572,,,
imu,213.320584,-0.4647647256,-9.724170069600001,1.8357309432,-1.39059779,2.84071579,-2.59167589,,,
imu,213.329399,-0.454596128,-9.723571916800001,1.842310624,-1.15133667,2.93043871,-2.62158353,,,
imu,213.338213,-0.4563905864000001,-9.709814402400001,1.8429087768,-1.16629049,3.0725,-2.78607555,,,
imu,213.347027,-0.4528016696000001,-9.6912716656,1.8387217072,-1.06161375,3.13231528,-3.05524431,,,
imu,213.355842,-0.4390441552000001,-9.668541859200001,1.82436604,-0.7999219,3.19213056,-3.18235178,,,
imu,213.364656,-0.43366078,-9.641026830400001,1.818384512,-0.52327623,3.25942275,-3.23469015,,,
imu,213.37347,-0.430670016,-9.6326526912,1.8046269976,-0.26158438,3.31923803,-3.18982869,,,
imu,213.382284,-0.4193051128000001,-9.626671163200001,1.7986454696,0.09730729999999999,3.42391477,-3.13749032,,,
imu,213.391099,-0.4061457512000001,-9.636839760800001,1.8016362336,0.41881443,3.51363769,-3.07019813,,,
imu,213.399913,-0.4073420568000001,-9.6703363176,1.8088140672,0.80013684,3.42391477,-2.92065993,,,
imu,213.408727,-0.3983697648000001,-9.706823638400001,1.8106085256,1.09173633,3.46877623,-2.81598319,,,
imu,213.417541,-0.3941826952,-9.722973764,1.8100103728,1.13659779,3.43139168,-2.66644499,,,
imu,213.426356,-0.3882011672000001,-9.746899876,1.8237678872,1.0693056,3.37905331,-2.46456842,,,
imu,213.43517,-0.3899956256000001,-9.754675862400001,1.8279549568,0.9870595899999999,3.24446893,-2.60662971,,,
imu,213.443984,-0.3959771536000001,-9.7576666264,1.8249641928,0.71789083,3.12483837,-2.68139881,,,
imu,213.452799,-0.4043512928,-9.759461084800002,1.8285531096,0.46367589,3.12483837,-2.76364482,,,
imu,213.461613,-0.3995660704000001,-9.752881404000002,1.8315438736,0.20198404,2.97530017,-2.80850628,,,
imu,213.470427,-0.3959771536000001,-9.7474980288,1.8297494152,0.13469185,3.15474601,-2.61410662,,,
imu,212.067676,,,,,,,-85.9142844,180.965606,117.8300128
imu,212.169178,,,,,,,-83.6681596,179.68385,115.7914104
imu,212.27074,,,,,,,-85.6213116,180.5139396,118.3183008
imu,212.372303,,,,,,,-86.378158,179.8181292,116.1087976
imu,212.473865,,,,,,,-86.01194199999999,181.0388492,118.3671296
imu,212.575519,,,,,,,-85.49923960000001,181.0510564,118.0985712
imu,212.677112,,,,,,,-85.5480684,180.90457,119.0263184
imu,212.778644,,,,,,,-86.53685159999999,180.4284892,118.635688
imu,213.479241,-0.3947808480000001,-9.752283251200002,1.833338332,0.29918387,3.23699202,-2.54681443,,,
imu,213.488056,-0.4031549872,-9.746899876,1.8231697344,0.46367589,3.37905331,-2.55429134,,,
imu,213.49687,-0.3911919312,-9.746899876,1.8267586512,0.33656842,3.3715764,-2.55429134,,,
imu,213.505398,-0.382817792,-9.739123889600002,1.8201789704,0.49358353,3.55849915,-2.5991528,,,
imu,213.513927,-0.3666676664,-9.7283571392,1.8159919008,0.45619898,3.63326825,-2.62158353,,,
imu,213.522455,-0.3475267768,-9.7361331256,1.821375276,0.5459219,3.76037572,-2.60662971,,,
imu,213.530983,-0.334965568,-9.724768222400002,1.8046269976,0.57582954,3.7454219,-2.6739219,,,
imu,213.539512,-0.3313766512,-9.697851346400002,1.8052251504,0.49358353,3.64822207,-2.88327538,,,
imu,213.54804,-0.3277877344,-9.700243957600001,1.7860842608,0.8973366700000001,3.60336061,-3.00290594,,,
imu,213.556569,-0.3265914288,-9.709814402400001,1.7860842608,1.04687487,3.55102224,-3.02533667,,,
imu,213.565097,-0.3325729568,-9.724170069600001,1.7860842608,1.07678251,3.33419185,-2.9729983,,,
imu,213.573625,-0.3391526376000001,-9.727758986400001,1.782495344,1.06182869,3.30428421,-3.01785976,,,
imu,213.582154,-0.3385544848000001,-9.730749750400001,1.7866824136,1.03192105,3.19960747,-3.07019813,,,
imu,213.590682,-0.352910152,-9.772022293600001,1.7860842608,1.09921324,3.02016163,-3.20478251,,,
imu,213.599211,-0.3576953744,-9.797742864000002,1.770532288,0.9272443100000001,2.91548489,-3.24216706,,,
imu,213.607739,-0.3630787496,-9.783387196800001,1.7687378296,0.9048135799999999,3.01268472,-3.26459779,,,
imu,213.61634,-0.3648732080000001,-9.765442612800001,1.7657470656,0.65059864,2.90800798,-3.07019813,,,
imu,213.624868,-0.3726491944000001,-9.760059237600002,1.7579710792,0.43376825,2.90800798,-3.18235178,,,
imu,213.633396,-0.3660695136000001,-9.738525736800002,1.7460080232,0.3889067899999999,2.96034635,-3.17487487,,,
imu,213.641925,-0.3559009160000001,-9.727758986400001,1.7472043288,0.53844499,3.13231528,-3.0477674,,,
imu,213.650453,-0.3606861384,-9.7361331256,1.7352412728,0.65059864,3.12483837,-3.01785976,,,
imu,213.658981,-0.367863972,-9.742114653600002,1.7442135648,0.70293701,3.13979219,-3.11505959,,,
imu,213.66751,-0.3786307224000001,-9.766638918400002,1.7424191064,0.80013684,3.21456129,-3.1973056,,,
imu,213.676038,-0.3726491944000001,-9.791761336000002,1.7549803152,0.7403215599999999,3.25194584,-3.28702852,,,
imu,213.684567,-0.3744436528,-9.8043225448,1.7669433712,0.43376825,3.2220382,-3.45152054,,,
imu,213.693095,-0.3756399584,-9.824659740000001,1.7711304408,0.19450713,3.16969983,-3.53376655,,,
imu,213.701623,-0.3786307224000001,-9.824061587200001,1.7783082744,-0.07466163,3.26689966,-3.47395127,,,
imu,213.710036,-0.367863972,-9.8049206976,1.7717285936,-0.29896893,3.31923803,-3.24964397,,,
imu,213.718449,-0.376836264,-9.802528086400002,1.76455076,-0.4260764,3.36409949,-3.10010577,,,
imu,213.726861,-0.3714528888,-9.785181655200002,1.76455076,-0.77001426,3.45382241,-2.87579847,,,
imu,213.735274,-0.3648732080000001,-9.754675862400001,1.773523052,-1.01675229,3.48373005,-2.78607555,,,
imu,213.743687,-0.3720510416,-9.715795930400002,1.773523052,-1.22610577,3.34166876,-2.93561375,,,
imu,213.7521,-0.3744436528,-9.7265626808,1.77950458,-1.21862886,3.30428421,-3.20478251,,,
imu,213.760512,-0.3774344168000001,-9.7325442088,1.7801027328,-1.06161375,3.37905331,-3.31693616,,,
imu,213.768925,-0.3834159448,-9.746899876,1.7968510112,-1.01675229,3.43886859,-3.39918217,,,
imu,213.777338,-0.3864067088000001,-9.7301515976,1.8195808176,-1.03170611,3.54354533,-3.3468438,,,
imu,213.78575,-0.3923882368,-9.7301515976,1.8219734288,-1.01675229,3.79028336,-3.26459779,,,
imu,213.794163,-0.3714528888,-9.736731278400002,1.8351327904,-0.88964482,3.99963684,-2.83093701,,,
imu,213.802576,-0.3559009160000001,-9.743310959200002,1.8369272488,-0.93450628,4.02954448,-2.68887572,,,
imu,213.810988,-0.340947096,-9.748096181600001,1.8375254016,-0.9943215599999999,4.06692903,-2.68887572,,,
imu,213.819401,-0.3361618736,-9.746301723200002,1.8357309432,-0.8672140899999999,3.98468302,-2.86084465,,,
imu,213.827814,-0.3146283728000001,-9.737927584000001,1.8447032352,-0.89712173,3.88748319,-2.98047521,,,
imu,213.836226,-0.3092449976000001,-9.7122070136,1.845301388,-0.9644139199999999,3.76785263,-3.11505959,,,
imu,213.844639,-0.3104413032000001,-9.708019944000002,1.8435069296,-0.7550604399999999,3.65569898,-3.18982869,,,
imu,213.853052,-0.3146283728000001,-9.704431027200002,1.836329096,-0.63542988,3.43886859,-3.21225942,,,
imu,213.861464,-0.3146283728000001,-9.697253193600002,1.8351327904,-0.41859949,3.43886859,-3.13749032,,,
imu,213.869877,-0.3092449976000001,-9.693664276800002,1.8387217072,-0.30644584,3.5211146,-3.10758268,,,
imu,213.87829,-0.3104413032000001,-9.673925234400002,1.8429087768,-0.44103022,3.3715764,-3.03281358,,,
imu,213.886702,-0.2942911776,-9.679308609600001,1.8560681384,-0.47093786,3.34914567,-3.14496723,,,
imu,213.895115,-0.305057928,-9.689477207200001,1.8608533608,-0.45598404,3.26689966,-3.40665908,,,
imu,213.903528,-0.3020671640000001,-9.675719692800001,1.860255208,-0.41859949,3.19213056,-3.59358183,,,
imu,213.91203,-0.3098431504,-9.685290137600001,1.8614515136,-0.33635348,3.12483837,-3.50385891,,,
imu,213.920532,-0.3122357616,-9.684093832000002,1.8566662912,-0.23915365,3.03511545,-3.44404363,,,
imu,213.929034,-0.3122357616,-9.706225485600001,1.8674330416,-0.17933837,3.00520781,-3.35432071,,,
imu,213.937537,-0.3218062064,-9.711608860800002,1.8650404304,0.05244583999999999,2.9977309,-3.30945925,,,
imu,213.946039,-0.3218062064,-9.7128051664,1.8686293472,0.19450713,3.13979219,-3.23469015,,,
imu,213.954541,-0.320011748,-9.725964528,1.8746108752,0.35152224,3.25194584,-3.31693616,,,
imu,213.963043,-0.3307784984000001,-9.7361331256,1.8734145696,0.32909151,3.26689966,-3.42908981,,,
imu,213.971545,-0.3236006648,-9.718188541600002,1.848292152,0.1720764,3.21456129,-3.69078166,,,
imu,213.980047,-0.31403022,-9.718786694400002,1.8644422776,0.28423005,3.2968073,-3.83284295,,,
imu,213.98855,-0.3116376088,-9.727160833600001,1.8638441248,0.25432241,3.35662258,-3.86275059,,,
imu,213.997052,-0.296085636,-9.7217774584,1.8506847632,0.23936859,3.15474601,-3.73564312,,,
imu,214.005554,-0.2918985664000001,-9.7074217912,1.8441050824,0.35899915,3.0725,-3.62348947,,,
imu,214.014056,-0.2972819416,-9.7128051664,1.8530773744,0.41881443,2.93043871,-3.58610492,,,
imu,214.022558,-0.3008708584000001,-9.744507264800001,1.8500866104,0.7702292,2.69117759,-3.54124346,,,
imu,214.031061,-0.3265914288,-9.742114653600002,1.8464976936,0.7403215599999999,2.36219355,-3.55619728,,,
imu,214.039563,-0.3559009160000001,-9.706823638400001,1.8447032352,0.6954601,2.22760917,-3.84779677,,,
imu,214.048065,-0.3666676664,-9.688879054400001,1.8411143184,0.66555246,2.18274771,-3.83284295,,,
imu,214.056567,-0.391790084,-9.7128051664,1.85427368,0.6132140899999999,2.09302479,-3.73564312,,,
imu,214.065069,-0.4073420568000001,-9.744507264800001,1.8590589024,0.53096808,2.26499372,-3.33936689,,,
imu,214.073572,-0.4181088072000001,-9.743909112,1.8566662912,0.41881443,2.38462428,-3.10758268,,,
imu,214.082074,-0.4282774048000001,-9.734936820000001,1.8566662912,0.42629134,2.61640849,-2.8982292,,,
imu,214.090576,-0.4300718632,-9.7283571392,1.8626478192,0.5010604399999999,2.87062343,-2.87579847,,,
imu,214.099078,-0.4133235848,-9.730749750400001,1.8339364848,0.73284465,3.10988455,-2.96552139,,,
imu,214.10758,-0.3995660704000001,-9.7086180968,1.8417124712,0.7253677399999999,3.35662258,-3.11505959,,,
imu,214.116083,-0.3804251808,-9.699047652,1.830347568,0.76275229,3.54354533,-3.35432071,,,
imu,214.12449,-0.3576953744,-9.693664276800002,1.8279549568,0.77770611,3.63326825,-3.41413599,,,
imu,214.132898,-0.3271895816000001,-9.692467971200001,1.8106085256,0.9571519499999999,3.91739083,-3.37675144,,,
imu,214.141305,-0.2984782472,-9.684093832000002,1.8189826648,1.03192105,3.93234465,-3.48142818,,,
imu,214.149713,-0.3026653168,-9.7163940832,1.821375276,1.01696723,3.78280645,-3.59358183,,,
imu,214.158121,-0.2895059552,-9.731946056000002,1.8261604984,1.09921324,3.55849915,-3.63844329,,,
imu,214.166528,-0.3020671640000001,-9.7576666264,1.8327401792,0.8674290299999999,3.23699202,-3.57862801,,,
imu,214.174936,-0.3194135952000001,-9.7702278352,1.8476939992,0.8524752099999999,2.98277708,-3.42908981,,,
imu,214.183343,-0.3283858872000001,-9.7809945856,1.8405161656,0.8524752099999999,2.79585433,-3.26459779,,,
imu,214.191751,-0.3391526376000001,-9.767237071200002,1.8339364848,0.7253677399999999,2.67622377,-3.09262886,,,
imu,214.200159,-0.3582935272000001,-9.763050001600002,1.8267586512,0.56835263,2.66126995,-3.07767504,,,
imu,214.208566,-0.3606861384,-9.7474980288,1.8231697344,0.5459219,2.63136231,-2.95056757,,,
imu,214.216974,-0.3451341656,-9.748096181600001,1.8249641928,0.3739529699999999,2.71360832,-2.91318302,,,
imu,214.225381,-0.352910152,-9.760059237600002,1.8231697344,0.4711528,3.01268472,-2.89075229,,,
imu,214.233789,-0.3463304712,-9.752283251200002,1.8237678872,0.2468455,3.15474601,-2.83093701,,,
imu,214.242197,-0.3253951232,-9.748096181600001,1.8291512624,0.41133752,3.26689966,-2.84589083,,,
imu,214.250604,-0.3253951232,-9.7492924872,1.8351327904,0.25432241,3.2968073,-3.15992105,,,
imu,214.259012,-0.3182172896000001,-9.727758986400001,1.8345346376,0.18703022,3.34914567,-3.30198234,,,
imu,214.267419,-0.2978800944000001,-9.711608860800002,1.8285531096,0.19450713,3.3715764,-3.4216129,,,
imu,214.275827,-0.2907022608000001,-9.7217774584,1.833338332,0.25432241,3.18465365,-3.52628964,,,
imu,214.284234,-0.2930948720000001,-9.7128051664,1.8291512624,0.23936859,3.13231528,-3.60105874,,,
imu,212.880115,,,,,,,-85.6945548,180.782498,117.903256
imu,212.981678,,,,,,,-86.0485636,180.6726332,117.84222
imu,213.08324,,,,,,,-83.6437452,179.3298412,116.5360496
imu,213.184955,,,,,,,-85.9142844,180.59939,117.9398776
imu,213.286487,,,,,,,-83.8268532,180.1843452,116.0843832
imu,213.387958,,,,,,,-85.88987000000002,180.7580836,117.4882112
imu,213.48949,,,,,,,-85.7800052,180.7580836,115.8158248
imu,213.591083,,,,,,,-86.36595080000001,181.0510564,118.7943816
imu,214.292642,-0.2853188856,-9.7217774584,1.8321420264,0.42629134,3.05006927,-3.66835093,,,
imu,214.30105,-0.3026653168,-9.734936820000001,1.8369272488,0.49358353,2.89305416,-3.62348947,,,
imu,214.309457,-0.3086468448,-9.7474980288,1.8470958464,0.52349117,2.81828506,-3.56367419,,,
imu,214.317865,-0.3086468448,-9.745105417600001,1.8524792216,0.29170696,2.7734236,-3.48142818,,,
imu,214.326673,-0.3128339144,-9.745105417600001,1.8530773744,0.30666078,2.79585433,-3.37675144,,,
imu,214.33548,-0.3170209840000001,-9.744507264800001,1.8435069296,0.23189168,2.82576197,-3.4216129,,,
imu,214.344288,-0.3152265256,-9.704431027200002,1.8441050824,0.14216876,2.81828506,-3.44404363,,,
imu,214.353095,-0.3092449976000001,-9.6984494992,1.845301388,0.11226112,2.85566961,-3.46647436,,,
imu,214.361903,-0.3134320672,-9.70502918,1.8339364848,0.07487657,2.93043871,-3.48142818,,,
imu,214.370711,-0.3146283728000001,-9.6984494992,1.8387217072,0.27675314,2.75099287,-3.62348947,,,
imu,214.379518,-0.3182172896000001,-9.6912716656,1.8429087768,0.41133752,2.70613141,-3.54872037,,,
imu,214.388326,-0.320011748,-9.694860582400002,1.82436604,0.58330645,2.55659321,-3.54124346,,,
imu,214.397134,-0.3289840400000001,-9.700243957600001,1.8201789704,0.67302937,2.55659321,-3.60105874,,,
imu,214.405941,-0.3355637208,-9.7151977776,1.8177863592,0.82256757,2.54163939,-3.70573548,,,
imu,214.414749,-0.3385544848000001,-9.725964528,1.8261604984,1.17398234,2.56407012,-3.63844329,,,
imu,214.423557,-0.3355637208,-9.7576666264,1.8231697344,1.31604363,2.58650085,-3.58610492,,,
imu,214.432364,-0.3582935272000001,-9.7702278352,1.8267586512,1.28613599,2.59397776,-3.7206893,,,
imu,214.441172,-0.3505175408000001,-9.789368724800001,1.836329096,1.07678251,2.6238854,-3.73564312,,,
imu,214.449979,-0.3535083048,-9.803126239200001,1.8506847632,0.8749059399999999,2.68370068,-3.71321239,,,
imu,214.458787,-0.3451341656,-9.8043225448,1.842310624,0.45619898,2.75099287,-3.65339711,,,
imu,214.467595,-0.3415452488,-9.7923594888,1.8285531096,0.3216146,2.93043871,-3.30198234,,,
imu,214.476402,-0.331974804,-9.7750130576,1.82436604,-0.0522309,2.91548489,-3.3468438,,,
imu,214.48521,-0.3265914288,-9.762451848800001,1.8159919008,-0.32139966,2.99025399,-3.30945925,,,
imu,214.494018,-0.3194135952000001,-9.746301723200002,1.8291512624,-0.37373803,2.84071579,-3.22721324,,,
imu,214.502825,-0.3277877344,-9.706823638400001,1.8219734288,-0.38869185,2.6986545,-3.38422835,,,
imu,214.511633,-0.3355637208,-9.672728928800002,1.818384512,-0.29149202,2.5491163,-3.54872037,,,
imu,214.520441,-0.3421434016,-9.680504915200002,1.8112066784,-0.18681528,2.4743472,-3.76555076,,,
imu,214.528921,-0.3553027632,-9.6918698184,1.821375276,-0.007369440000000005,2.40705501,-3.82536604,,,
imu,214.537401,-0.3810233336,-9.7008421104,1.82436604,-0.05970781,2.37714737,-3.93751969,,,
imu,214.545881,-0.3929863896,-9.711010708000002,1.8381235544,0.04496892999999999,2.46687029,-3.84779677,,,
imu,214.554361,-0.3935845424,-9.746899876,1.8309457208,0.05992275,2.56407012,-3.53376655,,,
imu,214.562841,-0.3971734592000001,-9.766040765600001,1.8411143184,0.18703022,2.78837742,-3.10758268,,,
imu,214.571321,-0.3846122504,-9.762451848800001,1.8411143184,0.41881443,2.94539253,-2.65149117,,,
imu,214.579801,-0.367863972,-9.760059237600002,1.8399180128,0.53096808,3.2220382,-2.50942988,,,
imu,214.588281,-0.3511156936,-9.763050001600002,1.8357309432,0.28423005,3.40896095,-2.68887572,,,
imu,214.596761,-0.3283858872000001,-9.755872168000002,1.8130011368,0.14216876,3.49120696,-2.89075229,,,
imu,214.605241,-0.296085636,-9.7337405144,1.821375276,0.04496892999999999,3.34166876,-3.03281358,,,
imu,214.613721,-0.2817299688000001,-9.706225485600001,1.8028325392,0.1720764,3.21456129,-3.23469015,,,
imu,214.622201,-0.2745521352,-9.6876827488,1.8058233032,0.16459949,3.13979219,-3.42908981,,,
imu,214.630682,-0.2781410520000001,-9.702038416,1.8219734288,0.11226112,2.91548489,-3.48142818,,,
imu,214.639162,-0.2691687600000001,-9.725366375200002,1.8345346376,0.18703022,2.63883922,-3.45152054,,,
imu,214.647642,-0.2889078024000001,-9.724170069600001,1.830347568,0.14964567,2.35471664,-3.33936689,,,
imu,214.656122,-0.2907022608000001,-9.727160833600001,1.8339364848,0.26179932,2.19770153,-3.10758268,,,
imu,214.664602,-0.3038616224,-9.710412555200001,1.83931986,0.19450713,2.06311715,-3.07019813,,,
imu,214.673082,-0.3206099008000001,-9.7122070136,1.833338332,0.12721494,1.99582496,-3.10010577,,,
imu,214.681562,-0.3385544848000001,-9.709216249600003,1.8351327904,0.14216876,2.05564024,-3.08515195,,,
imu,214.690042,-0.3331711096,-9.711608860800002,1.8309457208,0.27675314,2.13040934,-3.06272122,,,
imu,214.698522,-0.3403489432000001,-9.717590388800001,1.8405161656,0.35152224,2.14536316,-3.1225365,,,
imu,214.706944,-0.3397507904000001,-9.7331423616,1.845301388,0.3216146,2.36967046,-3.20478251,,,
imu,214.715424,-0.3307784984000001,-9.742114653600002,1.8411143184,0.19450713,2.53416248,-3.47395127,,,
imu,214.723904,-0.320011748,-9.731347903200001,1.8470958464,0.31413769,2.61640849,-3.55619728,,,
imu,214.732363,-0.3020671640000001,-9.744507264800001,1.8500866104,0.41881443,2.71360832,-3.63096638,,,
imu,214.740821,-0.2930948720000001,-9.746301723200002,1.8464976936,0.43376825,2.6986545,-3.69825857,,,
imu,214.74928,-0.287113344,-9.761853696000001,1.8638441248,0.34404533,2.58650085,-3.65339711,,,
imu,214.757738,-0.2895059552,-9.755274015200001,1.8608533608,0.21693786,2.46687029,-3.59358183,,,
imu,214.766197,-0.2799355104,-9.743310959200002,1.8614515136,0.30666078,2.56407012,-3.45152054,,,
imu,214.774655,-0.2823281216,-9.7301515976,1.860255208,0.3216146,2.48930102,-3.39170526,,,
imu,214.783114,-0.2805336632,-9.725964528,1.8656385832,0.29918387,2.38462428,-3.28702852,,,
imu,214.791572,-0.2865151912,-9.718188541600002,1.8590589024,0.31413769,2.33228591,-3.25712088,,,
imu,214.80003,-0.3092449976000001,-9.715795930400002,1.8620496664,0.22441477,2.03320951,-3.40665908,,,
imu,214.808489,-0.3152265256,-9.699047652,1.8596570552,0.29918387,1.88367131,-3.52628964,,,
imu,214.816947,-0.3206099008000001,-9.703832874400002,1.8566662912,0.26927623,1.82385603,-3.68330475,,,
imu,214.825406,-0.3481249296000001,-9.704431027200002,1.8680311944,0.31413769,1.92853277,-3.41413599,,,
imu,214.833864,-0.3481249296000001,-9.710412555200001,1.8566662912,0.31413769,2.0257326,-3.13001341,,,
imu,214.842323,-0.3582935272000001,-9.706225485600001,1.8458995408,0.70293701,2.30237827,-2.87579847,,,
imu,214.850781,-0.3457323184,-9.704431027200002,1.8321420264,0.77770611,2.46687029,-3.02533667,,,
imu,214.85924,-0.3463304712,-9.721179305600002,1.8285531096,0.81509066,2.64631613,-3.21225942,,,
imu,214.867698,-0.3391526376000001,-9.697253193600002,1.8219734288,0.9048135799999999,2.65379304,-3.31693616,,,
imu,214.876157,-0.3361618736,-9.706823638400001,1.8267586512,1.00949032,2.73603905,-3.47395127,,,
imu,214.884615,-0.3391526376000001,-9.714599624800002,1.8321420264,1.06182869,2.78837742,-3.67582784,,,
imu,214.893073,-0.3391526376000001,-9.724170069600001,1.8267586512,1.1440747,2.76594669,-3.70573548,,,
imu,214.901532,-0.3433397072,-9.743909112,1.8405161656,0.8449983,2.69117759,-3.72816621,,,
imu,214.90999,-0.3325729568,-9.744507264800001,1.8291512624,0.60573718,2.65379304,-3.65339711,,,
imu,214.918449,-0.3277877344,-9.739722042400002,1.8177863592,0.80761375,2.75099287,-3.27955161,,,
imu,214.926907,-0.3224043592,-9.724170069600001,1.8147955952,0.79265993,2.61640849,-3.10758268,,,
imu,214.935356,-0.3295821928000001,-9.741516500800001,1.8201789704,0.7552753799999999,2.66874686,-3.03281358,,,
imu,214.943804,-0.3271895816000001,-9.7427128064,1.8195808176,0.71789083,2.5491163,-2.95056757,,,
imu,214.952253,-0.3337692624,-9.746301723200002,1.8147955952,0.8524752099999999,2.6238854,-2.80102937,,,
imu,214.960701,-0.3403489432000001,-9.755274015200001,1.8207771232,0.80013684,2.59397776,-2.86084465,,,
imu,214.96915,-0.3301803456000001,-9.760059237600002,1.8159919008,0.60573718,2.64631613,-3.05524431,,,
imu,214.977598,-0.3271895816000001,-9.758264779200001,1.8171882064,0.53096808,2.51173175,-3.07019813,,,
imu,214.986047,-0.3283858872000001,-9.768433376800001,1.8195808176,0.620691,2.55659321,-3.01785976,,,
imu,214.994495,-0.3361618736,-9.7540777096,1.8130011368,0.43376825,2.6986545,-3.05524431,,,
imu,215.002944,-0.3236006648,-9.745703570400002,1.8207771232,0.32909151,2.69117759,-3.16739796,,,
imu,215.011392,-0.3068523864000001,-9.755872168000002,1.8141974424,0.25432241,2.72856214,-3.13749032,,,
imu,215.019841,-0.296085636,-9.7570684736,1.8141974424,0.3216146,2.96034635,-3.14496723,,,
imu,215.028289,-0.2978800944000001,-9.735534972800002,1.8189826648,0.23189168,2.93043871,-3.13001341,,,
imu,215.036738,-0.2817299688000001,-9.727758986400001,1.8171882064,0.2468455,2.68370068,-3.26459779,,,
imu,215.045186,-0.281131816,-9.727160833600001,1.8141974424,0.31413769,2.67622377,-3.22721324,,,
imu,215.053635,-0.2745521352,-9.719983000000001,1.8147955952,0.35899915,2.6238854,-3.36927453,,,
imu,215.062083,-0.2865151912,-9.709814402400001,1.8040288448,0.20198404,2.45191647,-3.45152054,,,
imu,215.070532,-0.2775428992,-9.731946056000002,1.8177863592,0.06739966,2.23508608,-3.36927453,,,
imu,215.07898,-0.2763465936,-9.725964528,1.8225715816,0.19450713,2.29490136,-3.28702852,,,
imu,215.087429,-0.2829262744000001,-9.7265626808,1.8321420264,0.1720764,2.12293243,-3.2720747,,,
imu,215.095877,-0.3062542336,-9.749890640000002,1.8309457208,0.08983038999999998,2.00330187,-3.23469015,,,
imu,215.104326,-0.3056560808,-9.7504887928,1.8447032352,0.01506129,2.01825569,-3.32441307,,,
imu,213.692657,,,,,,,-85.8044196,180.9167772,118.4769944
imu,213.794097,,,,,,,-85.96311320000001,180.8191196,117.8544272
imu,213.89569,,,,,,,-86.02414920000001,181.1975428,117.4637968
imu,213.997222,,,,,,,-86.2072572,180.7702908,117.781184
imu,214.106597,,,,,,,-83.6071236,180.3064172,115.9012752
imu,214.208221,,,,,,,-85.82883400000001,181.2341644,117.23186
imu,214.309997,,,,,,,-83.814646,179.927994,115.950104
imu,214.411315,,,,,,,-86.2316716,180.6970476,118.1718144
imu,215.112774,-0.3182172896000001,-9.7427128064,1.8411143184,-0.06718472,2.09302479,-3.4216129,,,
imu,215.121222,-0.3146283728000001,-9.742114653600002,1.8381235544,0.06739966,2.14536316,-3.39170526,,,
imu,215.129671,-0.3116376088,-9.746899876,1.8590589024,0.07487657,2.33976282,-3.40665908,,,
imu,215.138119,-0.3277877344,-9.7301515976,1.8297494152,-0.01484635000000001,2.37714737,-3.48142818,,,
imu,215.146928,-0.3032634696000001,-9.6799067624,1.8429087768,0.10478421,2.51920866,-3.53376655,,,
imu,215.155737,-0.3212080536,-9.7151977776,1.8345346376,0.02253820000000001,2.53416248,-3.55619728,,,
imu,215.164546,-0.2895059552,-9.702038416,1.8291512624,0.11226112,2.45939338,-3.45152054,,,
imu,215.173355,-0.2679724544000001,-9.690075360000002,1.8279549568,0.3216146,2.44443956,-3.55619728,,,
imu,215.182164,-0.266177996,-9.708019944000002,1.836329096,0.46367589,2.44443956,-3.41413599,,,
imu,215.190973,-0.2685706072,-9.725366375200002,1.8327401792,0.52349117,2.33228591,-3.53376655,,,
imu,215.199782,-0.263187232,-9.7534795568,1.8614515136,0.68798319,2.15284007,-3.60853565,,,
imu,215.208591,-0.2787392048,-9.773816752000002,1.8692275,0.67302937,1.99582496,-3.60105874,,,
imu,215.2174,-0.290104108,-9.7989391696,1.8650404304,0.5982602699999999,1.89862513,-3.69825857,,,
imu,215.226209,-0.3122357616,-9.767237071200002,1.8638441248,0.3963837,1.86124058,-3.69078166,,,
imu,215.235018,-0.3104413032000001,-9.748694334400001,1.8644422776,0.17955331,1.76404075,-3.60853565,,,
imu,215.243827,-0.3391526376000001,-9.748694334400001,1.8620496664,0.03001510999999998,1.77899457,-3.4216129,,,
imu,215.252636,-0.3487230824000001,-9.739123889600002,1.8584607496,-0.28401511,1.83133294,-3.4216129,,,
imu,215.261445,-0.3469286240000001,-9.692467971200001,1.8566662912,-0.41859949,1.94348659,-3.46647436,,,
imu,215.270254,-0.3564990688,-9.703234721600001,1.8638441248,-0.26906129,2.14536316,-3.52628964,,,
imu,215.279063,-0.34393786,-9.709216249600003,1.857264444,-0.34383039,2.36219355,-3.51133582,,,
imu,215.287872,-0.3505175408000001,-9.688879054400001,1.8524792216,-0.32887657,2.31733209,-3.62348947,,,
imu,215.296681,-0.3307784984000001,-9.7008421104,1.857264444,-0.17186146,2.45191647,-3.5711511,,,
imu,215.30549,-0.3391526376000001,-9.714001472000001,1.8554699856,-0.17186146,2.48182411,-3.45899745,,,
imu,215.314299,-0.3170209840000001,-9.722973764,1.8596570552,0.16459949,2.75099287,-3.14496723,,,
imu,215.323108,-0.3134320672,-9.7361331256,1.8530773744,0.44872207,2.88557725,-3.06272122,,,
imu,215.331917,-0.2954874832,-9.743310959200002,1.8578625968,0.58330645,2.83323888,-3.06272122,,,
imu,215.340726,-0.2847207328,-9.7403201952,1.8506847632,0.82256757,2.79585433,-3.24964397,,,
imu,215.34924,-0.263187232,-9.7474980288,1.8441050824,1.01696723,2.73603905,-3.4216129,,,
imu,215.357754,-0.2578038568000001,-9.7504887928,1.8327401792,0.9048135799999999,2.51173175,-3.72816621,,,
imu,215.366269,-0.2595983152,-9.742114653600002,1.8189826648,0.8449983,2.29490136,-3.81041222,,,
imu,215.374783,-0.2649816904,-9.718786694400002,1.815393748,0.88985976,2.21265535,-3.7206893,,,
imu,215.383298,-0.275150288,-9.7265626808,1.818384512,0.68798319,1.98834805,-3.77302767,,,
imu,215.391812,-0.275150288,-9.739123889600002,1.8177863592,0.58330645,1.84628676,-3.70573548,,,
imu,215.400326,-0.2990764,-9.744507264800001,1.8100103728,0.5010604399999999,1.62945637,-3.66087402,,,
imu,215.408841,-0.3158246784000001,-9.7295534448,1.8141974424,0.20198404,1.38271834,-3.77302767,,,
imu,215.417355,-0.3277877344,-9.725964528,1.821375276,0.28423005,1.33037997,-3.7206893,,,
imu,215.42587,-0.3451341656,-9.7217774584,1.8147955952,0.08235347999999998,1.39767216,-3.63844329,,,
imu,215.434384,-0.361882444,-9.7283571392,1.8177863592,-0.04475399000000001,1.47244126,-3.66087402,,,
imu,215.442899,-0.3756399584,-9.731946056000002,1.8291512624,0.06739966,1.54721036,-3.56367419,,,
imu,215.451413,-0.3905937784,-9.7331423616,1.8351327904,0.01506129,1.6518871,-3.42908981,,,
imu,215.459927,-0.3893974728000001,-9.7361331256,1.8488903048,-0.21672292,2.00330187,-3.53376655,,,
imu,215.468442,-0.382817792,-9.734936820000001,1.8441050824,-0.13447691,2.45191647,-3.60105874,,,
imu,215.476956,-0.3630787496,-9.708019944000002,1.842310624,-0.007369440000000005,2.53416248,-3.61601256,,,
imu,215.485471,-0.3373581792000001,-9.731946056000002,1.8399180128,0.007584380000000002,2.6238854,-3.69078166,,,
imu,215.493985,-0.3295821928000001,-9.7474980288,1.8411143184,0.22441477,2.87810034,-3.69825857,,,
imu,215.502499,-0.3128339144,-9.7474980288,1.8518810688,0.35899915,2.98277708,-3.81788913,,,
imu,215.511014,-0.2930948720000001,-9.764246307200002,1.8435069296,0.41881443,2.90800798,-3.76555076,,,
imu,215.519528,-0.2787392048,-9.763050001600002,1.8500866104,0.41881443,2.65379304,-3.81041222,,,
imu,215.528043,-0.2697669128,-9.7540777096,1.8686293472,0.2468455,2.57154703,-3.69078166,,,
imu,215.536557,-0.2685706072,-9.758862932000001,1.8776016392,0.29170696,2.51173175,-3.35432071,,,
imu,215.545071,-0.2715613712,-9.770825988000002,1.8734145696,0.03749201999999999,2.33976282,-3.33188998,,,
imu,215.553501,-0.2936930248,-9.76484446,1.8853776256,-0.21672292,1.98834805,-3.54872037,,,
imu,215.56193,-0.3116376088,-9.743909112,1.8776016392,-0.36626112,1.89862513,-3.66835093,,,
imu,215.570359,-0.3403489432000001,-9.7337405144,1.887172084,-0.5307531400000001,1.7266562,-3.52628964,,,
imu,215.578788,-0.352910152,-9.7283571392,1.8758071808,-0.55318387,1.80890221,-3.27955161,,,
imu,215.587217,-0.3654713608,-9.711608860800002,1.881190556,-0.6279529699999999,2.01825569,-3.21225942,,,
imu,215.595647,-0.3744436528,-9.7008421104,1.8776016392,-0.69524516,2.13040934,-3.24216706,,,
imu,215.604076,-0.3654713608,-9.6984494992,1.8704238056,-0.48589168,2.1752708,-3.47395127,,,
imu,215.612505,-0.3594898328000001,-9.6775141512,1.88418132,-0.34383039,2.45939338,-3.496382,,,
imu,215.620934,-0.3481249296000001,-9.676317845600002,1.8758071808,-0.15690764,2.57902394,-3.45152054,,,
imu,215.629363,-0.3301803456000001,-9.6775141512,1.8746108752,-0.0522309,2.60893158,-3.60853565,,,
imu,215.637793,-0.3331711096,-9.675121540000001,1.8740127224,0.0001074699999999984,2.71360832,-3.57862801,,,
imu,215.646222,-0.3188154424,-9.6709344704,1.8776016392,0.1720764,2.76594669,-3.47395127,,,
imu,215.654651,-0.311039456,-9.672728928800002,1.8608533608,0.42629134,2.7734236,-3.33188998,,,
imu,215.66308,-0.3026653168,-9.676915998400002,1.863245972,0.7104139199999999,2.72108523,-3.1973056,,,
imu,215.671509,-0.2954874832,-9.7056273328,1.8728164168,0.82256757,2.60145467,-3.20478251,,,
imu,215.679939,-0.3014690112,-9.7151977776,1.8704238056,0.88985976,2.42200883,-3.30945925,,,
imu,215.688368,-0.3128339144,-9.725366375200002,1.863245972,0.80013684,2.324809,-3.26459779,,,
imu,215.696797,-0.3224043592,-9.722375611200002,1.8883683896,0.9048135799999999,2.29490136,-3.08515195,,,
imu,215.705226,-0.3277877344,-9.721179305600002,1.8776016392,0.85995212,2.24256299,-3.05524431,,,
imu,215.713656,-0.3212080536,-9.725964528,1.8764053336,0.8674290299999999,2.37714737,-3.15244414,,,
imu,215.722085,-0.3361618736,-9.716992236000001,1.8680311944,0.74779847,2.38462428,-3.25712088,,,
imu,215.730514,-0.3433397072,-9.709216249600003,1.8799942504,0.66555246,2.22760917,-3.39170526,,,
imu,215.738943,-0.3415452488,-9.718188541600002,1.8758071808,0.68798319,2.26499372,-3.44404363,,,
imu,215.747372,-0.334965568,-9.734338667200001,1.878199792,0.70293701,2.33976282,-3.29450543,,,
imu,215.755831,-0.340947096,-9.743310959200002,1.8793960976,0.68050628,2.36219355,-3.27955161,,,
imu,215.764289,-0.3385544848000001,-9.737927584000001,1.8799942504,0.8524752099999999,2.45939338,-3.13749032,,,
imu,215.772748,-0.3493212352000001,-9.730749750400001,1.8787979448,0.9347212199999999,2.60893158,-3.1225365,,,
imu,215.781206,-0.34393786,-9.727160833600001,1.8776016392,0.9945364999999999,2.6986545,-3.01785976,,,
imu,215.789665,-0.323002512,-9.737329431200001,1.8829850144,0.9870595899999999,2.66874686,-3.07767504,,,
imu,215.798285,-0.3152265256,-9.748096181600001,1.8668348888,1.00201341,2.78837742,-3.11505959,,,
imu,215.806744,-0.3020671640000001,-9.7074217912,1.8578625968,0.8674290299999999,2.78837742,-3.30198234,,,
imu,215.815202,-0.3044597752,-9.676317845600002,1.8441050824,0.94219813,2.85566961,-3.39918217,,,
imu,215.823661,-0.2865151912,-9.682897526400001,1.8309457208,1.06182869,2.75846978,-3.56367419,,,
imu,215.832119,-0.28412258,-9.685888290400001,1.8261604984,1.30108981,2.79585433,-3.52628964,,,
imu,215.840578,-0.2685706072,-9.711608860800002,1.8321420264,1.57025857,2.6238854,-3.50385891,,,
imu,215.849036,-0.2703650656,-9.727758986400001,1.8417124712,1.51044329,2.51920866,-3.62348947,,,
imu,215.857494,-0.2667761488000001,-9.755872168000002,1.8249641928,1.46558183,2.324809,-3.63096638,,,
imu,215.865953,-0.2853188856,-9.7534795568,1.8279549568,1.33847436,2.06311715,-3.63096638,,,
imu,215.874411,-0.2990764,-9.777405668800002,1.833338332,1.27118217,1.89862513,-3.50385891,,,
imu,215.88287,-0.3164228312,-9.797742864000002,1.8237678872,1.0693056,1.86124058,-3.45152054,,,
imu,215.891328,-0.3247969704000001,-9.752881404000002,1.800439928,0.83004448,1.73413311,-3.37675144,,,
imu,215.899787,-0.3403489432000001,-9.7074217912,1.8112066784,0.8674290299999999,1.68927165,-3.24964397,,,
imu,215.908245,-0.3427415544,-9.743909112,1.8231697344,1.03192105,1.8014253,-3.05524431,,,
imu,215.916704,-0.3343674152,-9.724768222400002,1.82436604,1.05435178,1.92853277,-2.94309066,,,
imu,215.925162,-0.3415452488,-9.7510869456,1.821375276,1.12164397,2.08554788,-3.03281358,,,
imu,214.512847,,,,,,,-86.3293292,180.9167772,116.4750136
imu,214.61441,,,,,,,-87.06176119999999,180.7336692,117.6713192
imu,214.716033,,,,,,,-86.36595080000001,181.1365068,118.0131208
imu,214.817535,,,,,,,-86.439194,181.0632636,118.2450576
imu,214.919097,,,,,,,-86.1095996,181.6247948,118.2328504
imu,215.02069,,,,,,,-86.1706356,181.0998852,118.1962288
imu,215.130035,,,,,,,-86.2927076,180.6115972,118.3427152
imu,215.231811,,,,,,,-83.77802439999999,180.660426,116.1454192
imu,215.933621,-0.3559009160000001,-9.722973764,1.80941222,1.17398234,2.20517844,-2.87579847,,,
imu,215.942079,-0.3182172896000001,-9.88447502,1.8530773744,1.03192105,2.4743472,-2.89075229,,,
imu,215.950537,-0.3313766512,-9.6296619272,1.7573729264,0.6954601,2.6238854,-2.90570611,,,
imu,215.959001,-0.281131816,-9.7504887928,1.8291512624,0.74779847,2.73603905,-3.06272122,,,
imu,215.967465,-0.3451341656,-9.891054700800002,1.8231697344,0.63564482,2.66126995,-3.39170526,,,
imu,215.975928,-0.3331711096,-9.8479876992,1.8106085256,0.3216146,2.76594669,-3.53376655,,,
imu,215.984392,-0.3164228312,-9.858754449600001,1.8058233032,-0.28401511,2.97530017,-3.63844329,,,
imu,215.992855,-0.3038616224,-9.876699033600001,1.7866824136,-0.69524516,3.09493073,-3.63844329,,,
imu,216.001319,-0.2978800944000001,-9.878493492,1.7812990384,-1.29339796,3.19213056,-3.54872037,,,
imu,216.009782,-0.2823281216,-9.876699033600001,1.7956547056,-1.74948947,3.19213056,-3.29450543,,,
imu,216.018246,-0.2817299688000001,-9.865932283200001,1.7717285936,-2.33268845,3.15474601,-3.1973056,,,
imu,216.026709,-0.2745521352,-9.808509614400002,1.761559996,-2.60185721,3.12483837,-3.01785976,,,
imu,216.035173,-0.2643835376,-9.7780038216,1.752587704,-2.69905704,2.93043871,-3.10010577,,,
imu,216.043636,-0.245242648,-9.758264779200001,1.7478024816,-2.63176485,2.80333124,-3.35432071,,,
imu,216.0521,-0.2637853848,-9.7056273328,1.7603636904,-2.77382614,2.44443956,-3.68330475,,,
imu,216.060564,-0.2691687600000001,-9.685290137600001,1.7597655376,-2.58690339,2.13040934,-3.91508896,,,
imu,216.069027,-0.2895059552,-9.647606511200001,1.7567747736,-2.25044244,1.83133294,-4.04219643,,,
imu,216.077491,-0.3080486920000001,-9.612315496,1.7669433712,-2.07847351,1.71917929,-4.012288789999999,,,
imu,216.085954,-0.320011748,-9.6117173432,1.797449164,-1.7719202,1.69674856,-4.11696553,,,
imu,216.094418,-0.3325729568,-9.685888290400001,1.8279549568,-1.33825942,1.76404075,-4.02724261,,,
imu,216.102881,-0.3361618736,-9.631456385600002,1.8237678872,-1.30087487,1.80890221,-3.87770441,,,
imu,216.111345,-0.3158246784000001,-9.652989886400002,1.9128926544,-1.30087487,1.8014253,-4.15435008,,,
imu,216.119808,-0.3553027632,-9.8132948368,1.970913476,-1.0989983,1.79394839,-4.0945348,,,
imu,216.128272,-0.3756399584,-9.819276364800002,1.955959656,-1.48779762,1.83880985,-4.0197657,,,
imu,216.136735,-0.3774344168000001,-9.785779808000001,1.9942414352,-1.87659694,1.98087114,-3.85527368,,,
imu,216.145199,-0.415716196,-9.755872168000002,2.0109897136,-2.40745755,2.19770153,-3.7954584,,,
imu,216.153662,-0.4145198904,-9.742114653600002,2.00381188,-2.84859524,2.45191647,-3.8702275,,,
imu,216.162479,-0.4270810992000001,-9.702636568800001,1.9990266576,-2.92336434,2.76594669,-3.68330475,,,
imu,216.171296,-0.4593813504000001,-9.6703363176,1.9954377408,-2.82616451,3.22951511,-3.45899745,,,
imu,216.180113,-0.4360533912000001,-9.6535880392,1.9984285048,-2.56447266,3.73794499,-3.27955161,,,
imu,216.18893,-0.415716196,-9.620091482400001,2.0193638528,-2.16071952,4.194036499999999,-3.24964397,,,
imu,216.197747,-0.3714528888,-9.6733270816,2.0522622568,-1.76444329,4.58283582,-3.11505959,,,
imu,216.206564,-0.3289840400000001,-9.685290137600001,2.0570474792,-1.68219728,4.784712389999999,-3.22721324,,,
imu,216.215381,-0.287113344,-9.587193078400002,2.0205601584,-1.28592105,4.87443531,-3.14496723,,,
imu,216.224198,-0.2625890792,-9.5447242296,2.0414955064,-0.98684465,4.694989469999999,-3.43656672,,,
imu,216.233015,-0.2398592728,-9.616502565600001,2.0331213672,-0.67281443,4.51554363,-3.1973056,,,
imu,216.241832,-0.2284943696,-9.639830524800002,2.0331213672,-0.3513073,4.216467229999999,-3.00290594,,,
imu,216.250649,-0.2249054528,-9.617698871200002,2.024747228,-0.10456927,3.76037572,-3.00290594,,,
imu,216.259466,-0.2356722032,-9.655382497600002,2.0534585624,-0.0522309,3.10240764,-3.13749032,,,
imu,216.268283,-0.260196468,-9.673925234400002,2.042691812,0.11973803,2.74351596,-2.88327538,,,
imu,216.277099,-0.2691687600000001,-9.678112304,2.031326908800001,0.14216876,2.43696265,-2.6739219,,,
imu,216.285916,-0.2918985664000001,-9.6745233872,2.0175693944,0.36647606,2.30985518,-2.24773803,,,
imu,216.294733,-0.3062542336,-9.689477207200001,2.0325232144,0.53844499,2.23508608,-1.8514618,,,
imu,215.333241,,,,,,,-85.8654556,181.1365068,117.8666344
imu,215.434987,,,,,,,-83.570502,180.7458764,115.6815456
imu,215.536336,,,,,,,-86.84203159999998,181.0754708,117.9520848
imu,215.63799,,,,,,,-86.31712200000001,181.3196148,116.1454192
imu,215.739461,,,,,,,-85.7800052,181.4172724,118.208436
imu,215.841054,,,,,,,-85.9386988,181.6247948,118.6112736
imu,215.942586,,,,,,,-85.8166268,181.0754708,118.4281656
imu,216.044148,,,,,,,-85.7433836,181.0388492,118.391544
imu,216.145711,,,,,,,-86.02414920000001,181.087678,118.391544
imu,216.247273,,,,,,,-85.523654,181.270786,118.2450576
