Type,Timestamp,Data Accelerometer X,Data Accelerometer Y,Data Accelerometer Z,Data Gyroscope X,Data Gyroscope Y,Data Gyroscope Z,Data Magnetometer X,Data Magnetometer Y,Data Magnetometer Z
imu,445.538284,-0.2673743016,-9.7151977776,1.7460080232,0.43376825,3.01268472,-2.79355246,,,
imu,445.54715,-0.272159524,-9.714599624800002,1.7394283424,0.30666078,2.98277708,-2.86832156,,,
imu,445.556016,-0.2715613712,-9.714599624800002,1.7507932456,0.17955331,2.95286944,-2.89075229,,,
imu,445.564882,-0.2709632184,-9.709814402400001,1.7573729264,0.11226112,3.01268472,-2.92065993,,,
imu,445.573748,-0.2835244272,-9.710412555200001,1.74959694,0.0001074699999999984,3.07997691,-2.95056757,,,
imu,445.582176,-0.2727576768,-9.696655040800001,1.7501950928,0.21693786,3.19213056,-2.95056757,,,
imu,445.590604,-0.275150288,-9.702038416,1.7484006344,0.18703022,3.21456129,-3.01038285,,,
imu,445.599032,-0.2691687600000001,-9.7008421104,1.7394283424,0.06739966,3.27437657,-3.2720747,,,
imu,445.60746,-0.2595983152,-9.6876827488,1.7448117176,0.03749201999999999,3.16222292,-3.28702852,,,
imu,445.615888,-0.2566075512,-9.688280901600002,1.73464312,0.03749201999999999,3.19213056,-3.30198234,,,
imu,445.624316,-0.2518223288000001,-9.690075360000002,1.7418209536,0.20946095,3.17717674,-3.29450543,,,
imu,445.632744,-0.248233412,-9.688879054400001,1.7358394256,0.34404533,3.25194584,-3.2720747,,,
imu,445.641172,-0.2458408008,-9.6876827488,1.7382320368,0.56835263,3.20708438,-3.28702852,,,
imu,445.6496,-0.2494297176,-9.688879054400001,1.7472043288,0.49358353,3.07997691,-3.3468438,,,
imu,445.658028,-0.2464389536,-9.697851346400002,1.7442135648,0.43376825,2.88557725,-3.33188998,,,
imu,445.666456,-0.2524204816,-9.704431027200002,1.7472043288,0.56087572,2.87062343,-3.24216706,,,
imu,445.674884,-0.2578038568000001,-9.7008421104,1.7418209536,0.58330645,2.83323888,-3.20478251,,,
imu,445.683311,-0.2649816904,-9.709814402400001,1.7454098704,0.42629134,2.72856214,-3.13749032,,,
imu,445.691739,-0.2763465936,-9.717590388800001,1.7442135648,0.29918387,2.70613141,-3.08515195,,,
imu,445.700167,-0.2775428992,-9.709216249600003,1.7298578976,0.3963837,2.6238854,-2.99542903,,,
imu,445.708595,-0.2895059552,-9.7122070136,1.7484006344,0.36647606,2.64631613,-2.86832156,,,
imu,445.717023,-0.2942911776,-9.718188541600002,1.7334468144,0.20946095,2.6238854,-2.8982292,,,
imu,445.725451,-0.290104108,-9.7151977776,1.7292597448,0.31413769,2.57154703,-2.9729983,,,
imu,445.733879,-0.296085636,-9.7151977776,1.7364375784,0.3889067899999999,2.66126995,-2.8982292,,,
imu,445.742307,-0.2978800944000001,-9.722375611200002,1.716698536,0.23189168,2.71360832,-2.94309066,,,
imu,445.750735,-0.3068523864000001,-9.737927584000001,1.7244745224,0.30666078,2.76594669,-3.05524431,,,
imu,445.759163,-0.311039456,-9.7265626808,1.7202874528,0.30666078,2.87810034,-3.09262886,,,
imu,445.767591,-0.3128339144,-9.727160833600001,1.7232782168,0.34404533,2.82576197,-3.09262886,,,
imu,445.776019,-0.3176191368,-9.722973764,1.728661592,0.28423005,3.03511545,-3.07767504,,,
imu,445.784472,-0.3170209840000001,-9.7151977776,1.7172966888,0.17955331,3.06502309,-2.9729983,,,
imu,445.792926,-0.3158246784000001,-9.709216249600003,1.7214837584,0.13469185,3.12483837,-2.96552139,,,
imu,445.801379,-0.3134320672,-9.699047652,1.7190911472,0.15712258,3.20708438,-2.91318302,,,
imu,445.809832,-0.3038616224,-9.70502918,1.7119133136,0.03001510999999998,3.34914567,-2.9729983,,,
imu,445.818286,-0.2913004136,-9.688280901600002,1.707726244,-0.03727708,3.45382241,-2.92813684,,,
imu,445.826739,-0.287113344,-9.692467971200001,1.7113151608,0.13469185,3.49120696,-2.91318302,,,
imu,445.835192,-0.2829262744000001,-9.7151977776,1.716698536,-0.11204618,3.51363769,-2.91318302,,,
imu,445.843646,-0.2745521352,-9.7128051664,1.70473548,-0.007369440000000005,3.5211146,-2.8982292,,,
imu,445.852099,-0.275150288,-9.740918348000001,1.70473548,0.23936859,3.43886859,-2.81598319,,,
imu,445.860552,-0.2619909264,-9.7492924872,1.7131096192,0.05992275,3.57345297,-2.95804448,,,
imu,445.869006,-0.251224176,-9.748694334400001,1.7202874528,-0.05970781,3.61083752,-3.09262886,,,
imu,445.877459,-0.251224176,-9.766638918400002,1.7388301896,-0.07466163,3.60336061,-3.13001341,,,
imu,445.885913,-0.2338777448,-9.752881404000002,1.7292597448,-0.17933837,3.50616078,-3.26459779,,,
imu,445.894366,-0.227298064,-9.7474980288,1.7268671336,-0.3513073,3.34166876,-3.37675144,,,
imu,445.902819,-0.2368685088,-9.7337405144,1.7304560504,-0.47093786,3.22951511,-3.36179762,,,
imu,445.911273,-0.2380648144,-9.731946056000002,1.7298578976,-0.62047606,3.13231528,-3.39918217,,,
imu,445.919726,-0.2320832864,-9.7301515976,1.746606176,-0.77001426,2.8481927,-3.40665908,,,
imu,445.928179,-0.2440463424,-9.711608860800002,1.7352412728,-0.82982954,2.71360832,-3.33936689,,,
imu,445.936633,-0.2404574256,-9.706823638400001,1.74959694,-0.8821679099999999,2.52668557,-3.33188998,,,
imu,445.945086,-0.2524204816,-9.696056888000001,1.7621581488,-0.7401066199999999,2.3995781,-3.25712088,,,
imu,445.95354,-0.2667761488000001,-9.6954587352,1.7699341352,-0.71767589,2.22760917,-3.28702852,,,
imu,445.961993,-0.287113344,-9.7086180968,1.7783082744,-0.6279529699999999,2.10797861,-3.21973633,,,
imu,445.970446,-0.2978800944000001,-9.6954587352,1.7723267464,-0.58309151,2.20517844,-3.16739796,,,
imu,445.9789,-0.3122357616,-9.675719692800001,1.7669433712,-0.43355331,2.12293243,-3.06272122,,,
imu,445.987413,-0.3379563320000001,-9.6733270816,1.7603636904,-0.40364567,2.04816333,-2.9729983,,,
imu,445.995926,-0.3636769024000001,-9.658971414400002,1.7639526072,-0.2765382,2.15284007,-3.03281358,,,
imu,446.004439,-0.3660695136000001,-9.657775108800001,1.7723267464,-0.47841477,2.39210119,-2.89075229,,,
imu,446.012952,-0.3744436528,-9.672130776000001,1.7472043288,-0.09709236,2.66126995,-2.56924516,,,
imu,446.021465,-0.3905937784,-9.667345553600002,1.7478024816,0.33656842,2.9977309,-2.45709151,,,
imu,446.029978,-0.3893974728000001,-9.658971414400002,1.7478024816,0.41133752,3.34914567,-2.4496146,,,
imu,446.038492,-0.3870048616000001,-9.640428677600001,1.7430172592,0.56087572,3.72299117,-2.61410662,,,
imu,446.047005,-0.4061457512000001,-9.644017594400001,1.737633884,0.63564482,4.06692903,-2.80102937,,,
imu,446.055518,-0.3989679176000001,-9.6523917336,1.73464312,0.7702292,4.53797436,-2.86832156,,,
imu,446.064031,-0.3989679176000001,-9.661364025600001,1.7430172592,0.9646288599999999,5.07631188,-2.84589083,,,
imu,446.072544,-0.3923882368,-9.669140012000002,1.7382320368,1.02444414,5.77166451,-2.91318302,,,
imu,446.081057,-0.3726491944000001,-9.658971414400002,1.743615412,0.8524752099999999,6.17541765,-3.1225365,,,
imu,446.08957,-0.3636769024000001,-9.651793580800001,1.7322505088,0.97958268,6.51935551,-3.13749032,,,
imu,446.098084,-0.3505175408000001,-9.655382497600002,1.7412228008,1.09173633,6.95301629,-3.10010577,,,
imu,446.106597,-0.3421434016,-9.6643547896,1.7352412728,1.36090509,7.27452342,-2.87579847,,,
imu,446.11511,-0.3056560808,-9.661364025600001,1.7424191064,1.51044329,7.61846128,-2.72626027,,,
imu,446.123623,-0.281131816,-9.651195428000001,1.7382320368,1.60016621,7.75304566,-2.748691,,,
imu,446.132136,-0.2727576768,-9.6703363176,1.73464312,1.46558183,7.87267622,-2.94309066,,,
imu,446.140649,-0.2560093984,-9.654186192000001,1.7448117176,1.92167334,8.044645150000001,-2.76364482,,,
imu,446.149162,-0.2440463424,-9.664952942400001,1.7460080232,2.18336519,7.96987605,-2.8982292,,,
imu,446.157675,-0.2506260232,-9.678112304,1.7382320368,2.32542648,7.85024549,-3.24216706,,,
imu,446.166189,-0.2703650656,-9.679308609600001,1.7454098704,2.42262631,7.835291669999999,-3.45899745,,,
imu,446.174702,-0.2883096496000001,-9.6775141512,1.7478024816,2.48244159,8.007260599999999,-3.30945925,,,
imu,446.183215,-0.3995660704000001,-9.663158484000002,1.7418209536,2.49739541,8.24652172,-3.15244414,,,
imu,446.19163,-0.3822196392,-9.609922884800001,1.7095207024,2.60207215,8.58298267,-3.11505959,,,
imu,446.200045,-0.415716196,-9.656578803200002,1.7448117176,2.87871782,9.44282732,-3.3468438,,,
imu,446.208461,-0.3804251808,-9.735534972800002,1.7202874528,3.0133022,10.07088776,-3.60853565,,,
imu,446.216876,-0.3887993200000001,-9.697851346400002,1.7101188552,2.95348692,10.65408674,-3.87770441,,,
imu,446.225291,-0.3738455000000001,-9.672728928800002,1.722680064,3.20022495,11.20737808,-3.98985806,,,
imu,446.233706,-0.3786307224000001,-9.7086180968,1.7161003832,3.40957843,11.61113122,-4.079580979999999,,,
imu,446.242121,-0.3457323184,-9.7074217912,1.6945668824,3.40210152,12.06722273,-4.102011709999999,,,
imu,446.250537,-0.3265914288,-9.683495679200002,1.6933705768,3.56659354,12.29900694,-4.0945348,,,
imu,446.258952,-0.3008708584000001,-9.6912716656,1.692772424,3.59650118,12.41116059,-4.057150249999999,,,
imu,446.267367,-0.2829262744000001,-9.706225485600001,1.671837076,3.57407045,12.47097587,-4.07210407,,,
imu,446.275782,-0.2428500368,-9.7151977776,1.6556869504,3.75351629,12.5681757,-3.8702275,,,
imu,446.284198,-0.227298064,-9.7163940832,1.650901728,3.40957843,12.24666857,-3.78798149,,,
imu,446.292613,-0.2111479384,-9.711010708000002,1.6377423664,3.34976315,11.95506908,-3.52628964,,,
imu,446.301028,-0.176455076,-9.716992236000001,1.618003324,3.41705534,11.55131594,-3.39170526,,,
imu,446.309443,-0.1483418944,-9.731347903200001,1.5952735176,3.40957843,11.13260898,-3.15992105,,,
imu,446.317858,-0.1297991576,-9.7283571392,1.5964698232,3.140409669999999,10.54193309,-2.90570611,,,
imu,446.326274,-0.080750628,-9.7325442088,1.5946753648,3.10302512,9.846580459999998,-2.8234601,,,
imu,446.334689,-0.05802082160000001,-9.769031529600001,1.5707492528,3.05816366,9.26338148,-2.8982292,,,
imu,446.343104,-0.0317020984,-9.802528086400002,1.5683566416,3.07311748,8.36615228,-2.8234601,,,
imu,446.351519,-0.007775986400000001,-9.803126239200001,1.5569917384,2.73665653,7.37920016,-2.80850628,,,
imu,446.359935,0.0017944584,-9.802528086400002,1.5498139048,2.39271867,6.40720186,-2.80102937,,,
imu,446.36835,-0.0023926112,-9.7959484056,1.5569917384,2.28056502,5.308096089999999,-2.80850628,,,
imu,446.376765,-0.0227298064,-9.802528086400002,1.5234951816,2.01887317,4.27628251,-2.62906044,,,
imu,446.38518,-0.04187069600000001,-9.805518850400002,1.5366545432,1.97401171,3.45382241,-2.31503022,,,
imu,446.394004,-0.06998387760000001,-9.7995373224,1.52528964,1.74970441,2.55659321,-2.09819983,,,
imu,446.402827,-0.09869521200000002,-9.7959484056,1.5258877928,1.69736604,1.85376367,-2.02343073,,,
imu,446.411651,-0.128602852,-9.798341016800002,1.5115321256,1.54035093,1.28551851,-1.91875399,,,
imu,446.420474,-0.1477437416,-9.802528086400002,1.51033582,1.45062801,0.9041961000000001,-1.88136944,,,
imu,446.429298,-0.188418132,-9.785779808000001,1.5007653752,1.19641307,0.5976427899999996,-1.85893871,,,
imu,446.438122,-0.2290925224000001,-9.786377960800001,1.504354292,0.9272443100000001,0.35838167,-1.91127708,,,
imu,446.446945,-0.2440463424,-9.789966877600001,1.5097376672,0.8449983,0.3135202100000001,-2.00847691,,,
imu,446.455769,-0.2607946208,-9.794153947200002,1.51033582,0.6132140899999999,0.44062768,-2.11315365,,,
imu,446.464592,-0.2865151912,-9.7744149048,1.513326584,0.5459219,0.5752120599999997,-2.09819983,,,
imu,446.473416,-0.2918985664000001,-9.7612555432,1.5145228896,0.5010604399999999,0.7770886299999997,-2.12063056,,,
imu,446.482239,-0.305057928,-9.758862932000001,1.5246914872,0.36647606,1.0537343,-2.44213769,,,
imu,445.564317,,,,,,,-86.4636084,175.6676812,125.960008
imu,445.665941,,,,,,,-86.9152748,175.5089876,126.3140168
imu,445.767473,,,,,,,-86.50023,175.3869156,124.7881168
imu,446.491063,-0.305057928,-9.768433376800001,1.5139247368,0.23936859,1.4275798,-2.65149117,,,
imu,446.499886,-0.3008708584000001,-9.754675862400001,1.5115321256,0.11973803,1.7266562,-2.748691,,,
imu,446.50871,-0.2924967192,-9.759461084800002,1.5157191952,0.07487657,2.13788625,-2.78607555,,,
imu,446.517534,-0.2865151912,-9.772620446400001,1.5205044176,-0.007369440000000005,2.51920866,-2.75616791,,,
imu,446.526357,-0.2697669128,-9.7504887928,1.5211025704,-0.06718472,2.74351596,-2.83093701,,,
imu,446.535181,-0.2566075512,-9.746301723200002,1.5318693208,-0.127,2.95286944,-2.8982292,,,
imu,446.544004,-0.233279592,-9.7504887928,1.534261932,-0.20924601,3.12483837,-2.93561375,,,
imu,446.552828,-0.218325772,-9.7510869456,1.528280404,-0.32887657,3.25942275,-2.8982292,,,
imu,446.561651,-0.206362716,-9.743909112,1.549215752,-0.54570696,3.34914567,-2.94309066,,,
imu,446.570475,-0.1908107432,-9.745105417600001,1.5474212936,-0.5756146,3.33419185,-2.87579847,,,
imu,446.579298,-0.1872218264,-9.7474980288,1.5504120576,-0.5681376899999999,3.34166876,-2.748691,,,
imu,446.588122,-0.1788476872,-9.748096181600001,1.5528046688,-0.63542988,3.31176112,-2.77859864,,,
imu,446.596593,-0.1626975616,-9.748096181600001,1.5563935856,-0.83730645,3.13231528,-2.68887572,,,
imu,446.605064,-0.1680809368,-9.745105417600001,1.5575898912,-0.68029134,3.03511545,-2.53186061,,,
imu,446.613536,-0.1573141864,-9.748096181600001,1.5707492528,-0.64290679,2.84071579,-2.55429134,,,
imu,446.622007,-0.1626975616,-9.748096181600001,1.564169572,-0.59056842,2.66874686,-2.48699915,,,
imu,446.630504,-0.170473548,-9.754675862400001,1.5623751136,-0.9793677399999999,2.42948574,-2.5991528,,,
imu,446.638975,-0.1770532288,-9.7492924872,1.5683566416,-1.04665993,2.3995781,-2.63653735,,,
imu,446.647446,-0.1848292152,-9.748694334400001,1.5719455584,-0.8672140899999999,2.23508608,-2.41970696,,,
imu,446.655917,-0.200381188,-9.743310959200002,1.5797215448,-0.88964482,2.13788625,-2.5243837,,,
imu,446.664388,-0.203371952,-9.728955292000002,1.579123392,-0.9644139199999999,2.18274771,-2.56924516,,,
imu,446.67286,-0.2015774936,-9.715795930400002,1.5779270864,-1.11395212,2.07807097,-2.61410662,,,
imu,446.681331,-0.2099516328,-9.704431027200002,1.5868993784,-1.13638285,2.05564024,-2.59167589,,,
imu,446.689802,-0.197390424,-9.7008421104,1.5839086144,-0.9644139199999999,2.1752708,-2.56924516,,,
imu,446.698273,-0.1985867296,-9.7056273328,1.5797215448,-1.26349032,2.14536316,-2.68139881,,,
imu,446.706744,-0.1896144376,-9.7074217912,1.5827123088,-1.29339796,1.93600968,-2.81598319,,,
imu,446.715215,-0.1866236736,-9.703832874400002,1.5803196976,-1.22610577,1.86124058,-2.75616791,,,
imu,446.723687,-0.1848292152,-9.714599624800002,1.5839086144,-0.91207555,1.89114822,-2.6739219,,,
imu,446.732158,-0.1770532288,-9.724170069600001,1.5809178504,-0.82982954,1.75656384,-2.56924516,,,
imu,446.740629,-0.1471455888,-9.735534972800002,1.579123392,-0.97189083,1.61450255,-2.5991528,,,
imu,446.7491,-0.09630260080000001,-9.772620446400001,1.5863012256,-1.08404448,1.51730272,-2.55429134,,,
imu,446.757571,-0.1190324072,-9.743310959200002,1.6054421152,-1.21115195,1.19579559,-2.32250713,,,
imu,446.766042,-0.1327899216,-9.711608860800002,1.6233866992,-1.21115195,0.70231953,-2.18044584,,,
imu,446.774514,-0.1280046992,-9.709216249600003,1.6018531984,-1.21115195,0.3135202100000001,-1.97856927,,,
imu,446.782985,-0.1381732968,-9.730749750400001,1.5737400168,-1.0242292,0.08173599999999981,-1.78416961,,,
imu,446.791456,-0.1519308112,-9.755872168000002,1.5868993784,-1.09152139,-0.31454023,-1.61967759,,,
imu,446.799921,-0.1268083936,-9.754675862400001,1.6048439624,-1.2485365,-0.5538013500000001,-1.41032411,,,
imu,446.808386,-0.08194693360000001,-9.714001472000001,1.6126199488,-1.29339796,-0.6958626400000001,-1.1785399,,,
imu,446.81685,-0.1058730456,-9.6954587352,1.647910964,-1.3233056,-1.13700033,-1.09629389,,,
imu,446.825315,-0.131593616,-9.688879054400001,1.6497054224,-1.33825942,-1.60804566,-1.26826282,,,
imu,446.83378,-0.1471455888,-9.7074217912,1.61501256,-1.09152139,-2.11647554,-1.22340136,,,
imu,446.842245,-0.1603049504,-9.735534972800002,1.6132181016,-1.15133667,-2.5351825,-1.13367844,,,
imu,446.85071,-0.1896144376,-9.724768222400002,1.6317608384,-1.27844414,-2.72210525,-1.09629389,,,
imu,446.859174,-0.2009793408,-9.6918698184,1.6449202,-1.25601341,-2.90155109,-0.9243249599999999,,,
imu,446.867639,-0.2177276192,-9.6912716656,1.6383405192,-0.9943215599999999,-2.88659727,-0.8944173199999998,,,
imu,446.876104,-0.242251884,-9.692467971200001,1.6221903936,-0.81487572,-2.84173581,-0.8495558599999999,,,
imu,446.884569,-0.2440463424,-9.693066124000001,1.6263774632,-0.63542988,-2.59499778,-0.5803870999999998,,,
imu,446.893034,-0.2548130928,-9.678710456800001,1.6156107128,-0.50832241,-2.36321357,-0.4682334499999998,,,
imu,446.901498,-0.2739539824000001,-9.672728928800002,1.6174051712,-0.31392275,-1.9370297,-0.5280487299999999,,,
imu,446.909963,-0.2829262744000001,-9.6733270816,1.6203959352,-0.14195382,-1.60056875,-0.55047946,,,
imu,446.918428,-0.2817299688000001,-9.6709344704,1.609031032,0.1720764,-1.31644617,-0.6476792899999999,,,
imu,446.926893,-0.2889078024000001,-9.6667474008,1.6162088656,0.2468455,-1.00241595,-0.85703277,,,
imu,446.935358,-0.296085636,-9.6733270816,1.6066384208,0.31413769,-0.6435242699999999,-1.36546265,,,
imu,446.943823,-0.3182172896000001,-9.668541859200001,1.618003324,0.41133752,-0.2173404000000003,-1.82155416,,,
imu,446.952287,-0.3158246784000001,-9.662560331200002,1.6257793104,0.52349117,0.2312741999999997,-2.01595382,,,
imu,446.960752,-0.3247969704000001,-9.6703363176,1.6251811576,0.73284465,0.86681155,-2.32998404,,,
imu,446.969217,-0.3253951232,-9.675719692800001,1.6311626856,0.59078336,1.45748744,-2.5991528,,,
imu,446.977682,-0.3247969704000001,-9.687084596000002,1.6317608384,0.55339881,2.03320951,-2.86084465,,,
imu,446.986147,-0.2954874832,-9.699645804800001,1.6443220472,0.66555246,2.78837742,-2.98795212,,,
imu,446.994611,-0.2829262744000001,-9.6954587352,1.6383405192,0.5010604399999999,3.28185348,-3.1225365,,,
imu,447.003085,-0.2607946208,-9.704431027200002,1.6425275888,0.64312173,3.8949601,-3.18235178,,,
imu,447.011559,-0.2290925224000001,-9.7122070136,1.6461165056,0.70293701,4.07440594,-3.32441307,,,
imu,447.020033,-0.2015774936,-9.716992236000001,1.6503035752,0.5982602699999999,4.2688056,-3.40665908,,,
imu,447.028506,-0.1770532288,-9.718188541600002,1.6503035752,0.7403215599999999,4.38095925,-3.44404363,,,
imu,447.03698,-0.1561178808,-9.730749750400001,1.6485091168,0.5982602699999999,4.478159079999999,-3.48142818,,,
imu,447.045454,-0.1381732968,-9.727758986400001,1.6473128112,0.65807555,4.36600543,-3.29450543,,,
imu,447.053927,-0.1190324072,-9.737927584000001,1.6461165056,0.59078336,4.29123633,-3.13001341,,,
imu,447.062401,-0.113649032,-9.743310959200002,1.6431257416,0.7253677399999999,4.194036499999999,-2.9729983,,,
imu,447.070875,-0.1082656568,-9.731946056000002,1.635947908,0.68798319,3.93982156,-2.8982292,,,
imu,447.079349,-0.1022841288,-9.741516500800001,1.6311626856,0.81509066,3.93234465,-2.71130645,,,
imu,447.087822,-0.1040785872,-9.7337405144,1.6257793104,0.85995212,3.57345297,-2.71130645,,,
imu,447.096296,-0.09450814240000002,-9.727758986400001,1.6203959352,1.11416706,3.47625314,-2.58419898,,,
imu,447.10477,-0.110658268,-9.734338667200001,1.6215922408,1.16650543,3.32671494,-2.56176825,,,
imu,447.113243,-0.110658268,-9.7325442088,1.6162088656,0.9571519499999999,3.22951511,-2.60662971,,,
imu,447.121717,-0.1082656568,-9.710412555200001,1.6257793104,0.74779847,2.96034635,-2.69635263,,,
imu,447.130191,-0.1094619624,-9.709216249600003,1.61501256,0.94219813,2.83323888,-2.83093701,,,
imu,447.138665,-0.1184342544,-9.7193848472,1.6006568928,0.8823828499999999,2.78090051,-3.01785976,,,
imu,447.147138,-0.10467674,-9.7163940832,1.5797215448,0.9197674,2.6986545,-3.10010577,,,
imu,447.155612,-0.1214250184,-9.6918698184,1.5863012256,0.9870595899999999,2.75099287,-3.24964397,,,
imu,447.164086,-0.1363788384,-9.699645804800001,1.5904882952,1.12912088,2.57902394,-3.33936689,,,
imu,447.172559,-0.1423603664,-9.714599624800002,1.58510492,1.2188438,2.60145467,-3.25712088,,,
imu,447.181033,-0.1363788384,-9.714001472000001,1.564169572,1.01696723,2.59397776,-3.1973056,,,
imu,447.189507,-0.1393696024,-9.710412555200001,1.5743381696,1.13659779,2.59397776,-3.27955161,,,
imu,447.197981,-0.1477437416,-9.7128051664,1.5623751136,1.17398234,2.46687029,-3.28702852,,,
imu,447.206475,-0.1393696024,-9.723571916800001,1.5623751136,1.16650543,2.45191647,-3.39918217,,,
imu,447.214969,-0.131593616,-9.746899876,1.5569917384,1.2188438,2.50425484,-3.41413599,,,
imu,447.223463,-0.1381732968,-9.7427128064,1.5593843496,1.18893616,2.50425484,-3.42908981,,,
imu,447.231957,-0.1519308112,-9.7492924872,1.552206516,1.19641307,2.38462428,-3.48890509,,,
imu,447.240451,-0.158510492,-9.770825988000002,1.5593843496,1.09173633,2.19022462,-3.48890509,,,
imu,447.248945,-0.170473548,-9.7750130576,1.5545991272,0.9646288599999999,2.19770153,-3.32441307,,,
imu,447.257439,-0.1716698536,-9.776209363200001,1.5480194464,0.80761375,2.23508608,-3.2720747,,,
imu,447.265933,-0.176455076,-9.7815927384,1.552206516,0.8973366700000001,2.20517844,-3.20478251,,,
imu,447.274427,-0.1758569232,-9.7606573904,1.549215752,0.66555246,2.2500399,-3.15992105,,,
imu,447.282921,-0.1866236736,-9.7504887928,1.5390471544,0.68050628,2.40705501,-3.09262886,,,
imu,447.291415,-0.1806421456,-9.7540777096,1.5354582376,0.55339881,2.46687029,-2.95804448,,,
imu,447.299909,-0.188418132,-9.755274015200001,1.54024346,0.40386061,2.74351596,-2.85336774,,,
imu,445.869005,,,,,,,-86.6955452,175.3625012,126.509332
imu,445.970567,,,,,,,-84.66914999999999,175.0084924,124.434108
imu,446.07216,,,,,,,-86.80541,175.350294,126.5825752
imu,446.174791,,,,,,,-83.98554680000001,174.5324116,123.5918112
imu,446.275255,,,,,,,-86.7565812,175.2648436,125.7769
imu,446.376939,,,,,,,-87.3425268,175.2160148,124.7148736
imu,446.478502,,,,,,,-87.6232924,175.2526364,125.349648
imu,446.580064,,,,,,,-87.64770680000001,174.9718708,125.6792424
imu,447.308403,-0.1818384512,-9.749890640000002,1.5444305296,0.29170696,2.78090051,-2.9729983,,,
imu,447.316897,-0.1776513816,-9.7474980288,1.5366545432,0.19450713,2.69117759,-3.04029049,,,
imu,447.325391,-0.1728661592,-9.755872168000002,1.5456268352,0.08983038999999998,2.72856214,-3.10010577,,,
imu,447.333886,-0.170473548,-9.755274015200001,1.549215752,0.05992275,2.78090051,-3.18235178,,,
imu,447.34238,-0.16449202,-9.7474980288,1.5528046688,-0.07466163,2.98277708,-3.40665908,,,
imu,447.350874,-0.1662864784,-9.746899876,1.5629732664,0.08235347999999998,2.95286944,-3.43656672,,,
imu,447.359368,-0.170473548,-9.742114653600002,1.5665621832,-0.06718472,2.87810034,-3.39170526,,,
imu,447.367862,-0.1800439928,-9.731347903200001,1.5665621832,-0.29896893,2.90053107,-3.39170526,,,
imu,447.376356,-0.1698753952,-9.7325442088,1.5701511,-0.40364567,2.93043871,-3.33936689,,,
imu,447.38485,-0.1698753952,-9.722973764,1.5605806552,-0.34383039,3.07997691,-3.35432071,,,
imu,447.393344,-0.1830347568,-9.725366375200002,1.5659640304,-0.34383039,3.02763854,-3.38422835,,,
imu,447.401838,-0.1758569232,-9.7361331256,1.567160336,-0.23167674,3.17717674,-3.21973633,,,
imu,447.410624,-0.16449202,-9.745105417600001,1.573141864,-0.127,3.13979219,-3.15244414,,,
imu,447.419411,-0.155519728,-9.739722042400002,1.5749363224,-0.2017691,3.01268472,-3.1225365,,,
imu,447.428197,-0.155519728,-9.744507264800001,1.5833104616,-0.19429219,3.05754618,-3.1973056,,,
imu,447.436984,-0.1620994088,-9.739722042400002,1.5892919896,0.03001510999999998,2.90800798,-3.18235178,,,
imu,447.44577,-0.1656883256,-9.7325442088,1.5827123088,-0.11952309,2.90053107,-3.18982869,,,
imu,447.454556,-0.1662864784,-9.728955292000002,1.5863012256,-0.13447691,2.75099287,-3.1225365,,,
imu,447.463343,-0.1698753952,-9.722375611200002,1.5868993784,-0.127,2.66126995,-3.21225942,,,
imu,447.472129,-0.1698753952,-9.716992236000001,1.5886938368,-0.29896893,2.6986545,-3.28702852,,,
imu,447.480916,-0.1752587704,-9.709814402400001,1.5874975312,-0.19429219,2.67622377,-3.21973633,,,
imu,447.489702,-0.1710717008,-9.710412555200001,1.5803196976,0.06739966,2.63136231,-3.30198234,,,
imu,447.498488,-0.1806421456,-9.700243957600001,1.5701511,0.03749201999999999,2.54163939,-3.33936689,,,
imu,447.507275,-0.1866236736,-9.7008421104,1.5701511,0.05992275,2.63883922,-3.43656672,,,
imu,447.516061,-0.1878199792,-9.718188541600002,1.567160336,0.01506129,2.6238854,-3.25712088,,,
imu,447.524848,-0.2075590216,-9.721179305600002,1.5863012256,0.2468455,2.64631613,-3.21225942,,,
imu,447.533634,-0.1932033544,-9.731347903200001,1.582114156,0.22441477,2.78090051,-3.13749032,,,
imu,447.542421,-0.203371952,-9.734936820000001,1.582114156,0.16459949,2.75099287,-3.07767504,,,
imu,447.551207,-0.2057645632,-9.745703570400002,1.5928809064,0.18703022,2.91548489,-3.06272122,,,
imu,447.559993,-0.2021756464,-9.748096181600001,1.588095684,0.08983038999999998,3.02016163,-2.99542903,,,
imu,447.56878,-0.1908107432,-9.728955292000002,1.588095684,-0.127,3.05006927,-2.9729983,,,
imu,447.577566,-0.1848292152,-9.717590388800001,1.5994605872,-0.19429219,3.06502309,-2.93561375,,,
imu,447.586353,-0.1812402984,-9.720581152800001,1.6132181016,-0.19429219,3.19960747,-2.91318302,,,
imu,447.595139,-0.1609031032,-9.7283571392,1.6072365736,-0.40364567,3.20708438,-2.77112173,,,
imu,447.603925,-0.152528964,-9.703234721600001,1.6054421152,-0.50832241,3.22951511,-2.81598319,,,
imu,447.612498,-0.1477437416,-9.688280901600002,1.6156107128,-0.50832241,3.06502309,-2.9729983,,,
imu,447.621071,-0.1417622136,-9.696655040800001,1.6054421152,-0.23915365,3.11736146,-3.15992105,,,
imu,447.629644,-0.131593616,-9.685290137600001,1.6096291848,-0.30644584,2.98277708,-3.32441307,,,
imu,447.638217,-0.137575144,-9.6954587352,1.6191996296,-0.007369440000000005,2.90053107,-3.31693616,,,
imu,447.64679,-0.143556672,-9.709216249600003,1.6251811576,0.19450713,2.65379304,-3.33936689,,,
imu,447.655363,-0.143556672,-9.727758986400001,1.6018531984,0.41881443,2.57902394,-3.11505959,,,
imu,447.663936,-0.1537252696,-9.717590388800001,1.597067976,0.7403215599999999,2.42200883,-2.96552139,,,
imu,447.672509,-0.1626975616,-9.708019944000002,1.582114156,0.6954601,2.28742445,-3.00290594,,,
imu,447.681081,-0.17944584,-9.7074217912,1.5809178504,0.9347212199999999,2.37714737,-2.78607555,,,
imu,447.689654,-0.1692772424,-9.714001472000001,1.5665621832,1.04687487,2.44443956,-2.55429134,,,
imu,447.698227,-0.1662864784,-9.719983000000001,1.5629732664,1.13659779,2.49677793,-2.50195297,,,
imu,447.7068,-0.1620994088,-9.7163940832,1.5557954328,1.26370526,2.57902394,-2.68139881,,,
imu,447.715373,-0.1800439928,-9.717590388800001,1.5354582376,1.17398234,2.51920866,-2.8982292,,,
imu,447.723874,-0.170473548,-9.725366375200002,1.5456268352,1.17398234,2.5491163,-3.07767504,,,
imu,447.732447,-0.1710717008,-9.718188541600002,1.5336637792,1.22632071,2.60893158,-3.18235178,,,
imu,447.74102,-0.1800439928,-9.7283571392,1.522298876,1.36090509,2.57902394,-3.20478251,,,
imu,447.749593,-0.1818384512,-9.7265626808,1.5211025704,1.27865908,2.63883922,-3.36179762,,,
imu,447.758166,-0.1860255208,-9.7427128064,1.5240933344,0.88985976,2.68370068,-3.43656672,,,
imu,447.766739,-0.1949978128,-9.746301723200002,1.516317348,0.8749059399999999,2.80333124,-3.32441307,,,
imu,447.775312,-0.1800439928,-9.7492924872,1.5205044176,0.77770611,2.8481927,-3.25712088,,,
imu,447.783885,-0.1806421456,-9.752283251200002,1.5205044176,0.42629134,2.87810034,-3.30198234,,,
imu,447.792458,-0.1567160336,-9.763050001600002,1.5187099592,0.2468455,3.02016163,-3.25712088,,,
imu,447.80103,-0.152528964,-9.765442612800001,1.5294767096,0.03001510999999998,2.96034635,-3.17487487,,,
imu,447.809603,-0.1513326584,-9.763050001600002,1.5264859456,-0.11204618,2.88557725,-3.23469015,,,
imu,447.81796,-0.13458438,-9.762451848800001,1.546224988,-0.17186146,2.85566961,-3.07019813,,,
imu,447.826317,-0.1441548248,-9.76484446,1.5444305296,-0.04475399000000001,2.83323888,-3.1973056,,,
imu,447.834674,-0.1501363528,-9.770825988000002,1.5474212936,-0.28401511,2.82576197,-3.25712088,,,
imu,447.84303,-0.1495382,-9.766638918400002,1.5534028216,-0.31392275,2.5491163,-3.25712088,,,
imu,447.851387,-0.1603049504,-9.756470320800002,1.5593843496,-0.24663056,2.52668557,-3.31693616,,,
imu,447.859744,-0.1686790896,-9.752881404000002,1.561178808,-0.37373803,2.54163939,-3.36179762,,,
imu,447.8681,-0.170473548,-9.748694334400001,1.5575898912,-0.29896893,2.46687029,-3.2720747,,,
imu,447.876457,-0.1818384512,-9.746899876,1.561178808,-0.28401511,2.54163939,-3.30945925,,,
imu,447.884814,-0.1932033544,-9.746301723200002,1.5605806552,-0.007369440000000005,2.59397776,-3.29450543,,,
imu,447.893171,-0.1848292152,-9.725366375200002,1.561178808,-0.23167674,2.58650085,-3.35432071,,,
imu,447.901527,-0.1878199792,-9.736731278400002,1.5683566416,-0.26906129,2.63883922,-3.45899745,,,
imu,447.909884,-0.1926052016,-9.7265626808,1.5677584888,-0.17186146,2.72108523,-3.36179762,,,
imu,447.918241,-0.1776513816,-9.718188541600002,1.5737400168,-0.16438455,2.76594669,-3.33936689,,,
imu,447.926598,-0.1752587704,-9.706823638400001,1.5743381696,-0.13447691,2.6986545,-3.66087402,,,
imu,447.934954,-0.191408896,-9.7122070136,1.5701511,-0.11952309,2.6986545,-3.72816621,,,
imu,447.943311,-0.1728661592,-9.718786694400002,1.5719455584,0.07487657,2.65379304,-3.59358183,,,
imu,447.951668,-0.1752587704,-9.7056273328,1.579123392,-0.13447691,2.50425484,-3.6459202,,,
imu,447.960024,-0.188418132,-9.7086180968,1.5833104616,-0.16438455,2.38462428,-3.71321239,,,
imu,447.968381,-0.1967922712,-9.706823638400001,1.5797215448,0.10478421,2.61640849,-3.37675144,,,
imu,447.976738,-0.1902125904,-9.7074217912,1.5803196976,0.10478421,2.69117759,-3.04029049,,,
imu,447.985095,-0.1860255208,-9.697851346400002,1.5713474056,0.14216876,2.6986545,-3.06272122,,,
imu,447.993451,-0.1902125904,-9.697253193600002,1.5713474056,0.11226112,2.73603905,-3.17487487,,,
imu,448.001808,-0.188418132,-9.686486443200002,1.5737400168,0.17955331,2.6986545,-3.24964397,,,
imu,448.010165,-0.1830347568,-9.6912716656,1.5767307808,0.17955331,2.72108523,-3.4216129,,,
imu,448.018634,-0.185427368,-9.7008421104,1.5749363224,0.26927623,2.66126995,-3.53376655,,,
imu,448.027102,-0.1812402984,-9.693066124000001,1.5701511,0.3889067899999999,2.59397776,-3.57862801,,,
imu,448.035571,-0.1878199792,-9.704431027200002,1.567160336,0.3963837,2.55659321,-3.65339711,,,
imu,448.044039,-0.1991848824,-9.700243957600001,1.5605806552,0.4711528,2.52668557,-3.63844329,,,
imu,448.052508,-0.1985867296,-9.704431027200002,1.5599825024,0.80761375,2.37714737,-3.66835093,,,
imu,448.060977,-0.212344244,-9.711608860800002,1.5498139048,0.8524752099999999,2.25751681,-3.65339711,,,
imu,448.069445,-0.2225128416,-9.731946056000002,1.5617769608,0.82256757,2.30985518,-3.65339711,,,
imu,448.077914,-0.2308869808,-9.734936820000001,1.5557954328,1.03192105,2.04816333,-3.39918217,,,
imu,448.086383,-0.2374666616,-9.7403201952,1.5540009744,1.09173633,2.20517844,-3.14496723,,,
imu,448.094851,-0.2607946208,-9.745105417600001,1.5593843496,0.97210577,2.19770153,-3.02533667,,,
imu,448.10332,-0.2613927736,-9.765442612800001,1.5474212936,0.85995212,2.19770153,-2.8982292,,,
imu,448.111788,-0.2643835376,-9.754675862400001,1.5390471544,0.88985976,2.27247063,-2.77859864,,,
imu,448.120257,-0.2703650656,-9.755872168000002,1.5390471544,0.66555246,2.4743472,-2.76364482,,,
imu,446.681416,,,,,,,-87.3425268,175.3869156,125.9233864
imu,446.783009,,,,,,,-87.35473400000001,174.8497988,124.3364504
imu,446.884571,,,,,,,-87.06176119999999,175.4479516,126.2896024
imu,446.986164,,,,,,,-84.3395556,174.6911052,123.3720816
imu,447.087727,,,,,,,-87.0861756,175.2526364,125.654828
imu,447.189564,,,,,,,-84.302934,174.5324116,123.152352
imu,447.290821,,,,,,,-86.74437400000001,175.3625012,125.654828
imu,447.392384,,,,,,,-86.9030676,174.862006,125.5205488
imu,448.128726,-0.2775428992,-9.763050001600002,1.5426360712,0.8449983,2.58650085,-2.56924516,,,
imu,448.137194,-0.2649816904,-9.7612555432,1.5408416128,0.68050628,2.81080815,-2.50195297,,,
imu,448.145663,-0.2643835376,-9.755872168000002,1.5378508488,0.3889067899999999,2.89305416,-2.68139881,,,
imu,448.154132,-0.2590001624000001,-9.746899876,1.5306730152,0.36647606,3.16969983,-2.65149117,,,
imu,448.1626,-0.248233412,-9.745703570400002,1.5270840984,0.21693786,3.36409949,-2.71130645,,,
imu,448.171069,-0.23926112,-9.731946056000002,1.5294767096,0.3739529699999999,3.51363769,-2.79355246,,,
imu,448.179537,-0.2308869808,-9.727160833600001,1.5294767096,0.31413769,3.7454219,-2.95804448,,,
imu,448.188006,-0.2009793408,-9.727160833600001,1.522298876,0.11226112,3.76785263,-3.13001341,,,
imu,448.196475,-0.1800439928,-9.722375611200002,1.5234951816,0.14964567,3.82766791,-3.16739796,,,
imu,448.204943,-0.155519728,-9.722973764,1.5205044176,0.17955331,3.86505246,-3.18235178,,,
imu,448.213412,-0.1441548248,-9.724768222400002,1.5234951816,0.20946095,3.82766791,-3.28702852,,,
imu,448.221867,-0.1327899216,-9.741516500800001,1.5306730152,0.28423005,3.64074516,-3.28702852,,,
imu,448.230321,-0.116639796,-9.7492924872,1.5318693208,0.21693786,3.3715764,-3.3468438,,,
imu,448.238776,-0.1088638096,-9.758264779200001,1.534261932,0.10478421,3.17717674,-3.33936689,,,
imu,448.247231,-0.1160416432,-9.752283251200002,1.5348600848,0.19450713,2.96782326,-3.30945925,,,
imu,448.255685,-0.1070693512,-9.7474980288,1.537252696,0.10478421,2.90053107,-3.21973633,,,
imu,448.26414,-0.1142471848,-9.740918348000001,1.5390471544,-0.06718472,2.57902394,-3.33936689,,,
imu,448.272594,-0.1220231712,-9.727160833600001,1.522298876,0.05992275,2.40705501,-3.18982869,,,
imu,448.281049,-0.1232194768,-9.710412555200001,1.5324674736,0.07487657,2.25751681,-3.13749032,,,
imu,448.289504,-0.1351825328,-9.7217774584,1.5240933344,0.08983038999999998,2.13040934,-3.20478251,,,
imu,448.297958,-0.152528964,-9.724768222400002,1.5270840984,0.19450713,1.99582496,-3.32441307,,,
imu,448.306413,-0.1668846312,-9.724170069600001,1.534261932,0.11973803,1.92105586,-3.44404363,,,
imu,448.314868,-0.1812402984,-9.743909112,1.5300748624,0.14216876,1.97339423,-3.62348947,,,
imu,448.323322,-0.197390424,-9.735534972800002,1.5360563904,0.18703022,1.95844041,-3.74312003,,,
imu,448.331777,-0.2105497856,-9.746301723200002,1.5348600848,0.28423005,2.05564024,-3.78798149,,,
imu,448.340232,-0.20935348,-9.752283251200002,1.5540009744,0.05244583999999999,2.15284007,-3.81041222,,,
imu,448.348686,-0.2165313136,-9.743310959200002,1.5474212936,0.03749201999999999,2.39210119,-3.81788913,,,
imu,448.357141,-0.2141387024,-9.7325442088,1.5366545432,-0.01484635000000001,2.24256299,-3.98985806,,,
imu,448.365595,-0.2278962168,-9.739123889600002,1.5438323768,0.13469185,2.40705501,-3.9449966,,,
imu,448.37405,-0.2225128416,-9.746301723200002,1.5438323768,0.06739966,2.48182411,-3.83284295,,,
imu,448.382505,-0.2141387024,-9.759461084800002,1.5593843496,-0.15690764,2.5491163,-3.62348947,,,
imu,448.390959,-0.2249054528,-9.7492924872,1.5486175992,-0.19429219,2.52668557,-3.7206893,,,
imu,448.399414,-0.2237091472,-9.7492924872,1.5534028216,-0.22419983,2.48182411,-3.75807385,,,
imu,448.407869,-0.2290925224000001,-9.746301723200002,1.5486175992,-0.08961545,2.42200883,-3.75807385,,,
imu,448.416323,-0.2488315648,-9.743909112,1.5569917384,-0.10456927,2.33228591,-3.62348947,,,
imu,448.425142,-0.2500278704,-9.7474980288,1.5767307808,-0.28401511,2.40705501,-3.39918217,,,
imu,448.43396,-0.2566075512,-9.7504887928,1.5689547944,-0.25410747,2.34723973,-3.31693616,,,
imu,448.442778,-0.2595983152,-9.739123889600002,1.5635714192,-0.29896893,2.30985518,-3.37675144,,,
imu,448.451596,-0.2655798432,-9.7337405144,1.5545991272,-0.34383039,2.14536316,-3.39170526,,,
imu,448.460415,-0.2835244272,-9.730749750400001,1.5444305296,-0.31392275,2.03320951,-3.24964397,,,
imu,448.469233,-0.2930948720000001,-9.716992236000001,1.543234224,0.08235347999999998,2.23508608,-2.88327538,,,
imu,448.478051,-0.290104108,-9.716992236000001,1.5468231408,0.11226112,2.33228591,-2.68887572,,,
imu,448.486869,-0.2978800944000001,-9.7086180968,1.5199062648,-0.08213854000000001,2.39210119,-2.71878336,,,
imu,448.495688,-0.2948893304,-9.706823638400001,1.5211025704,0.15712258,2.5491163,-2.74121409,,,
imu,448.504506,-0.2966837888,-9.7008421104,1.5157191952,0.22441477,2.5491163,-2.86084465,,,
imu,448.513324,-0.2823281216,-9.706823638400001,1.5055505976,0.32909151,2.5491163,-2.8982292,,,
imu,448.522142,-0.2763465936,-9.709216249600003,1.5109339728,0.41133752,2.7734236,-2.95804448,,,
imu,448.530961,-0.2793373576,-9.7128051664,1.5127284312,0.35899915,2.9229618,-2.92813684,,,
imu,448.539779,-0.2817299688000001,-9.718786694400002,1.5025598336,0.42629134,3.07997691,-2.93561375,,,
imu,448.548597,-0.2715613712,-9.7325442088,1.5031579864,0.60573718,3.19960747,-2.9729983,,,
imu,448.557415,-0.2697669128,-9.739722042400002,1.5019616808,0.58330645,3.23699202,-2.8982292,,,
imu,448.566234,-0.2637853848,-9.7474980288,1.51033582,0.40386061,3.30428421,-2.77112173,,,
imu,448.575052,-0.2494297176,-9.751685098400001,1.5097376672,0.33656842,3.34166876,-2.75616791,,,
imu,448.58387,-0.2398592728,-9.758264779200001,1.513326584,0.35152224,3.40896095,-2.77859864,,,
imu,448.592688,-0.2308869808,-9.758862932000001,1.522298876,-0.03727708,3.36409949,-2.74121409,,,
imu,448.601507,-0.230288828,-9.762451848800001,1.522298876,0.03001510999999998,3.30428421,-2.60662971,,,
imu,448.610325,-0.2207183832,-9.7606573904,1.5264859456,-0.04475399000000001,3.25942275,-2.65896808,,,
imu,448.619143,-0.221316536,-9.773816752000002,1.534261932,-0.16438455,3.16222292,-2.80102937,,,
imu,448.627409,-0.218325772,-9.776209363200001,1.5396453072,-0.23167674,3.05006927,-2.68139881,,,
imu,448.635674,-0.218325772,-9.779200127200001,1.5426360712,-0.39616876,3.05006927,-2.63653735,,,
imu,448.643939,-0.2261017584,-9.763050001600002,1.5587861968,-0.67281443,3.06502309,-2.6739219,,,
imu,448.652205,-0.2111479384,-9.754675862400001,1.567160336,-0.52327623,3.1472691,-2.47204533,,,
imu,448.66047,-0.2219146888,-9.7427128064,1.5719455584,-0.52327623,3.13231528,-2.51690679,,,
imu,448.668735,-0.2237091472,-9.746899876,1.5647677248,-0.58309151,3.13979219,-2.56924516,,,
imu,448.677001,-0.218325772,-9.725366375200002,1.5725437112,-0.7550604399999999,3.10988455,-2.55429134,,,
imu,448.685266,-0.2141387024,-9.7163940832,1.5623751136,-0.49336859,3.20708438,-2.56924516,,,
imu,448.693532,-0.2159331608,-9.709814402400001,1.564169572,-0.38869185,3.2220382,-2.57672207,,,
imu,448.701797,-0.206362716,-9.717590388800001,1.5725437112,-0.36626112,3.25942275,-2.55429134,,,
imu,448.710062,-0.2111479384,-9.7217774584,1.5659640304,-0.37373803,3.33419185,-2.71130645,,,
imu,448.718328,-0.2039701048,-9.7074217912,1.5767307808,-0.37373803,3.31176112,-2.65896808,,,
imu,448.726593,-0.1961941184,-9.687084596000002,1.5803196976,-0.33635348,3.26689966,-2.86084465,,,
imu,448.734858,-0.2051664104,-9.702038416,1.5845067672,-0.16438455,3.22951511,-2.8982292,,,
imu,448.743124,-0.1949978128,-9.7086180968,1.5815160032,-0.09709236,3.16222292,-2.91318302,,,
imu,448.751389,-0.19439966,-9.688879054400001,1.5785252392,0.05992275,3.27437657,-2.81598319,,,
imu,448.759655,-0.197390424,-9.679308609600001,1.5737400168,0.0001074699999999984,3.17717674,-2.95056757,,,
imu,448.76792,-0.2087553272,-9.685290137600001,1.5833104616,-0.04475399000000001,3.1472691,-2.80102937,,,
imu,448.776185,-0.1949978128,-9.697253193600002,1.5755344752,0.15712258,3.16969983,-2.50942988,,,
imu,448.784451,-0.1920070488,-9.70502918,1.5683566416,0.4861066199999999,3.23699202,-2.34493786,,,
imu,448.792716,-0.203371952,-9.70502918,1.5725437112,0.59078336,3.16222292,-2.38979932,,,
imu,448.800982,-0.2057645632,-9.700243957600001,1.564169572,0.57582954,3.21456129,-2.65149117,,,
imu,448.809198,-0.2051664104,-9.709814402400001,1.5587861968,0.67302937,3.02763854,-2.64401426,,,
imu,448.817463,-0.1955959656,-9.715795930400002,1.5540009744,0.80013684,2.96782326,-2.60662971,,,
imu,448.825729,-0.206362716,-9.727758986400001,1.5420379184,0.77770611,3.0725,-2.65896808,,,
imu,448.834412,-0.2117460912,-9.725366375200002,1.5444305296,0.91229049,3.07997691,-2.73373718,,,
imu,448.843095,-0.212344244,-9.720581152800001,1.5420379184,0.9945364999999999,2.99025399,-2.71878336,,,
imu,448.851777,-0.2069608688,-9.7122070136,1.5276822512,0.88985976,3.05006927,-2.77112173,,,
imu,448.86046,-0.212344244,-9.734338667200001,1.5258877928,1.05435178,3.15474601,-2.77859864,,,
imu,448.869143,-0.2021756464,-9.739123889600002,1.5181118064,1.20388998,3.16222292,-2.77112173,,,
imu,448.877826,-0.1908107432,-9.748096181600001,1.5217007232,1.00949032,3.23699202,-2.62906044,,,
imu,448.886509,-0.191408896,-9.7403201952,1.516317348,1.00201341,3.20708438,-2.64401426,,,
imu,448.895192,-0.1920070488,-9.7540777096,1.5181118064,0.77770611,3.22951511,-2.70382954,,,
imu,448.903875,-0.185427368,-9.766638918400002,1.5211025704,0.74779847,3.13231528,-2.71878336,,,
imu,448.912558,-0.1902125904,-9.7612555432,1.5181118064,0.81509066,3.16969983,-2.62158353,,,
imu,448.921241,-0.1890162848,-9.760059237600002,1.4995690696,0.78518302,3.2220382,-2.58419898,,,
imu,448.929924,-0.1955959656,-9.755872168000002,1.4977746112,0.63564482,3.16969983,-2.60662971,,,
imu,448.938607,-0.2057645632,-9.7504887928,1.5001672224,0.52349117,3.23699202,-2.66644499,,,
imu,447.493946,,,,,,,-86.74437400000001,175.045114,125.1299184
imu,447.595509,,,,,,,-86.70775239999999,175.167186,125.410684
imu,447.697224,,,,,,,-86.76878839999999,174.984078,125.1299184
imu,447.798664,,,,,,,-86.53685159999999,174.5812404,125.4839272
imu,447.900227,,,,,,,-84.70577160000002,174.9962852,124.2387928
imu,448.001759,,,,,,,-86.8298244,174.8253844,125.6304136
imu,448.103321,,,,,,,-83.77802439999999,174.068538,123.1889736
imu,448.204884,,,,,,,-86.7321668,174.7155196,125.654828
imu,448.94729,-0.200381188,-9.7504887928,1.4917930832,0.3739529699999999,3.36409949,-2.5991528,,,
imu,448.955972,-0.200381188,-9.7570684736,1.498372764,0.45619898,3.40148404,-2.78607555,,,
imu,448.964655,-0.1896144376,-9.763050001600002,1.5007653752,0.23936859,3.43139168,-2.79355246,,,
imu,448.973338,-0.191408896,-9.765442612800001,1.5079432088,0.35152224,3.40148404,-2.92065993,,,
imu,448.982021,-0.1932033544,-9.767237071200002,1.5121302784,0.10478421,3.36409949,-3.04029049,,,
imu,448.990704,-0.185427368,-9.768433376800001,1.5115321256,0.08235347999999998,3.31176112,-3.01038285,,,
imu,448.999387,-0.17944584,-9.7612555432,1.5115321256,-0.17933837,3.35662258,-3.13001341,,,
imu,449.00807,-0.1818384512,-9.745703570400002,1.5175136536,-0.11204618,3.49868387,-3.0477674,,,
imu,449.016753,-0.1758569232,-9.738525736800002,1.519308112,0.03001510999999998,3.55102224,-3.03281358,,,
imu,449.025436,-0.170473548,-9.7331423616,1.513326584,-0.007369440000000005,3.49120696,-3.0477674,,,
imu,449.033912,-0.155519728,-9.731347903200001,1.5127284312,-0.11204618,3.46129932,-3.06272122,,,
imu,449.042388,-0.1501363528,-9.7193848472,1.513326584,-0.10456927,3.3715764,-2.92065993,,,
imu,449.050865,-0.1351825328,-9.7163940832,1.5085413616,-0.127,3.21456129,-2.93561375,,,
imu,449.059341,-0.1369769912,-9.721179305600002,1.516317348,0.07487657,3.10240764,-2.89075229,,,
imu,449.067817,-0.1399677552,-9.737927584000001,1.516317348,0.26179932,2.9229618,-2.98795212,,,
imu,449.076293,-0.1381732968,-9.737927584000001,1.5228970288,0.12721494,2.82576197,-3.18235178,,,
imu,449.08477,-0.158510492,-9.743909112,1.5258877928,0.08235347999999998,2.68370068,-3.13001341,,,
imu,449.093246,-0.1656883256,-9.739722042400002,1.5264859456,0.08983038999999998,2.50425484,-3.07767504,,,
imu,449.101722,-0.173464312,-9.7283571392,1.5228970288,0.13469185,2.5491163,-3.0477674,,,
imu,449.110198,-0.182436604,-9.718188541600002,1.5175136536,0.17955331,2.57902394,-3.06272122,,,
imu,449.118675,-0.1920070488,-9.722973764,1.507345056,0.15712258,2.38462428,-3.1973056,,,
imu,449.127151,-0.1890162848,-9.7128051664,1.5211025704,0.04496892999999999,2.56407012,-3.1973056,,,
imu,449.135627,-0.1926052016,-9.715795930400002,1.513326584,0.14964567,2.81080815,-3.20478251,,,
imu,449.144103,-0.1961941184,-9.7295534448,1.5139247368,0.18703022,2.76594669,-3.25712088,,,
imu,449.15258,-0.19439966,-9.745703570400002,1.5181118064,0.23189168,2.8481927,-3.31693616,,,
imu,449.161056,-0.2051664104,-9.745703570400002,1.519308112,0.30666078,2.96034635,-3.30945925,,,
imu,449.169532,-0.1991848824,-9.745703570400002,1.5234951816,0.11973803,2.87810034,-3.38422835,,,
imu,449.178008,-0.203371952,-9.754675862400001,1.5246914872,0.22441477,2.96782326,-3.36927453,,,
imu,449.186485,-0.1961941184,-9.756470320800002,1.5348600848,0.04496892999999999,3.10988455,-3.5711511,,,
imu,449.194961,-0.1800439928,-9.746899876,1.5444305296,-0.11204618,3.12483837,-3.7206893,,,
imu,449.203437,-0.1800439928,-9.711010708000002,1.5324674736,-0.14943073,3.09493073,-3.78050458,,,
imu,449.211913,-0.1680809368,-9.709216249600003,1.5240933344,0.007584380000000002,3.02016163,-3.70573548,,,
imu,449.22039,-0.1710717008,-9.693066124000001,1.534261932,0.07487657,2.94539253,-3.6459202,,,
imu,449.228866,-0.1782495344,-9.706823638400001,1.5288785568,0.23189168,2.88557725,-3.60853565,,,
imu,449.237335,-0.1878199792,-9.7163940832,1.5294767096,0.31413769,2.72108523,-3.69078166,,,
imu,449.245803,-0.1830347568,-9.728955292000002,1.5384490016,0.52349117,2.5491163,-3.76555076,,,
imu,449.254272,-0.212344244,-9.718786694400002,1.54024346,0.56835263,2.39210119,-3.76555076,,,
imu,449.26274,-0.2225128416,-9.7301515976,1.543234224,0.5982602699999999,2.21265535,-3.66087402,,,
imu,449.271209,-0.2350740504,-9.7492924872,1.5444305296,0.49358353,2.10797861,-3.496382,,,
imu,449.279678,-0.2530186344000001,-9.767237071200002,1.5378508488,0.52349117,2.10797861,-3.30198234,,,
imu,449.288146,-0.2655798432,-9.760059237600002,1.5276822512,0.64312173,2.07807097,-3.1973056,,,
imu,449.296615,-0.28412258,-9.746301723200002,1.5258877928,0.5010604399999999,1.96591732,-3.2720747,,,
imu,449.305084,-0.2978800944000001,-9.748096181600001,1.5300748624,0.3739529699999999,2.19770153,-3.05524431,,,
imu,449.313552,-0.3008708584000001,-9.748694334400001,1.5127284312,0.56087572,2.5491163,-2.62158353,,,
imu,449.322021,-0.2918985664000001,-9.760059237600002,1.5031579864,0.3963837,2.63136231,-2.33746095,,,
imu,449.330489,-0.2805336632,-9.741516500800001,1.4965783056,0.4711528,2.90053107,-2.43466078,,,
imu,449.338958,-0.2745521352,-9.709814402400001,1.4876060136,0.5459219,3.11736146,-2.53933752,,,
imu,449.347427,-0.260196468,-9.709216249600003,1.4786337216,0.63564482,3.37905331,-2.86084465,,,
imu,449.355895,-0.2464389536,-9.7074217912,1.4738484992,0.52349117,3.33419185,-3.0477674,,,
imu,449.364364,-0.2284943696,-9.719983000000001,1.4786337216,0.6954601,3.49120696,-3.08515195,,,
imu,449.372833,-0.227298064,-9.727758986400001,1.4726521936,0.6132140899999999,3.58840679,-3.31693616,,,
imu,449.381301,-0.2278962168,-9.7427128064,1.4786337216,0.67302937,3.58840679,-3.42908981,,,
imu,449.38977,-0.2237091472,-9.745703570400002,1.4870078608,0.67302937,3.5211146,-3.40665908,,,
imu,449.398238,-0.2117460912,-9.745105417600001,1.4905967776,0.43376825,3.54354533,-3.27955161,,,
imu,449.406707,-0.206362716,-9.758862932000001,1.4840170968,0.3963837,3.53606842,-3.13001341,,,
imu,449.415176,-0.1926052016,-9.76484446,1.4828207912,0.32909151,3.46877623,-2.91318302,,,
imu,449.423644,-0.1890162848,-9.766040765600001,1.4941856944,0.35899915,3.49120696,-2.77859864,,,
imu,449.432113,-0.1758569232,-9.7606573904,1.489400472,0.41133752,3.43139168,-2.70382954,,,
imu,449.440922,-0.16449202,-9.767835224,1.4899986248,0.29918387,3.19213056,-2.63653735,,,
imu,449.449731,-0.1692772424,-9.770825988000002,1.495382,0.07487657,3.02763854,-2.74121409,,,
imu,449.45854,-0.1746606176,-9.7750130576,1.4971764584,0.08983038999999998,2.83323888,-2.79355246,,,
imu,449.467349,-0.1746606176,-9.768433376800001,1.5001672224,0.05244583999999999,2.69117759,-2.71878336,,,
imu,449.476158,-0.1872218264,-9.7702278352,1.5001672224,-0.16438455,2.49677793,-2.80102937,,,
imu,449.484967,-0.2057645632,-9.7714241408,1.5175136536,-0.19429219,2.44443956,-2.76364482,,,
imu,449.493776,-0.2141387024,-9.7636481544,1.5181118064,-0.37373803,2.52668557,-2.86084465,,,
imu,449.502585,-0.2386629672,-9.751685098400001,1.5151210424,-0.52327623,2.58650085,-2.81598319,,,
imu,449.511394,-0.230288828,-9.737927584000001,1.5157191952,-0.5756146,2.57902394,-2.83093701,,,
imu,449.520203,-0.2356722032,-9.737927584000001,1.5157191952,-0.44850713,2.74351596,-2.99542903,,,
imu,449.529012,-0.245242648,-9.7265626808,1.5097376672,-0.47841477,2.87062343,-2.92813684,,,
imu,449.537821,-0.2386629672,-9.717590388800001,1.5031579864,-0.41112258,2.93791562,-2.92065993,,,
imu,449.54663,-0.2386629672,-9.7163940832,1.5145228896,-0.36626112,3.15474601,-2.90570611,,,
imu,449.555439,-0.2320832864,-9.745703570400002,1.5091395144,-0.29896893,3.34166876,-2.90570611,,,
imu,449.564247,-0.2237091472,-9.718188541600002,1.5151210424,-0.23167674,3.33419185,-2.88327538,,,
imu,449.573056,-0.20935348,-9.708019944000002,1.5324674736,-0.23915365,3.49120696,-2.92813684,,,
imu,449.581865,-0.2141387024,-9.719983000000001,1.5264859456,-0.16438455,3.37905331,-3.04029049,,,
imu,449.590674,-0.1961941184,-9.7265626808,1.5217007232,-0.04475399000000001,3.43139168,-2.98795212,,,
imu,449.599483,-0.191408896,-9.704431027200002,1.5258877928,-0.15690764,3.34914567,-3.02533667,,,
imu,449.608292,-0.1949978128,-9.6876827488,1.5270840984,-0.14943073,3.30428421,-3.01785976,,,
imu,449.617101,-0.2039701048,-9.688280901600002,1.5294767096,-0.0522309,3.18465365,-2.92813684,,,
imu,449.62591,-0.197390424,-9.7008421104,1.5217007232,0.14964567,3.17717674,-2.71130645,,,
imu,449.634719,-0.203371952,-9.714001472000001,1.5187099592,0.25432241,3.10988455,-2.53933752,,,
imu,449.643208,-0.188418132,-9.7265626808,1.5199062648,0.5982602699999999,3.18465365,-2.50942988,,,
imu,449.651697,-0.1955959656,-9.7361331256,1.522298876,0.26179932,3.0725,-2.68139881,,,
imu,449.660186,-0.1896144376,-9.736731278400002,1.5228970288,0.3739529699999999,2.93791562,-2.71130645,,,
imu,449.668675,-0.1932033544,-9.743310959200002,1.51033582,0.53844499,3.00520781,-2.748691,,,
imu,449.677164,-0.1932033544,-9.748096181600001,1.5061487504,0.56087572,3.01268472,-2.71130645,,,
imu,449.685653,-0.1985867296,-9.754675862400001,1.5127284312,0.41133752,2.83323888,-2.80850628,,,
imu,449.694142,-0.200381188,-9.748694334400001,1.5061487504,0.44872207,2.87810034,-2.88327538,,,
imu,449.702631,-0.203371952,-9.752881404000002,1.5079432088,0.3739529699999999,2.81828506,-2.93561375,,,
imu,449.71112,-0.2051664104,-9.7474980288,1.4971764584,0.26927623,2.78837742,-3.02533667,,,
imu,449.719609,-0.1938015072,-9.752283251200002,1.4935875416,0.3889067899999999,2.90800798,-2.9729983,,,
imu,449.728098,-0.200381188,-9.749890640000002,1.4858115552,0.36647606,3.01268472,-2.78607555,,,
imu,449.736587,-0.203371952,-9.751685098400001,1.4929893888,0.33656842,3.06502309,-2.8982292,,,
imu,449.745076,-0.1991848824,-9.7504887928,1.4888023192,0.38142988,3.03511545,-2.88327538,,,
imu,449.753565,-0.1926052016,-9.745703570400002,1.4846152496,0.43376825,3.05006927,-2.77859864,,,
imu,449.762054,-0.191408896,-9.760059237600002,1.4846152496,0.3739529699999999,3.12483837,-2.76364482,,,
imu,448.30641,,,,,,,-85.6823476,173.4459708,123.0791088
imu,448.407972,,,,,,,-86.89086040000001,174.4225468,125.8623504
imu,448.509535,,,,,,,-86.24387879999999,174.3981324,125.6792424
imu,448.611097,,,,,,,-86.58568040000002,174.3370964,126.38726
imu,448.71266,,,,,,,-86.4514012,174.8131772,125.105504
imu,448.817152,,,,,,,-86.13401400000001,174.4713756,125.8623504
imu,448.915998,,,,,,,-86.42698680000001,174.2150244,125.7402784
imu,449.017347,,,,,,,-83.77802439999999,173.7267364,124.8125312
imu,449.770543,-0.1908107432,-9.748694334400001,1.4888023192,0.10478421,3.15474601,-2.70382954,,,
imu,449.779032,-0.1902125904,-9.7540777096,1.4768392632,0.02253820000000001,3.10240764,-2.748691,,,
imu,449.787521,-0.1788476872,-9.754675862400001,1.492391236,-0.02232326000000001,3.16222292,-2.87579847,,,
imu,449.79601,-0.182436604,-9.7570684736,1.4929893888,-0.04475399000000001,3.21456129,-2.80850628,,,
imu,449.804499,-0.1740624648,-9.749890640000002,1.4852134024,-0.14195382,3.24446893,-2.89075229,,,
imu,449.812988,-0.1662864784,-9.746301723200002,1.483418944,-0.20924601,3.1472691,-2.9729983,,,
imu,449.821477,-0.1662864784,-9.746301723200002,1.4929893888,-0.25410747,3.19960747,-3.15992105,,,
imu,449.829966,-0.1668846312,-9.745105417600001,1.4899986248,-0.18681528,3.24446893,-3.29450543,,,
imu,449.838455,-0.1573141864,-9.744507264800001,1.4941856944,-0.23915365,3.19960747,-3.33936689,,,
imu,449.846904,-0.1573141864,-9.745703570400002,1.5031579864,-0.35878421,3.13979219,-3.36927453,,,
imu,449.855354,-0.1489400472,-9.737927584000001,1.492391236,-0.39616876,3.10988455,-3.48890509,,,
imu,449.863803,-0.1387714496,-9.748694334400001,1.4977746112,-0.29149202,3.09493073,-3.47395127,,,
imu,449.872253,-0.1477437416,-9.746899876,1.4995690696,-0.26158438,2.9229618,-3.47395127,,,
imu,449.880702,-0.1447529776,-9.7510869456,1.5079432088,-0.22419983,2.6986545,-3.52628964,,,
imu,449.889152,-0.1537252696,-9.746301723200002,1.5079432088,-0.18681528,2.6986545,-3.45899745,,,
imu,449.897601,-0.1620994088,-9.7492924872,1.5240933344,-0.44850713,2.56407012,-3.54124346,,,
imu,449.906144,-0.1812402984,-9.7427128064,1.5121302784,-0.6279529699999999,2.33228591,-3.48890509,,,
imu,449.914593,-0.1728661592,-9.7361331256,1.516317348,-0.50832241,2.2500399,-3.43656672,,,
imu,449.923043,-0.1926052016,-9.739722042400002,1.5157191952,-0.52327623,2.19770153,-3.38422835,,,
imu,449.931492,-0.2081571744,-9.743310959200002,1.5151210424,-0.47093786,2.09302479,-3.40665908,,,
imu,449.939942,-0.2051664104,-9.725366375200002,1.519308112,-0.5307531400000001,2.13040934,-3.4216129,,,
imu,449.948391,-0.2087553272,-9.7151977776,1.5360563904,-0.63542988,2.06311715,-3.45152054,,,
imu,449.956841,-0.2201202304,-9.7325442088,1.5294767096,-0.41112258,2.09302479,-3.45899745,,,
imu,449.96529,-0.2266999112,-9.752881404000002,1.5211025704,-0.39616876,2.27994754,-3.39170526,,,
imu,449.97374,-0.2350740504,-9.748694334400001,1.5324674736,-0.38869185,2.33228591,-3.39170526,,,
imu,449.98219,-0.2344758976,-9.748096181600001,1.534261932,-0.5008455,2.35471664,-3.39918217,,,
imu,449.990639,-0.2380648144,-9.746301723200002,1.5360563904,-0.48589168,2.44443956,-3.41413599,,,
imu,449.999089,-0.2350740504,-9.7283571392,1.5378508488,-0.50832241,2.51920866,-3.43656672,,,
imu,450.007538,-0.2398592728,-9.734338667200001,1.5264859456,-0.40364567,2.58650085,-3.48890509,,,
imu,450.015988,-0.2440463424,-9.759461084800002,1.513326584,-0.31392275,2.60893158,-3.39918217,,,
imu,450.024437,-0.2446444952,-9.742114653600002,1.5318693208,-0.39616876,2.75099287,-3.36927453,,,
imu,450.032887,-0.2404574256,-9.730749750400001,1.5336637792,-0.47841477,2.74351596,-3.496382,,,
imu,450.041336,-0.2320832864,-9.7612555432,1.5276822512,-0.24663056,2.79585433,-3.31693616,,,
imu,450.049809,-0.2255036056,-9.782789044000001,1.5246914872,-0.127,2.8481927,-3.23469015,,,
imu,450.058281,-0.2261017584,-9.7786019744,1.5360563904,-0.2765382,2.82576197,-3.3468438,,,
imu,450.066754,-0.2231109944,-9.7815927384,1.5378508488,-0.21672292,2.79585433,-3.29450543,,,
imu,450.075226,-0.212344244,-9.793555794400001,1.5438323768,-0.127,2.81080815,-3.23469015,,,
imu,450.083699,-0.2159331608,-9.789368724800001,1.5366545432,-0.36626112,2.81828506,-3.30198234,,,
imu,450.092171,-0.2099516328,-9.786377960800001,1.546224988,-0.34383039,2.83323888,-3.30945925,,,
imu,450.100644,-0.212344244,-9.743909112,1.5318693208,-0.43355331,2.89305416,-3.39918217,,,
imu,450.109116,-0.206362716,-9.727160833600001,1.543234224,-0.53823005,2.82576197,-3.56367419,,,
imu,450.117588,-0.1961941184,-9.708019944000002,1.5396453072,-0.35878421,2.68370068,-3.48890509,,,
imu,450.126061,-0.1896144376,-9.708019944000002,1.5324674736,-0.61299915,2.66126995,-3.54124346,,,
imu,450.134533,-0.1932033544,-9.713403319200001,1.5306730152,-0.64290679,2.57902394,-3.62348947,,,
imu,450.143006,-0.197390424,-9.713403319200001,1.531271168,-0.38869185,2.30237827,-3.7206893,,,
imu,450.151478,-0.1836329096,-9.701440263200002,1.5288785568,-0.29149202,2.13040934,-3.76555076,,,
imu,450.159951,-0.1926052016,-9.704431027200002,1.5330656264,-0.11204618,1.86124058,-3.75807385,,,
imu,450.168423,-0.2135405496,-9.7056273328,1.5408416128,-0.04475399000000001,1.48739508,-3.73564312,,,
imu,450.176896,-0.2237091472,-9.713403319200001,1.5396453072,-0.02232326000000001,1.49487199,-3.72816621,,,
imu,450.185368,-0.2237091472,-9.718786694400002,1.528280404,0.03749201999999999,1.44253362,-3.4216129,,,
imu,450.19384,-0.2446444952,-9.706823638400001,1.5127284312,0.1720764,1.29299542,-3.30945925,,,
imu,450.202313,-0.2799355104,-9.706225485600001,1.5091395144,0.14216876,1.15841104,-3.24964397,,,
imu,450.210785,-0.2907022608000001,-9.709814402400001,1.516317348,0.2468455,1.10607267,-3.03281358,,,
imu,450.219258,-0.3020671640000001,-9.725366375200002,1.5031579864,0.28423005,1.3528107,-2.68139881,,,
imu,450.22773,-0.3116376088,-9.723571916800001,1.4965783056,0.46367589,1.46496435,-2.48699915,,,
imu,450.236203,-0.3002727056,-9.7122070136,1.4965783056,0.45619898,1.6518871,-2.35241477,,,
imu,450.244675,-0.2727576768,-9.685290137600001,1.477437416,0.38142988,1.92853277,-2.48699915,,,
imu,450.25314,-0.2745521352,-9.672728928800002,1.4995690696,0.56087572,2.21265535,-2.53933752,,,
imu,450.261605,-0.2847207328,-9.737927584000001,1.5097376672,0.73284465,2.35471664,-2.34493786,,,
imu,450.27007,-0.2703650656,-9.708019944000002,1.4888023192,0.73284465,2.73603905,-2.02343073,,,
imu,450.278534,-0.2536167872,-9.6984494992,1.4989709168,0.7552753799999999,2.82576197,-2.05333837,,,
imu,450.286999,-0.2560093984,-9.713403319200001,1.4947838472,0.7702292,2.8481927,-2.58419898,,,
imu,450.295464,-0.257205704,-9.739123889600002,1.498372764,0.7702292,2.78837742,-2.748691,,,
imu,450.303929,-0.2554112456,-9.748096181600001,1.4905967776,0.7552753799999999,2.98277708,-2.80102937,,,
imu,450.312394,-0.2554112456,-9.7570684736,1.4935875416,0.56087572,3.10240764,-2.98795212,,,
imu,450.320858,-0.2506260232,-9.772022293600001,1.4935875416,0.51601426,3.24446893,-3.1225365,,,
imu,450.329323,-0.2416537312,-9.7845835024,1.501363528,0.65059864,3.43886859,-3.07019813,,,
imu,450.337788,-0.230288828,-9.7953502528,1.5001672224,0.3739529699999999,3.55849915,-3.00290594,,,
imu,450.346253,-0.20935348,-9.7959484056,1.5007653752,0.08983038999999998,3.55849915,-3.1973056,,,
imu,450.354718,-0.20935348,-9.789966877600001,1.492391236,-0.0522309,3.54354533,-3.36179762,,,
imu,450.363182,-0.2039701048,-9.785181655200002,1.5031579864,-0.11952309,3.58092988,-3.3468438,,,
imu,450.371647,-0.2015774936,-9.7911631832,1.5085413616,-0.4260764,3.53606842,-3.25712088,,,
imu,450.380112,-0.1920070488,-9.788172419200002,1.5145228896,-0.52327623,3.55849915,-3.28702852,,,
imu,450.388577,-0.1878199792,-9.776209363200001,1.5366545432,-0.6279529699999999,3.47625314,-3.09262886,,,
imu,450.397042,-0.1926052016,-9.766638918400002,1.5234951816,-0.91955246,3.28933039,-3.18235178,,,
imu,450.405507,-0.1896144376,-9.752283251200002,1.5336637792,-0.9943215599999999,3.17717674,-3.09262886,,,
imu,450.413971,-0.182436604,-9.739123889600002,1.528280404,-1.00927538,3.18465365,-3.05524431,,,
imu,450.422436,-0.1908107432,-9.730749750400001,1.5420379184,-0.9793677399999999,2.97530017,-3.03281358,,,
imu,450.430901,-0.1932033544,-9.709814402400001,1.5360563904,-1.20367504,2.90800798,-3.15244414,,,
imu,450.439366,-0.1949978128,-9.708019944000002,1.5408416128,-1.19619813,2.75099287,-3.1225365,,,
imu,450.447831,-0.2099516328,-9.710412555200001,1.5587861968,-1.08404448,2.71360832,-3.09262886,,,
imu,450.456645,-0.2165313136,-9.714599624800002,1.5707492528,-0.88964482,2.6238854,-3.07767504,,,
imu,450.465459,-0.2159331608,-9.715795930400002,1.5635714192,-0.90459864,2.66126995,-3.16739796,,,
imu,450.474273,-0.2338777448,-9.706823638400001,1.5797215448,-0.9793677399999999,2.58650085,-3.36179762,,,
imu,450.483088,-0.2440463424,-9.700243957600001,1.5874975312,-0.7999219,2.61640849,-3.3468438,,,
imu,450.491902,-0.2374666616,-9.708019944000002,1.5701511,-0.59056842,2.61640849,-3.28702852,,,
imu,450.500716,-0.2476352592,-9.6942624296,1.5797215448,-0.68029134,2.72856214,-3.28702852,,,
imu,450.50953,-0.2643835376,-9.690673512800002,1.5785252392,-0.44103022,2.64631613,-3.32441307,,,
imu,450.518345,-0.272159524,-9.6745233872,1.5785252392,-0.2765382,2.6986545,-3.2720747,,,
imu,450.527159,-0.272159524,-9.675719692800001,1.5737400168,-0.40364567,2.81080815,-3.03281358,,,
imu,449.11894,,,,,,,-86.5246444,174.6544836,125.3008192
imu,449.220472,,,,,,,-84.2907268,173.6168716,122.9448296
imu,449.322004,,,,,,,-86.561266,174.4469612,125.532756
imu,449.423628,,,,,,,-86.2316716,173.3849348,123.7871264
imu,449.52519,,,,,,,-86.24387879999999,173.946466,125.5205488
imu,449.626722,,,,,,,-86.3049148,174.5446188,126.3018096
imu,449.728285,,,,,,,-86.5246444,174.2272316,125.593792
imu,449.829878,,,,,,,-86.12180680000002,174.0929524,125.1299184
imu,449.931361,,,,,,,-86.3415364,174.3615108,125.898972
imu,450.032893,,,,,,,-84.48604200000001,173.763358,124.5439728
imu,450.134547,,,,,,,-86.18284279999999,174.4591684,125.593792
imu,450.236049,,,,,,,-84.4005916,173.4093492,122.9204152
imu,450.337672,,,,,,,-86.2072572,174.7155196,125.8745576
imu,450.439174,,,,,,,-85.9753204,174.8742132,124.5683872
