Type,Timestamp,Data Accelerometer X,Data Accelerometer Y,Data Accelerometer Z,Data Gyroscope X,Data Gyroscope Y,Data Gyroscope Z,Data Magnetometer X,Data Magnetometer Y,Data Magnetometer Z
imu,95.254734,0.8984255056000002,-9.254021968800002,3.421434016000001,7.888247519999999,2.80333124,-4.17678081,,,
imu,95.263112,0.8535640456000001,-9.4005694048,3.1319280608,8.65836925,2.14536316,-6.075915950000001,,,
imu,95.271489,0.8242545584000001,-9.2157401896,2.939921012000001,8.650892339999999,1.6518871,-7.406805929999999,,,
imu,95.279866,0.7578595976000001,-8.847876217600001,2.907022608,7.76114005,0.7995193599999997,-8.79751119,,,
imu,95.288243,0.6729219000000001,-8.502742052000002,2.8537870088,6.94615686,-0.1949096699999999,-9.94147842,,,
imu,95.29662,0.6029380224,-8.505732816000002,2.9405191648,6.58726518,-1.02484668,-10.43495448,,,
imu,95.304997,0.5879842024,-8.773107117600002,2.9303505672,5.79471272,-1.60056875,-10.47233903,,,
imu,95.313374,0.5550857984,-8.80779998,2.804140326400001,4.66569931,-2.11647554,-10.47233903,,,
imu,95.321751,0.4767277816000001,-8.569735165600001,2.7688493112,3.58154736,-2.55761323,-10.34523156,,,
imu,95.330128,0.4318663216,-8.4812085512,2.8657500648,3.56659354,-2.89407418,-10.21812409,,,
imu,95.338505,0.3738455000000001,-8.771312659200001,2.9064244552,4.31428454,-3.29035041,-10.225601,,,
imu,95.346882,0.3630787496,-9.067996448000002,2.8495999392,4.8077606,-3.39502715,-10.12092426,,,
imu,95.355259,0.3499193880000001,-9.137980325600001,2.9058263024,4.27689999,-3.61933445,-10.20317027,,,
imu,95.363636,0.3176191368,-8.9471695824,2.957267443200001,2.89367164,-4.03804141,-10.68169251,,,
imu,95.371954,0.2996745528,-8.982460597600001,3.1618357008,2.08616536,-4.59133275,-11.33218368,,,
imu,95.380331,0.2918985664000001,-9.184038091200001,3.175593215200001,1.27865908,-5.25677774,-12.10230541,,,
imu,95.388708,0.2207183832,-9.136185867200002,3.189350729600001,-0.3513073,-5.58576178,-12.84999641,,,
imu,95.397085,0.2081571744,-9.2917055952,3.5135495472,-1.53265908,-5.974561100000001,-13.00701152,,,
imu,95.405462,0.2948893304,-9.952664439200001,3.7988684328,-1.27096723,-6.296068229999999,-12.93971933,,,
imu,95.413839,0.3092449976000001,-10.476646292,3.7522125144,-1.65976655,-6.81197502,-12.99953461,,,
imu,95.422216,0.2793373576,-10.4610943192,3.655311760800001,-3.4168404,-7.44751237,-13.01448843,,,
imu,95.430593,0.2500278704,-10.07887468,3.684621248,-5.24120644,-7.68677349,-12.79765804,,,
imu,95.43897,0.2111479384,-9.839015407200002,3.791092446400001,-5.85431306,-7.95594225,-12.04996704,,,
imu,95.447347,0.1453511304,-9.8880639368,3.872441227200001,-6.243112379999999,-7.940988429999999,-10.77141543,,,
imu,95.455812,0.1208268656,-9.955655203200001,3.79827028,-7.17024922,-7.372743269999999,-8.99938776,,,
imu,95.464277,0.1369769912,-9.693664276800002,3.679237872800001,-8.91984616,-6.66243682,-6.86846841,,,
imu,95.472742,0.1333880744,-9.343146736000001,3.720510416000001,-11.1180577,-5.727823069999999,-5.08148692,,,
imu,95.481207,0.1519308112,-9.055435239200001,3.676247108800001,-12.94242374,-4.75582477,-3.76555076,,,
imu,95.489671,0.17944584,-8.840100231200001,3.5733648272,-14.09386788,-3.85111866,-2.85336774,,,
imu,95.498136,0.2081571744,-8.652280252,3.490221588,-14.98362017,-2.88659727,-2.08324601,,,
imu,95.506601,0.2237091472,-8.407635756800001,3.418443252,-15.44718859,-2.31835211,-1.81407725,,,
imu,95.515066,0.1806421456,-8.138466996800002,3.338290776800001,-14.75931287,-1.91459897,-1.84398489,,,
imu,95.523531,0.1668846312,-7.966198990400001,3.271895816,-12.7629779,-1.74263004,-2.27016876,,,
imu,95.531995,0.1477437416,-8.0008918528,3.2019119384,-9.68996789,-1.69029167,-3.2720747,,,
imu,95.54046,0.0747691,-7.853148111200001,2.9004429272,-6.34031221,-1.66038403,-4.65530305,,,
imu,95.548925,0.0275150288,-7.523565918400001,2.844216564,-2.60185721,-1.712722400000001,-5.76936264,,,
imu,95.55739,-0.1148453376,-7.550482794400001,3.1229557688,1.91419643,-1.65290712,-6.636684199999999,,,
imu,95.565855,-0.1597067976,-8.084633244800001,3.2736902744,6.51997299,-1.22672325,-6.928283689999999,,,
imu,95.574319,-0.1650901728,-8.8801764688,3.405283890400001,9.74999811,-0.53884753,-6.60677656,,,
imu,95.582784,-0.176455076,-9.5429297712,3.5362793536,10.96873444,0.02939763000000006,-6.292746339999999,,,
imu,95.591249,-0.1626975616,-10.0770802216,3.7127344296,10.340674,0.4032431299999999,-6.25536179,,,
imu,95.599714,-0.2470371064,-10.4694684584,3.8844042832,8.22470847,0.6724118899999998,-6.02357758,,,
imu,95.608179,-0.2129423968,-10.7434224408,4.048896303200001,4.68813004,1.06868812,-5.42542478,,,
imu,95.616644,-0.1896144376,-10.724879704,3.9633604528,1.09921324,1.24065705,-5.25345585,,,
imu,95.625108,-0.2649816904,-10.4784407504,3.8215982392,-1.83921239,1.2780416,-5.79927028,,,
imu,95.633573,-0.3134320672,-10.1201472232,3.7223048744,-3.96265483,1.7266562,-6.21797724,,,
imu,95.642038,-0.2978800944000001,-9.8593526024,3.693593540000001,-5.226252619999999,2.05564024,-6.397423079999999,,,
imu,95.650503,-0.2918985664000001,-9.831239420800001,3.6032724672,-5.32345245,2.4743472,-6.382469260000001,,,
imu,95.65896,-0.2763465936,-9.793555794400001,3.514147700000001,-5.42065228,3.15474601,-6.075915950000001,,,
imu,95.667417,-0.296085636,-9.4765348104,3.4226303216,-6.243112379999999,3.67812971,-5.34317877,,,
imu,95.675874,-0.3331711096,-9.0673982952,3.3699928752,-7.26744905,4.194036499999999,-4.20668845,,,
imu,95.684332,-0.2320832864,-8.7306382688,3.338290776800001,-7.91046331,5.001542779999999,-3.17487487,,,
imu,95.692789,-0.2087553272,-8.511116191200001,3.332309248800001,-7.686156009999999,5.65203395,-2.74121409,,,
imu,95.701246,-0.107667504,-8.3747373528,3.1959304104,-7.10295703,4.9417275,-2.0757691,,,
imu,95.709703,-0.0634041968,-8.2072545688,3.051775585600001,-6.22068165,4.500589809999999,-3.17487487,,,
imu,95.71816,-0.2009793408,-8.088222161600001,3.1026185736,-5.18139116,3.69308353,-4.67773378,,,
imu,95.726617,-0.2135405496,-8.161196803200001,3.181574743200001,-3.4168404,3.28185348,-5.328224949999999,,,
imu,95.735075,-0.1710717008,-8.371148436,3.1827710488,-1.86164312,3.08745382,-5.44785551,,,
imu,95.743532,-0.1788476872,-8.304155322400002,3.026653168000001,-1.3233056,2.81080815,-5.79179337,,,
imu,95.751989,-0.2368685088,-8.079249869600002,3.1038148792,-0.55318387,2.72108523,-5.82170101,,,
imu,95.760446,-0.2817299688000001,-8.0798480224,3.2772791912,1.00949032,2.59397776,-5.193640569999999,,,
imu,95.768903,-0.2847207328,-8.521882941600001,3.4734733096,3.3123786,3.12483837,-4.13939626,,,
imu,95.777361,-0.2231109944,-9.176860257600001,3.54405534,4.97225262,3.76037572,-3.53376655,,,
imu,95.785818,-0.1860255208,-9.431075197600002,3.532690436800001,5.12926773,4.30619015,-3.10758268,,,
imu,95.794275,-0.1483418944,-9.575828175200002,3.7707552512,4.90496043,5.03892733,-3.01785976,,,
imu,95.802732,-0.1088638096,-10.0286298448,4.079402096,4.06754651,5.79409524,-3.21225942,,,
imu,95.811189,0.0173464312,-10.5382560304,4.181088072000001,2.21327283,6.37729422,-3.5711511,,,
imu,95.819646,0.13458438,-10.6578865904,4.0471018448,-0.31392275,6.16794074,-4.5431494,,,
imu,95.828104,0.09570444800000001,-10.4329811376,4.008820065600001,-3.49908641,5.6894185,-6.382469260000001,,,
imu,95.836561,0.07895616960000001,-10.1171564592,4.042914775200001,-6.25058929,5.50997266,-7.384375199999999,,,
imu,95.845018,0.152528964,-10.090837736,4.048896303200001,-8.30673954,5.592218669999999,-7.37689829,,,
imu,95.853475,0.2290925224000001,-10.0053018856,3.8706467688,-10.52738181,5.80904906,-7.11520644,,,
imu,95.862288,0.2278962168,-9.600352440000002,3.6523209968,-13.12934649,5.6894185,-6.950714420000001,,,
imu,95.871101,0.221316536,-9.023733140800001,3.493212352,-14.94623562,5.80904906,-6.19554651,,,
imu,95.879914,0.2141387024,-8.608615097600001,3.4758659208,-15.55934224,6.15298692,-4.602964679999999,,,
imu,95.888727,0.3080486920000001,-8.332268504000002,3.230025120000001,-15.18549674,6.42963259,-3.13749032,,,
imu,95.89754,0.3218062064,-8.0672868136,2.991960305600001,-14.67706686,6.51935551,-3.01785976,,,
imu,95.906353,0.3026653168,-7.860924097600002,3.1666209232,-13.82469912,6.534309329999999,-3.21973633,,,
imu,95.915166,0.3882011672000001,-7.8411850552,3.0858702952,-12.54614751,6.15298692,-3.60853565,,,
imu,95.923979,0.3612842912,-8.037379173600002,3.1684153816,-10.35541288,5.57726485,-4.31136519,,,
imu,95.932792,0.3905937784,-8.0379773264,2.9680341936,-7.9777555,4.8669584,-4.26650373,,,
imu,95.941605,0.4438293776000001,-8.079249869600002,3.2437826344,-5.622528849999999,4.77723548,-3.98985806,,,
imu,95.950418,0.4498109056,-8.1988804296,3.355637208000001,-3.00561035,4.410866889999999,-3.58610492,,,
imu,95.959231,0.4868963792000001,-8.329875892800002,3.428611849600001,-0.43355331,4.1192674,-3.40665908,,,
imu,95.968043,0.4528016696000001,-8.466254731200001,3.633180107200001,1.58521239,3.5211146,-3.54124346,,,
imu,95.976856,0.4216977240000001,-8.542818289600001,3.630787496000001,3.611455,2.75099287,-4.012288789999999,,,
imu,95.985669,0.331974804,-8.672019294400002,3.768960792800001,5.63769761,2.04816333,-4.85717962,,,
imu,95.994482,0.2464389536,-8.852063287200002,3.870048616000001,7.28261781,1.33785688,-5.34317877,,,
imu,96.003295,0.2159331608,-9.102091157600002,3.962762300000001,8.28452375,0.7397040799999997,-5.896470109999999,,,
imu,96.012108,0.1441548248,-9.33118368,4.0249701912,8.88267655,0.2462280199999998,-6.49462291,,,
imu,96.020921,0.07716171120000001,-9.5668558832,4.1140949584,8.583600149999999,-0.31454023,-7.122683349999999,,,
imu,96.029734,-0.004187069600000001,-9.742114653600002,4.174508391200001,7.97049353,-0.7855855599999999,-7.496528849999999,,,
imu,96.038547,-0.08912476720000001,-9.789368724800001,4.1493859736,6.61717282,-1.24915398,-7.735789969999999,,,
imu,96.04736,-0.1716698536,-9.792957641600001,4.1607508768,5.08440627,-1.23420016,-7.87785126,,,
imu,96.056173,-0.2578038568000001,-9.734936820000001,4.069233498400001,3.22265568,-1.286538530000001,-8.064774009999999,,,
imu,96.064653,-0.3403489432000001,-9.704431027200002,4.048298150400001,2.22074974,-1.00989286,-7.93766654,,,
imu,96.073133,-0.430670016,-9.492684936000002,3.746829139200001,1.65998149,-0.7257702800000003,-8.087204739999999,,,
imu,96.081613,-0.4928779072000001,-9.081155809600002,3.532690436800001,2.18336519,-0.5538013500000001,-8.79751119,,,
imu,96.090093,-0.5999472584000001,-8.62835414,3.219856522400001,4.41148437,-0.37435551,-10.19569336,,,
imu,96.098573,-0.7764023344000002,-8.6145966256,3.1570504784,8.516307959999999,-0.1799558500000003,-11.84809047,,,
imu,96.107053,-0.7949450712000001,-9.340754124800002,3.316757276000001,13.32396109,0.50044296,-12.87242714,,,
imu,96.115533,-0.6980443176000002,-10.4951890288,3.7181178048,15.14832713,1.37524143,-13.17898045,,,
imu,96.124014,-0.5359449088000001,-11.5311896784,4.082392860000001,11.85848673,1.9509635,-12.49110473,,,
imu,96.132494,-0.5347486032000001,-11.4199332576,4.0518870672,2.54225687,2.51920866,-10.54710813,,,
imu,96.140974,-0.5335522976000001,-10.1823551144,3.9053396312,-8.10486297,3.18465365,-7.87785126,,,
imu,96.149454,-0.4719425592000001,-9.2659850248,3.952593702400001,-13.47328435,3.88748319,-6.292746339999999,,,
imu,96.157934,-0.4575868920000001,-8.8801764688,3.733071624800001,-14.63968231,4.25385178,-6.47219218,,,
imu,96.166414,-0.4653628784000001,-8.571529624000002,3.4238266272,-14.01909878,4.36600543,-7.00305279,,,
imu,96.174894,-0.4378478496000001,-8.1312891632,3.2413900232,-12.90503919,4.59031273,-7.35446756,,,
imu,96.183374,-0.3923882368,-7.796323595200001,3.3024016088,-10.54981254,5.08378879,-7.272221549999999,,,
imu,95.314228,,,,,,,-92.32306439999999,172.2252508,122.2246048
imu,95.41579,,,,,,,-94.618018,172.1642148,125.6304136
imu,96.191854,-0.3325729568,-7.862718556000002,3.31974804,-6.64686552,5.62960322,-7.37689829,,,
imu,96.200334,-0.2889078024000001,-8.036182868000001,3.128339144,-2.65419558,6.295048209999999,-7.840466709999999,,,
imu,96.208814,-0.3056560808,-7.869298236800002,2.9094152192,0.7552753799999999,6.36981731,-8.087204739999999,,,
imu,96.217294,-0.2805336632,-7.591157184800001,2.8986484688,3.44696298,6.35486349,-8.23674294,,,
imu,96.225774,-0.2913004136,-7.633027880800001,3.0194753344,5.66012834,5.84643361,-8.66292681,,,
imu,96.234254,-0.290104108,-8.110951968000002,3.115179782400001,7.07326433,5.547357209999999,-9.03677231,,,
imu,96.242735,-0.3553027632,-8.511116191200001,3.0631404888,6.54988063,5.18846553,-9.21621815,,,
imu,96.251215,-0.3780325696000001,-8.383111492000001,2.9734175688,4.71056077,5.00901969,-8.939572479999999,,,
imu,96.259695,-0.3570972216000001,-8.296977488800001,3.1438911168,4.00025432,4.92677368,-8.74517282,,,
imu,96.268158,-0.4851019208000001,-8.6803934336,3.2013137856,5.35357503,4.73237402,-9.06667995,,,
imu,96.276622,-0.5580765624000001,-9.0333035856,3.0457940576,6.51249608,4.739850929999999,-9.268556519999999,,,
imu,96.285085,-0.6292567456000001,-9.263592413600001,3.2013137856,6.73680338,5.285665359999999,-8.81246501,,,
imu,96.293549,-0.6854831088000001,-9.326398457600002,3.320944345600001,6.34800406,5.726803049999999,-8.49095788,,,
imu,96.302012,-0.7734115704000001,-9.437056725600002,3.4686880872,5.80218963,6.34738658,-8.46852715,,,
imu,96.310476,-0.8182730304000002,-9.6984494992,3.6571062192,5.248898290000001,7.16984668,-7.982528,,,
imu,96.318939,-0.8063099744000001,-9.995133288000002,3.767166334400001,3.85071612,8.463352109999999,-6.1880696,,,
imu,96.327403,-0.7189796656000002,-10.1339047376,3.8933765752,1.5179202,9.81667282,-4.16182699,,,
imu,96.335867,-0.6621551496,-10.016068636,3.929863896000001,-1.31582869,10.80362494,-2.73373718,,,
imu,96.34433,-0.6418179544000001,-9.883278714400001,4.027362802400001,-3.98508556,11.25971645,-2.28512258,,,
imu,96.352794,-0.5676470072,-9.805518850400002,4.074018720800001,-5.57019048,11.43168538,-2.32250713,,,
imu,96.361257,-0.5419264368000001,-9.7953502528,4.0381295528,-6.41508131,11.14008589,-3.10758268,,,
imu,96.369721,-0.5855915912,-9.5249851872,3.810233336,-6.57957333,10.72137893,-4.15435008,,,
imu,96.378184,-0.6448087184,-9.1164468248,3.6325819544,-5.66739031,10.68399438,-4.47585721,,,
imu,96.386648,-0.5784137576,-8.801818452000001,3.421434016000001,-3.00561035,10.94568623,-3.98985806,,,
imu,96.395111,-0.4970649768000001,-8.872400482400002,3.2904385528,1.02444414,11.21485499,-3.68330475,,,
imu,96.403575,-0.5239818528000001,-9.385017432000001,3.314962817600001,5.0320679,11.32700864,-4.012288789999999,,,
imu,96.412038,-0.4629702672000001,-10.294209688,3.6170299816,7.62655567,11.79057706,-4.012288789999999,,,
imu,96.420502,-0.3553027632,-11.0891547592,3.797672127200001,6.92372613,12.3438684,-3.39170526,,,
imu,96.428966,-0.263187232,-11.385838548,4.0578685952,1.65998149,13.00931339,-2.71878336,,,
imu,96.437429,-0.1961941184,-10.9204756696,4.129048778400001,-6.77397299,13.40558962,-1.81407725,,,
imu,96.445893,-0.1513326584,-9.9299346328,3.9376398824,-14.1835908,13.42054344,-1.00657097,,,
imu,96.454356,-0.1561178808,-9.429878892000001,3.9310602016,-17.15192407,13.34577434,-1.65706214,,,
imu,96.462764,-0.2225128416,-9.319818776800002,3.706752901600001,-16.8752784,13.59251237,-3.13749032,,,
imu,96.471233,-0.2793373576,-9.0715853648,3.514745852800001,-16.77807857,13.83177349,-3.81041222,,,
imu,96.479702,-0.263187232,-8.4237858824,3.385544848,-17.38370828,14.31029573,-3.63844329,,,
imu,96.48817,-0.1830347568,-7.900402182400001,3.435789683200001,-16.59863273,14.93087926,-3.54124346,,,
imu,96.496639,-0.1387714496,-7.803501428800002,3.434593377600001,-14.71445141,15.11780201,-4.012288789999999,,,
imu,96.505107,-0.1399677552,-7.950048864800001,3.295821928000001,-12.45642459,14.99817145,-4.40108811,,,
imu,96.513576,-0.101685976,-7.982947268800001,3.2461752456,-10.48252035,14.90844853,-4.19921154,,,
imu,96.522045,-0.09570444800000001,-7.804697734400001,3.221052828,-9.22639947,14.5121723,-4.04219643,,,
imu,96.530513,-0.0861340032,-7.659346604,3.1977248688,-7.850648029999999,13.74205057,-4.44594957,,,
imu,96.538982,-0.1064711984,-7.708993286400001,3.2306232728,-6.0337589,12.78500609,-5.38056332,,,
imu,96.547451,-0.1220231712,-7.946459948000001,3.2413900232,-4.044900839999999,11.49150066,-6.225454149999999,,,
imu,96.555919,-0.0861340032,-8.1815339984,3.249166009600001,-2.19062716,10.44473326,-6.576868919999999,,,
imu,96.564388,-0.07656355840000001,-8.3131276144,3.2790736496,-0.38121494,9.10636637,-6.965668239999999,,,
imu,96.572857,-0.1351825328,-8.329875892800002,3.2832607192,1.22632071,7.865199309999999,-7.3096061,,,
imu,96.581325,-0.1363788384,-8.3843077976,3.3442723048,3.19274804,6.64646298,-6.71893021,,,
imu,96.589794,-0.1088638096,-8.533247844800002,3.4393786,5.09936009,6.01840254,-5.60487062,,,
imu,96.598262,-0.1459492832,-8.8012202992,3.4950068104,6.29566569,5.03892733,-4.74502597,,,
imu,96.606731,-0.1052748928,-9.118839436000002,3.6499283856,6.90877231,3.8949601,-4.16182699,,,
imu,96.6152,-0.131593616,-9.524387034400002,3.857487407200001,6.75923411,2.81080815,-3.77302767,,,
imu,96.623668,-0.1710717008,-9.9885536072,4.0441110808,5.98911238,1.68927165,-3.73564312,,,
imu,96.632137,-0.2338777448,-10.2068793792,4.0243720384,4.2096078,0.7546578999999998,-3.48890509,,,
imu,96.640606,-0.2918985664000001,-10.0232464696,3.9322565072,1.80204278,-0.23229422,-2.95804448,,,
imu,96.649074,-0.3750418056000001,-9.634447149600001,4.0040348432,-0.28401511,-0.8080162900000003,-2.3000764,,,
imu,96.657543,-0.4797185456,-9.560874355200001,4.139815528800001,-1.68967419,-1.32392308,-1.94866163,,,
imu,96.666011,-0.5281689224000001,-9.800135475200001,4.115889416800001,-2.77382614,-1.63047639,-1.29069355,,,
imu,96.674652,-0.5508987288,-9.727160833600001,3.973529050400001,-4.441177069999999,-1.30149235,-0.1990646899999999,,,
imu,96.683292,-0.6998387760000001,-9.429878892000001,4.0171942048,-6.243112379999999,-0.4939860700000001,0.8177950699999998,,,
imu,96.691932,-0.7458965416000001,-9.398176793600001,4.1236654032,-6.50480423,0.7471809899999999,2.10382359,,,
imu,96.700573,-0.6986424704000002,-9.711608860800002,4.2307347544,-5.68982104,2.35471664,3.65154396,,,
imu,96.709213,-0.6747163584000001,-9.899428840000002,4.1948455864,-6.37021985,3.81271409,4.21231221,,,
imu,96.717853,-0.6723237472000001,-9.604539509600002,4.037531400000001,-7.820740389999999,4.82209694,3.97305109,,,
imu,96.726493,-0.6519865520000001,-9.0781650456,3.9502010912,-8.77778487,5.569787939999999,3.29265228,,,
imu,96.735134,-0.6561736216000001,-8.6768045168,3.811429641600001,-8.20953971,6.19037147,2.43280763,,,
imu,96.743774,-0.6214807592000001,-8.3962708536,3.639759788000001,-6.77397299,6.624032249999999,1.62530135,,,
imu,96.752414,-0.5646562432000001,-8.222208388800002,3.5482424096,-4.75520729,6.796001179999999,1.03462546,,,
imu,96.761055,-0.5335522976000001,-8.141457760800002,3.4591176424,-2.8186876,6.75861663,-0.1093417699999999,,,
imu,96.769695,-0.5604691736,-8.0290050344,3.328720332000001,-0.7251528,6.5866477,-1.58976995,,,
imu,96.778335,-0.5718340768000001,-7.936889503200002,3.252156773600001,1.37585891,6.30252512,-2.27016876,,,
imu,96.786975,-0.5245800056000001,-7.866307472800001,3.2037063968,3.79837775,6.36981731,-1.97109236,,,
imu,96.795616,-0.5311596864,-7.762827038400001,3.1205631576,5.54797469,6.16794074,-1.9262309,,,
imu,96.804256,-0.5706377712,-7.711385897600001,3.054168196800001,7.39477146,5.80157215,-1.82155416,,,
imu,96.812896,-0.5491042704000001,-8.0379773264,3.1779858264,9.966828499999998,5.48006502,-1.50004703,,,
imu,96.821537,-0.4593813504000001,-8.668430377600002,3.3041960672,12.00054802,5.18098862,-1.1785399,,,
imu,96.830177,-0.3834159448,-9.108670838400002,3.2814662608,12.583747,4.65012801,-0.5803870999999998,,,
imu,96.838817,-0.3176191368,-9.205571592000002,3.2760828856,11.3874414,3.70803735,0.10001171,,,
imu,96.847457,-0.2727576768,-9.112857908,3.3520482912,9.981782319999999,2.64631613,0.7205952400000002,,,
imu,96.856098,-0.2607946208,-9.137980325600001,3.453734267200001,9.36119879,1.14345722,1.02714855,,,
imu,96.864738,-0.2649816904,-9.3688673064,3.550635020800001,8.90510728,-0.6883857300000003,0.7355490599999999,,,
imu,96.873378,-0.2727576768,-9.70502918,3.6266004264,8.2471392,-2.6847207,0.4514264799999999,,,
imu,96.882004,-0.3283858872000001,-9.864137824800002,3.6283948848,7.40224837,-4.44927146,0.3392728300000001,,,
imu,96.89063,-0.4079402096,-9.765442612800001,3.585926036,6.21341968,-5.43622358,0.9374256299999999,,,
imu,96.899256,-0.4438293776000001,-9.588987536800001,3.61882444,5.94425092,-5.750253799999999,2.95619133,,,
imu,96.907882,-0.4216977240000001,-9.526779645600001,3.7276882496,5.91434328,-5.60819251,5.251602699999999,,,
imu,96.916508,-0.4300718632,-9.651195428000001,3.8377483648,6.41529625,-5.04742426,7.046061100000001,,,
imu,96.925134,-0.4498109056,-9.859950755200002,3.806046266400001,7.26018708,-4.14271815,8.67602748,,,
imu,96.933759,-0.4868963792000001,-9.9658238008,3.754006972800001,7.31252545,-2.9837971,10.08168656,,,
imu,96.942385,-0.4677554896000001,-9.789368724800001,3.690004623200001,6.29566569,-1.21176943,11.48734564,,,
imu,96.951011,-0.4019586816,-9.580613397600002,3.7599885008,5.66760525,0.9415806499999997,12.79580489,,,
imu,96.959637,-0.3236006648,-9.641624983200002,3.7731478624,5.58535924,3.1472691,13.37152696,,,
imu,96.968263,-0.2386629672,-9.85456738,3.662489594400001,5.47320559,5.29314227,13.55844971,,,
imu,96.976889,-0.116639796,-9.9580478144,3.470482545600001,4.90496043,7.57359982,13.6257419,,,
imu,96.985515,-0.0131593616,-9.7995373224,3.2952237752,4.22456162,9.59236552,12.99768146,,,
imu,96.99414,0.1094619624,-9.604539509600002,3.2611290656,3.82828539,11.08774752,11.74156058,,,
imu,97.002766,0.2350740504,-9.7074217912,3.2593346072,3.9853005,12.4934066,10.23122476,,,
imu,95.517299,,,,,,,-94.6546396,172.786782,123.6284328
imu,95.618862,,,,,,,-94.3250452,171.7857916,126.0332512
imu,95.720607,,,,,,,-94.3860812,171.993314,125.9722152
imu,95.821987,,,,,,,-94.2884236,171.7247556,126.0088368
imu,95.923549,,,,,,,-95.3870716,172.2130436,126.3140168
imu,96.025112,,,,,,,-94.7522972,172.0421428,124.4463152
imu,96.126674,,,,,,,-95.2527924,171.3341252,125.9966296
imu,96.228267,,,,,,,-93.26301880000001,170.406378,124.067892
imu,97.011392,0.3654713608,-9.9885536072,3.3083831368,3.40957843,13.69718911,8.96015006,,,
imu,97.020018,0.4743351704000001,-10.156634544,3.3867411536,0.6954601,14.94583308,7.93581339,,,
imu,97.028644,0.5556839512000001,-9.986759148800001,3.4100691128,-4.254254319999999,15.79820082,7.50215261,,,
imu,97.03727,0.6908664840000001,-9.402363863200002,3.277877344000001,-9.53295278,16.36644598,7.1955993,,,
imu,97.045896,0.8021229048,-8.809594438400001,3.310775748,-13.55553036,16.56832255,5.909570779999999,,,
imu,97.054521,0.8918458248000001,-8.704917698400001,3.418443252,-15.20792747,15.9327852,3.7562207,,,
imu,97.063147,0.9073977976000001,-8.720469671200002,3.252156773600001,-14.87894343,15.05798673,1.34865568,,,
imu,97.071773,0.9504647992000002,-8.4118228264,3.0003344448,-14.13125243,14.09346534,-0.37103362,,,
imu,97.080249,0.9767835224000002,-7.909972627200001,2.951884068,-12.54614751,13.0167903,-1.7019236,,,
imu,97.088726,0.9301276040000002,-7.635420492000002,3.0679257112,-9.79464463,11.8952538,-2.5991528,,,
imu,97.097202,0.9217534648000001,-7.799912512000001,3.164228312,-6.42255822,10.66904056,-2.84589083,,,
imu,97.105678,0.9558481744000001,-8.285612585600001,3.1767895208,-3.22991765,9.51759642,-2.50942988,,,
imu,97.114154,0.9558481744000001,-8.701328781600001,3.233614036800001,-1.16629049,8.28390627,-2.06081528,,,
imu,97.122631,0.9020144224000001,-8.742003172,3.2150713,-0.80739881,6.930585559999999,-1.68696978,,,
imu,97.131107,0.7835801680000001,-8.597848347200001,3.2114823832,-0.46346095,5.52492648,-1.16358608,,,
imu,97.139583,0.6872775672000001,-8.6648414608,3.256941996000001,0.97210577,4.36600543,-0.3336490699999999,,,
imu,97.148059,0.571235924,-8.9328139152,3.288045941600001,2.45253395,3.41643786,0.07758098000000002,,,
imu,97.156536,0.4444275304,-9.199590064,3.328122179200001,3.10302512,2.84071579,0.3990881100000001,,,
imu,97.165012,0.3493212352000001,-9.294098206400001,3.3370944712,2.51982614,2.51920866,0.7953643399999999,,,
imu,97.173488,0.2560093984,-9.312042790400001,3.436387836,1.58521239,2.43696265,1.25145585,,,
imu,97.181964,0.1280046992,-9.3898026544,3.5279052144,0.3216146,2.44443956,1.07948692,,,
imu,97.190441,0.009570444800000001,-9.591978300800001,3.605066925600001,-0.83730645,2.7734236,0.6308723199999999,,,
imu,97.198917,-0.1363788384,-9.775611210400001,3.5548220904,-2.04108896,3.7454219,0.18225772,,,
imu,97.207393,-0.2446444952,-9.772620446400001,3.4375841416,-3.18505619,5.36791137,-0.1616801399999999,,,
imu,97.21587,-0.3654713608,-9.654784344800001,3.460313948,-4.635576729999999,7.506307629999999,-0.23644924,,,
imu,97.224346,-0.4857000736000001,-9.6918698184,3.572168521600001,-5.794497779999999,10.05593394,-0.26635688,,,
imu,97.232822,-0.6160973840000001,-9.970010870400001,3.6642840528,-7.40951034,13.3158667,-0.8719865899999999,,,
imu,97.241298,-0.7231667352000001,-10.219440588,3.789297988,-11.30498045,17.1290908,-1.67949287,,,
imu,97.249775,-0.7668318896,-10.3468471344,3.9436214104,-16.7257402,21.42083714,-2.35241477,,,
imu,97.258251,-0.726755652,-10.3911104416,4.025568344000001,-22.28856124,25.86959859,-3.35432071,,,
imu,97.266727,-0.6711274416,-10.2349925608,3.898759950400001,-26.54292303,30.07162201,-4.94690254,,,
imu,97.275203,-0.5072335744,-10.1829532672,3.9310602016,-28.87571895,34.15401487,-6.44976145,,,
imu,97.283669,-0.340947096,-10.0352095256,3.9364435768,-30.55054679,37.44385527,-8.17692766,,,
imu,97.292135,-0.1890162848,-9.709216249600003,3.826981614400001,-32.08331334,39.85142029,-9.8517555,,,
imu,97.300602,-0.0167482784,-9.353315333600001,3.801261044,-32.70389687,41.88513981,-10.80879998,,,
imu,97.309068,0.1872218264,-9.090128101600001,3.756399584,-32.31509755,43.26089125,-11.2723684,,,
imu,97.317534,0.3451341656,-8.782677562400002,3.5823371192,-31.71694475,43.96372079,-11.51162952,,,
imu,97.326,0.4833074624000001,-8.508723580000002,3.572766674400001,-30.62531589,44.07587444,-11.36956823,,,
imu,97.334466,0.6370327320000001,-8.171365400800001,3.4549305728,-29.72808669,43.63473674999999,-11.25741458,,,
imu,97.342932,0.8098988912000001,-7.793930984000001,3.375376250400001,-28.48691963,42.46086188,-10.93590745,,,
imu,97.351398,0.9570444800000002,-7.627046352800001,3.4710806984,-26.8943378,40.62154202,-10.55458504,,,
imu,97.359864,1.0760768872,-7.555268016800001,3.418443252,-24.44191132,38.213977,-10.3003701,,,
imu,97.36833,1.1652016544,-7.424272553600002,3.398106056800001,-21.89228501,35.32041283,-9.96390915,,,
imu,97.376796,1.2094649616,-7.250808241600001,3.4316026136,-19.20807432,32.00066479,-10.02372443,,,
imu,97.385262,1.2034834336,-7.212526462400001,3.5195310752,-16.01543375,28.61362456,-10.47233903,,,
imu,97.393728,1.1759684048,-7.621064824800001,3.7851109184,-11.54424157,25.21910742,-10.73403088,,,
imu,97.402195,1.1861370024,-8.146242983200002,3.8263834616,-7.850648029999999,22.0638514,-10.51720049,,,
imu,97.410661,1.1855388496,-8.3609798384,3.796475821600001,-5.532805929999999,19.17776414,-9.82932477,,,
imu,97.419127,1.1825480856,-8.2569012512,3.854496643200001,-4.10471612,16.65804547,-9.11154141,,,
imu,97.427593,1.187333308,-8.070875730400001,3.9376398824,-2.33268845,14.59441831,-7.713359239999999,,,
imu,97.436059,1.2280076984,-8.158206039200001,4.0680371928,-0.24663056,12.5681757,-6.01610067,,,
imu,97.444525,1.2483448936,-8.433356327200002,4.120674639200001,2.14598064,10.89334786,-4.20668845,,,
imu,97.452991,1.2776543808,-8.8323242448,4.267820228000001,4.07502342,9.3531044,-2.84589083,,,
imu,97.461457,1.2872248256,-9.047061100000002,4.3090927712,5.02459099,7.85024549,-1.53743158,,,
imu,97.469923,1.3147398544,-9.106876380000001,4.372496968,5.16665228,6.67637062,-0.5579563699999999,,,
imu,97.478389,1.3111509376,-9.18164548,4.486146000000001,5.34609812,5.55483412,-0.2140185099999998,,,
imu,97.486862,1.2704765472,-9.298285276000001,4.515455487200001,5.65265143,4.44077453,-0.52057182,,,
imu,97.495334,1.2435596712,-9.4244955168,4.5411760576,5.66012834,3.5958837,-0.9318018699999999,,,
imu,97.503807,1.2136520312,-9.5219944232,4.5232314736,5.15917537,3.05754618,-1.45518557,,,
imu,97.512279,1.130508792,-9.510031367200002,4.4939219864,4.48625347,2.6986545,-2.23278421,,,
imu,97.520752,1.0874417904,-9.547714993600001,4.562111405600001,3.79837775,2.66874686,-2.95056757,,,
imu,97.529224,1.0623193728,-9.513022131200001,4.495118292000001,2.64693361,2.75099287,-3.61601256,,,
imu,97.537696,1.0264302048,-9.408345391200001,4.4628180408,1.41324346,2.6238854,-3.96742733,,,
imu,97.546169,0.9887465784000001,-9.266583177600001,4.3790766488,0.05992275,2.63883922,-4.74502597,,,
imu,97.554552,0.9062014920000001,-9.079959504000001,4.355150536800001,-1.21115195,2.5491163,-5.53010152,,,
imu,97.563025,0.8529658928000001,-8.9262342344,4.336009647200001,-2.18315025,2.324809,-5.98619303,,,
imu,97.571497,0.8326286976000001,-8.761742214400002,4.2773906728,-3.14019473,2.09302479,-6.404899990000001,,,
imu,97.579969,0.7764023344000002,-8.5972501944,4.2361181296,-3.7906859,1.93600968,-6.84603768,,,
imu,97.588442,0.7775986400000001,-8.424384035200001,4.171517627200001,-3.77573208,1.30794924,-7.100252619999999,,,
imu,97.596914,0.7399150136000001,-8.273051376800002,4.1194783336,-3.5663786,0.5303505999999998,-7.76569761,,,
imu,97.605387,0.6938572480000001,-8.145046677600002,4.111104194400001,-3.117764,-0.4042631500000002,-8.655449899999999,,,
imu,97.613859,0.5826008272000001,-8.099587064800001,4.138021070400001,-2.42988828,-1.413646,-9.178833599999999,,,
imu,97.622332,0.5365430616000001,-8.130691010400001,4.154171196,-1.06909066,-2.303398290000001,-9.53772528,,,
imu,97.630804,0.4647647256,-8.228788069600002,4.1757046968,0.25432241,-2.93145873,-9.76203258,,,
imu,97.639277,0.382817792,-8.2676680016,4.12725432,1.56278166,-3.53708844,-9.90409387,,,
imu,97.647749,0.2584020096,-8.348418629600001,4.1559656544,2.77404108,-4.08290287,-10.14335499,,,
imu,97.656221,0.1094619624,-8.530257080800002,4.2205661568,3.87314685,-4.35954854,-10.0012937,,,
imu,97.664694,-0.007177833600000002,-8.673813752800001,4.1816862248,4.74794532,-4.09037978,-9.201264329999999,,,
imu,97.673166,-0.1040785872,-8.7671255896,4.1356284592,5.09188318,-3.53708844,-8.57320389,,,
imu,97.681639,-0.155519728,-8.925037928800002,4.178695460800001,5.4059134,-2.49032104,-7.96757418,,,
imu,97.690098,-0.1597067976,-9.011770084800002,4.099739291200001,5.30871357,-1.24915398,-7.44419048,,,
imu,97.698558,-0.1262102408,-8.9387954432,4.002838537600001,5.1816061,-0.2173404000000003,-6.87594532,,,
imu,97.707018,-0.09749890640000002,-8.9627215552,4.098542985600001,4.99468335,0.4705353199999998,-6.86846841,,,
imu,97.715478,-0.05802082160000001,-9.207964203200001,4.157161960000001,5.22646756,1.09111885,-7.42175975,,,
imu,97.723937,-0.005981528000000001,-9.324005846400002,4.0297554136,5.248898290000001,1.56216418,-7.69840542,,,
imu,97.732397,0.0197390424,-9.319818776800002,4.0387277056,4.45634583,1.66684092,-7.48905194,,,
imu,97.740857,0.03289840400000001,-9.468758824,4.217575392800001,3.57407045,1.75656384,-7.02548352,,,
imu,97.749317,0.06460050240000001,-9.4908904776,4.053083372800001,1.74970441,1.86124058,-6.203023419999999,,,
imu,97.757776,0.1082656568,-9.149345228800001,3.871843074400001,-0.49336859,1.67431783,-5.37308641,,,
imu,97.766236,0.1788476872,-9.0267239048,4.098542985600001,-2.13828879,1.37524143,-4.79736434,,,
imu,97.774696,0.3014690112,-9.203178980800002,4.1565638072,-2.42988828,0.9565344699999998,-4.19921154,,,
imu,97.783155,0.4372496968000001,-9.2510312048,3.9962588568,-2.28782699,0.07425908999999997,-3.81041222,,,
imu,97.791615,0.4910834488,-9.031509127200001,4.0124089824,-2.28782699,-1.00989286,-3.7954584,,,
imu,97.800075,0.5987509528,-8.694150948,4.030353566400001,-1.98875059,-2.48284413,-3.57862801,,,
imu,97.808535,0.7997302936000001,-8.4393378552,4.0112126768,-1.07656757,-4.1053336,-3.15244414,,,
imu,97.816994,0.9349128264000002,-8.408233909600002,4.0118108296,0.09730729999999999,-6.61757536,-2.95056757,,,
imu,96.329799,,,,,,,-95.89977400000001,170.5650716,126.3140168
imu,96.431392,,,,,,,-94.5325676,169.61291,123.7382976
imu,96.538265,,,,,,,-96.8031068,171.0899812,125.8013144
imu,96.634487,,,,,,,-97.53553880000001,171.016738,125.654828
imu,96.736019,,,,,,,-96.9251788,170.6261076,125.8623504
imu,96.837612,,,,,,,-97.608782,170.711558,125.6670352
imu,96.939296,,,,,,,-97.0960796,170.3331348,124.7514952
imu,97.040737,,,,,,,-96.7908996,170.8214228,125.2641976
imu,97.825454,0.9773816752000002,-8.4853956208,3.9920717872,1.63007385,-9.690585369999999,-2.88327538,,,
imu,97.833914,1.0042985512,-8.4118228264,3.934649118400001,2.54973378,-12.71873392,-2.39727623,,,
imu,97.842374,0.9642223136000001,-8.269462460000002,3.922087909600001,3.39462461,-15.73940556,-0.8719865899999999,,,
imu,97.850833,0.9390998960000001,-8.0894184672,3.857487407200001,4.59840712,-18.45352389,1.38604023,,,
imu,97.859293,0.9402962016,-7.959619309600002,3.8024573496,5.854528,-21.04801166,3.56929795,,,
imu,97.867753,0.9355109792000001,-7.899804029600001,3.7360623888,7.19289489,-23.70231471,5.431048539999999,,,
imu,97.876212,0.903210728,-7.768808566400001,3.6313856488,8.9200611,-26.35661776,6.941384360000001,,,
imu,97.884672,0.8302360864000001,-7.807090345600001,3.729482708,11.13322646,-29.04830536,7.883475020000001,,,
imu,97.893489,0.7506817640000001,-8.0798480224,3.8066444192,13.41368401,-31.59045476,8.249843610000001,,,
imu,97.902306,0.6687348304,-8.4136172848,3.8413372816,15.25300387,-33.73632793,7.76384446,,,
imu,97.911123,0.5574784096000001,-8.7557606864,3.867656004800001,16.80820115,-35.78500127,6.806799980000001,,,
imu,97.91994,0.3947808480000001,-8.975880916800001,3.846720656800001,17.77272254,-37.18318344,5.864709319999999,,,
imu,97.928757,0.2189239248,-9.161308284800002,3.905937784,18.31853697,-37.73647478,5.11701832,,,
imu,97.937574,0.08673215600000002,-9.2827333032,3.8897876584,18.19890641,-37.36262928,4.78055737,,,
imu,97.946391,-0.04845037680000001,-9.348530111200002,3.838944670400001,17.48112305,-36.01678548,5.034772309999999,,,
imu,97.955208,-0.1441548248,-9.3802322096,3.862272629600001,16.03060251,-34.22980399,5.1768336,,,
imu,97.964025,-0.200381188,-9.441841948000002,3.8778246024,14.53522051,-32.00916172,5.04972613,,,
imu,97.972841,-0.2835244272,-9.592576453600001,3.8933765752,12.78562357,-29.39972013,4.51886552,,,
imu,97.981658,-0.3182172896000001,-9.706225485600001,3.9011525616,10.27338181,-26.73794017,3.6066825,,,
imu,97.990475,-0.3517138464,-9.769629682400002,3.983099495200001,7.20784871,-23.98643729,2.40289999,,,
imu,97.999292,-0.3373581792000001,-9.6434194416,3.9543881608,4.03016196,-21.12278076,0.9822870900000003,,,
imu,98.008109,-0.3283858872000001,-9.316229860000002,3.922087909600001,1.12912088,-18.42361625,-0.9318018699999999,,,
imu,98.016926,-0.3098431504,-9.322809540800002,4.030353566400001,0.38142988,-16.03848196,-3.20478251,,,
imu,98.025743,-0.2883096496000001,-9.6846919848,4.1117023472,1.30856672,-13.91503952,-5.500193879999999,,,
imu,98.03456,-0.2679724544000001,-9.737927584000001,3.9980533152,1.71979677,-11.99347365,-7.61615941,,,
imu,98.043377,-0.2075590216,-9.393391571200002,3.944219563200001,1.34595127,-10.34855345,-9.35080253,,,
imu,98.052194,-0.1758569232,-9.0129663904,3.939434340800001,1.6674584,-9.03261729,-10.63683105,,,
imu,98.061011,-0.155519728,-8.8389039256,3.894572880800001,2.76656417,-8.03818826,-11.51162952,,,
imu,98.069828,-0.1280046992,-8.753368075200001,3.783914612800001,3.40210152,-7.08114378,-12.01258249,,,
imu,98.078645,-0.1040785872,-8.674411905600001,3.7390531528,3.20770186,-6.737205919999999,-12.19950524,,,
imu,98.087462,-0.06101158560000001,-8.6480931824,3.7378568472,3.04320984,-6.520375530000001,-12.28922816,,,
imu,98.095931,-0.06998387760000001,-8.629550445600001,3.729482708,2.55721069,-6.46056025,-12.33408962,,,
imu,98.104401,-0.05443190480000001,-8.550594276000002,3.721108568800001,1.75718132,-6.85683648,-12.02753631,,,
imu,98.112871,-0.007177833600000002,-8.4794140928,3.6768452616,0.8449983,-7.260589619999999,-11.720983,,,
imu,98.121341,0.0017944584,-8.396869006400001,3.662489594400001,0.30666078,-7.83631169,-11.39947587,,,
imu,98.129811,-0.0125612088,-8.3400444904,3.63377826,0.44872207,-8.67372561,-11.13030711,,,
imu,98.138281,-0.02990764000000001,-8.329875892800002,3.5787482024,1.07678251,-9.42141661,-10.59196959,,,
imu,98.146751,-0.09869521200000002,-8.3095386976,3.537475659200001,2.46001086,-10.01956941,-9.67978657,,,
imu,98.155221,-0.1698753952,-8.304155322400002,3.4740714624,4.658222400000001,-10.37846109,-8.5059117,,,
imu,98.163691,-0.218325772,-8.3789244224,3.434593377600001,8.060216449999999,-10.27378435,-7.01800661,,,
imu,98.172161,-0.2524204816,-8.456684286400002,3.37956332,11.40987213,-10.06443087,-5.31327113,,,
imu,98.18063,-0.2643835376,-8.4824048568,3.326327720800001,14.72214326,-9.406462789999999,-3.80293531,,,
imu,98.1891,-0.2913004136,-8.490778996000001,3.3083831368,17.82506091,-8.65877179,-2.84589083,,,
imu,98.19757,-0.2835244272,-8.7216659768,3.382554084,21.05508603,-8.17277264,-2.25521494,,,
imu,98.20604,-0.272159524,-9.0542389336,3.390330070400001,23.59723543,-7.634435119999999,-2.38979932,,,
imu,98.21451,-0.3170209840000001,-9.242058912800001,3.250960468,25.25710945,-7.20825125,-3.24216706,,,
imu,98.22298,-0.3887993200000001,-9.3210150824,3.1714061456,26.4160305,-6.909174849999999,-4.42351884,,,
imu,98.23145,-0.4623721144,-9.446627170400001,3.1827710488,27.29830588,-6.191391489999999,-5.79927028,,,
imu,98.23992,-0.5359449088000001,-9.950869980800002,3.300607150400001,28.44975002,-5.533423409999999,-6.943237509999999,,,
imu,98.24839,-0.5233837000000001,-10.5179188352,3.1899488824,28.57685749,-4.41936382,-7.668497779999999,,,
imu,98.256859,-0.5162058664000001,-10.7021498976,3.005717820000001,26.07956955,-3.30530423,-7.982528,,,
imu,98.265329,-0.5365430616000001,-10.6513069096,3.0972351984,21.81773085,-2.22862919,-7.511482669999999,,,
imu,98.273799,-0.5251781584,-10.5639766008,3.1438911168,17.12970828,-1.25663089,-7.13016026,,,
imu,98.282269,-0.5191966304000001,-10.5298818912,3.137311436000001,12.24728605,-0.3668786000000002,-6.943237509999999,,,
imu,98.290739,-0.4779240872000001,-10.5029650152,3.1020204208,7.77609387,0.1789358299999999,-7.26474464,,,
imu,98.299213,-0.4486146000000001,-10.3444545232,3.0392143768,3.43200916,0.1639820099999998,-8.12458929,,,
imu,98.307687,-0.472540712,-10.1374936544,2.9931566112,-0.29149202,-0.1051867500000001,-9.38818708,,,
imu,98.31616,-0.4910834488,-9.876699033600001,2.9165930528,-2.99065653,-0.35192478,-10.225601,,,
imu,98.324634,-0.5180003248000001,-9.547714993600001,2.829262744000001,-4.78511493,-0.7033395499999999,-10.36766229,,,
imu,98.333108,-0.5461135064000001,-9.171476882400002,2.713221100800001,-5.72720559,-0.7781086500000001,-10.39009302,,,
imu,98.341581,-0.5969564944000001,-8.6899638784,2.5397567888,-5.89169761,-0.8528777500000002,-10.58449268,,,
imu,98.350055,-0.6477994824000001,-8.3579890744,2.530186344,-4.94960695,-0.7706317400000002,-10.53963122,,,
imu,98.358529,-0.6603606912000002,-8.3843077976,2.6306760144,-3.15514855,-0.35192478,-9.97138606,,,
imu,98.367003,-0.6358364264000002,-8.694749100800001,2.688696836,-1.33078251,0.1415512799999998,-9.07415686,,,
imu,98.375476,-0.6286585928,-8.962123402400001,2.709632184,-0.98684465,0.50044296,-8.24421985,,,
imu,98.38395,-0.6041343280000001,-8.9848532088,2.789186506400001,-1.27844414,0.9341037399999998,-7.578774859999999,,,
imu,98.392424,-0.6047324808000001,-8.925037928800002,2.9016392328,-2.10838115,1.09111885,-7.384375199999999,,,
imu,98.400897,-0.6352382736000001,-8.934010220800001,2.9560711376,-2.78877996,1.21822632,-7.1600679,,,
imu,98.409371,-0.6322475096000001,-8.960328944,2.94590254,-3.43179422,1.15093413,-7.06286807,,,
imu,98.417845,-0.6561736216000001,-8.993825500800002,2.9722212632,-3.64862461,1.09859576,-7.26474464,,,
imu,98.426319,-0.6777071224000001,-9.089529948800001,3.0260550152,-3.52151714,0.8967191899999998,-7.4591443,,,
imu,98.434792,-0.7046239984,-9.207964203200001,3.0721127808,-3.31964057,0.86681155,-7.6834516,,,
imu,98.443266,-0.7578595976000001,-9.260601649600002,3.0912536704,-3.30468675,0.7097964399999999,-7.76569761,,,
imu,98.45174,-0.7853746264000001,-9.319818776800002,3.136115130400001,-2.86354906,0.7097964399999999,-7.52643649,,,
imu,98.460213,-0.8140859608000002,-9.388008196000001,3.138507741600001,-2.32521154,1.0537343,-6.84603768,,,
imu,98.468687,-0.8314323920000001,-9.410139849600002,3.146881880800001,-1.75696638,1.62945637,-5.91142393,,,
imu,98.477161,-0.8146841136000001,-9.517807353600002,3.247371551200001,-1.50275144,2.2500399,-4.86465653,,,
imu,98.485635,-0.7907580016000001,-9.647606511200001,3.2802699552,-1.16629049,2.72856214,-3.80293531,,,
imu,98.494108,-0.7698226536000001,-9.721179305600002,3.2712976632,-0.98684465,3.22951511,-2.95804448,,,
imu,98.502563,-0.7542706808000001,-9.612315496,3.2461752456,-1.42050543,3.4463455,-2.65149117,,,
imu,98.511018,-0.7650374312,-9.5184055064,3.286849636000001,-1.58499745,3.76037572,-2.41223005,,,
imu,98.519472,-0.7674300424000001,-9.516012895200001,3.282064413600001,-1.50275144,3.91739083,-2.32250713,,,
imu,98.527927,-0.7644392784,-9.532163020800002,3.2617272184,-1.39059779,4.08935976,-2.27764567,,,
imu,98.536381,-0.7464946944,-9.505844297600001,3.2647179824,-1.51770526,4.37348234,-2.30755331,,,
imu,98.544836,-0.7405131664000002,-9.382624820800002,3.2431844816,-1.64481273,4.44077453,-2.63653735,,,
imu,98.553291,-0.7572614448000001,-9.2546201216,3.224043592000001,-1.78687402,4.46320526,-2.88327538,,,
imu,98.561745,-0.7411113192000001,-9.2169364952,3.2264362032,-1.70462801,4.523020539999999,-3.06272122,,,
imu,98.5702,-0.7668318896,-9.127811728000001,3.1606393952,-1.54013599,4.694989469999999,-3.1225365,,,
imu,98.578655,-0.7740097232000002,-9.026125752000002,3.1474800336,-1.16629049,4.92677368,-2.83093701,,,
imu,98.587109,-0.7494854584000001,-8.999208876,3.1624338536,-0.71019898,5.19594244,-2.57672207,,,
imu,98.595564,-0.6986424704000002,-8.965114166400001,3.1181705464,-0.11204618,5.5398803,-2.46456842,,,
imu,98.604019,-0.7100073736000001,-8.91247672,3.0703183224,0.31413769,5.57726485,-2.46456842,,,
imu,98.612473,-0.7100073736000001,-8.926832387200001,3.075103544800001,0.97210577,5.681941589999999,-2.41970696,,,
imu,98.620928,-0.6842868032,-8.942384360000002,3.049981127200001,1.62259694,5.5398803,-2.53933752,,,
imu,98.629382,-0.6627533024,-8.9531511104,3.0487848216,2.09364227,5.65203395,-2.64401426,,,
imu,98.637837,-0.6454068712000001,-9.040481419200002,3.0673275584,2.83385636,5.80904906,-2.55429134,,,
imu,97.142243,,,,,,,-94.5813964,171.0289452,122.6274424
imu,97.243744,,,,,,,-96.3758548,171.7003412,124.1167208
imu,97.345337,,,,,,,-93.94662200000002,171.7369628,120.5522184
imu,97.4469,,,,,,,-98.4999076,174.5324116,119.36812
imu,97.548493,,,,,,,-98.29238520000001,175.0206996,117.3783464
imu,97.650025,,,,,,,-97.76747560000001,174.7521412,119.2826696
imu,97.751587,,,,,,,-98.8417092,174.49579,120.58884
imu,97.85315,,,,,,,-98.6708084,174.678898,121.382308
imu,98.646245,-0.6328456624000001,-9.117643130400001,3.0529718912,3.39462461,5.73427996,-2.49447606,,,
imu,98.6547,-0.6274622872000001,-9.2139457312,3.071514628,3.44696298,5.65203395,-2.57672207,,,
imu,98.663154,-0.6077232448000001,-9.229497704000002,3.083477684,3.19274804,5.592218669999999,-2.56924516,,,
imu,98.671609,-0.6125084672000001,-9.224114328800002,3.088861059200001,2.90862546,5.42772665,-2.59167589,,,
imu,98.680063,-0.62806044,-9.2755554696,3.092449976,2.54973378,5.20341935,-2.76364482,,,
imu,98.688518,-0.6382290376000002,-9.322809540800002,3.089459212,2.28056502,5.06135806,-2.73373718,,,
imu,98.696973,-0.6436124128,-9.403560168800002,3.09544074,1.95905789,5.07631188,-2.58419898,,,
imu,98.705436,-0.6328456624000001,-9.471749588000002,3.088861059200001,1.47305874,5.17351171,-2.24773803,,,
imu,98.7139,-0.6549773160000001,-9.462777296000002,3.087066600800001,0.6132140899999999,5.27818845,-1.70940051,,,
imu,98.722363,-0.6525847048000001,-9.4173176832,3.091851823200001,-0.2017691,5.53240339,-1.253309,,,
imu,98.730827,-0.6771089696000001,-9.414925072,3.1205631576,-0.63542988,6.010925629999999,-0.7074945699999999,,,
imu,98.73929,-0.684884956,-9.490292324800002,3.1068056432,-1.23358268,6.339909669999999,-0.26635688,,,
imu,98.747754,-0.6747163584000001,-9.505246144800001,3.079290614400001,-1.67472037,6.93806247,0.07010407000000018,,,
imu,98.756218,-0.6687348304,-9.495675700000001,3.088861059200001,-2.20558098,7.386677069999999,-0.07195722000000004,,,
imu,98.764681,-0.6795015808000001,-9.4286825864,3.011699348,-2.13828879,7.88015313,-0.4233719899999999,,,
imu,98.773145,-0.7369242496000001,-9.018349765600002,2.7108284896,-2.0709966,8.4558752,-0.6775869299999999,,,
imu,98.781608,-0.7458965416000001,-8.7557606864,2.743726893600001,-0.79244499,9.19608929,-0.91684805,,,
imu,98.790072,-0.7506817640000001,-9.2851259144,3.0739072392,1.36090509,9.93630338,-1.52247776,,,
imu,98.798535,-0.7106055264000001,-9.9269438688,2.9811935552,2.57216451,10.65408674,-1.99352309,,,
imu,98.806999,-0.6448087184,-9.986759148800001,2.79636434,1.36090509,11.45411611,-2.02343073,,,
imu,98.815462,-0.6184899952000001,-9.786976113600002,3.053570044,-1.89902767,12.17189947,-1.78416961,,,
imu,98.823926,-0.5646562432000001,-9.8061170032,3.399900515200001,-5.34588318,12.8672521,-0.99909406,,,
imu,98.832389,-0.4486146000000001,-9.959244120000001,3.4100691128,-8.88246161,13.0167903,-0.08691103999999994,,,
imu,98.840853,-0.3301803456000001,-10.0244427752,3.250960468,-11.55171848,12.77752918,-0.4682334499999998,,,
imu,98.849317,-0.3469286240000001,-10.0387984424,3.3598242776,-13.63029946,12.02236127,-1.73183124,,,
imu,98.85778,-0.3295821928000001,-9.818080059200001,3.389133764800001,-15.49952696,11.15503971,-2.2253073,,,
imu,98.866244,-0.2859170384,-9.416121377600001,3.3341037072,-16.99490896,10.15313377,-2.06829219,,,
imu,98.874707,-0.2781410520000001,-9.200786369600001,3.361020583200001,-17.39118519,9.211043109999999,-2.38979932,,,
imu,98.883171,-0.31403022,-9.1475507704,3.313766512,-17.26407772,8.06707588,-3.07767504,,,
imu,98.891634,-0.3630787496,-9.066800142400002,3.247969704,-17.12201643,6.818431909999999,-3.10758268,,,
imu,98.900098,-0.3487230824000001,-8.794042465600002,3.1827710488,-17.33884682,6.02587945,-2.79355246,,,
imu,98.909313,-0.400762376,-8.390289325600001,3.154657867200001,-17.4734312,5.27818845,-2.53186061,,,
imu,98.918528,-0.4055475984,-8.0971944536,3.12534838,-16.81546312,4.58283582,-2.27764567,,,
imu,98.927743,-0.4013605288,-8.022425353600001,3.108001948800001,-15.49205005,4.11179049,-2.00847691,,,
imu,98.936958,-0.4539979752000001,-8.042164396,3.113385324,-13.74245311,3.68560662,-1.48509321,,,
imu,98.946173,-0.4557924336,-8.0696794248,3.1337225192,-12.05267145,3.30428421,-0.99909406,,,
imu,98.955388,-0.4731388648000001,-8.1635894144,3.247371551200001,-9.66006025,3.11736146,-0.3560797999999998,,,
imu,98.964603,-0.5180003248000001,-8.431561868800001,3.316757276000001,-7.24501832,3.12483837,0.3317959200000002,,,
imu,98.973818,-0.5000557408,-8.477619634400002,3.1181705464,-4.53089999,3.27437657,1.12434838,,,
imu,98.983033,-0.5497024232000001,-8.1504300528,2.9512859152,-1.5476129,3.58840679,1.75988573,,,
imu,98.992248,-0.580208216,-7.9847417272,3.0649349472,2.57964142,4.14169813,2.20102342,,,
imu,99.001463,-0.5556839512000001,-8.2431437368,3.1714061456,7.32747927,5.06135806,3.05339116,,,
imu,99.010678,-0.502448352,-8.707310309600002,3.166022770400001,11.17808792,6.14551001,4.204835299999999,,,
imu,99.019893,-0.4199032656,-9.072781670400001,3.210286077600001,12.8828234,7.16984668,5.603017469999999,,,
imu,99.029108,-0.296085636,-9.249834899200001,3.372983639200001,12.91273104,8.074552789999998,6.829230710000001,,,
imu,99.038322,-0.1710717008,-9.459786532,3.4956049632,12.68842374,8.74747469,7.487198790000001,,,
imu,99.047537,-0.08733030880000002,-9.8402117128,3.547046104000001,12.78562357,8.99421272,7.44981424,,,
imu,99.056752,-0.0233279592,-10.102800792,3.493810504800001,12.60617773,8.80728997,6.918953630000001,,,
imu,99.065967,0.007775986400000001,-10.03401322,3.487230824,11.63417943,8.710090139999998,6.545108130000001,,,
imu,99.075182,0.05443190480000001,-9.922756799200002,3.553027632,10.6397504,8.35867537,6.126401170000001,,,
imu,99.084397,0.1130508792,-9.907204826400001,3.547046104000001,10.14627434,7.932491499999999,5.50581764,,,
imu,99.093612,0.09869521200000002,-9.9753942456,3.5177366168,9.4434448,7.483876899999999,4.82541883,,,
imu,99.102827,0.1268083936,-9.824659740000001,3.402891279200001,8.194800829999998,7.080123759999999,4.60858844,,,
imu,99.112042,0.1429585192,-9.543527924000001,3.358627972000001,6.21341968,6.54926315,4.272127490000001,,,
imu,99.120142,0.1202287128,-9.2707702472,3.3711891808,4.45634583,5.89129507,3.66649778,,,
imu,99.128242,0.0813487808,-9.088931796,3.328720332000001,2.80394872,5.36791137,3.01600661,,,
imu,99.136342,0.0550300576,-9.079959504000001,3.331112943200001,1.58521239,4.75480475,2.76179167,,,
imu,99.144442,0.06400234960000001,-9.2103568144,3.3179535816,0.44872207,4.104313579999999,2.44776145,,,
imu,99.152542,-0.003588916800000001,-9.243853371200002,3.3113739008,-0.9494601,3.42391477,1.8869932,,,
imu,99.160642,-0.1022841288,-9.154728604,3.3215424984,-2.94579507,3.15474601,1.58043989,,,
imu,99.168741,-0.1154434904,-8.9627215552,3.295821928000001,-4.134623759999999,3.12483837,1.92437775,,,
imu,99.176841,-0.1549215752,-8.745592088800002,3.2443807872,-4.59071527,3.05754618,2.17859269,,,
imu,99.184941,-0.2051664104,-8.560164720800001,3.094244434400001,-3.97013174,3.39400713,2.19354651,,,
imu,99.193041,-0.2386629672,-8.169570942400002,2.864553759200001,-2.60933412,3.66317589,2.21597724,,,
imu,99.201141,-0.2649816904,-7.953039628800001,2.8723297456,-0.18681528,3.82766791,1.6626859,,,
imu,99.209241,-0.3170209840000001,-8.162393108800002,2.9626508184,3.24508641,4.32114397,0.5112417599999999,,,
imu,99.217341,-0.3116376088,-8.8113888968,3.098431504000001,6.8265263,4.95668132,-0.4308489,,,
imu,99.225441,-0.2578038568000001,-9.487899713600001,3.2043045496,8.44153886,5.73427996,-0.9243249599999999,,,
imu,99.23354,-0.1991848824,-9.8198745176,3.3532445968,7.29757163,6.30252512,-0.8944173199999998,,,
imu,99.24164,-0.11963056,-9.851576616000001,3.454332420000001,4.90496043,6.601601519999999,-0.6775869299999999,,,
imu,99.24974,-0.1483418944,-9.800135475200001,3.5452516456,2.31794957,6.63898607,-1.02152479,,,
imu,99.25784,-0.152528964,-10.0980155696,3.630189343200001,1.10669015,6.59412461,-1.6271545,,,
imu,99.26594,-0.1154434904,-10.4533183328,3.6242078152,0.18703022,6.67637062,-2.2253073,,,
imu,99.27404,-0.09929336480000002,-10.4963853344,3.5009883384,-1.36069015,6.91563174,-2.86832156,,,
imu,99.28214,-0.1028822816,-10.1817569616,3.377768861600001,-3.01308726,6.89320101,-3.28702852,,,
imu,99.29024,-0.09450814240000002,-9.7636481544,3.385544848,-4.254254319999999,7.07264685,-3.48890509,,,
imu,99.298339,-0.0855358504,-9.433467808800001,3.320944345600001,-4.844930209999999,7.2595696,-3.75807385,,,
imu,99.306439,-0.1100601152,-9.263592413600001,3.25993276,-4.82997639,7.32686179,-3.95995042,,,
imu,99.314899,-0.092713684,-9.160710132,3.196528563200001,-5.15896043,7.13993904,-4.16182699,,,
imu,99.323359,-0.09510629520000001,-9.081155809600002,3.2084916192,-5.92160525,7.012831569999999,-4.34874974,,,
imu,99.331819,-0.155519728,-8.914271178400002,3.188154424,-7.282402869999999,6.796001179999999,-4.341272829999999,,,
imu,99.340278,-0.1309954632,-8.753368075200001,3.1480781864,-8.77778487,6.54178624,-4.30388828,,,
imu,99.348738,-0.1369769912,-8.477021481600001,3.0332328488,-9.854459910000001,6.16794074,-4.81231816,,,
imu,99.357198,-0.1722680064,-8.1845247624,2.9764083328,-10.38532052,5.48754193,-5.2908404,,,
imu,99.365657,-0.2195220776,-7.930907975200001,2.9183875112,-9.68249098,4.979112049999999,-5.45533242,,,
imu,99.374117,-0.2942911776,-7.953637781600001,2.963248971200001,-7.76092511,4.40338998,-5.69459354,,,
imu,99.382577,-0.3397507904000001,-8.254508640000001,2.990764,-4.99446841,4.09683667,-5.61982444,,,
imu,99.391037,-0.3553027632,-8.5129106496,2.978202791200001,-2.21305789,4.23889796,-5.05905619,,,
imu,99.399496,-0.3517138464,-8.576912999200001,2.9925584584,0.27675314,4.59031273,-4.079580979999999,,,
imu,99.407956,-0.3541064576,-8.576912999200001,3.0134938064,2.69179507,5.263234629999999,-2.90570611,,,
imu,99.416416,-0.3415452488,-8.663645155200001,3.088861059200001,5.15917537,6.14551001,-1.52995467,,,
imu,99.424876,-0.296085636,-8.886756149600002,3.094244434400001,7.888247519999999,7.13246213,-0.07943412999999988,,,
imu,99.433335,-0.2207183832,-9.139774784,3.079290614400001,9.877105579999998,8.074552789999998,1.61782444,,,
imu,99.441795,-0.107667504,-9.422102905600001,3.2156694528,11.088365,9.009166539999999,3.04591425,,,
imu,99.450255,-0.023926112,-9.603343204000002,3.216267605600001,11.23042629,9.99611866,3.980528,,,
imu,99.458714,0.1130508792,-9.6290637744,3.146881880800001,10.9388268,10.71390202,4.54877316,,,
imu,97.954743,,,,,,,-95.3138284,173.1407908,122.2001904
imu,98.06427,,,,,,,-96.388062,172.7501604,124.7270808
imu,98.158905,,,,,,,-94.27621640000001,171.0533596,123.5429824
imu,98.2594,,,,,,,-95.94860279999999,170.3209276,127.5957728
imu,98.360993,,,,,,,-95.53355800000001,168.3555684,125.2519904
imu,98.462525,,,,,,,-96.0706748,169.2955228,127.91316
imu,98.564087,,,,,,,-95.9730172,169.246694,127.2173496
imu,98.66565,,,,,,,-96.3026116,169.2222796,127.2783856
imu,99.467174,0.236270356,-9.709814402400001,3.179780284800001,10.47525838,11.15503971,4.384281140000001,,,
imu,99.475634,0.3241988176,-9.809107767200002,3.1857618128,10.13132052,11.28962409,3.50200576,,,
imu,99.484094,0.4533998224,-9.9753942456,3.231221425600001,9.25652205,11.16999353,2.37299235,,,
imu,99.492553,0.5395338256000001,-10.0920340416,3.2497641624,8.00040117,10.71390202,1.20659439,,,
imu,99.501013,0.6202844536000002,-10.1518493216,3.2802699552,6.2283735,9.77181136,-0.4458027199999999,,,
imu,99.509473,0.6531828576,-10.0118815664,3.2611290656,4.03763887,8.70261323,-2.32250713,,,
imu,99.517935,0.6956517064000001,-9.832435726400002,3.253951232,2.2656112,7.67827656,-4.057150249999999,,,
imu,99.526397,0.6944554008000001,-9.7821908912,3.2497641624,0.67302937,6.422155679999999,-5.72450118,,,
imu,99.53486,0.6597625384000001,-9.746301723200002,3.2037063968,-0.5681376899999999,5.22585008,-7.06286807,,,
imu,99.543322,0.6579680800000002,-9.644017594400001,3.221052828,-2.18315025,4.15665195,-8.11711238,,,
imu,99.551784,0.6477994824000001,-9.441841948000002,3.186958118400001,-3.51404023,3.16222292,-8.92461866,,,
imu,99.560246,0.5897786608000001,-9.178654716,3.142694811200001,-4.44865398,2.19022462,-9.69474039,,,
imu,99.568709,0.5592728680000001,-8.972292000000001,3.1020204208,-4.777638019999999,1.06121121,-10.40504684,,,
imu,99.577171,0.4623721144,-8.846679912,3.0739072392,-4.493515439999999,0.1191205499999999,-10.93590745,,,
imu,99.585633,0.3265914288,-8.7802849512,3.051775585600001,-3.65610152,-0.7706317400000002,-11.07796874,,,
imu,99.594095,0.2231109944,-8.7701163536,3.022466098400001,-2.63924176,-1.42112291,-11.06301492,,,
imu,99.602558,0.05562821040000001,-8.805407368800001,2.999736292,-1.09152139,-1.91459897,-10.88356908,,,
imu,99.61102,-0.1609031032,-8.937599137600001,3.049981127200001,0.28423005,-1.86973751,-10.65178487,,,
imu,99.619482,-0.3451341656,-9.020742376800001,3.0786924616,1.87681188,-1.36130763,-9.91157078,,,
imu,99.627945,-0.46356842,-9.010573779200001,3.0051196672,3.10302512,-0.35192478,-8.655449899999999,,,
imu,99.636407,-0.5221873944000001,-8.965712319200001,2.9692304992,4.30680763,0.92662683,-7.19745245,,,
imu,99.644869,-0.5730303824,-8.940589901600001,2.9554729848,5.36852885,2.24256299,-6.180592689999999,,,
imu,99.653331,-0.5736285352000001,-8.920252706400001,2.9692304992,6.18351204,3.35662258,-5.68711663,,,
imu,99.661794,-0.520392936,-8.966310472000002,2.942911776,6.99101832,4.23142105,-5.29831731,,,
imu,99.670256,-0.4360533912000001,-9.081155809600002,2.933939484000001,7.58917112,4.7921893,-5.31327113,,,
imu,99.678718,-0.3499193880000001,-9.162504590400001,2.9237708864,7.82095533,4.92677368,-5.61982444,,,
imu,99.68718,-0.2679724544000001,-9.203777133600001,2.9321450256,7.65646331,4.74732784,-6.292746339999999,,,
imu,99.695643,-0.1692772424,-9.2588071912,2.905228149600001,7.58169421,4.32862088,-6.87594532,,,
imu,99.704105,-0.08733030880000002,-9.323407693600002,2.859768536800001,7.50692511,3.63326825,-7.24231391,,,
imu,99.712567,-0.0406743904,-9.384419279200001,2.8513943976,7.34243309,2.68370068,-7.518959579999999,,,
imu,99.721047,-0.0173464312,-9.404756474400001,2.8854891072,6.84148012,1.49487199,-7.4591443,,,
imu,99.729527,-0.009570444800000001,-9.443636406400001,2.8836946488,6.26575805,0.2836125699999998,-7.227360089999999,,,
imu,99.73801,-0.004187069600000001,-9.520798117600002,2.8687408288,5.72742053,-0.8753084800000002,-7.02548352,,,
imu,99.74649,-0.0370854736,-9.569248494400002,2.8466091752,5.36852885,-2.0865679,-6.532007459999999,,,
imu,99.75497,-0.04845037680000001,-9.606333968000001,2.854983314400001,4.68813004,-3.34268878,-6.06096213,,,
imu,99.76345,-0.07596540560000001,-9.641026830400001,2.8370387304,4.0600696,-4.39693309,-5.62730135,,,
imu,99.77193,-0.116639796,-9.606333968000001,2.8095237016,3.18527113,-5.23434701,-5.38804023,,,
imu,99.78041,-0.173464312,-9.5393408544,2.8418239528,2.50487232,-6.20634531,-5.05157928,,,
imu,99.78889,-0.2266999112,-9.51062952,2.8184959936,2.03382699,-6.96899013,-4.68521069,,,
imu,99.797371,-0.2775428992,-9.499264616800001,2.784999436800001,1.77213514,-7.44751237,-4.363703559999999,,,
imu,99.805851,-0.3098431504,-9.4215047528,2.7628677832,1.56278166,-7.64938894,-3.8702275,,,
imu,99.814331,-0.3463304712,-9.336567055200002,2.7658585472,1.30856672,-7.724158040000001,-3.32441307,,,
imu,99.822811,-0.3959771536000001,-9.322211388000001,2.760475172,1.32352054,-7.746588770000001,-2.85336774,,,
imu,99.831291,-0.4228940296000001,-9.358100556000002,2.743726893600001,1.51044329,-7.44751237,-2.48699915,,,
imu,99.839771,-0.4318663216,-9.384419279200001,2.717408170400001,1.53287402,-6.961513220000001,-2.21783039,,,
imu,99.848251,-0.4611758088,-9.327594763200002,2.722791545600001,1.18145925,-6.50542171,-1.85893871,,,
imu,99.856731,-0.4695499480000001,-9.284527761600001,2.718604476,0.88985976,-5.89231509,-1.61967759,,,
imu,99.865211,-0.4539979752000001,-9.3246039992,2.722791545600001,0.8749059399999999,-5.226870099999999,-1.63463141,,,
imu,99.873691,-0.4689517952000001,-9.361091320000002,2.692285752800001,0.81509066,-4.53899438,-1.72435433,,,
imu,99.882171,-0.4653628784000001,-9.3664746952,2.6749393216,0.67302937,-3.73896501,-1.70940051,,,
imu,99.890651,-0.4324644744,-9.380830362400001,2.7144174064,0.20198404,-2.88659727,-2.001,,,
imu,99.899131,-0.4318663216,-9.382026668000002,2.743726893600001,-0.11204618,-2.33330593,-2.0757691,,,
imu,99.907611,-0.3887993200000001,-9.414925072,2.7491102688,-0.5756146,-1.61552257,-2.12810747,,,
imu,99.916092,-0.31403022,-9.423897364000002,2.747913963200001,-0.9793677399999999,-0.9575544899999997,-2.49447606,,,
imu,99.924894,-0.2972819416,-9.4316733504,2.801747715200001,-1.68967419,-0.7482010100000003,-2.94309066,,,
imu,99.933696,-0.2554112456,-9.4801237272,2.8029440208,-2.45979592,-0.6210935399999999,-3.54124346,,,
imu,99.942499,-0.2117460912,-9.519003659200001,2.7999532568,-3.08785636,-0.6210935399999999,-3.98985806,,,
imu,99.951301,-0.1991848824,-9.495077547200001,2.8161033824,-3.85797809,-0.7706317400000002,-4.29641137,,,
imu,99.960103,-0.1949978128,-9.432869656000001,2.8256738272,-4.658007459999999,-0.9650314,-4.52071867,,,
imu,99.968906,-0.1997830352,-9.350922722400002,2.8238793688,-5.031852959999999,-1.413646,-4.72259524,,,
imu,99.977708,-0.2009793408,-9.377241445600001,2.8214867576,-4.605669089999999,-1.94450661,-4.670256869999999,,,
imu,99.98651,-0.2057645632,-9.402363863200002,2.8286645912,-4.34397724,-2.25105992,-4.7674567,,,
imu,99.995313,-0.2506260232,-9.351520875200002,2.8035421736,-4.29163887,-2.70715143,-4.715118329999999,,,
imu,100.004115,-0.2679724544000001,-9.329389221600001,2.8047384792,-4.07480848,-3.2081044,-4.715118329999999,,,
imu,100.012917,-0.2913004136,-9.3036686512,2.820290452000001,-3.58133242,-3.44736552,-4.70016451,,,
imu,100.021719,-0.3170209840000001,-9.285724067200002,2.8226830632,-3.30468675,-3.54456535,-4.70016451,,,
imu,100.030522,-0.3535083048,-9.319220624000002,2.8328516608,-3.07290254,-3.8810263,-4.57305704,,,
imu,100.039324,-0.3870048616000001,-9.364082084000001,2.8149070768,-2.85607215,-4.13524124,-4.408565019999999,,,
imu,100.048126,-0.406743904,-9.318622471200001,2.8298608968,-2.93831816,-4.07542596,-4.48333412,,,
imu,100.056929,-0.4563905864000001,-9.254021968800002,2.843020258400001,-3.22991765,-4.07542596,-4.47585721,,,
imu,100.065731,-0.4779240872000001,-9.267779483200002,2.862161148000001,-3.3420713,-4.03804141,-4.40108811,,,
imu,100.074533,-0.5251781584,-9.326398457600002,2.8723297456,-3.35702512,-3.75391883,-4.318842099999999,,,
imu,100.083336,-0.550300576,-9.326398457600002,2.8699371344,-3.62619388,-3.41745788,-4.19173463,,,
imu,100.092138,-0.5766192992000001,-9.301276040000001,2.8795075792,-4.05237775,-3.09595075,-4.18425772,,,
imu,100.10094,-0.5843952856000001,-9.273761011200001,2.9034336912,-4.3140696,-2.69967452,-4.10948862,,,
imu,100.109743,-0.6047324808000001,-9.264788719200002,2.8998447744,-4.47108471,-2.22862919,-4.06462716,,,
imu,100.118545,-0.5969564944000001,-9.277948080800002,2.908218913600001,-4.605669089999999,-1.92955279,-4.0945348,,,
imu,100.127026,-0.5981528,-9.3269966104,2.9614545128,-4.80754566,-1.62299948,-4.318842099999999,,,
imu,100.135508,-0.6101158560000001,-9.332379985600001,2.9626508184,-4.99446841,-1.18186179,-4.48333412,,,
imu,100.143989,-0.6125084672000001,-9.346137500000001,2.9614545128,-5.2860679,-0.8080162900000003,-4.52071867,,,
imu,100.152471,-0.6029380224,-9.3622876256,2.94590254,-5.315975539999999,-0.4491246100000001,-4.55062631,,,
imu,100.160952,-0.6172936896000001,-9.3975786408,2.987773236,-5.42812919,-0.01546383000000029,-4.453426479999999,,,
imu,100.169433,-0.5981528,-9.4250936696,3.003325208800001,-5.742159409999999,0.4705353199999998,-4.34874974,,,
imu,100.177915,-0.6053306336000001,-9.447225323200001,3.023662404,-5.94403598,0.9191499199999997,-4.04219643,,,
imu,100.186396,-0.6041343280000001,-9.394587876800001,3.002727056,-6.213204739999999,1.45748744,-3.76555076,,,
imu,100.194877,-0.5550857984,-9.451412392800002,3.056560808,-6.54218878,1.90610204,-3.60105874,,,
imu,100.203359,-0.5269726168000001,-9.5590798968,3.0553645024,-6.99080338,2.20517844,-3.46647436,,,
imu,100.21184,-0.5144114080000001,-9.514218436800002,3.0122975008,-7.46184871,2.51920866,-3.17487487,,,
imu,100.220321,-0.499457588,-9.367671000800001,2.9955492224,-8.30673954,2.76594669,-3.15992105,,,
imu,100.228803,-0.4958686712000001,-9.2641905664,2.971024957600001,-8.822646330000001,3.03511545,-3.16739796,,,
imu,100.237284,-0.502448352,-9.258209038400002,2.9560711376,-8.35907791,3.3715764,-3.22721324,,,
imu,100.245765,-0.4791203928000001,-9.2827333032,2.96085636,-8.254401170000001,3.62579134,-3.41413599,,,
imu,98.767213,,,,,,,-96.31481880000001,169.4664236,127.852124
imu,98.868776,,,,,,,-96.25378280000001,169.9425044,126.2285664
imu,98.970338,,,,,,,-96.8519356,170.4796212,127.0464488
imu,99.071901,,,,,,,-94.4104956,169.91809,124.7637024
imu,99.173494,,,,,,,-96.4002692,170.6261076,126.0576656
imu,99.275026,,,,,,,-93.6658564,169.9913332,123.7260904
imu,99.37845,,,,,,,-96.3026116,170.6383148,125.6182064
imu,99.478181,,,,,,,-96.388062,170.6749364,125.4961344
imu,99.579713,,,,,,,-96.4979268,170.7237652,125.7646928
imu,99.681276,,,,,,,-96.65662040000001,169.8448468,126.2773952
imu,99.782869,,,,,,,-96.57117,169.2833156,126.9243768
imu,99.884401,,,,,,,-96.5223412,168.1602532,126.8877552
imu,99.985963,,,,,,,-93.7390996,168.453226,126.5947824
imu,100.087526,,,,,,,-96.204954,168.7339916,127.546944
imu,100.189638,,,,,,,-93.54378439999999,168.5264692,125.6792424
