Type,Timestamp,Data Accelerometer X,Data Accelerometer Y,Data Accelerometer Z,Data Gyroscope X,Data Gyroscope Y,Data Gyroscope Z,Data Magnetometer X,Data Magnetometer Y,Data Magnetometer Z
imu,331.66874,-0.191408896,-9.353913486400002,3.191145188000001,-1.71210492,0.1191205499999999,-4.012288789999999,,,
imu,331.677222,-0.2111479384,-9.367072848000001,3.1935377992,-2.34764227,-0.5837089900000003,-4.124442439999999,,,
imu,331.685703,-0.251224176,-9.335968902400001,3.182172896,-2.84111833,-1.02484668,-4.13939626,,,
imu,331.694184,-0.3032634696000001,-9.2917055952,3.1995193272,-3.11028709,-1.51084583,-3.93004278,,,
imu,331.702666,-0.3367600264,-9.2659850248,3.1947341048,-3.2673022,-1.79496841,-3.73564312,,,
imu,331.711147,-0.3750418056000001,-9.318024318400001,3.238997412,-3.42431731,-1.81739914,-3.60105874,,,
imu,331.719629,-0.4163143488000001,-9.2755554696,3.210286077600001,-3.46170186,-1.67533785,-3.31693616,,,
imu,331.72811,-0.4402404608,-9.219329106400002,3.2246417448,-3.81311663,-1.54075347,-3.03281358,,,
imu,331.736591,-0.4665591840000001,-9.1930103832,3.238997412,-3.66357843,-1.15195415,-2.98047521,,,
imu,331.745073,-0.4785222400000001,-9.178056563200002,3.2342121896,-3.88788573,-0.65847809,-3.03281358,,,
imu,331.753554,-0.4952705184000001,-9.177458410400002,3.239595564800001,-3.73087062,-0.1949096699999999,-3.08515195,,,
imu,331.762035,-0.4982612824000001,-9.154728604,3.238997412,-3.38693276,0.1789358299999999,-2.98047521,,,
imu,331.770517,-0.5060372688000001,-9.124222811200001,3.239595564800001,-3.3420713,0.8593346399999997,-2.92813684,,,
imu,331.778998,-0.5048409632,-9.114054213600001,3.2443807872,-2.97570271,1.47991817,-2.93561375,,,
imu,331.787479,-0.4958686712000001,-9.117643130400001,3.2431844816,-2.42988828,2.14536316,-2.748691,,,
imu,331.795961,-0.4773259344000001,-9.1134560608,3.2575401488,-2.10838115,2.69117759,-2.71878336,,,
imu,331.804442,-0.4563905864000001,-9.121830200000002,3.25993276,-2.04108896,3.11736146,-2.70382954,,,
imu,331.812923,-0.4414367664,-9.121830200000002,3.265914288000001,-1.5476129,3.57345297,-2.79355246,,,
imu,331.821405,-0.4222958768,-9.141569242400001,3.2790736496,-1.14385976,3.73046808,-2.96552139,,,
imu,331.829886,-0.4055475984,-9.170280576800002,3.2832607192,-0.8672140899999999,3.8949601,-3.05524431,,,
imu,331.838367,-0.3816214864,-9.1792528688,3.2844570248,-0.68776825,4.05945212,-3.23469015,,,
imu,331.846813,-0.3600879856,-9.178056563200002,3.2874477888,-0.71019898,4.02954448,-3.22721324,,,
imu,331.855259,-0.3331711096,-9.1918140776,3.298812692000001,-0.43355331,3.98468302,-3.1973056,,,
imu,331.863705,-0.3421434016,-9.2103568144,3.300607150400001,-0.28401511,3.88000628,-3.04029049,,,
imu,331.87215,-0.3253951232,-9.211553120000001,3.2946256224,0.04496892999999999,3.76785263,-2.77112173,,,
imu,331.880596,-0.3164228312,-9.221721717600001,3.280868108,-0.05970781,3.60336061,-2.74121409,,,
imu,331.889042,-0.3337692624,-9.249834899200001,3.289242247200001,-0.11204618,3.51363769,-2.70382954,,,
imu,331.897487,-0.3343674152,-9.230694009600002,3.2886440944,-0.21672292,3.32671494,-2.71130645,,,
imu,331.905933,-0.334965568,-9.221721717600001,3.282064413600001,-0.36626112,3.16222292,-2.78607555,,,
imu,331.914379,-0.3445360128,-9.231890315200001,3.296420080800001,-0.55318387,2.76594669,-3.11505959,,,
imu,331.922825,-0.3654713608,-9.246245982400001,3.292831164,-0.71019898,2.46687029,-3.60853565,,,
imu,331.93127,-0.3786307224000001,-9.252227510400001,3.2982145392,-0.69524516,2.19770153,-3.93751969,,,
imu,331.939716,-0.4055475984,-9.2300958568,3.30479422,-0.91207555,1.78647148,-4.34874974,,,
imu,331.948162,-0.4354552384000001,-9.228899551200001,3.3161591232,-1.07656757,1.36776452,-4.65530305,,,
imu,331.956608,-0.4767277816000001,-9.2091605088,3.3191498872,-1.23358268,0.9939190199999999,-4.7674567,,,
imu,331.965053,-0.5072335744,-9.200786369600001,3.3113739008,-1.40555161,0.92662683,-4.909517989999999,,,
imu,331.973499,-0.5467116592000001,-9.202580828,3.330514790400001,-1.41302852,0.8369039099999998,-4.887087259999999,,,
imu,331.981945,-0.5796100632000001,-9.207964203200001,3.3233369568,-1.56256672,0.7770886299999997,-4.75250288,,,
imu,331.990391,-0.6065269392000001,-9.1882251608,3.325729568,-1.64481273,0.78456554,-4.64034923,,,
imu,331.998836,-0.631051204,-9.171476882400002,3.3191498872,-1.622382,0.98644211,-4.46090339,,,
imu,332.007282,-0.6657440664000001,-9.152934145600002,3.316757276000001,-1.34573633,1.23318014,-4.32631901,,,
imu,332.015728,-0.6842868032,-9.149345228800001,3.322738804,-1.26349032,1.48739508,-4.30388828,,,
imu,332.024174,-0.6884738728,-9.160710132,3.328122179200001,-1.30835178,1.99582496,-4.318842099999999,,,
imu,332.032619,-0.6842868032,-9.172673188000001,3.3293184848,-1.24105959,2.31733209,-4.44594957,,,
imu,332.041065,-0.6783052752000002,-9.1642990488,3.3155609704,-1.06161375,2.75846978,-4.4683803,,,
imu,332.04969,-0.6806978864000002,-9.128409880800001,3.3089812896,-0.93450628,3.0725,-4.50576485,,,
imu,332.058315,-0.6591643856000001,-9.1373821728,3.320944345600001,-0.7251528,3.39400713,-4.40108811,,,
imu,332.06694,-0.6501920936000001,-9.155326756800001,3.297616386400001,-0.29896893,3.60336061,-4.19173463,,,
imu,332.075565,-0.6154992312,-9.133793256,3.2850551776,-0.19429219,3.85009864,-4.0197657,,,
imu,332.08419,-0.5957601888000001,-9.126017269600002,3.297616386400001,-0.08961545,3.90991392,-3.84031986,,,
imu,332.092815,-0.5843952856000001,-9.143961853600002,3.310775748,0.03749201999999999,3.99215993,-3.74312003,,,
imu,332.10144,-0.5742266880000001,-9.169682424000001,3.305392372800001,0.15712258,3.93982156,-3.60853565,,,
imu,332.110065,-0.5718340768000001,-9.190019619200001,3.2970182336,0.10478421,3.797760269999999,-3.28702852,,,
imu,332.11869,-0.5754229936,-9.1930103832,3.302999761600001,0.06739966,3.58840679,-3.07767504,,,
imu,332.127315,-0.5694414656000001,-9.1858325496,3.2946256224,0.25432241,3.34166876,-2.86084465,,,
imu,332.13594,-0.58319898,-9.166691660000001,3.2814662608,0.3963837,3.33419185,-2.5991528,,,
imu,332.144565,-0.6053306336000001,-9.1499433816,3.2623253712,0.43376825,3.18465365,-2.38979932,,,
imu,332.15319,-0.6137047728000001,-9.155326756800001,3.2575401488,0.8674290299999999,3.41643786,-1.76173888,,,
imu,332.161815,-0.6065269392000001,-9.156523062400002,3.2455770928,1.17398234,3.68560662,-1.29817046,,,
imu,332.170441,-0.5921712720000001,-9.1672898128,3.2282306616,1.38333582,4.01459066,-0.9018942299999999,,,
imu,332.179066,-0.5849934384000001,-9.170280576800002,3.2168657584,1.65250458,4.38095925,-0.7000176599999999,,,
imu,332.187691,-0.5772174520000001,-9.187028855200001,3.214473147200001,2.13102682,4.76975857,-0.6402023799999998,,,
imu,332.196316,-0.5694414656000001,-9.1924122304,3.198323021600001,2.24318047,4.9417275,-0.7598329399999999,,,
imu,332.204941,-0.5574784096000001,-9.201982675200002,3.1905470352,2.4151494,5.24828081,-0.96918642,,,
imu,332.213566,-0.5407301312,-9.218132800800001,3.1875562712,2.55721069,5.66698777,-1.29069355,,,
imu,332.222191,-0.5191966304000001,-9.246245982400001,3.18516366,2.46001086,5.98101799,-1.48509321,,,
imu,332.230816,-0.5000557408,-9.265386872,3.1833692016,2.31794957,6.32495585,-1.73930815,,,
imu,332.239441,-0.4629702672000001,-9.2707702472,3.182172896,2.07868845,6.511878599999999,-1.82155416,,,
imu,332.248066,-0.430670016,-9.28632222,3.1827710488,2.01887317,6.64646298,-1.95613854,,,
imu,332.256712,-0.4115291264,-9.282135150400002,3.191145188000001,1.94410407,6.52683242,-2.08324601,,,
imu,332.265357,-0.3941826952,-9.291107442400001,3.1839673544,1.5926893,6.40720186,-2.18044584,,,
imu,332.274003,-0.3696584304000001,-9.292303748000002,3.184565507200001,1.42072037,6.26514057,-2.29259949,,,
imu,332.282649,-0.3642750552,-9.2994815816,3.1833692016,1.13659779,6.07074091,-2.32250713,,,
imu,332.291295,-0.352910152,-9.306659415200002,3.1827710488,0.91229049,5.73427996,-2.46456842,,,
imu,332.29994,-0.3493212352000001,-9.2958926648,3.179780284800001,0.71789083,5.36043446,-2.49447606,,,
imu,332.308586,-0.3445360128,-9.298883428800002,3.180378437600001,0.56087572,4.89686604,-2.53186061,,,
imu,332.317232,-0.340947096,-9.307257568,3.194135952000001,0.26927623,4.46320526,-2.58419898,,,
imu,332.325878,-0.3487230824000001,-9.306659415200002,3.200715632800001,-0.13447691,4.02954448,-2.76364482,,,
imu,332.334523,-0.3720510416,-9.321613235200001,3.2186602168,-0.23167674,3.61083752,-3.01785976,,,
imu,332.343169,-0.3971734592000001,-9.294098206400001,3.207893466400001,-0.52327623,3.04259236,-3.17487487,,,
imu,332.351815,-0.4187069600000001,-9.2827333032,3.2084916192,-0.85973718,2.70613141,-3.45899745,,,
imu,332.360461,-0.4444275304,-9.266583177600001,3.2055008552,-0.9793677399999999,2.41453192,-3.54872037,,,
imu,332.369106,-0.4659610312,-9.242657065600001,3.2072953136,-1.15133667,2.18274771,-3.48142818,,,
imu,332.377752,-0.4970649768000001,-9.262396108,3.2401937176,-1.31582869,1.98834805,-3.54124346,,,
imu,332.386398,-0.5066354216000001,-9.283331456,3.2348103424,-1.33078251,1.95844041,-3.54124346,,,
imu,332.395044,-0.5275707696,-9.242657065600001,3.2066971608,-1.55508981,1.92105586,-3.51881273,,,
imu,332.40369,-0.5544876456000001,-9.184038091200001,3.217463911200001,-1.86912003,1.98834805,-3.48890509,,,
imu,332.412335,-0.5634599376000001,-9.158915673600001,3.217463911200001,-1.87659694,2.13040934,-3.38422835,,,
imu,332.420981,-0.5706377712,-9.1750657992,3.2276325088,-1.70462801,2.22760917,-3.24216706,,,
imu,332.429627,-0.5861897440000001,-9.198991911200002,3.224043592000001,-1.57004363,2.5491163,-3.07019813,,,
imu,332.438273,-0.5879842024,-9.186430702400001,3.221052828,-1.40555161,2.78837742,-2.80102937,,,
imu,332.446918,-0.580208216,-9.161308284800002,3.2138749944,-1.15133667,3.11736146,-2.38979932,,,
imu,332.45547,-0.571235924,-9.145756312000001,3.2084916192,-0.9494601,3.40896095,-2.35241477,,,
imu,332.463945,-0.5622636320000001,-9.1720750352,3.2019119384,-0.77001426,3.55849915,-2.36736859,,,
imu,332.47242,-0.5520950344000001,-9.1708787296,3.2013137856,-0.29896893,3.83514482,-2.46456842,,,
imu,332.480895,-0.5455153536,-9.161308284800002,3.191145188000001,0.0001074699999999984,3.88000628,-2.69635263,,,
imu,332.48937,-0.5467116592000001,-9.156523062400002,3.182172896,0.30666078,4.05945212,-2.77112173,,,
imu,332.497845,-0.5335522976000001,-9.152934145600002,3.1767895208,0.57582954,4.31366706,-2.80102937,,,
imu,332.50632,-0.517402172,-9.170280576800002,3.180378437600001,0.82256757,4.455728349999999,-2.79355246,,,
imu,332.514795,-0.5036446576000001,-9.1858325496,3.1737987568,1.02444414,4.717420199999999,-2.54681443,,,
imu,332.52327,-0.4862982264000001,-9.212151272800002,3.1696116872,1.23379762,4.76975857,-2.31503022,,,
imu,332.531745,-0.4713444064,-9.221123564800001,3.166022770400001,1.24127453,4.79966621,-2.14306129,,,
imu,332.54022,-0.454596128,-9.252825663200001,3.1684153816,1.32352054,4.784712389999999,-1.97856927,,,
imu,332.548695,-0.4294737104000001,-9.267181330400001,3.1690135344,1.09173633,4.77723548,-1.98604618,,,
imu,332.55717,-0.4366515440000001,-9.290509289600001,3.179182132,0.94967504,4.68751256,-2.11315365,,,
imu,332.565645,-0.4228940296000001,-9.3108464848,3.179182132,0.7253677399999999,4.63517419,-2.27764567,,,
imu,332.57412,-0.4163143488000001,-9.302472345600002,3.1684153816,0.56835263,4.523020539999999,-2.28512258,,,
imu,332.582595,-0.4127254320000001,-9.309052026400002,3.1714061456,0.33656842,4.3435747,-2.34493786,,,
imu,332.591069,-0.3983697648000001,-9.305463109600002,3.166022770400001,0.08235347999999998,4.14169813,-2.42718387,,,
imu,332.599544,-0.3965753064,-9.301874192800001,3.156452325600001,0.02253820000000001,4.06692903,-2.39727623,,,
imu,332.608019,-0.3965753064,-9.286920372800001,3.1684153816,-0.09709236,3.88748319,-2.45709151,,,
imu,332.616494,-0.3876030144000001,-9.2929019008,3.173200604000001,-0.33635348,3.78280645,-2.51690679,,,
imu,332.624969,-0.3804251808,-9.284527761600001,3.1737987568,-0.49336859,3.56597606,-2.50942988,,,
imu,332.633444,-0.3702565832000001,-9.266583177600001,3.1624338536,-0.71767589,3.37905331,-2.56176825,,,
imu,332.641919,-0.3672658192000001,-9.249236746400001,3.1606393952,-0.79244499,3.09493073,-2.64401426,,,
imu,332.650394,-0.3606861384,-9.236077384800002,3.1516671032,-0.8522602699999999,2.86314652,-2.71878336,,,
imu,332.658859,-0.3511156936,-9.221721717600001,3.1480781864,-0.84478336,2.63883922,-2.74121409,,,
imu,332.667324,-0.3499193880000001,-9.217534648,3.1600412424,-0.80739881,2.25751681,-2.74121409,,,
imu,332.675789,-0.3672658192000001,-9.2133475784,3.154059714400001,-0.7999219,1.85376367,-2.93561375,,,
imu,332.684254,-0.3762381112000001,-9.223516176,3.1630320064,-0.70272207,1.577118,-2.98795212,,,
imu,332.692718,-0.3834159448,-9.230694009600002,3.1624338536,-0.67281443,1.18084177,-3.16739796,,,
imu,332.701183,-0.4019586816,-9.229497704000002,3.1570504784,-0.44850713,0.8742884599999998,-3.28702852,,,
imu,332.709648,-0.4288755576000001,-9.224114328800002,3.158246784000001,-0.29149202,0.4481045899999998,-3.30945925,,,
imu,332.718113,-0.46356842,-9.222319870400002,3.154059714400001,-0.25410747,0.2611818399999999,-3.30945925,,,
imu,331.751861,,,,,,,-98.1458988,170.3209276,126.8267192
imu,331.860503,,,,,,,-95.94860279999999,169.4542164,125.410684
imu,331.954833,,,,,,,-98.23134920000001,169.9547116,127.241764
imu,332.726578,-0.4845037680000001,-9.2378718432,3.1714061456,-0.26158438,0.1639820099999998,-3.496382,,,
imu,332.735043,-0.5120187968000001,-9.249236746400001,3.1618357008,-0.09709236,0.1565051,-3.46647436,,,
imu,332.743507,-0.5233837000000001,-9.2480404408,3.1630320064,-0.05970781,0.2836125699999998,-3.51881273,,,
imu,332.751972,-0.5377393672000002,-9.258209038400002,3.166022770400001,-0.17186146,0.3808123999999999,-3.60105874,,,
imu,332.760437,-0.5544876456000001,-9.2641905664,3.167817228800001,-0.32887657,0.50044296,-3.65339711,,,
imu,332.768902,-0.5676470072,-9.283929608800001,3.172004298400001,-0.52327623,0.6051196999999999,-3.69078166,,,
imu,332.777367,-0.5754229936,-9.28632222,3.167817228800001,-0.54570696,0.7172733499999997,-3.69078166,,,
imu,332.785831,-0.58319898,-9.2689757888,3.164228312,-0.7401066199999999,0.8219500899999996,-3.84031986,,,
imu,332.794296,-0.5939657304000001,-9.2546201216,3.1833692016,-0.9644139199999999,1.07616503,-3.99733497,,,
imu,332.802761,-0.6083213976,-9.247442288000002,3.1696116872,-0.94198319,1.18084177,-4.04967334,,,
imu,332.811226,-0.6017417168000001,-9.262994260800001,3.170209840000001,-0.9943215599999999,1.33785688,-4.0197657,,,
imu,332.819691,-0.6005454112,-9.250433052000002,3.173200604000001,-1.22610577,1.55468727,-3.87770441,,,
imu,332.828155,-0.5963583416000001,-9.230694009600002,3.1743969096,-1.42050543,1.71170238,-3.80293531,,,
imu,332.83662,-0.5933675776,-9.231890315200001,3.1899488824,-1.3980747,1.80890221,-3.84031986,,,
imu,332.845085,-0.6077232448000001,-9.222319870400002,3.1684153816,-1.15133667,1.86124058,-3.71321239,,,
imu,332.85355,-0.6107140088,-9.239666301600002,3.170209840000001,-1.01675229,1.92105586,-3.45152054,,,
imu,332.862012,-0.601143564,-9.2378718432,3.1726024512,-1.0989983,1.99582496,-3.33936689,,,
imu,332.870474,-0.6137047728000001,-9.217534648,3.1624338536,-1.28592105,1.98834805,-3.30198234,,,
imu,332.878937,-0.6154992312,-9.2127494256,3.173200604000001,-1.30835178,2.12293243,-3.25712088,,,
imu,332.887399,-0.6149010784000001,-9.2133475784,3.175593215200001,-1.03918302,2.19770153,-3.17487487,,,
imu,332.895861,-0.6286585928,-9.215142036800001,3.1827710488,-0.9644139199999999,2.23508608,-3.18235178,,,
imu,332.904324,-0.62806044,-9.2157401896,3.179182132,-0.79244499,2.36219355,-3.03281358,,,
imu,332.912786,-0.6346401208000001,-9.215142036800001,3.175593215200001,-0.63542988,2.52668557,-2.95056757,,,
imu,332.921248,-0.6328456624000001,-9.202580828,3.1827710488,-0.76253735,2.61640849,-3.00290594,,,
imu,332.92971,-0.6376308848000001,-9.214543884000001,3.172004298400001,-0.69524516,2.60893158,-2.98795212,,,
imu,332.938173,-0.6412198016000001,-9.221123564800001,3.184565507200001,-0.6503837,2.78837742,-3.01038285,,,
imu,332.946635,-0.6412198016000001,-9.224712481600001,3.182172896,-0.59056842,2.90053107,-2.93561375,,,
imu,332.955097,-0.6274622872000001,-9.2277032456,3.1833692016,-0.65786061,3.10240764,-2.77112173,,,
imu,332.963559,-0.6322475096000001,-9.2277032456,3.179780284800001,-0.26158438,3.23699202,-2.60662971,,,
imu,332.972022,-0.6250696760000001,-9.2378718432,3.1726024512,-0.47093786,3.46129932,-2.54681443,,,
imu,332.980484,-0.6238733704,-9.2408626072,3.175593215200001,-0.40364567,3.55102224,-2.40475314,,,
imu,332.988946,-0.61310662,-9.230694009600002,3.1690135344,-0.4260764,3.64074516,-2.44213769,,,
imu,332.997409,-0.5897786608000001,-9.232488468000001,3.1767895208,-0.50832241,3.71551426,-2.41970696,,,
imu,333.005871,-0.5891805080000001,-9.24146076,3.18516366,-0.41112258,3.76037572,-2.39727623,,,
imu,333.014333,-0.5873860496000001,-9.242058912800001,3.170209840000001,-0.36626112,3.820191,-2.38232241,,,
imu,333.022795,-0.5706377712,-9.2277032456,3.175593215200001,-0.24663056,3.68560662,-2.27016876,,,
imu,333.031258,-0.5640580904000001,-9.223516176,3.182172896,-0.26158438,3.56597606,-2.1505382,,,
imu,333.03972,-0.5574784096000001,-9.239068148800001,3.1899488824,-0.26906129,3.68560662,-2.14306129,,,
imu,333.048182,-0.5497024232000001,-9.249236746400001,3.167817228800001,-0.32139966,3.50616078,-2.14306129,,,
imu,333.056644,-0.550300576,-9.224712481600001,3.158246784000001,-0.37373803,3.39400713,-2.06081528,,,
imu,333.065114,-0.5431227424,-9.194804841600002,3.163630159200001,-0.39616876,3.46877623,-1.91127708,,,
imu,333.073584,-0.5413282840000001,-9.215142036800001,3.1726024512,-0.17933837,3.38653022,-1.65706214,,,
imu,333.082054,-0.5431227424,-9.246844135200002,3.166022770400001,-0.0522309,3.26689966,-1.69444669,,,
imu,333.090524,-0.5359449088000001,-9.2576108856,3.1779858264,-0.16438455,3.23699202,-1.85893871,,,
imu,333.098994,-0.535346756,-9.2312921624,3.191145188000001,-0.43355331,3.02763854,-2.08324601,,,
imu,333.107464,-0.5640580904000001,-9.228899551200001,3.1917433408,-0.52327623,2.87062343,-2.28512258,,,
imu,333.115934,-0.5610673264,-9.250433052000002,3.212080536000001,-0.60552224,2.79585433,-2.21783039,,,
imu,333.124404,-0.5473098120000001,-9.272564705600002,3.2019119384,-0.83730645,2.6986545,-2.10567674,,,
imu,333.132874,-0.5514968816000001,-9.284527761600001,3.2037063968,-0.85973718,2.58650085,-2.08324601,,,
imu,333.141343,-0.5700396184000001,-9.2659850248,3.2114823832,-1.0989983,2.50425484,-2.05333837,,,
imu,333.149813,-0.5939657304000001,-9.236077384800002,3.204902702400001,-1.08404448,2.55659321,-1.95613854,,,
imu,333.158283,-0.6160973840000001,-9.219329106400002,3.1959304104,-1.00179847,2.48930102,-1.82903107,,,
imu,333.166753,-0.6214807592000001,-9.216338342400002,3.1959304104,-0.71019898,2.61640849,-1.82155416,,,
imu,333.175223,-0.6298548984000001,-9.2169364952,3.195332257600001,-0.67281443,2.65379304,-1.75426197,,,
imu,333.183693,-0.6256678288,-9.228301398400001,3.182172896,-0.5756146,2.75099287,-1.90380017,,,
imu,333.192163,-0.646005024,-9.216338342400002,3.1666209232,-0.63542988,2.86314652,-2.20287657,,,
imu,333.200633,-0.6472013296000001,-9.214543884000001,3.1690135344,-0.50832241,3.05006927,-2.56924516,,,
imu,333.209103,-0.6663422192,-9.226506940000002,3.166022770400001,-0.17933837,3.13231528,-2.95056757,,,
imu,333.217572,-0.6657440664000001,-9.266583177600001,3.179780284800001,-0.14943073,3.16969983,-3.33188998,,,
imu,333.226042,-0.6663422192,-9.2970889704,3.1726024512,-0.28401511,3.16222292,-3.66835093,,,
imu,333.234512,-0.6890720256,-9.285724067200002,3.156452325600001,-0.44103022,3.26689966,-4.04219643,,,
imu,333.242982,-0.6980443176000002,-9.256414580000001,3.1576486312,-0.64290679,3.24446893,-4.13939626,,,
imu,333.251452,-0.7129981376000001,-9.245647829600001,3.154657867200001,-0.51579932,3.51363769,-3.90013514,,,
imu,333.259922,-0.7189796656000002,-9.2486385936,3.1558541728,-0.82982954,3.83514482,-3.54124346,,,
imu,333.268705,-0.7141944432000001,-9.253423816000002,3.1414985056,-1.07656757,4.08188285,-3.00290594,,,
imu,333.277487,-0.7135962904,-9.2480404408,3.149872644800001,-1.10647521,4.44077453,-2.36736859,,,
imu,333.28627,-0.6986424704000002,-9.247442288000002,3.1337225192,-1.10647521,4.90434295,-1.84398489,,,
imu,333.295053,-0.6884738728,-9.238469996000001,3.121759463200001,-0.97189083,5.2408039,-1.34303192,,,
imu,333.303836,-0.6777071224000001,-9.221721717600001,3.1205631576,-1.00179847,5.569787939999999,-1.02152479,,,
imu,333.312618,-0.6591643856000001,-9.2139457312,3.101422268000001,-0.84478336,6.063264,-0.6775869299999999,,,
imu,333.321401,-0.6160973840000001,-9.198393758400002,3.1008241152,-0.82235263,6.39972495,-0.3635567099999999,,,
imu,333.330184,-0.5849934384000001,-9.2091605088,3.087066600800001,-0.41112258,6.83338573,-0.07195722000000004,,,
imu,333.338966,-0.5491042704000001,-9.1965993,3.0810850728,-0.06718472,7.057693029999999,0.1448731699999999,,,
imu,333.347749,-0.5341504504000001,-9.191215924800002,3.0529718912,0.07487657,7.30443106,0.36170356,,,
imu,333.356532,-0.5108224912,-9.203178980800002,3.0428032936,0.46367589,7.625938189999999,0.5710570399999999,,,
imu,333.365314,-0.4779240872000001,-9.208562356000002,3.024260556800001,0.7104139199999999,7.910060769999999,0.8776103499999999,,,
imu,333.374097,-0.4384460024000001,-9.2366755376,3.063738641600001,1.04687487,8.26147554,1.22154821,,,
imu,333.38288,-0.3882011672000001,-9.309052026400002,3.0607478776,0.8749059399999999,8.52316739,1.40847096,,,
imu,333.391663,-0.352910152,-9.343146736000001,3.040410682400001,0.53096808,8.6054134,1.30379422,,,
imu,333.400445,-0.3307784984000001,-9.327594763200002,3.0272513208,0.66555246,8.8297207,1.40099405,,,
imu,333.409228,-0.2942911776,-9.312042790400001,3.0589534192,0.45619898,8.83719761,1.47576315,,,
imu,333.418011,-0.272159524,-9.343146736000001,3.0643367944,0.14964567,8.74747469,1.20659439,,,
imu,333.426793,-0.2595983152,-9.389204501600002,3.051775585600001,-0.0522309,8.635321040000001,0.9000410799999998,,,
imu,333.435576,-0.2255036056,-9.4071490856,3.053570044,-0.31392275,8.665228679999998,0.81031816,,,
imu,333.444359,-0.1949978128,-9.3927934184,3.0673275584,-0.90459864,8.59045958,0.5785339500000002,,,
imu,333.453141,-0.1890162848,-9.3898026544,3.068523864000001,-1.20367504,8.32876773,0.3093651899999998,,,
imu,333.461924,-0.1698753952,-9.393989724,3.0523737384,-1.56256672,8.17175262,0.01028879000000016,,,
imu,333.470707,-0.1561178808,-9.3754469872,3.0547663496,-1.88407385,7.92501459,-0.3411259799999999,,,
imu,333.479173,-0.1411640608,-9.3754469872,3.0727109336,-2.36259609,7.61098437,-0.8420789499999999,,,
imu,333.487639,-0.1441548248,-9.382026668000002,3.070916475200001,-2.63176485,7.1848005,-1.33555501,,,
imu,333.496105,-0.1327899216,-9.3832229736,3.070916475200001,-3.028041079999999,6.51935551,-2.14306129,,,
imu,333.504571,-0.1303973104,-9.3688673064,3.083477684,-3.58133242,5.749233779999999,-2.81598319,,,
imu,333.513037,-0.1381732968,-9.3628857784,3.104413032,-3.96265483,5.08378879,-3.39918217,,,
imu,333.521503,-0.1507345056,-9.360493167200001,3.108001948800001,-4.21686977,4.104313579999999,-4.06462716,,,
imu,333.529969,-0.1758569232,-9.332978138400001,3.1169742408,-4.74025347,3.19213056,-4.759979789999999,,,
imu,333.538436,-0.2051664104,-9.3126409432,3.119366852000001,-4.89726858,2.19022462,-5.044102369999999,,,
imu,332.056365,,,,,,,-95.1185132,169.124622,124.8735672
imu,332.157958,,,,,,,-98.1092772,170.0645764,127.1318992
imu,332.259582,,,,,,,-98.58535800000001,170.0523692,127.5347368
imu,332.361053,,,,,,,-98.23134920000001,169.6983604,127.546944
imu,332.462615,,,,,,,-98.19472760000001,169.9547116,127.3394216
imu,332.564208,,,,,,,-98.1458988,169.8448468,127.4981152
imu,332.66574,,,,,,,-97.913962,169.6251172,127.1441064
imu,332.767303,,,,,,,-98.0848628,169.4053876,127.669016
imu,333.54684,-0.2506260232,-9.3204169296,3.1486763392,-5.33092936,1.33037997,-5.328224949999999,,,
imu,333.555306,-0.3014690112,-9.324005846400002,3.1576486312,-5.674867219999999,0.5303505999999998,-5.29831731,,,
imu,333.563772,-0.3355637208,-9.3174261656,3.1827710488,-6.026281989999999,-0.1350943900000003,-5.328224949999999,,,
imu,333.572238,-0.3834159448,-9.311444637600001,3.200715632800001,-6.108528,-0.7108164600000002,-5.193640569999999,,,
imu,333.580704,-0.4312681688,-9.306659415200002,3.2366048008,-6.474896589999999,-1.39121527,-5.18616366,,,
imu,333.58917,-0.4779240872000001,-9.304266804000001,3.2593346072,-6.923511189999999,-1.8622606,-5.18616366,,,
imu,333.597636,-0.5239818528000001,-9.28632222,3.2862514832,-7.536617809999999,-2.24358301,-5.17868675,,,
imu,333.606102,-0.5634599376000001,-9.288116678400002,3.295821928000001,-7.79083275,-2.55013632,-5.05905619,,,
imu,333.614569,-0.5915731192000001,-9.2851259144,3.316757276000001,-8.19458589,-2.67724379,-4.976810179999999,,,
imu,333.623035,-0.648995788,-9.2797425392,3.349655680000001,-8.78526178,-2.72958216,-5.05157928,,,
imu,333.631501,-0.681894192,-9.2707702472,3.3759744032,-9.23387638,-2.7594898,-5.07401001,,,
imu,333.639967,-0.6986424704000002,-9.273162858400001,3.3993023624,-9.48809132,-2.65481306,-5.02914855,,,
imu,333.648433,-0.7159889016000002,-9.235479232000001,3.414854335200001,-9.73482935,-2.28844447,-5.0665331,,,
imu,333.656899,-0.7321390272000001,-9.194804841600002,3.4268173912,-10.27316687,-2.13890627,-5.13382529,,,
imu,333.665365,-0.7482891528000001,-9.153532298400002,3.4280136968,-10.57224327,-2.0117988,-5.11139456,,,
imu,333.673831,-0.7686263480000001,-9.107474532800001,3.428611849600001,-10.55728945,-1.50336892,-5.15625602,,,
imu,333.682292,-0.7698226536000001,-9.093717018400001,3.4435656696,-10.46756653,-1.10709269,-4.909517989999999,,,
imu,333.690753,-0.7680281952000001,-9.09192256,3.4531361144,-10.24325923,-0.7033395499999999,-4.63287232,,,
imu,333.699214,-0.7722152648000001,-9.094315171200002,3.4776603792,-10.17596704,-0.3070633200000001,-4.43847266,,,
imu,333.707675,-0.7620466672,-9.0715853648,3.4758659208,-10.06381339,0.35838167,-4.16182699,,,
imu,333.716136,-0.7668318896,-9.0608186144,3.491417893600001,-9.61519879,0.78456554,-3.75807385,,,
imu,333.724597,-0.7452983888000001,-9.0506500168,3.511156936,-9.129199640000001,1.26308778,-3.22721324,,,
imu,333.733058,-0.726755652,-9.0398832664,3.5129513944,-8.81516942,1.69674856,-2.74121409,,,
imu,333.741519,-0.7100073736000001,-9.018349765600002,3.521325533600001,-8.5011392,2.1752708,-2.29259949,,,
imu,333.74998,-0.681894192,-8.999807028800001,3.521325533600001,-8.28430881,2.6238854,-1.80660034,,,
imu,333.758441,-0.6454068712000001,-9.005190404000002,3.529699672800001,-7.91046331,3.11736146,-1.24583209,,,
imu,333.766902,-0.6107140088,-9.013564543200001,3.5452516456,-7.64877146,3.42391477,-0.9318018699999999,,,
imu,333.775363,-0.5742266880000001,-8.9956199592,3.5404664232,-7.19267995,3.87252937,-0.6925407499999998,,,
imu,333.783824,-0.5491042704000001,-8.9956199592,3.5554202432,-6.945941919999999,4.23889796,-0.3560797999999998,,,
imu,333.792285,-0.5066354216000001,-8.993825500800002,3.5524294792,-6.430035129999999,4.38095925,-0.1392494099999999,,,
imu,333.800746,-0.4767277816000001,-8.989040278400001,3.546447951200001,-6.003851259999999,4.58283582,0.1149655300000001,,,
imu,333.809207,-0.4432312248,-8.984255056000002,3.549438715200001,-5.56271357,4.79966621,0.3168421000000001,,,
imu,333.817668,-0.4085383624000001,-8.982460597600001,3.5596073128,-5.01689914,4.8669584,0.4589033900000001,,,
imu,333.826129,-0.3606861384,-9.0045922512,3.579346355200001,-4.47856162,4.75480475,0.5561032200000002,,,
imu,333.83459,-0.3361618736,-9.0267239048,3.586524188800001,-4.03742393,4.85948149,0.4888110299999999,,,
imu,333.843051,-0.3194135952000001,-9.051846322400001,3.605066925600001,-3.6411477,4.694989469999999,0.3467497399999999,,,
imu,333.851512,-0.3098431504,-9.0476592528,3.6116466064,-3.43179422,4.59031273,0.1299193500000002,,,
imu,333.859973,-0.3038616224,-9.038088808000001,3.615833676,-3.15514855,4.4931129,-0.004665029999999959,,,
imu,333.868434,-0.2996745528,-9.027322057600001,3.6254041208,-3.0429949,4.32862088,-0.3037414299999999,,,
imu,333.876895,-0.2895059552,-9.039285113600002,3.645741316000001,-2.87102597,4.28375942,-0.5579563699999999,,,
imu,333.885378,-0.2673743016,-9.0542389336,3.639759788000001,-2.65419558,4.16412886,-1.03647861,,,
imu,333.89386,-0.2763465936,-9.044070336,3.641554246400001,-2.370073,3.820191,-1.72435433,,,
imu,333.902343,-0.2984782472,-9.0572296976,3.6565080664,-2.2953039,3.60336061,-2.25521494,,,
imu,333.910826,-0.3116376088,-9.041079572000001,3.6475357744,-2.31773463,3.39400713,-2.748691,,,
imu,333.919308,-0.3265914288,-9.040481419200002,3.665480358400001,-2.07847351,3.05006927,-3.21225942,,,
imu,333.927791,-0.3582935272000001,-9.038088808000001,3.6732563448,-2.00370441,2.87062343,-3.51133582,,,
imu,333.936273,-0.3612842912,-9.035696196800002,3.678639720000001,-1.94388913,2.66126995,-3.75059694,,,
imu,333.944756,-0.382817792,-9.040481419200002,3.6864157064,-1.9214584,2.42200883,-3.91508896,,,
imu,333.953239,-0.4037531400000001,-9.027322057600001,3.676247108800001,-1.73453565,2.15284007,-3.93004278,,,
imu,333.961721,-0.4384460024000001,-9.014760848800002,3.6780415672,-1.68967419,1.90610204,-3.91508896,,,
imu,333.970204,-0.4647647256,-9.015359001600002,3.681630484000001,-1.67472037,1.62945637,-4.00481188,,,
imu,333.978686,-0.4773259344000001,-9.035696196800002,3.6852194008,-1.52518217,1.46496435,-4.04967334,,,
imu,333.987169,-0.5072335744,-9.0255275992,3.6780415672,-1.27096723,1.32290306,-3.98238115,,,
imu,333.995652,-0.5419264368000001,-8.997414417600002,3.6774434144,-1.12890594,1.27056469,-4.00481188,,,
imu,334.004134,-0.5748248408000001,-8.9818624448,3.688808317600001,-1.12890594,1.16588795,-4.0197657,,,
imu,334.012617,-0.5963583416000001,-8.986049514400001,3.6923972344,-0.82982954,1.08364194,-3.96742733,,,
imu,334.0211,-0.6041343280000001,-9.007583015200002,3.7013695264,-0.43355331,0.98644211,-3.87770441,,,
imu,334.029582,-0.6214807592000001,-9.014760848800002,3.676247108800001,-0.35878421,1.03878048,-3.82536604,,,
imu,334.038065,-0.6472013296000001,-8.980067986400002,3.6714618864,-0.08213854000000001,1.06868812,-3.70573548,,,
imu,334.046547,-0.6615569968000001,-8.961525249600001,3.681630484000001,0.07487657,1.14345722,-3.52628964,,,
imu,334.05503,-0.6753145112000001,-8.9914328896,3.684023095200001,0.47862971,1.31542615,-3.32441307,,,
imu,334.063513,-0.6729219000000001,-8.999807028800001,3.683424942400001,0.5982602699999999,1.43505671,-3.15992105,,,
imu,334.071995,-0.6777071224000001,-9.0165553072,3.7013695264,0.68050628,1.58459491,-3.13001341,,,
imu,334.080478,-0.6872775672000001,-9.0267239048,3.709145512800001,0.9048135799999999,1.68927165,-3.16739796,,,
imu,334.089292,-0.7004369288000002,-9.048855558400001,3.7061547488,0.88985976,1.8014253,-3.28702852,,,
imu,334.098106,-0.6944554008000001,-9.0644075312,3.714528888000001,1.09173633,1.92853277,-3.18982869,,,
imu,334.106921,-0.6890720256,-9.073977976,3.706752901600001,0.9347212199999999,2.07059406,-3.10010577,,,
imu,334.115735,-0.6950535536000001,-9.070389059200002,3.697780609600001,0.97210577,2.11545552,-3.04029049,,,
imu,334.124549,-0.6962498592000002,-9.023134988,3.684621248,0.80761375,2.22760917,-3.03281358,,,
imu,334.133363,-0.7022313872,-9.003994098400002,3.684621248,1.15155161,2.42948574,-2.65896808,,,
imu,334.142178,-0.7082129152000001,-8.999208876,3.6738544976,1.48053565,2.81080815,-2.19539966,,,
imu,334.150992,-0.7004369288000002,-8.9956199592,3.6600969832,1.65998149,3.18465365,-1.73183124,,,
imu,334.159806,-0.6783052752000002,-8.996218112000001,3.645741316000001,1.91419643,3.51363769,-1.38041647,,,
imu,334.168621,-0.6621551496,-8.983058750400001,3.6194225928,2.407672489999999,3.83514482,-1.05143243,,,
imu,334.177435,-0.6561736216000001,-8.9806661392,3.606861384000001,2.75161035,4.15665195,-1.05143243,,,
imu,334.186249,-0.6525847048000001,-8.985451361600001,3.5990853976,3.13293276,4.50806672,-1.05890934,,,
imu,334.195063,-0.6400234960000001,-8.994423653600002,3.5691777576,3.63388573,4.91929677,-1.15610917,,,
imu,334.203878,-0.631051204,-9.000405181600001,3.564990688,3.97034668,5.36791137,-1.34303192,,,
imu,334.212692,-0.6089195504,-9.0255275992,3.5482424096,4.359146,5.95111035,-1.46266248,,,
imu,334.221506,-0.5820026744000001,-9.0608186144,3.52910152,4.8077606,6.444586409999999,-1.51500085,,,
imu,334.23032,-0.5497024232000001,-9.100894852000001,3.521325533600001,5.01711408,6.83338573,-1.75426197,,,
imu,334.239135,-0.5126169496,-9.115250519200002,3.508166172,5.06945245,7.23713887,-1.76173888,,,
imu,334.247949,-0.4809148512,-9.141569242400001,3.500390185600001,5.05449863,7.483876899999999,-1.94118472,,,
imu,334.256763,-0.4474182944000001,-9.1708787296,3.478856684800001,5.00963717,7.670799649999999,-2.0757691,,,
imu,334.265578,-0.4228940296000001,-9.1894214664,3.4627065592,5.00216026,7.66332274,-2.20287657,,,
imu,332.868817,,,,,,,-95.7410804,168.8560636,125.47172
imu,332.970502,,,,,,,-98.2069348,169.30773,127.8399168
imu,333.071942,,,,,,,-95.6312156,168.3433612,124.4463152
imu,333.174542,,,,,,,-97.81630439999999,169.2955228,127.1563136
imu,333.275067,,,,,,,-97.7186468,169.7105676,126.9121696
imu,333.37663,,,,,,,-97.2181516,169.3931804,127.6446016
imu,333.478192,,,,,,,-98.0848628,169.9913332,127.1929352
imu,333.587567,,,,,,,-97.93837640000001,169.8936756,126.9487912
imu,334.368109,-0.2763465936,-9.218132800800001,3.4106672656,1.74970441,0.3209971199999999,-5.50767079,,,
imu,334.376599,-0.3170209840000001,-9.2851259144,3.409470960000001,1.6674584,-0.6285704500000002,-5.5151477,,,
imu,334.385089,-0.3714528888,-9.283929608800001,3.3951152928,1.32352054,-1.43607673,-5.74693191,,,
imu,334.393579,-0.4300718632,-9.2169364952,3.3969097512,0.9048135799999999,-2.09404481,-5.74693191,,,
imu,334.40207,-0.4910834488,-9.179851021600001,3.3993023624,0.4861066199999999,-2.81182817,-5.67963972,,,
imu,334.41056,-0.5538894928000001,-9.1918140776,3.390330070400001,0.29170696,-3.02118165,-5.53010152,,,
imu,334.41905,-0.6178918424000002,-9.2133475784,3.3831522368,0.26927623,-3.14828912,-5.18616366,,,
imu,334.42754,-0.663949608,-9.212151272800002,3.386143000800001,0.34404533,-3.11090457,-4.52819558,,,
imu,334.436031,-0.7106055264000001,-9.1924122304,3.398106056800001,0.03749201999999999,-2.79687435,-4.102011709999999,,,
imu,334.444521,-0.7524762224000001,-9.190617772000001,3.39451714,-0.38121494,-2.43050576,-3.87770441,,,
imu,334.453011,-0.7853746264000001,-9.190019619200001,3.381955931200001,-0.49336859,-2.05666026,-3.78798149,,,
imu,334.461501,-0.8063099744000001,-9.1965993,3.3711891808,-0.69524516,-1.54823038,-3.89265823,,,
imu,334.469991,-0.8266471696000001,-9.1930103832,3.3837503896,-0.5307531400000001,-0.9201699400000001,-3.98238115,,,
imu,334.478482,-0.8445917536,-9.175663952,3.374778097600001,-0.61299915,-0.2921095,-4.29641137,,,
imu,334.486972,-0.8613400320000001,-9.174467646400002,3.377768861600001,-0.77001426,0.3658585799999998,-4.602964679999999,,,
imu,334.495406,-0.8607418792,-9.175663952,3.3783670144,-0.76253735,0.9191499199999997,-4.66277996,,,
imu,334.503841,-0.8427972952,-9.167887965600002,3.375376250400001,-0.7550604399999999,1.58459491,-4.56558013,,,
imu,334.512275,-0.8290397808000001,-9.173271340800001,3.367600264,-0.7999219,2.23508608,-4.44594957,,,
imu,334.520709,-0.8116933496000001,-9.18164548,3.384348542400001,-0.8522602699999999,2.78090051,-4.31136519,,,
imu,334.529143,-0.7991321408000002,-9.177458410400002,3.3717873336,-0.71767589,3.07997691,-4.02724261,,,
imu,334.537578,-0.7835801680000001,-9.178056563200002,3.372385486400001,-0.68029134,3.46877623,-3.78050458,,,
imu,334.546012,-0.7620466672,-9.187028855200001,3.3741799448,-0.77749117,3.81271409,-3.36927453,,,
imu,334.554446,-0.7333353328000001,-9.1792528688,3.3771707088,-0.9494601,4.0444983,-3.16739796,,,
imu,334.562881,-0.7147925960000001,-9.1858325496,3.3693947224,-0.874691,4.246374869999999,-2.71130645,,,
imu,334.571315,-0.7004369288000002,-9.178654716,3.376572556000001,-0.8821679099999999,4.433297619999999,-2.50942988,,,
imu,334.579749,-0.6878757200000001,-9.1930103832,3.3849466952,-0.874691,4.388436159999999,-2.21035348,,,
imu,334.588184,-0.6573699272000001,-9.198393758400002,3.393918987200001,-0.8522602699999999,4.523020539999999,-2.1505382,,,
imu,334.596618,-0.6477994824000001,-9.194206688800001,3.3693947224,-0.9943215599999999,4.46320526,-2.09819983,,,
imu,334.605052,-0.6316493568000001,-9.190617772000001,3.388535612000001,-1.04665993,4.478159079999999,-2.18044584,,,
imu,334.613486,-0.6166955368000001,-9.187627008000002,3.397507904,-1.30087487,4.46320526,-2.10567674,,,
imu,334.621921,-0.5939657304000001,-9.183439938400001,3.3909282232,-1.27844414,4.500589809999999,-1.99352309,,,
imu,334.630355,-0.5778156048000002,-9.195402994400002,3.4088728072,-1.26349032,4.50806672,-1.94866163,,,
imu,334.638745,-0.5592728680000001,-9.191215924800002,3.407676501600001,-1.51770526,4.37348234,-2.00847691,,,
imu,334.64718,-0.5461135064000001,-9.178654716,3.421434016000001,-1.64481273,4.23142105,-2.03838455,,,
imu,334.655614,-0.5508987288,-9.170280576800002,3.430406308000001,-1.85416621,4.0444983,-2.12063056,,,
imu,334.664048,-0.5676470072,-9.158915673600001,3.4405749056,-1.8466893,3.78280645,-2.32250713,,,
imu,334.672482,-0.5861897440000001,-9.156523062400002,3.4393786,-1.93641222,3.54354533,-2.8234601,,,
imu,334.680917,-0.6172936896000001,-9.152335992800001,3.451341656,-2.03361205,3.39400713,-3.24964397,,,
imu,334.689351,-0.6364345792000001,-9.1170449776,3.4322007664,-1.87659694,3.2220382,-3.48890509,,,
imu,334.697839,-0.6322475096000001,-9.0925207128,3.4501453504,-1.97379677,2.9977309,-3.65339711,,,
imu,334.706326,-0.646005024,-9.119437588800002,3.463304712000001,-1.82425857,2.93043871,-3.57862801,,,
imu,334.714814,-0.6477994824000001,-9.131998797600001,3.466295476,-1.54013599,2.90800798,-3.3468438,,,
imu,334.723302,-0.6513883992,-9.143961853600002,3.471678851200001,-1.33078251,2.81828506,-2.98047521,,,
imu,334.73179,-0.6621551496,-9.1014930048,3.451341656,-1.34573633,2.81080815,-2.68887572,,,
imu,334.740277,-0.6687348304,-9.093118865600001,3.46928624,-1.28592105,2.73603905,-2.30755331,,,
imu,334.748765,-0.6675385248000001,-9.0996985464,3.46928624,-1.27844414,2.70613141,-2.06081528,,,
imu,334.757253,-0.6663422192,-9.097904088000002,3.456126878400001,-0.94198319,2.90800798,-1.67201596,,,
imu,334.76574,-0.6693329832000001,-9.097904088000002,3.465697323200001,-0.83730645,2.96782326,-1.48509321,,,
imu,334.774228,-0.6717255944000001,-9.090726254400002,3.463304712000001,-0.58309151,3.22951511,-1.37293956,,,
imu,334.782716,-0.6615569968000001,-9.0991003936,3.472277004,-0.40364567,3.31923803,-1.51500085,,,
imu,334.791203,-0.6519865520000001,-9.103885616000001,3.4824456016,-0.34383039,3.40896095,-1.58976995,,,
imu,334.799691,-0.6358364264000002,-9.102091157600002,3.4740714624,-0.43355331,3.56597606,-1.89632326,,,
imu,334.808179,-0.6382290376000002,-9.0961096296,3.4645010176,-0.30644584,3.61831443,-2.05333837,,,
imu,334.816667,-0.6196863008000001,-9.094913324,3.472875156800001,-0.2017691,3.73046808,-2.2253073,,,
imu,334.825154,-0.6089195504,-9.075772434400001,3.460912100800001,0.20198404,3.8949601,-2.44213769,,,
imu,334.833642,-0.6095177032000001,-9.0925207128,3.4698843928,0.35152224,3.85757555,-2.69635263,,,
imu,334.84213,-0.6029380224,-9.085941032000001,3.453734267200001,0.46367589,3.85757555,-2.90570611,,,
imu,334.850617,-0.6143029256000001,-9.076370587200001,3.4393786,0.58330645,3.69308353,-2.96552139,,,
imu,334.859105,-0.6220789120000001,-9.104483768800002,3.4585194896,0.9272443100000001,3.55102224,-3.09262886,,,
imu,334.867593,-0.6220789120000001,-9.13678402,3.4393786,1.09173633,3.37905331,-3.27955161,,,
imu,334.87608,-0.6304530512000001,-9.145756312000001,3.4316026136,1.12164397,3.19213056,-3.39170526,,,
imu,334.884568,-0.6370327320000001,-9.1373821728,3.423228474400001,1.40576655,3.19960747,-3.41413599,,,
imu,334.893056,-0.6543791632000001,-9.1499433816,3.4280136968,1.27865908,3.03511545,-3.39170526,,,
imu,334.901523,-0.6651459136000001,-9.178056563200002,3.423228474400001,1.43567419,2.90800798,-3.24964397,,,
imu,334.909991,-0.6783052752000002,-9.180449174400001,3.4046857376,1.33099745,2.85566961,-3.18982869,,,
imu,334.918458,-0.6998387760000001,-9.171476882400002,3.406480196,1.52539711,2.90053107,-3.01785976,,,
imu,334.926925,-0.7153907488000001,-9.186430702400001,3.405283890400001,1.37585891,2.85566961,-2.92065993,,,
imu,334.935393,-0.7303445688000001,-9.176262104800001,3.3813577784,1.24127453,3.05006927,-2.84589083,,,
imu,334.94386,-0.7315408744,-9.1541304512,3.3783670144,1.09921324,3.34914567,-2.72626027,,,
imu,334.952327,-0.7458965416000001,-9.178654716,3.390330070400001,1.18893616,3.58840679,-2.49447606,,,
imu,334.960795,-0.7231667352000001,-9.1583175208,3.352646444,1.2188438,3.9697292,-2.25521494,,,
imu,334.969262,-0.7189796656000002,-9.1499433816,3.3520482912,1.09921324,4.23142105,-1.98604618,,,
imu,334.977729,-0.6860812616,-9.128409880800001,3.346066763200001,1.38333582,4.47068217,-1.74678506,,,
imu,334.986197,-0.6454068712000001,-9.112857908,3.3329074016,1.51044329,4.762281659999999,-1.82155416,,,
imu,334.994664,-0.6316493568000001,-9.136185867200002,3.340683388,1.45810492,4.89686604,-1.96361545,,,
imu,335.003131,-0.6101158560000001,-9.146354464800002,3.326327720800001,1.80951969,4.9417275,-2.09072292,,,
imu,335.011599,-0.5724322296000001,-9.1409710896,3.3203461928,1.93662716,4.91181986,-1.97856927,,,
imu,335.020066,-0.5383375200000001,-9.140372936800002,3.323935109600001,2.10111918,4.88938913,-1.90380017,,,
imu,335.028534,-0.5048409632,-9.100296699200001,3.2982145392,2.22074974,4.74732784,-1.91127708,,,
imu,335.037001,-0.4522035168,-9.073977976,3.2946256224,2.5646876,4.35105161,-1.97856927,,,
imu,335.045468,-0.4563905864000001,-9.1224283528,3.314364664800001,2.85628709,3.97720611,-2.08324601,,,
imu,335.053936,-0.4779240872000001,-9.184636244000002,3.3089812896,3.13293276,3.64822207,-1.87389253,,,
imu,335.062403,-0.4205014184,-9.1965993,3.3059905256,3.33480933,3.24446893,-1.61967759,,,
imu,335.07087,-0.3415452488,-9.187028855200001,3.325729568,3.33480933,2.69117759,-1.71687742,,,
imu,335.079338,-0.197390424,-9.191215924800002,3.3364963184,3.34228624,1.83880985,-2.23278421,,,
imu,335.087805,-0.0221316536,-9.244451524,3.3717873336,3.21517877,0.2836125699999998,-2.38979932,,,
imu,335.096272,0.1662864784,-9.311444637600001,3.373581792,3.05068675,-1.91459897,-2.03838455,,,
imu,335.105063,0.5341504504000001,-9.447823476,3.4549305728,2.69179507,-5.137147179999999,-1.26826282,,,
imu,335.113853,0.7177833600000001,-9.469356976800002,3.382554084,2.07868845,-9.61581627,-0.40094126,,,
imu,335.122644,0.8469843648000001,-9.3246039992,3.3012053032,1.54782784,-15.44032916,0.6757337799999998,,,
imu,335.131434,0.9343146736000002,-9.195402994400002,3.3089812896,0.9272443100000001,-21.51905699,1.91690084,,,
imu,335.140224,0.9026125752,-9.167887965600002,3.2581383016,0.94219813,-27.7323692,3.980528,,,
imu,335.149015,0.771617112,-9.245049676800003,3.2204546752,1.12912088,-33.77371248,6.672215599999999,,,
imu,335.157805,0.7381205552000002,-9.243853371200002,3.1456855752,0.9272443100000001,-39.22437987,9.09473444,,,
imu,335.166596,0.5849934384000001,-9.203777133600001,3.119366852000001,0.9347212199999999,-44.24138648,10.87423902,,,
imu,335.175386,0.4025568344,-9.079361351200001,3.074505392,1.368382,-48.33873316,12.16026754,,,
imu,333.681348,,,,,,,-97.608782,170.3087204,127.7788808
imu,333.782971,,,,,,,-94.9354052,170.6261076,126.8511336
imu,333.884442,,,,,,,-97.974998,171.4317828,126.8267192
imu,333.986005,,,,,,,-95.26499960000001,170.467414,123.3476672
imu,334.087567,,,,,,,-97.1571156,171.8224132,126.4971248
imu,334.189282,,,,,,,-97.0228364,170.4918284,123.9214056
imu,334.290692,,,,,,,-97.2791876,171.0533596,127.2661784
imu,334.392255,,,,,,,-97.0472508,170.955702,127.1563136
imu,335.184176,0.2745521352,-9.029116516000002,3.0876647536,2.28056502,-51.95008069,13.8500492,,,
imu,335.192967,0.1250139352,-9.039285113600002,3.073309086400001,3.52173208,-55.14272126,15.14355463,,,
imu,335.201757,-0.0251224176,-9.0715853648,3.0434014464,4.74046841,-57.49794791,15.6445076,,,
imu,335.210547,-0.1698753952,-9.1134560608,3.0428032936,5.93677401,-59.17277575,15.98096855,,,
imu,335.219338,-0.3744436528,-9.1122597552,2.9883713888,7.14055652,-60.3316968,16.45201388,,,
imu,335.228128,-0.5239818528000001,-9.045266641600001,2.94590254,8.187323919999999,-60.96723415,16.5417368,,,
imu,335.236919,-0.6962498592000002,-9.063211225600002,2.9506877624,8.890153459999999,-61.18406454,16.08564529,,,
imu,335.245709,-0.9325202152000002,-9.174467646400002,2.9931566112,9.592982999999998,-60.54105028,15.29309283,,,
imu,335.254499,-1.1000029992,-9.249834899200001,3.02067164,10.17618198,-59.17277575,14.33604835,,,
imu,335.26329,-1.2184372536,-9.258209038400002,2.9841843192,10.10141288,-57.10167168,13.4014346,,,
imu,335.27208,-1.333880744,-9.340155972000002,3.032634696,10.01916687,-54.59690683,12.41448248,,,
imu,335.280871,-1.4690632768,-9.402363863200002,3.036223612800001,9.53316772,-51.75568103,11.07611559,,,
imu,335.289661,-1.5749363224,-9.4041583216,3.015288264800001,8.97239947,-48.55556355,9.68541033,,,
imu,335.298451,-1.6257793104,-9.367671000800001,3.015288264800001,8.344339029999999,-44.84701619,8.36947417,,,
imu,335.306929,-1.6634629368,-9.339557819200001,2.981791708,7.69384786,-40.8917308,7.180645480000001,,,
imu,335.315406,-1.70473548,-9.3688673064,2.993754764000001,7.36486382,-37.05607597,5.72264803,,,
imu,335.323884,-1.3990793992,-9.396980488,2.9746138744,6.54240372,-33.18303659,4.100158560000001,,,
imu,335.332361,-1.7196893,-9.5423316184,3.061346030400001,6.18351204,-29.93058074,2.83656077,,,
imu,335.340839,-1.7238763696,-9.5590798968,2.989567694400001,5.28628284,-25.38461946,1.4383786,,,
imu,335.349317,-1.6724352288,-9.538742701600002,2.989567694400001,4.12736179,-21.49662626,0.52619558,,,
imu,335.357794,-1.5755344752,-9.566257730400002,2.9943529168,3.02077911,-18.13201676,0.15982699,,,
imu,335.366272,-1.4995690696,-9.554892827200002,2.9692304992,1.60764312,-14.74497653,-0.63272547,,,
imu,335.374749,-1.426594428,-9.593174606400002,2.981791708,0.23936859,-12.16544258,-1.45518557,,,
imu,335.383227,-1.3302918272,-9.614708107200002,2.948893304,-0.9943215599999999,-9.94480031,-2.06829219,,,
imu,335.391704,-1.2627005608,-9.592576453600001,2.907022608,-2.370073,-7.985849890000001,-2.5243837,,,
imu,335.400182,-1.21125942,-9.533359326400001,2.901041080000001,-3.63367079,-6.59514463,-2.8234601,,,
imu,335.408659,-1.1556312096,-9.4843107968,2.898050316,-4.94960695,-5.510992679999999,-3.05524431,,,
imu,335.417137,-1.1269198752,-9.469356976800002,2.865151912,-5.87674379,-4.54647129,-3.0477674,,,
imu,335.425614,-1.0904325544,-9.443636406400001,2.8190941464,-6.96089574,-3.67167282,-3.01785976,,,
imu,335.434092,-1.022841288,-9.4173176832,2.833449813600001,-7.828217299999999,-3.11838148,-3.01785976,,,
imu,335.442569,-0.9408943544,-9.423299211200002,2.883096496000001,-8.695538860000001,-2.76696671,-2.78607555,,,
imu,335.451047,-0.9044070336000001,-9.3862137376,2.831655355200001,-9.413322220000001,-2.75201289,-2.62158353,,,
imu,335.459524,-0.9008181168,-9.222918023200002,2.7610733248,-9.86193682,-2.92398182,-2.57672207,,,
imu,335.468002,-0.9241460760000001,-9.059024156000001,2.761671477600001,-9.719875530000001,-3.05108929,-2.47204533,,,
imu,335.476479,-0.9408943544,-8.941786207200002,2.8190941464,-9.10676891,-3.33521187,-2.45709151,,,
imu,335.484957,-0.8924439776000002,-8.835913161600002,2.814308924,-7.78335584,-3.39502715,-2.46456842,,,
imu,335.493435,-0.7153907488000001,-8.694150948,2.7670548528,-6.15338946,-3.29782732,-2.66644499,,,
imu,335.501912,-0.4701481008,-8.589474208000002,2.718604476,-3.88040882,-3.61185754,-2.64401426,,,
imu,335.510379,-0.3253951232,-8.602633569600002,2.8370387304,-0.91955246,-4.46422528,-1.79912343,,,
imu,335.518847,-0.2045682576000001,-8.788659090400001,3.0021289032,2.17588828,-5.884838179999999,-0.68506384,,,
imu,335.527314,-0.1543234224,-8.836511314400001,2.966239735200001,4.68813004,-7.20825125,0.3392728300000001,,,
imu,335.535781,-0.2027737992,-8.944776971200001,3.0762998504,6.70689574,-8.65129488,0.9374256299999999,,,
imu,335.544249,-0.2739539824000001,-9.097305935200001,3.146283728,8.28452375,-10.10929233,0.9972409099999999,,,
imu,335.552716,-0.2458408008,-9.163700896000002,3.154059714400001,9.48830626,-11.41775158,0.7804105200000002,,,
imu,335.561184,-0.2847207328,-9.2091605088,3.146881880800001,9.99673614,-12.71125701,0.3691804699999999,,,
imu,335.569651,-0.4187069600000001,-9.2797425392,3.161237548,10.28833563,-14.01223935,-0.1392494099999999,,,
imu,335.578118,-0.5395338256000001,-9.3592968616,3.1630320064,10.44535074,-14.88703782,-0.73740221,,,
imu,335.586586,-0.6143029256000001,-9.4005694048,3.1229557688,10.4902122,-15.28331405,-1.33555501,,,
imu,335.595053,-0.6741182056000001,-9.322809540800002,3.053570044,9.899536309999998,-15.26088332,-1.76921579,,,
imu,335.60352,-0.7781967928000002,-9.285724067200002,3.1032167264,9.46587553,-15.08891439,-2.0757691,,,
imu,335.611988,-0.8643307960000001,-9.393391571200002,3.177387673600001,9.092030029999998,-14.70011507,-2.4496146,,,
imu,335.620455,-1.0204486768,-9.5249851872,3.1199650048,8.68827689,-13.96737789,-2.89075229,,,
imu,335.628922,-1.21125942,-9.583604161600002,3.088861059200001,7.89572443,-12.75611847,-3.40665908,,,
imu,335.63739,-1.3302918272,-9.699047652,3.1450874224,7.02092596,-11.08129063,-4.13191935,,,
imu,335.645857,-1.474446652,-9.679308609600001,3.0727109336,5.53302087,-8.97280201,-4.65530305,,,
imu,335.654324,-1.5635714192,-9.471151435200001,2.9297524144,4.03763887,-6.782067379999999,-5.14877911,,,
imu,335.662792,-1.6365460608,-9.337165208000002,2.9345376368,2.99087147,-4.4791791,-5.86656247,,,
imu,335.671259,-1.707726244,-9.527377798400002,3.0194753344,2.36281103,-2.0117988,-6.83108386,,,
imu,335.679727,-1.7400264952,-9.4669643656,2.798756951200001,1.67493531,0.44062768,-7.406805929999999,,,
imu,335.688194,-1.7519895512,-9.412532460800001,2.831655355200001,0.97210577,2.87062343,-7.556344129999999,,,
imu,335.696661,-1.7663452184,-9.343146736000001,2.820290452000001,0.43376825,5.2408039,-7.511482669999999,,,
imu,335.705129,-1.7818971912,-9.295294512000002,2.794569881600001,0.15712258,7.51378454,-7.361944469999999,,,
imu,335.713585,-1.7783082744,-9.2917055952,2.7592788664,-0.07466163,9.83910355,-7.032960429999999,,,
imu,335.72204,-1.7771119688,-9.243853371200002,2.706043267200001,-0.20924601,12.07469964,-6.636684199999999,,,
imu,335.730524,-1.770532288,-9.2378718432,2.722791545600001,-0.23915365,14.08598843,-6.19554651,,,
imu,335.73898,-1.7741212048,-9.2103568144,2.6904912944,-0.11204618,16.13466177,-5.851608649999999,,,
imu,335.747436,-1.7573729264,-9.190617772000001,2.668957793600001,0.02253820000000001,18.27305803,-5.53757843,,,
imu,335.755892,-1.7519895512,-9.162504590400001,2.6402464592,0.60573718,20.4189312,-5.20111748,,,
imu,335.764348,-1.752587704,-9.183439938400001,2.641442764800001,1.08425942,22.5872351,-5.07401001,,,
imu,335.772804,-1.7633544544,-9.2300958568,2.6450316816,1.42819728,24.79292355,-4.954379449999999,,,
imu,335.781259,-1.7484006344,-9.2588071912,2.640844612,1.77213514,27.0733811,-5.03662546,,,
imu,335.789715,-1.7280634392,-9.2719665528,2.638452000800001,2.21327283,29.47346921,-5.00671782,,,
imu,335.798171,-1.6939687296,-9.315631707200001,2.6605836544,2.54973378,31.73897294,-5.29831731,,,
imu,335.806627,-1.650901728,-9.324005846400002,2.6300778616,2.87124091,33.93718448,-5.53757843,,,
imu,335.815083,-1.6048439624,-9.347333805600002,2.615124041600001,3.03573293,35.98585782,-5.84413174,,,
imu,335.823539,-1.5653658776,-9.382624820800002,2.625890792,3.05816366,38.04948498,-6.4123769,,,
imu,335.831995,-1.5330656264,-9.3658765424,2.5911979296,3.10302512,39.98600467,-7.10772953,,,
imu,335.840451,-1.5181118064,-9.361091320000002,2.587609012800001,3.05816366,41.89261672,-7.78812834,,,
imu,335.848907,-1.4792318744,-9.3545116392,2.569066276,2.89367164,43.76932112999999,-8.60311153,,,
imu,335.857363,-1.4271925808,-9.3413522776,2.5505235392,3.06564057,45.56377953,-9.32089489,,,
imu,335.865819,-1.384723732,-9.352717180800001,2.5577013728,3.0880713,47.32085338,-9.94895533,,,
imu,335.874274,-1.3177306184,-9.377241445600001,2.5582995256,3.42453225,49.02558886,-10.40504684,,,
imu,335.88273,-1.2704765472,-9.380830362400001,2.527793732800001,3.69370101,50.53592467999999,-10.70412324,,,
imu,335.891186,-1.217240948,-9.349726416800001,2.5385604832,3.78342393,52.16589106,-11.00319964,,,
imu,335.899642,-1.1640053488,-9.322809540800002,2.533177108,3.73856247,53.48182722,-11.16021475,,,
imu,335.908098,-1.1029937632,-9.302472345600002,2.5337752608,3.90305449,54.76785573999999,-11.27984531,,,
imu,335.916572,-0.9911391896000001,-9.2929019008,2.531980802400001,4.29933072,55.97163825,-11.05553801,,,
imu,335.925046,-0.8637326432000001,-9.2689757888,2.531980802400001,4.69560695,56.86886745,-10.8985229,,,
imu,335.933519,-0.7327371800000001,-9.260601649600002,2.5379623304,5.16665228,57.24271295,-10.61440032,,,
imu,335.941993,-0.5891805080000001,-9.246844135200002,2.5469346224,5.38348267,57.19037458,-10.10597044,,,
imu,335.950467,-0.4665591840000001,-9.2761536224,2.595983152,6.01154311,56.74175998,-9.45547927,,,
imu,335.95894,-0.3642750552,-9.325800304800001,2.6240963336,6.40034243,55.74733095,-8.51338861,,,
imu,335.967414,-0.2799355104,-9.325800304800001,2.624694486400001,6.5274499,54.34914878,-7.48157503,,,
imu,335.975888,-0.212344244,-9.329389221600001,2.657592890400001,6.59474209,52.63693639,-6.419853809999999,,,
imu,335.984362,-0.1501363528,-9.3796340568,2.6892949888,6.4526808,50.48358631,-5.14877911,,,
imu,335.992835,-0.1040785872,-9.435860420000001,2.6773319328,6.53492681,48.20312876,-4.012288789999999,,,
imu,334.493885,,,,,,,-97.425674,170.5650716,127.4614936
imu,334.595448,,,,,,,-97.3768452,170.3087204,127.4981152
imu,334.69701,,,,,,,-97.29139479999999,170.2354772,127.8399168
imu,334.798512,,,,,,,-97.30360200000001,170.3819636,127.8643312
imu,334.900135,,,,,,,-94.89878359999999,169.5396668,125.3252336
imu,335.002216,,,,,,,-97.0838724,170.5406572,127.2783856
imu,335.10323,,,,,,,-95.5091436,169.185658,125.3862696
imu,335.206104,,,,,,,-93.98324360000001,169.91809,128.0718536
imu,336.001309,-0.05203929360000001,-9.441841948000002,2.6372556952,6.51249608,45.92267121,-2.96552139,,,
imu,336.009783,-0.0251224176,-9.4113361552,2.6444335288,5.88443564,43.53753691999999,-2.14306129,,,
imu,336.018256,0.0023926112,-9.440645642400002,2.673743016,5.69751289,41.04024897999999,-1.36546265,,,
imu,336.02673,0.03289840400000001,-9.482516338400002,2.6892949888,5.41339031,38.5130534,-0.93927878,,,
imu,336.035204,0.0442633072,-9.4908904776,2.668957793600001,5.26385211,35.91856563,-0.63272547,,,
imu,336.043678,0.04785222400000001,-9.478329268800001,2.6916876,4.80028369,33.34650859,-0.6102947399999998,,,
imu,336.052151,0.0197390424,-9.509433214400001,2.7138192536,4.11988488,30.70715936,-0.6476792899999999,,,
imu,336.060625,0.0143556672,-9.574631869600001,2.715613712000001,3.611455,28.18744069,-0.8196482199999999,,,
imu,336.069099,0.0251224176,-9.623082246400001,2.713221100800001,2.96844074,25.9518446,-0.7897405799999999,,,
imu,336.077572,-0.007177833600000002,-9.583006008800002,2.673743016,2.10111918,23.88074053,-0.8046943999999998,,,
imu,336.086046,-0.0323002512,-9.502853533600002,2.6611818072,1.15902852,21.69748281,-0.82712513,,,
imu,336.09452,-0.062806044,-9.4496179344,2.6115351248,0.44872207,19.79834767,-1.0290017,,,
imu,336.102994,-0.1297991576,-9.399971252000002,2.5714588872,0.13469185,18.07118146,-1.27573973,,,
imu,336.111467,-0.1812402984,-9.3796340568,2.5445420112,0.19450713,16.62066092,-1.37293956,,,
imu,336.120276,-0.2057645632,-9.3413522776,2.5134380656,0.21693786,15.3346324,-1.38041647,,,
imu,336.129085,-0.248233412,-9.2917055952,2.476352592,0.53096808,14.287865,-1.22340136,,,
imu,336.137894,-0.2865151912,-9.303070498400002,2.4757544392,0.8524752099999999,13.42054344,-1.19349372,,,
imu,336.146703,-0.287113344,-9.315033554400001,2.4488375632,1.42819728,12.79995991,-1.06638625,,,
imu,336.155512,-0.3008708584000001,-9.3060612624,2.4129483952,1.74970441,12.25414548,-0.9617095099999999,,,
imu,336.164321,-0.3152265256,-9.258209038400002,2.3764610744,2.27308811,11.81300779,-0.88694041,,,
imu,336.17313,-0.34393786,-9.221721717600001,2.3991908808,2.92357928,11.51393139,-0.71497148,,,
imu,336.181939,-0.3684621248000001,-9.204375286400001,2.3710776992,3.60397809,11.02045533,-0.6701100199999999,,,
imu,336.190748,-0.4091365152000001,-9.2169364952,2.3704795464,4.41896128,10.72885584,-0.8420789499999999,,,
imu,336.199557,-0.481513004,-9.218132800800001,2.3591146432,5.106837000000001,10.51202545,-1.19349372,,,
imu,336.208366,-0.5102243384,-9.2001882168,2.3609091016,5.60778997,10.50454854,-1.76921579,,,
imu,336.217175,-0.5323559920000001,-9.194804841600002,2.371675852,6.49754226,10.73633275,-2.27764567,,,
imu,336.225984,-0.5437208952000001,-9.210954967200001,2.3878259776,7.63403258,11.19990117,-2.29259949,,,
imu,336.234793,-0.5257763112000001,-9.292303748000002,2.4021816448,8.50883105,11.66346959,-2.09819983,,,
imu,336.243602,-0.490485296,-9.327594763200002,2.414144700800001,9.25652205,12.14199183,-2.04586146,,,
imu,336.252411,-0.4809148512,-9.2827333032,2.3812462968,9.652798279999999,12.3438684,-2.25521494,,,
imu,336.26122,-0.4803166984,-9.238469996000001,2.3818444496,10.2659049,12.67285244,-2.41223005,,,
imu,336.270029,-0.517402172,-9.284527761600001,2.4392671184,11.09584191,12.99435957,-2.27016876,,,
imu,336.278838,-0.5138132552000001,-9.4974701584,2.506858384800001,11.85848673,13.20371305,-2.3000764,,,
imu,336.287647,-0.4737370176,-9.575230022400001,2.4386689656,12.09774785,13.52522018,-2.68887572,,,
imu,336.296456,-0.5191966304000001,-9.575828175200002,2.4057705616,11.80614836,13.9140195,-2.87579847,,,
imu,336.305264,-0.4695499480000001,-9.505246144800001,2.420126228800001,11.39491831,14.0635577,-3.0477674,,,
imu,336.314073,-0.3989679176000001,-9.440645642400002,2.4081631728,10.89396534,14.34020337,-3.07767504,,,
imu,336.322559,-0.3499193880000001,-9.654186192000001,2.4799415088,10.80424242,14.19066517,-3.10010577,,,
imu,336.331044,-0.3241988176,-9.806715156000001,2.4177336176,10.25095108,14.04860388,-3.11505959,,,
imu,336.339529,-0.3116376088,-9.819276364800002,2.3615072544,9.27147587,13.80186585,-2.98795212,,,
imu,336.348014,-0.3074505392,-9.7570684736,2.414144700800001,7.888247519999999,13.50278945,-3.0477674,,,
imu,336.356499,-0.245242648,-9.808509614400002,2.460202466400001,6.5274499,13.05417485,-3.25712088,,,
imu,336.364984,-0.2219146888,-9.907204826400001,2.447043104800001,4.81523751,12.61303716,-3.30945925,,,
imu,336.37347,-0.1662864784,-9.9329253968,2.4039761032,3.26004023,12.11208419,-3.00290594,,,
imu,336.381955,-0.1417622136,-9.923354952,2.3962001168,1.16650543,11.4466392,-2.66644499,,,
imu,336.39044,-0.182436604,-9.9466829112,2.423715145600001,-0.62047606,10.64660983,-2.44213769,,,
imu,336.398925,-0.1830347568,-9.8079114616,2.3142531832,-2.52708811,9.80919591,-2.23278421,,,
imu,336.40741,-0.1872218264,-9.728955292000002,2.3016919744,-3.98508556,9.098889459999999,-2.31503022,,,
imu,336.415895,-0.1752587704,-9.6876827488,2.2933178352,-5.03932987,8.440921379999999,-2.41223005,,,
imu,336.424381,-0.1513326584,-9.609922884800001,2.2197450408,-5.764590139999999,7.66332274,-2.45709151,,,
imu,336.432866,-0.1459492832,-9.576426328,2.2245302632,-6.430035129999999,6.87824719,-2.59167589,,,
imu,336.441351,-0.1507345056,-9.556089132800002,2.222137652,-6.72163462,6.24270984,-2.73373718,,,
imu,336.449836,-0.152528964,-9.5357519376,2.191631859200001,-7.09548012,5.637080129999999,-2.66644499,,,
imu,336.458321,-0.1262102408,-9.438851184,2.1605279136,-7.469325619999999,4.8669584,-2.62158353,,,
imu,336.466806,-0.09450814240000002,-9.343744888800002,2.147368552000001,-7.252495229999999,4.09683667,-2.74121409,,,
imu,336.475291,-0.08852661440000001,-9.2546201216,2.133611037600001,-6.6319117,3.30428421,-2.8982292,,,
imu,336.483777,-0.08254508640000002,-9.218132800800001,2.1479667048,-5.86926688,2.4743472,-3.02533667,,,
imu,336.492262,-0.1399677552,-9.262396108,2.2137635128,-5.106622059999999,1.53225654,-3.00290594,,,
imu,336.500747,-0.1991848824,-9.3204169296,2.2424748472,-4.03742393,0.7097964399999999,-3.21225942,,,
imu,336.509232,-0.2895059552,-9.374250681600001,2.290925224,-3.58880933,0.02939763000000006,-3.75807385,,,
imu,336.517717,-0.3750418056000001,-9.387410043200001,2.296906752,-3.23739456,-0.57623208,-4.4683803,,,
imu,336.526176,-0.4569887392,-9.346137500000001,2.275971404,-2.79625687,-0.6360473600000001,-4.78988743,,,
imu,336.534634,-0.4874945320000001,-9.326398457600002,2.2861400016,-2.30278081,-0.5687551700000002,-4.87213344,,,
imu,336.543093,-0.5072335744,-9.330585527200002,2.2951122936,-1.80182784,-0.17247894,-4.75250288,,,
imu,336.551551,-0.5156077136000001,-9.393391571200002,2.3543294208,-1.27844414,0.19388965,-4.453426479999999,,,
imu,336.56001,-0.5108224912,-9.411934308000001,2.344758976,-0.91207555,0.5453044199999999,-4.13191935,,,
imu,336.568468,-0.5006538936,-9.429878892000001,2.369283240800001,-0.53823005,0.8892422799999999,-3.82536604,,,
imu,336.576926,-0.5048409632,-9.447823476,2.4021816448,-0.47841477,1.21822632,-3.54124346,,,
imu,336.585385,-0.5036446576000001,-9.472347740800002,2.409957631200001,-0.53823005,1.58459491,-3.39918217,,,
imu,336.593843,-0.4988594352000001,-9.457393920800001,2.3824426024,-0.82982954,1.78647148,-3.55619728,,,
imu,336.602302,-0.4958686712000001,-9.4735440464,2.4009853392,-0.7999219,2.0257326,-3.70573548,,,
imu,336.61076,-0.5156077136000001,-9.509433214400001,2.4350800488,-0.83730645,2.35471664,-3.66087402,,,
imu,336.619219,-0.5078317272000001,-9.4962738528,2.429696673600001,-1.03918302,2.53416248,-3.60105874,,,
imu,336.627677,-0.4833074624000001,-9.4753385048,2.4362763544,-1.36069015,2.60893158,-3.67582784,,,
imu,336.636136,-0.4982612824000001,-9.457992073600002,2.4302948264,-1.45788998,2.63883922,-3.72816621,,,
imu,336.644594,-0.4833074624000001,-9.416121377600001,2.429696673600001,-1.60742818,2.65379304,-3.92256587,,,
imu,336.653053,-0.4677554896000001,-9.401765710400001,2.4416597296,-1.65228964,2.75099287,-3.98238115,,,
imu,336.661511,-0.4737370176,-9.392195265600002,2.4332855904,-1.53265908,2.68370068,-4.10948862,,,
imu,335.306355,,,,,,,-90.98027239999999,169.5640812,130.8062664
imu,335.409657,,,,,,,-89.97928200000001,169.3565588,131.3677976
imu,335.50951,,,,,,,-88.8318052,169.5274596,131.0748248
imu,335.611042,,,,,,,-87.8064004,169.2955228,130.9405456
imu,335.712574,,,,,,,-86.561266,168.880478,131.6241488
imu,335.814167,,,,,,,-88.8318052,168.3189468,132.1490584
imu,335.91573,,,,,,,-89.1613996,167.0127764,129.4634744
imu,336.017292,,,,,,,-94.50815320000001,167.7452084,130.537708
imu,336.118858,,,,,,,-94.3860812,167.0127764,126.8389264
imu,336.22042,,,,,,,-96.08288200000001,167.7085868,129.5977536
imu,336.322013,,,,,,,-96.4613052,168.0015596,128.8042856
imu,336.423576,,,,,,,-97.0228364,167.3423708,128.8531144
imu,336.525169,,,,,,,-97.3280164,167.842866,128.2305472
imu,336.626792,,,,,,,-96.632206,167.8184516,129.0240152
