Type,Timestamp,Data Accelerometer X,Data Accelerometer Y,Data Accelerometer Z,Data Gyroscope X,Data Gyroscope Y,Data Gyroscope Z,Data Magnetometer X,Data Magnetometer Y,Data Magnetometer Z
imu,138.6004,-0.3116376088,-9.201384522400001,3.0272513208,-0.5756146,4.44825144,-2.50195297,,,
imu,138.608864,-0.3014690112,-9.2271050928,3.038018071200001,-0.29149202,4.59031273,-2.54681443,,,
imu,138.617328,-0.266177996,-9.246844135200002,3.030840237600001,-0.44103022,4.79966621,-2.54681443,,,
imu,138.625791,-0.2404574256,-9.262994260800001,3.0350273072,-0.29896893,4.979112049999999,-2.42718387,,,
imu,138.634255,-0.2189239248,-9.271368400000002,3.0332328488,-0.33635348,5.00901969,-2.34493786,,,
imu,138.642718,-0.1938015072,-9.2761536224,3.0272513208,-0.44850713,5.0164966,-2.30755331,,,
imu,138.651182,-0.1908107432,-9.287518525600001,3.029643932,-0.46346095,4.88938913,-2.51690679,,,
imu,138.659645,-0.1758569232,-9.292303748000002,3.029643932,-0.77001426,4.51554363,-2.69635263,,,
imu,138.668109,-0.170473548,-9.294098206400001,3.0368217656,-0.62047606,4.29871324,-2.72626027,,,
imu,138.676572,-0.1716698536,-9.291107442400001,3.041606988,-0.68029134,4.08935976,-2.73373718,,,
imu,138.685036,-0.1710717008,-9.307257568,3.0511774328,-0.80739881,3.85009864,-2.56924516,,,
imu,138.693499,-0.170473548,-9.302472345600002,3.0493829744,-0.79244499,3.58092988,-2.60662971,,,
imu,138.701963,-0.1836329096,-9.2899111368,3.0607478776,-1.22610577,3.34166876,-2.78607555,,,
imu,138.710427,-0.1902125904,-9.283331456,3.0583552664,-1.1737674,2.93791562,-2.85336774,,,
imu,138.71889,-0.2009793408,-9.274359164000002,3.05057928,-1.16629049,2.74351596,-2.748691,,,
imu,138.727354,-0.2231109944,-9.255816427200001,3.05057928,-1.04665993,2.52668557,-2.68139881,,,
imu,138.735817,-0.2416537312,-9.2366755376,3.049981127200001,-1.15881358,2.42948574,-2.71878336,,,
imu,138.744281,-0.2578038568000001,-9.215142036800001,3.03562546,-0.94198319,2.48182411,-2.66644499,,,
imu,138.752758,-0.260196468,-9.203178980800002,3.0547663496,-0.77001426,2.49677793,-2.42718387,,,
imu,138.761236,-0.2643835376,-9.243853371200002,3.0631404888,-0.78496808,2.68370068,-2.46456842,,,
imu,138.769713,-0.2679724544000001,-9.2576108856,3.038018071200001,-0.68029134,2.75099287,-2.50942988,,,
imu,138.778191,-0.2643835376,-9.242058912800001,3.047588516000001,-0.66533752,2.79585433,-2.61410662,,,
imu,138.786668,-0.2548130928,-9.2342829264,3.0583552664,-0.48589168,2.90053107,-2.73373718,,,
imu,138.795146,-0.260196468,-9.224712481600001,3.054168196800001,-0.49336859,2.84071579,-2.66644499,,,
imu,138.803623,-0.2733558296,-9.2378718432,3.061944183200001,-0.77749117,2.88557725,-2.75616791,,,
imu,138.812101,-0.2673743016,-9.254021968800002,3.0547663496,-0.71019898,2.99025399,-2.66644499,,,
imu,138.820578,-0.2613927736,-9.269573941600001,3.0487848216,-0.64290679,3.15474601,-2.3748455,,,
imu,138.829056,-0.2578038568000001,-9.245647829600001,3.038018071200001,-0.5008455,3.19213056,-2.27764567,,,
imu,138.837533,-0.2434481896,-9.2277032456,3.033831001600001,-0.46346095,3.38653022,-2.23278421,,,
imu,138.846011,-0.2416537312,-9.2408626072,3.029045779200001,-0.32887657,3.53606842,-2.38979932,,,
imu,138.854489,-0.2308869808,-9.2552182744,3.022466098400001,-0.41112258,3.40148404,-2.57672207,,,
imu,138.862966,-0.227298064,-9.258209038400002,3.0122975008,-0.31392275,3.33419185,-2.80850628,,,
imu,138.871444,-0.2344758976,-9.253423816000002,3.017082723200001,-0.32887657,3.24446893,-2.95056757,,,
imu,138.879921,-0.2314851336,-9.253423816000002,3.001530750400001,-0.22419983,3.05754618,-3.07767504,,,
imu,138.888399,-0.2261017584,-9.2486385936,2.9883713888,-0.23167674,3.06502309,-3.13001341,,,
imu,138.896876,-0.2290925224000001,-9.262396108,2.990764,0.0001074699999999984,2.96034635,-3.15992105,,,
imu,138.905354,-0.2284943696,-9.268377636,2.990764,0.15712258,2.9229618,-2.99542903,,,
imu,138.913831,-0.2314851336,-9.279144386400002,2.9871750832,0.05992275,2.83323888,-2.91318302,,,
imu,138.922309,-0.2290925224000001,-9.2851259144,2.9811935552,0.06739966,2.93043871,-2.75616791,,,
imu,138.930786,-0.2225128416,-9.301874192800001,2.989567694400001,0.11226112,2.8481927,-2.65149117,,,
imu,138.939264,-0.233279592,-9.318622471200001,2.981791708,0.05992275,2.83323888,-2.5243837,,,
imu,138.947741,-0.2338777448,-9.324005846400002,2.993754764000001,-0.09709236,2.79585433,-2.36736859,,,
imu,138.956548,-0.2374666616,-9.325202152000001,2.9925584584,-0.24663056,2.76594669,-2.38232241,,,
imu,138.965354,-0.2368685088,-9.3204169296,2.9811935552,-0.30644584,2.91548489,-2.26269185,,,
imu,138.97416,-0.218325772,-9.316229860000002,2.9811935552,-0.29149202,2.97530017,-2.32250713,,,
imu,138.982967,-0.2165313136,-9.2970889704,2.9680341936,-0.43355331,2.82576197,-2.56924516,,,
imu,138.991773,-0.2201202304,-9.298883428800002,2.9692304992,-0.6279529699999999,2.8481927,-2.64401426,,,
imu,139.000579,-0.2243073,-9.298883428800002,2.975810180000001,-0.89712173,2.78837742,-2.87579847,,,
imu,139.009386,-0.2249054528,-9.304864956800001,2.9596600544,-0.85973718,2.70613141,-3.05524431,,,
imu,139.018192,-0.2284943696,-9.288714831200002,2.9530803736,-0.89712173,2.82576197,-2.99542903,,,
imu,139.026998,-0.221316536,-9.2917055952,2.9566692904,-1.00927538,2.81080815,-3.00290594,,,
imu,139.035804,-0.2099516328,-9.307257568,2.9704268048,-0.9943215599999999,2.68370068,-3.00290594,,,
imu,139.044611,-0.2159331608,-9.328192916,2.966239735200001,-1.29339796,2.65379304,-2.91318302,,,
imu,139.053417,-0.2081571744,-9.328791068800001,2.9764083328,-1.33078251,2.60893158,-2.94309066,,,
imu,139.062223,-0.2021756464,-9.330585527200002,2.9829880136,-1.33825942,2.56407012,-2.86084465,,,
imu,139.070947,-0.2087553272,-9.330585527200002,2.9889695416,-1.56256672,2.48182411,-2.77112173,,,
imu,139.079753,-0.2045682576000001,-9.343146736000001,3.008708584,-1.82425857,2.33976282,-2.85336774,,,
imu,139.08856,-0.1949978128,-9.335370749600001,3.0021289032,-2.04108896,2.33228591,-2.98047521,,,
imu,139.097366,-0.1991848824,-9.319818776800002,3.0045215144,-2.20558098,2.05564024,-2.96552139,,,
imu,139.106172,-0.2165313136,-9.2917055952,3.0122975008,-2.34764227,1.89114822,-3.04029049,,,
imu,139.114979,-0.2147368552,-9.28632222,3.011699348,-2.60933412,1.62945637,-3.15992105,,,
imu,139.123785,-0.2314851336,-9.276751775200001,3.017082723200001,-2.49718047,1.4275798,-3.30945925,,,
imu,139.132591,-0.2434481896,-9.280938844800001,3.0248587096,-2.60933412,1.2032725,-3.38422835,,,
imu,139.141398,-0.2548130928,-9.277948080800002,3.036223612800001,-2.79625687,1.13598031,-3.62348947,,,
imu,139.150204,-0.275150288,-9.267181330400001,3.0463922104,-2.93831816,0.86681155,-3.75807385,,,
imu,139.158681,-0.2936930248,-9.251629357600002,3.05057928,-2.97570271,0.6574580699999997,-3.69825857,,,
imu,139.167159,-0.3086468448,-9.252227510400001,3.0661312528,-2.93831816,0.5901658799999998,-3.73564312,,,
imu,139.175637,-0.3241988176,-9.236077384800002,3.056560808,-2.79625687,0.62007352,-3.63844329,,,
imu,139.184114,-0.34393786,-9.228301398400001,3.061944183200001,-2.63924176,0.4331507699999997,-3.55619728,,,
imu,139.192592,-0.3666676664,-9.239068148800001,3.071514628,-2.50465738,0.50044296,-3.42908981,,,
imu,139.201069,-0.3840140976,-9.245647829600001,3.0661312528,-2.52708811,0.5303505999999998,-3.3468438,,,
imu,139.209547,-0.3852104032000001,-9.245049676800003,3.074505392,-2.38502682,0.6350273399999997,-3.27955161,,,
imu,139.218024,-0.4025568344,-9.238469996000001,3.0816832256,-2.40745755,0.8967191899999998,-3.21973633,,,
imu,139.226502,-0.4175106544000001,-9.245647829600001,3.079290614400001,-2.2953039,1.21822632,-3.0477674,,,
imu,139.234979,-0.4163143488000001,-9.2432552184,3.063738641600001,-2.2205348,1.34533379,-2.90570611,,,
imu,139.243457,-0.4103328208,-9.235479232000001,3.0607478776,-2.20558098,1.69674856,-2.85336774,,,
imu,139.251934,-0.4121272792,-9.245049676800003,3.0691220168,-2.07847351,2.09302479,-2.85336774,,,
imu,139.260412,-0.4091365152000001,-9.249236746400001,3.0583552664,-1.9214584,2.45939338,-2.81598319,,,
imu,139.268889,-0.4013605288,-9.239068148800001,3.061346030400001,-2.07847351,2.79585433,-2.95056757,,,
imu,139.277367,-0.3882011672000001,-9.2342829264,3.061346030400001,-2.22801171,3.00520781,-3.02533667,,,
imu,139.285844,-0.3690602776000001,-9.242058912800001,3.061346030400001,-2.15324261,3.37905331,-3.1225365,,,
imu,139.294322,-0.3636769024000001,-9.2480404408,3.062542336,-2.10090424,3.58840679,-3.15992105,,,
imu,139.302799,-0.3451341656,-9.2510312048,3.0673275584,-2.04108896,3.88748319,-3.13001341,,,
imu,139.311277,-0.3241988176,-9.254021968800002,3.0697201696,-2.05604278,3.90243701,-3.15992105,,,
imu,139.319754,-0.3074505392,-9.267181330400001,3.0721127808,-2.04108896,3.85757555,-3.21973633,,,
imu,139.328232,-0.3092449976000001,-9.2659850248,3.061346030400001,-2.16819643,3.88000628,-3.17487487,,,
imu,139.33671,-0.2895059552,-9.254021968800002,3.070916475200001,-2.15324261,3.88000628,-3.15244414,,,
imu,139.345187,-0.2817299688000001,-9.2588071912,3.0739072392,-2.1457657,3.70056044,-3.06272122,,,
imu,139.353665,-0.2769447464000001,-9.2761536224,3.082281378400001,-2.11585806,3.54354533,-2.92813684,,,
imu,139.362131,-0.2787392048,-9.281536997600002,3.0840758368,-2.31025772,3.39400713,-2.88327538,,,
imu,139.370597,-0.2853188856,-9.2755554696,3.0852721424,-2.28035008,3.23699202,-2.73373718,,,
imu,139.379063,-0.281131816,-9.28632222,3.083477684,-2.20558098,3.05754618,-2.58419898,,,
imu,139.387529,-0.2924967192,-9.2899111368,3.080486920000001,-2.36259609,2.90053107,-2.44213769,,,
imu,139.395995,-0.2966837888,-9.3006778872,3.0816832256,-2.48222665,2.96782326,-2.29259949,,,
imu,139.404461,-0.2972819416,-9.311444637600001,3.096637045600001,-2.72148777,2.97530017,-2.32998404,,,
imu,139.412927,-0.2889078024000001,-9.297687123200001,3.0912536704,-2.9682258,2.96034635,-2.24026112,,,
imu,139.421393,-0.290104108,-9.2917055952,3.1115908656,-2.93831816,3.08745382,-2.24026112,,,
imu,139.429859,-0.2817299688000001,-9.2755554696,3.1038148792,-2.94579507,3.10988455,-2.18044584,,,
imu,139.438325,-0.2865151912,-9.266583177600001,3.096637045600001,-3.37197894,3.06502309,-2.40475314,,,
imu,139.446792,-0.2918985664000001,-9.244451524,3.108001948800001,-3.5663786,3.28185348,-2.68887572,,,
imu,139.455258,-0.2865151912,-9.226506940000002,3.1157779352,-3.61124006,3.36409949,-2.748691,,,
imu,139.463724,-0.2775428992,-9.2103568144,3.1062074904,-3.58880933,3.5211146,-2.86084465,,,
imu,139.47219,-0.2727576768,-9.2169364952,3.1367132832,-3.66357843,3.54354533,-2.90570611,,,
imu,139.480656,-0.2715613712,-9.216338342400002,3.1367132832,-3.63367079,3.51363769,-3.07767504,,,
imu,139.489122,-0.2679724544000001,-9.214543884000001,3.154657867200001,-3.55142478,3.40896095,-3.23469015,,,
imu,139.497588,-0.248233412,-9.2510312048,3.1630320064,-3.43179422,3.30428421,-3.33188998,,,
imu,139.506054,-0.2500278704,-9.2546201216,3.1474800336,-3.55890169,3.04259236,-3.4216129,,,
imu,139.51452,-0.263187232,-9.234881079200001,3.152265256000001,-3.67105534,2.90800798,-3.46647436,,,
imu,139.522986,-0.2655798432,-9.246245982400001,3.176191368,-3.68600916,2.81080815,-3.32441307,,,
imu,139.531452,-0.2607946208,-9.258209038400002,3.1863599656,-3.51404023,2.66874686,-2.98047521,,,
imu,139.539918,-0.2619909264,-9.239666301600002,3.1767895208,-3.73087062,2.44443956,-2.90570611,,,
imu,139.548385,-0.272159524,-9.212151272800002,3.200715632800001,-3.85050118,2.2500399,-2.91318302,,,
imu,139.556851,-0.2895059552,-9.232488468000001,3.2294269672,-3.91779337,2.13040934,-2.8982292,,,
imu,139.565317,-0.2853188856,-9.251629357600002,3.221052828,-4.157054489999999,2.10797861,-2.83093701,,,
imu,139.573783,-0.2978800944000001,-9.252825663200001,3.2282306616,-4.33650033,1.89862513,-2.80850628,,,
imu,139.582249,-0.3086468448,-9.245049676800003,3.2485678568,-4.47108471,1.8014253,-2.98047521,,,
imu,139.590715,-0.3122357616,-9.226506940000002,3.2503623152,-4.71034583,1.80890221,-3.05524431,,,
imu,139.599181,-0.3277877344,-9.190617772000001,3.249166009600001,-4.6879151,1.65936401,-3.09262886,,,
imu,139.607647,-0.3475267768,-9.170280576800002,3.242586328800001,-4.8374533,1.71170238,-2.98795212,,,
imu,139.616113,-0.3493212352000001,-9.155326756800001,3.2581383016,-4.57576145,1.77899457,-2.75616791,,,
imu,139.624579,-0.3541064576,-9.150541534400002,3.254549384800001,-4.11219303,2.04068642,-2.56176825,,,
imu,139.633045,-0.3523119992,-9.131998797600001,3.2467733984,-3.91779337,2.16031698,-2.47952224,,,
imu,139.641512,-0.3493212352000001,-9.111063449600001,3.2575401488,-3.55142478,2.07059406,-2.41970696,,,
imu,139.649978,-0.3511156936,-9.097305935200001,3.2647179824,-3.39440967,2.11545552,-2.5243837,,,
imu,139.658444,-0.3606861384,-9.111063449600001,3.2712976632,-3.37197894,2.18274771,-2.64401426,,,
imu,139.66691,-0.3702565832000001,-9.1164468248,3.271895816,-3.08785636,2.33976282,-2.71878336,,,
imu,139.675376,-0.382817792,-9.115848672,3.291634858400001,-2.84111833,2.4743472,-2.8234601,,,
imu,139.683842,-0.3852104032000001,-9.115848672,3.2970182336,-2.55699575,2.51920866,-2.86084465,,,
imu,139.692308,-0.3822196392,-9.103885616000001,3.2994108448,-2.51213429,2.71360832,-2.68887572,,,
imu,139.700774,-0.3744436528,-9.1164468248,3.307186831200001,-2.51213429,2.9229618,-2.68139881,,,
imu,139.70924,-0.3696584304000001,-9.134391408800001,3.314364664800001,-2.42241137,3.02016163,-2.65149117,,,
imu,139.717706,-0.3630787496,-9.1409710896,3.3203461928,-2.28035008,3.11736146,-2.71130645,,,
imu,139.726172,-0.3690602776000001,-9.155326756800001,3.333505554400001,-2.41493446,3.28185348,-2.85336774,,,
imu,139.734638,-0.3612842912,-9.156523062400002,3.3341037072,-2.30278081,3.49868387,-2.77859864,,,
imu,139.743105,-0.3535083048,-9.180449174400001,3.346664916,-2.22801171,3.5958837,-2.84589083,,,
imu,139.751571,-0.352910152,-9.1882251608,3.3520482912,-2.17567334,3.62579134,-3.02533667,,,
imu,139.760037,-0.3523119992,-9.18164548,3.3478612216,-2.16071952,3.58092988,-3.11505959,,,
imu,139.768493,-0.352910152,-9.157719368,3.352646444,-2.06351969,3.58092988,-3.1225365,,,
imu,139.776949,-0.3517138464,-9.146952617600002,3.353842749600001,-1.97379677,3.70056044,-3.09262886,,,
imu,139.785404,-0.35889168,-9.154728604,3.347263068800001,-1.68219728,3.62579134,-3.15244414,,,
imu,139.79386,-0.3582935272000001,-9.145158159200001,3.347263068800001,-1.8466893,3.48373005,-3.06272122,,,
imu,139.802316,-0.3553027632,-9.127811728000001,3.347263068800001,-1.50275144,3.38653022,-2.96552139,,,
imu,139.810772,-0.3702565832000001,-9.1014930048,3.335898165600001,-1.23358268,3.39400713,-2.98795212,,,
imu,139.819228,-0.376836264,-9.075772434400001,3.3269258736,-0.9644139199999999,3.43139168,-3.00290594,,,
imu,139.827684,-0.3911919312,-9.1092689912,3.353842749600001,-0.83730645,3.48373005,-2.92813684,,,
imu,139.83614,-0.3798270280000001,-9.142167395200001,3.3442723048,-0.69524516,3.58840679,-2.92065993,,,
imu,139.844596,-0.3798270280000001,-9.1409710896,3.3179535816,-0.6279529699999999,3.37905331,-3.01038285,,,
imu,139.853052,-0.3929863896,-9.146354464800002,3.337692624000001,-0.69524516,3.45382241,-3.21225942,,,
imu,139.861508,-0.3870048616000001,-9.137980325600001,3.343674152,-0.68029134,3.65569898,-3.29450543,,,
imu,139.869964,-0.3935845424,-9.142167395200001,3.3275240264,-0.7251528,3.91739083,-3.30945925,,,
imu,139.878419,-0.4103328208,-9.1511396872,3.3203461928,-0.65786061,4.05945212,-3.1973056,,,
imu,139.886875,-0.4025568344,-9.170280576800002,3.3065886784,-0.5307531400000001,4.54545127,-2.71878336,,,
imu,139.895331,-0.3929863896,-9.1654953544,3.297616386400001,-0.29149202,5.00901969,-2.27016876,,,
imu,139.903787,-0.3720510416,-9.137980325600001,3.292831164,-0.44103022,5.29314227,-2.01595382,,,
imu,139.912243,-0.331974804,-9.1134560608,3.2826625664,-0.25410747,5.637080129999999,-1.80660034,,,
imu,139.920699,-0.2930948720000001,-9.125419116800002,3.2712976632,0.06739966,5.86138743,-1.76921579,,,
imu,139.929155,-0.2595983152,-9.139774784,3.2653161352,0.50853735,5.8389567,-1.8514618,,,
imu,139.937611,-0.2356722032,-9.1499433816,3.2712976632,0.65059864,5.62960322,-2.13558438,,,
imu,139.946067,-0.2129423968,-9.173869493600002,3.2665124408,0.7253677399999999,5.48006502,-2.20287657,,,
imu,139.954523,-0.1967922712,-9.186430702400001,3.271895816,0.76275229,5.12865025,-2.18792275,,,
imu,139.962979,-0.1848292152,-9.191215924800002,3.272493968800001,1.08425942,4.89686604,-2.11315365,,,
imu,139.971797,-0.1848292152,-9.2139457312,3.2736902744,1.03192105,4.48563599,-1.88136944,,,
imu,139.980615,-0.1866236736,-9.2480404408,3.283858872000001,0.94219813,4.20899032,-1.6271545,,,
imu,139.989433,-0.1872218264,-9.2719665528,3.297616386400001,0.7403215599999999,3.797760269999999,-1.5523854,,,
imu,139.998252,-0.1949978128,-9.243853371200002,3.271895816,0.7253677399999999,3.5211146,-1.60472377,,,
imu,140.00707,-0.227298064,-9.210954967200001,3.2593346072,0.38142988,3.21456129,-1.58229304,,,
imu,140.015888,-0.2595983152,-9.222319870400002,3.2593346072,0.1720764,2.86314652,-1.76921579,,,
imu,140.024706,-0.296085636,-9.246844135200002,3.256941996000001,-0.15690764,2.81828506,-1.90380017,,,
imu,140.033525,-0.3146283728000001,-9.2366755376,3.2497641624,-0.15690764,2.82576197,-2.02343073,,,
imu,140.042343,-0.3295821928000001,-9.215142036800001,3.241988176,-0.34383039,2.99025399,-2.0757691,,,
imu,140.051161,-0.3397507904000001,-9.1965993,3.238399259200001,-0.41859949,3.16969983,-2.3000764,,,
imu,140.059979,-0.352910152,-9.1930103832,3.2366048008,-0.44850713,3.40148404,-2.44213769,,,
imu,140.068798,-0.3385544848000001,-9.210954967200001,3.2455770928,-0.5681376899999999,3.5958837,-2.48699915,,,
imu,140.077616,-0.3289840400000001,-9.234881079200001,3.2467733984,-0.65786061,3.79028336,-2.66644499,,,
imu,140.086434,-0.3206099008000001,-9.230694009600002,3.2497641624,-0.58309151,3.93234465,-2.68887572,,,
imu,140.095252,-0.3170209840000001,-9.1965993,3.2503623152,-0.78496808,4.06692903,-2.77112173,,,
imu,140.104071,-0.3002727056,-9.1858325496,3.2611290656,-0.7999219,4.126744309999999,-2.94309066,,,
imu,140.112889,-0.2978800944000001,-9.1965993,3.2647179824,-0.79244499,4.126744309999999,-3.04029049,,,
imu,140.121707,-0.2859170384,-9.221721717600001,3.270699510400001,-0.80739881,4.08188285,-2.89075229,,,
imu,140.130525,-0.2781410520000001,-9.212151272800002,3.270699510400001,-0.9943215599999999,3.99215993,-2.92065993,,,
imu,140.139344,-0.275150288,-9.1924122304,3.2766810384,-1.12142903,3.76785263,-2.93561375,,,
imu,140.148162,-0.272159524,-9.1918140776,3.282064413600001,-0.92702937,3.63326825,-2.83093701,,,
imu,140.15698,-0.2895059552,-9.182243632800002,3.274288427200001,-1.0242292,3.4463455,-2.77859864,,,
imu,138.59564,,,,,,,-95.106306,169.6861532,126.2896024
imu,138.697233,,,,,,,-94.00765799999999,169.4175948,123.9580272
imu,138.798765,,,,,,,-95.30162120000001,170.0645764,125.8257288
imu,138.900327,,,,,,,-95.1795492,170.284306,126.1187016
imu,139.002195,,,,,,,-95.13072040000002,170.0767836,126.8511336
imu,139.103452,,,,,,,-95.03306280000001,170.101198,126.6558184
imu,139.205015,,,,,,,-94.7889188,170.4307924,126.2285664
imu,139.306577,,,,,,,-95.5457652,169.7105676,126.8877552
imu,140.165686,-0.3044597752,-9.178654716,3.282064413600001,-1.0989983,3.10240764,-2.70382954,,,
imu,140.174162,-0.3128339144,-9.176262104800001,3.2922330112,-1.03170611,3.08745382,-2.79355246,,,
imu,140.182638,-0.3188154424,-9.1672898128,3.2874477888,-1.15133667,3.00520781,-2.83093701,,,
imu,140.191114,-0.3397507904000001,-9.175663952,3.305392372800001,-0.94198319,3.08745382,-2.748691,,,
imu,140.199591,-0.3391526376000001,-9.169084271200001,3.2994108448,-0.95693701,3.02763854,-2.8234601,,,
imu,140.208067,-0.3415452488,-9.1511396872,3.292831164,-0.94198319,3.16969983,-2.86084465,,,
imu,140.216543,-0.3564990688,-9.146952617600002,3.3000089976,-0.95693701,3.27437657,-2.84589083,,,
imu,140.22502,-0.3684621248000001,-9.140372936800002,3.2898404,-0.7999219,3.26689966,-2.8234601,,,
imu,140.233496,-0.3714528888,-9.163102743200001,3.3000089976,-0.53823005,3.4463455,-2.64401426,,,
imu,140.241972,-0.3660695136000001,-9.1642990488,3.314364664800001,-0.60552224,3.65569898,-2.55429134,,,
imu,140.250448,-0.3547046104000001,-9.1708787296,3.3012053032,-0.28401511,3.76785263,-2.48699915,,,
imu,140.258925,-0.3523119992,-9.163102743200001,3.2982145392,-0.28401511,3.84262173,-2.50195297,,,
imu,140.267401,-0.3475267768,-9.160111979200002,3.3012053032,-0.14943073,4.149175039999999,-2.34493786,,,
imu,140.275877,-0.3373581792000001,-9.1828417856,3.3012053032,-0.29896893,4.26132869,-2.30755331,,,
imu,140.284353,-0.3337692624,-9.1792528688,3.301803456,-0.11952309,4.32114397,-2.09819983,,,
imu,140.29283,-0.331974804,-9.161308284800002,3.2910367056,-0.23915365,4.478159079999999,-1.8514618,,,
imu,140.301306,-0.320011748,-9.137980325600001,3.2766810384,-0.20924601,4.60526655,-1.75426197,,,
imu,140.309782,-0.305057928,-9.129606186400002,3.2790736496,0.01506129,4.762281659999999,-1.50752394,,,
imu,140.318258,-0.2787392048,-9.13678402,3.274288427200001,0.08983038999999998,4.87443531,-1.52247776,,,
imu,140.326735,-0.2739539824000001,-9.137980325600001,3.253951232,0.23189168,4.89686604,-1.58976995,,,
imu,140.335211,-0.2619909264,-9.1409710896,3.256343843200001,0.620691,4.98658896,-1.54490849,,,
imu,140.343687,-0.2524204816,-9.140372936800002,3.2533530792,0.9048135799999999,4.85200458,-1.6271545,,,
imu,140.352163,-0.2446444952,-9.152934145600002,3.2443807872,0.97958268,4.65760492,-1.84398489,,,
imu,140.36064,-0.2416537312,-9.153532298400002,3.238399259200001,1.08425942,4.552928179999999,-1.95613854,,,
imu,140.369116,-0.2446444952,-9.160111979200002,3.2372029536,1.24875144,4.530497449999999,-1.86641562,,,
imu,140.377623,-0.2440463424,-9.160111979200002,3.233015884,1.17398234,4.38095925,-1.97856927,,,
imu,140.386129,-0.242251884,-9.194206688800001,3.236006648,1.27865908,4.17908268,-2.12063056,,,
imu,140.394636,-0.251224176,-9.223516176,3.2156694528,1.37585891,4.01459066,-2.30755331,,,
imu,140.403143,-0.2554112456,-9.210954967200001,3.1839673544,1.53287402,3.83514482,-2.30755331,,,
imu,140.41165,-0.2769447464000001,-9.194206688800001,3.195332257600001,1.56278166,3.71551426,-2.54681443,,,
imu,140.420157,-0.2907022608000001,-9.224712481600001,3.2156694528,1.57025857,3.71551426,-2.39727623,,,
imu,140.428663,-0.2907022608000001,-9.249236746400001,3.204902702400001,1.5179202,3.82766791,-2.3000764,,,
imu,140.43717,-0.2883096496000001,-9.251629357600002,3.200715632800001,1.34595127,3.73794499,-2.31503022,,,
imu,140.445677,-0.2829262744000001,-9.262396108,3.2072953136,1.19641307,3.78280645,-2.39727623,,,
imu,140.454184,-0.2954874832,-9.273761011200001,3.2084916192,1.05435178,3.84262173,-2.40475314,,,
imu,140.46269,-0.3014690112,-9.273761011200001,3.2138749944,0.7552753799999999,3.90991392,-2.50942988,,,
imu,140.471197,-0.281131816,-9.294696359200001,3.210286077600001,0.7253677399999999,4.05197521,-2.4496146,,,
imu,140.479704,-0.263187232,-9.326398457600002,3.2013137856,0.35152224,4.14169813,-2.60662971,,,
imu,140.488211,-0.2584020096,-9.321613235200001,3.1977248688,-0.11204618,4.1192674,-2.80850628,,,
imu,140.496718,-0.2625890792,-9.269573941600001,3.186958118400001,-0.29149202,4.02954448,-2.86832156,,,
imu,140.505224,-0.2566075512,-9.2271050928,3.170209840000001,-0.44850713,4.09683667,-2.69635263,,,
imu,140.513731,-0.251224176,-9.204375286400001,3.156452325600001,-0.40364567,3.97720611,-2.47952224,,,
imu,140.522238,-0.2446444952,-9.1882251608,3.131329908000001,-0.29896893,3.99963684,-2.28512258,,,
imu,140.530745,-0.2326814392,-9.178056563200002,3.1397040472,-0.14943073,3.98468302,-2.12063056,,,
imu,140.539251,-0.212344244,-9.166093507200001,3.126544685600001,0.06739966,3.97720611,-1.88136944,,,
imu,140.547758,-0.2069608688,-9.156523062400002,3.131329908000001,0.3889067899999999,3.93234465,-1.7766927,,,
imu,140.556265,-0.1991848824,-9.178056563200002,3.1367132832,0.49358353,3.88748319,-1.82155416,,,
imu,140.564772,-0.2069608688,-9.205571592000002,3.131329908000001,0.76275229,3.75289881,-1.86641562,,,
imu,140.573278,-0.2147368552,-9.221123564800001,3.128937296800001,0.77770611,3.81271409,-1.88136944,,,
imu,140.581752,-0.2099516328,-9.242657065600001,3.142694811200001,0.68798319,3.80523718,-1.96361545,,,
imu,140.590226,-0.2189239248,-9.263592413600001,3.143292964,0.40386061,3.81271409,-2.09819983,,,
imu,140.5987,-0.212344244,-9.262396108,3.1301336024,0.29918387,3.83514482,-2.06829219,,,
imu,140.607173,-0.2105497856,-9.265386872,3.1379095888,0.09730729999999999,3.90991392,-1.97856927,,,
imu,140.615647,-0.2015774936,-9.280938844800001,3.131329908000001,-0.10456927,4.03702139,-2.00847691,,,
imu,140.624121,-0.203371952,-9.281536997600002,3.128339144,-0.38121494,3.99963684,-2.18044584,,,
imu,140.632594,-0.1949978128,-9.285724067200002,3.1367132832,-0.5681376899999999,4.03702139,-2.04586146,,,
imu,140.641068,-0.1740624648,-9.284527761600001,3.1438911168,-0.8522602699999999,3.99963684,-2.2253073,,,
imu,140.649542,-0.1579123392,-9.277948080800002,3.1391058944,-0.82235263,4.02954448,-2.38232241,,,
imu,140.658016,-0.1423603664,-9.283929608800001,3.159443089600001,-1.04665993,3.98468302,-2.47204533,,,
imu,140.666489,-0.143556672,-9.276751775200001,3.1648264648,-1.22610577,3.65569898,-2.56924516,,,
imu,140.674963,-0.1441548248,-9.2964908176,3.1558541728,-1.42798234,3.40896095,-2.69635263,,,
imu,140.683437,-0.1423603664,-9.306659415200002,3.1666209232,-1.44293616,3.30428421,-2.8234601,,,
imu,140.69191,-0.1501363528,-9.267181330400001,3.15525602,-1.5476129,3.04259236,-2.98795212,,,
imu,140.700384,-0.146547436,-9.221123564800001,3.1600412424,-1.622382,2.78090051,-3.15992105,,,
imu,140.708858,-0.1429585192,-9.199590064,3.1630320064,-1.80930475,2.66874686,-3.23469015,,,
imu,140.717332,-0.158510492,-9.207964203200001,3.1827710488,-1.73453565,2.42200883,-3.27955161,,,
imu,140.725805,-0.1722680064,-9.24146076,3.203108244,-1.89155076,2.10797861,-3.26459779,,,
imu,140.734279,-0.1878199792,-9.2312921624,3.181574743200001,-2.01865823,1.90610204,-3.3468438,,,
imu,140.742753,-0.2207183832,-9.2091605088,3.184565507200001,-2.13828879,1.68179474,-3.54124346,,,
imu,140.751226,-0.233279592,-9.1918140776,3.2150713,-2.25044244,1.49487199,-3.71321239,,,
imu,140.7597,-0.2530186344000001,-9.188823313600002,3.218062064,-2.13828879,1.38271834,-3.73564312,,,
imu,140.768174,-0.2859170384,-9.1965993,3.2150713,-2.13828879,1.3528107,-3.7206893,,,
imu,140.776648,-0.3044597752,-9.201982675200002,3.221650980800001,-2.01865823,1.47244126,-3.63096638,,,
imu,140.785064,-0.3188154424,-9.204375286400001,3.2156694528,-2.08595042,1.48739508,-3.36179762,,,
imu,140.793481,-0.3236006648,-9.173869493600002,3.207893466400001,-2.10838115,1.69674856,-3.21225942,,,
imu,140.801897,-0.3283858872000001,-9.177458410400002,3.224043592000001,-2.06351969,1.86124058,-3.22721324,,,
imu,140.810314,-0.3259932760000001,-9.190617772000001,3.218062064,-1.97379677,1.93600968,-3.28702852,,,
imu,140.81873,-0.3325729568,-9.199590064,3.2114823832,-1.85416621,2.08554788,-3.51881273,,,
imu,140.827147,-0.3265914288,-9.1894214664,3.2072953136,-1.42798234,2.16779389,-3.51881273,,,
imu,140.835563,-0.3427415544,-9.174467646400002,3.2114823832,-1.44293616,2.25751681,-3.73564312,,,
imu,140.84398,-0.3397507904000001,-9.181047327200002,3.2096879248,-1.1737674,2.29490136,-3.73564312,,,
imu,140.852396,-0.3481249296000001,-9.183439938400001,3.2043045496,-1.10647521,2.5491163,-3.58610492,,,
imu,140.860813,-0.334965568,-9.183439938400001,3.2019119384,-0.98684465,2.72856214,-3.39170526,,,
imu,140.869229,-0.3415452488,-9.183439938400001,3.214473147200001,-0.92702937,2.83323888,-3.23469015,,,
imu,140.877646,-0.3427415544,-9.1828417856,3.198921174400001,-0.83730645,2.87810034,-2.9729983,,,
imu,140.886062,-0.3379563320000001,-9.1918140776,3.186958118400001,-0.84478336,2.87062343,-2.77859864,,,
imu,140.894479,-0.3277877344,-9.2061697448,3.1995193272,-0.82235263,2.75846978,-2.62906044,,,
imu,140.902895,-0.3301803456000001,-9.209758661600002,3.2055008552,-0.7999219,2.87062343,-2.58419898,,,
imu,140.911312,-0.3397507904000001,-9.2061697448,3.200715632800001,-0.82235263,2.97530017,-2.60662971,,,
imu,140.919728,-0.3487230824000001,-9.1924122304,3.2138749944,-0.82982954,2.95286944,-2.63653735,,,
imu,140.928145,-0.3325729568,-9.204375286400001,3.2019119384,-0.92702937,3.10988455,-2.71878336,,,
imu,140.936561,-0.3301803456000001,-9.251629357600002,3.198921174400001,-0.9943215599999999,3.25942275,-2.71130645,,,
imu,140.944978,-0.3253951232,-9.252227510400001,3.1947341048,-0.9494601,3.35662258,-2.56924516,,,
imu,140.953394,-0.3283858872000001,-9.211553120000001,3.1995193272,-0.98684465,3.48373005,-2.47952224,,,
imu,140.96181,-0.3188154424,-9.1960011472,3.2150713,-0.82982954,3.80523718,-2.35989168,,,
imu,140.970227,-0.3008708584000001,-9.212151272800002,3.210286077600001,-1.04665993,3.88748319,-2.3000764,,,
imu,139.408033,,,,,,,-92.5794156,169.8082252,124.800324
imu,139.509626,,,,,,,-95.0940988,170.2720988,126.5825752
imu,139.61128,,,,,,,-92.78693799999999,169.6617388,123.4941536
imu,139.71272,,,,,,,-94.60581080000001,171.627098,125.9722152
imu,139.814435,,,,,,,-95.1185132,171.2975036,124.5683872
imu,139.923688,,,,,,,-95.20396360000001,170.8092156,126.448296
imu,140.026471,,,,,,,-94.7278828,171.3097108,126.2163592
imu,140.126813,,,,,,,-94.6546396,171.6148908,126.814512
imu,140.978643,-0.2847207328,-9.2366755376,3.2043045496,-1.11395212,3.94729847,-2.24026112,,,
imu,140.987456,-0.2655798432,-9.245647829600001,3.2096879248,-1.1737674,3.86505246,-2.30755331,,,
imu,140.996269,-0.2595983152,-9.231890315200001,3.2156694528,-1.01675229,3.8949601,-2.2253073,,,
imu,141.005082,-0.2524204816,-9.2091605088,3.2168657584,-1.0242292,3.76785263,-2.24773803,,,
imu,141.013895,-0.2416537312,-9.208562356000002,3.2168657584,-1.23358268,3.6706528,-2.42718387,,,
imu,141.022708,-0.236270356,-9.212151272800002,3.2204546752,-1.21115195,3.57345297,-2.27764567,,,
imu,141.031521,-0.2410555784,-9.2139457312,3.212678688800001,-1.3233056,3.48373005,-2.40475314,,,
imu,141.040334,-0.233279592,-9.190019619200001,3.2156694528,-1.36069015,3.40148404,-2.51690679,,,
imu,141.049147,-0.2446444952,-9.1792528688,3.217463911200001,-1.35321324,3.27437657,-2.51690679,,,
imu,141.05796,-0.2440463424,-9.1750657992,3.2132768416,-1.25601341,3.18465365,-2.48699915,,,
imu,141.066773,-0.2500278704,-9.170280576800002,3.212678688800001,-1.00179847,3.03511545,-2.46456842,,,
imu,141.075586,-0.2560093984,-9.1511396872,3.1977248688,-0.98684465,3.10988455,-2.51690679,,,
imu,141.084399,-0.2697669128,-9.1619064376,3.2150713,-0.9943215599999999,3.05006927,-2.46456842,,,
imu,141.093212,-0.2829262744000001,-9.1918140776,3.2192583696,-0.7550604399999999,3.02016163,-2.59167589,,,
imu,141.102025,-0.305057928,-9.205571592000002,3.2066971608,-0.66533752,2.98277708,-2.81598319,,,
imu,141.110838,-0.3158246784000001,-9.2061697448,3.219856522400001,-0.55318387,2.93791562,-3.05524431,,,
imu,141.119651,-0.3481249296000001,-9.226506940000002,3.237801106400001,-0.65786061,2.78837742,-3.39918217,,,
imu,141.128464,-0.3714528888,-9.231890315200001,3.2318195784,-0.60552224,2.85566961,-3.60853565,,,
imu,141.137277,-0.3864067088000001,-9.230694009600002,3.233614036800001,-0.73262971,2.96782326,-3.69078166,,,
imu,141.146089,-0.4055475984,-9.231890315200001,3.2401937176,-0.5980453299999999,3.15474601,-3.54872037,,,
imu,141.154902,-0.4234921824,-9.229497704000002,3.227034356,-0.68029134,3.19213056,-3.45899745,,,
imu,141.163715,-0.43366078,-9.226506940000002,3.238399259200001,-0.80739881,3.54354533,-3.1973056,,,
imu,141.172528,-0.4384460024000001,-9.219329106400002,3.2342121896,-0.90459864,3.96225229,-2.8982292,,,
imu,141.181341,-0.4408386136,-9.194804841600002,3.2318195784,-0.92702937,4.32862088,-2.78607555,,,
imu,141.189818,-0.4432312248,-9.1882251608,3.231221425600001,-1.00179847,4.7921893,-2.54681443,,,
imu,141.198294,-0.4300718632,-9.191215924800002,3.233015884,-0.874691,5.30061918,-2.26269185,,,
imu,141.20677,-0.4085383624000001,-9.183439938400001,3.230025120000001,-0.7550604399999999,5.80904906,-2.09072292,,,
imu,141.215246,-0.3738455000000001,-9.163102743200001,3.209089772,-0.79244499,6.24270984,-1.90380017,,,
imu,141.223723,-0.3331711096,-9.1511396872,3.203108244,-0.71019898,6.818431909999999,-1.7766927,,,
imu,141.232199,-0.2823281216,-9.141569242400001,3.1857618128,-0.37373803,7.199754319999999,-1.63463141,,,
imu,141.240675,-0.2296906752000001,-9.1373821728,3.186958118400001,-0.41112258,7.47639999,-1.64958523,,,
imu,141.249151,-0.1710717008,-9.157719368,3.200715632800001,-0.11952309,7.49883072,-1.61967759,,,
imu,141.257534,-0.1184342544,-9.172673188000001,3.1875562712,0.35899915,7.439015439999999,-1.41780102,,,
imu,141.26601,-0.08015247520000002,-9.172673188000001,3.1743969096,0.35899915,7.31190797,-1.42527793,,,
imu,141.274486,-0.0490485296,-9.152934145600002,3.1779858264,0.23189168,7.04273921,-1.42527793,,,
imu,141.282962,-0.0257205704,-9.1619064376,3.181574743200001,0.44124516,6.69132444,-1.26826282,,,
imu,141.291439,-0.0005981528000000001,-9.230694009600002,3.194135952000001,0.79265993,6.40720186,-0.9841402399999999,,,
imu,141.299915,0.0137575144,-9.284527761600001,3.196528563200001,0.80761375,6.033356359999999,-0.8719865899999999,,,
imu,141.308391,0.03588916800000001,-9.288116678400002,3.2019119384,0.53844499,5.50997266,-0.9841402399999999,,,
imu,141.316868,0.0370854736,-9.285724067200002,3.204902702400001,0.28423005,4.97163514,-1.16358608,,,
imu,141.325344,0.007775986400000001,-9.260601649600002,3.197126716,0.09730729999999999,4.50806672,-1.41780102,,,
imu,141.33382,-0.0011963056,-9.2576108856,3.1929396464,-0.05970781,3.99963684,-1.65706214,,,
imu,141.342296,-0.0263187232,-9.2480404408,3.1905470352,-0.17186146,3.71551426,-1.9262309,,,
imu,141.350773,-0.0466559184,-9.235479232000001,3.1905470352,-0.21672292,3.52859151,-2.14306129,,,
imu,141.359249,-0.07177833600000001,-9.223516176,3.181574743200001,-0.56066078,3.2968073,-2.36736859,,,
imu,141.367725,-0.0783580168,-9.2169364952,3.1917433408,-0.58309151,3.15474601,-2.51690679,,,
imu,141.376201,-0.1058730456,-9.2169364952,3.186958118400001,-0.55318387,3.0725,-2.73373718,,,
imu,141.384678,-0.1190324072,-9.2103568144,3.175593215200001,-0.59056842,3.06502309,-3.02533667,,,
imu,141.39314,-0.1297991576,-9.184636244000002,3.1749950624,-0.56066078,2.91548489,-3.39170526,,,
imu,141.401602,-0.13458438,-9.170280576800002,3.172004298400001,-0.58309151,2.84071579,-3.60105874,,,
imu,141.410064,-0.1549215752,-9.173271340800001,3.1726024512,-0.24663056,2.69117759,-3.84031986,,,
imu,141.418527,-0.1782495344,-9.1684861184,3.163630159200001,-0.13447691,2.50425484,-4.02724261,,,
imu,141.426989,-0.1896144376,-9.154728604,3.156452325600001,0.2468455,2.25751681,-3.98985806,,,
imu,141.435451,-0.1991848824,-9.170280576800002,3.1690135344,0.3216146,2.06311715,-3.9449966,,,
imu,141.443913,-0.2219146888,-9.180449174400001,3.1654246176,0.3889067899999999,1.84628676,-3.90761205,,,
imu,141.452376,-0.2416537312,-9.190019619200001,3.158246784000001,0.40386061,1.53973345,-3.84779677,,,
imu,141.460838,-0.2536167872,-9.208562356000002,3.1624338536,0.5010604399999999,1.27056469,-3.74312003,,,
imu,141.4693,-0.2895059552,-9.231890315200001,3.1624338536,0.6132140899999999,1.11354958,-3.78050458,,,
imu,141.477763,-0.3265914288,-9.2486385936,3.159443089600001,0.63564482,0.7696117199999999,-3.78050458,,,
imu,141.486225,-0.3493212352000001,-9.2546201216,3.1648264648,0.8823828499999999,0.5752120599999997,-3.496382,,,
imu,141.494687,-0.3774344168000001,-9.252227510400001,3.1606393952,0.8449983,0.6051196999999999,-3.42908981,,,
imu,141.503149,-0.3941826952,-9.2707702472,3.1606393952,0.77770611,0.7172733499999997,-3.3468438,,,
imu,141.511612,-0.4175106544000001,-9.279144386400002,3.1474800336,0.63564482,0.9939190199999999,-3.15244414,,,
imu,141.520074,-0.4360533912000001,-9.274359164000002,3.1534615616,0.28423005,1.29299542,-3.08515195,,,
imu,141.528536,-0.4342589328000001,-9.256414580000001,3.1420966584,0.14216876,1.71917929,-3.01785976,,,
imu,141.536998,-0.4390441552000001,-9.2312921624,3.1349188248,-0.15690764,2.19770153,-2.92813684,,,
imu,141.545461,-0.4205014184,-9.2169364952,3.143292964,-0.04475399000000001,2.51173175,-2.93561375,,,
imu,141.553923,-0.4025568344,-9.2300958568,3.1456855752,-0.11204618,2.9229618,-2.95056757,,,
imu,141.562385,-0.3750418056000001,-9.250433052000002,3.161237548,-0.35878421,3.32671494,-2.99542903,,,
imu,141.570848,-0.3606861384,-9.2755554696,3.1648264648,-0.50832241,3.56597606,-3.15244414,,,
imu,141.57931,-0.3373581792000001,-9.246245982400001,3.1367132832,-0.7251528,3.66317589,-3.26459779,,,
imu,141.587772,-0.3212080536,-9.190019619200001,3.1307317552,-0.63542988,3.820191,-3.29450543,,,
imu,141.596246,-0.3056560808,-9.1894214664,3.1516671032,-0.50832241,3.9697292,-3.18982869,,,
imu,141.604719,-0.2739539824000001,-9.2378718432,3.149274492,-0.47841477,4.01459066,-3.01038285,,,
imu,141.613193,-0.2548130928,-9.234881079200001,3.1295354496,-0.32887657,3.820191,-2.93561375,,,
imu,141.621667,-0.2458408008,-9.210954967200001,3.1528634088,-0.52327623,3.62579134,-2.96552139,,,
imu,141.630141,-0.2416537312,-9.221721717600001,3.1809765904,-0.50832241,3.40148404,-2.98795212,,,
imu,141.638614,-0.2416537312,-9.246844135200002,3.170209840000001,-0.44850713,3.01268472,-2.91318302,,,
imu,141.647088,-0.2488315648,-9.2689757888,3.167219076,-0.71019898,2.6986545,-2.96552139,,,
imu,141.655562,-0.2685706072,-9.276751775200001,3.1833692016,-0.8821679099999999,2.58650085,-2.9729983,,,
imu,140.228376,,,,,,,-95.2405852,170.9801164,125.9478008
imu,140.329938,,,,,,,-94.1541444,171.0045308,124.9712248
imu,140.43147,,,,,,,-94.99644119999999,171.0533596,125.532756
imu,140.533063,,,,,,,-92.8357668,170.1134052,123.4453248
imu,140.634595,,,,,,,-95.13072040000002,171.199846,126.3018096
imu,140.736158,,,,,,,-93.0066676,170.162234,123.2011808
imu,140.83772,,,,,,,-95.5091436,171.2242604,126.1797376
imu,140.939435,,,,,,,-95.22837800000002,171.2486748,125.6059992
imu,141.664035,-0.2877114968,-9.2719665528,3.1839673544,-1.06161375,2.35471664,-2.89075229,,,
imu,141.672509,-0.305057928,-9.2271050928,3.172004298400001,-1.16629049,2.24256299,-2.75616791,,,
imu,141.680983,-0.3265914288,-9.209758661600002,3.172004298400001,-1.08404448,2.20517844,-2.3748455,,,
imu,141.689457,-0.3457323184,-9.193608536000001,3.1480781864,-0.9793677399999999,2.36967046,-1.82903107,,,
imu,141.69793,-0.34393786,-9.174467646400002,3.1444892696,-0.66533752,2.9229618,-1.37293956,,,
imu,141.706404,-0.3355637208,-9.1541304512,3.1420966584,-0.54570696,3.24446893,-1.29069355,,,
imu,141.714878,-0.3194135952000001,-9.134989561600001,3.143292964,-0.29896893,3.64822207,-1.253309,,,
imu,141.723351,-0.3074505392,-9.1433637008,3.133124366400001,0.02253820000000001,4.1192674,-1.44770866,,,
imu,141.731825,-0.2781410520000001,-9.194804841600002,3.134320672,0.12721494,4.56040509,-1.72435433,,,
imu,141.740299,-0.2685706072,-9.228301398400001,3.113385324,0.31413769,4.91181986,-2.03838455,,,
imu,141.748773,-0.248233412,-9.2127494256,3.109796407200001,0.44124516,5.18846553,-2.33746095,,,
imu,141.757246,-0.2314851336,-9.2133475784,3.1229557688,0.46367589,5.51744957,-2.60662971,,,
imu,141.76572,-0.2075590216,-9.2157401896,3.113385324,0.68050628,5.7641876,-2.63653735,,,
imu,141.774194,-0.176455076,-9.232488468000001,3.1062074904,0.79265993,5.749233779999999,-2.47204533,,,
imu,141.782667,-0.1471455888,-9.2588071912,3.104413032,0.82256757,5.726803049999999,-2.42718387,,,
imu,141.791141,-0.1292010048,-9.252825663200001,3.0906555176,0.74779847,5.547357209999999,-2.51690679,,,
imu,141.799595,-0.11963056,-9.2588071912,3.1038148792,0.5459219,5.1660348,-2.43466078,,,
imu,141.808048,-0.1178361016,-9.267779483200002,3.1109927128,0.43376825,4.89686604,-2.41223005,,,
imu,141.816501,-0.1154434904,-9.280340692000001,3.1008241152,0.26179932,4.4931129,-2.3000764,,,
imu,141.824955,-0.1244157824,-9.272564705600002,3.100225962400001,0.23189168,4.03702139,-2.33746095,,,
imu,141.833408,-0.1357806856,-9.2785462336,3.096038892800001,0.15712258,3.73046808,-2.32250713,,,
imu,141.841861,-0.146547436,-9.270172094400001,3.105609337600001,-0.03727708,3.5211146,-2.42718387,,,
imu,141.850315,-0.1561178808,-9.266583177600001,3.0972351984,-0.02232326000000001,3.26689966,-2.38232241,,,
imu,141.858768,-0.1591086448,-9.2761536224,3.117572393600001,-0.28401511,3.09493073,-2.58419898,,,
imu,141.867222,-0.167482784,-9.2851259144,3.11039456,-0.48589168,3.01268472,-2.71130645,,,
imu,141.875675,-0.1728661592,-9.279144386400002,3.108001948800001,-0.48589168,2.81080815,-2.86084465,,,
imu,141.884128,-0.1788476872,-9.260003496800001,3.109796407200001,-0.64290679,2.72108523,-3.10758268,,,
imu,141.892582,-0.1902125904,-9.252227510400001,3.1020204208,-0.56066078,2.61640849,-3.16739796,,,
imu,141.901035,-0.1979885768,-9.233086620800002,3.1038148792,-0.64290679,2.55659321,-3.3468438,,,
imu,141.909488,-0.2069608688,-9.2510312048,3.133124366400001,-0.84478336,2.45191647,-3.50385891,,,
imu,141.917942,-0.2147368552,-9.2689757888,3.113983476800001,-0.7550604399999999,2.28742445,-3.55619728,,,
imu,141.926395,-0.2225128416,-9.250433052000002,3.089459212,-0.6279529699999999,2.26499372,-3.6459202,,,
imu,141.934848,-0.2249054528,-9.239068148800001,3.108001948800001,-0.70272207,2.04816333,-3.7206893,,,
imu,141.943302,-0.2380648144,-9.228899551200001,3.109796407200001,-0.78496808,1.76404075,-3.81041222,,,
imu,141.951755,-0.2607946208,-9.2378718432,3.105609337600001,-0.64290679,1.62945637,-3.70573548,,,
imu,141.960209,-0.2829262744000001,-9.245647829600001,3.096637045600001,-0.7999219,1.5023489,-3.58610492,,,
imu,141.968662,-0.3020671640000001,-9.242657065600001,3.098431504000001,-0.78496808,1.49487199,-3.16739796,,,
imu,141.977115,-0.3218062064,-9.246844135200002,3.0972351984,-0.63542988,1.66684092,-2.87579847,,,
imu,141.985569,-0.3331711096,-9.252227510400001,3.1008241152,-0.70272207,1.92105586,-2.75616791,,,
imu,141.994022,-0.3379563320000001,-9.261199802400002,3.092449976,-0.6279529699999999,2.18274771,-2.64401426,,,
imu,142.002859,-0.334965568,-9.263592413600001,3.088861059200001,-0.5681376899999999,2.34723973,-2.65896808,,,
imu,142.011696,-0.3421434016,-9.2689757888,3.1026185736,-0.8522602699999999,2.48930102,-3.00290594,,,
imu,142.020533,-0.3547046104000001,-9.2552182744,3.0882629064,-1.14385976,2.74351596,-3.2720747,,,
imu,142.029369,-0.3564990688,-9.254021968800002,3.083477684,-0.9644139199999999,3.00520781,-3.27955161,,,
imu,142.038206,-0.3475267768,-9.244451524,3.0786924616,-1.12890594,3.28933039,-3.24964397,,,
imu,142.047043,-0.3373581792000001,-9.2378718432,3.0703183224,-1.07656757,3.41643786,-3.24216706,,,
imu,142.05588,-0.3212080536,-9.235479232000001,3.0703183224,-1.15133667,3.6706528,-3.1973056,,,
imu,142.064717,-0.3056560808,-9.221721717600001,3.059551572000001,-1.27096723,3.78280645,-3.18982869,,,
imu,142.073554,-0.3038616224,-9.235479232000001,3.0703183224,-1.21115195,3.8949601,-3.11505959,,,
imu,142.08239,-0.2835244272,-9.2617979552,3.088861059200001,-1.06161375,3.93234465,-2.90570611,,,
imu,142.091227,-0.2745521352,-9.270172094400001,3.092449976,-0.92702937,3.90991392,-2.5991528,,,
imu,142.100064,-0.2530186344000001,-9.285724067200002,3.0978333512,-0.9943215599999999,3.8949601,-2.57672207,,,
imu,142.108901,-0.2446444952,-9.274957316800002,3.0936462816,-1.22610577,3.6706528,-2.49447606,,,
imu,142.117738,-0.2518223288000001,-9.268377636,3.1091982544,-1.25601341,3.65569898,-2.47204533,,,
imu,142.126575,-0.2554112456,-9.264788719200002,3.11039456,-1.37564397,3.42391477,-2.40475314,,,
imu,142.135411,-0.2619909264,-9.252825663200001,3.105609337600001,-1.44293616,3.30428421,-2.39727623,,,
imu,142.144248,-0.2542149400000001,-9.249236746400001,3.112189018400001,-1.48779762,3.31923803,-2.3000764,,,
imu,142.153085,-0.266177996,-9.231890315200001,3.1109927128,-1.58499745,3.25942275,-2.24773803,,,
imu,142.161922,-0.2685706072,-9.217534648,3.1169742408,-1.43545925,3.33419185,-2.21783039,,,
imu,142.170759,-0.2763465936,-9.211553120000001,3.1091982544,-1.36069015,3.43886859,-2.12063056,,,
imu,142.179595,-0.2685706072,-9.222918023200002,3.1109927128,-1.25601341,3.42391477,-2.19539966,,,
imu,142.188432,-0.2637853848,-9.2277032456,3.1086001016,-1.29339796,3.50616078,-2.26269185,,,
imu,142.197269,-0.260196468,-9.2139457312,3.1032167264,-1.27096723,3.63326825,-2.27016876,,,
imu,142.205731,-0.2500278704,-9.2127494256,3.113385324,-1.06161375,3.797760269999999,-2.38979932,,,
imu,142.214194,-0.2374666616,-9.222918023200002,3.1169742408,-0.82982954,3.77532954,-2.41970696,,,
imu,142.222656,-0.2296906752000001,-9.222918023200002,3.1181705464,-0.91955246,3.68560662,-2.57672207,,,
imu,142.231118,-0.2129423968,-9.228301398400001,3.122357616,-0.92702937,3.62579134,-2.62158353,,,
imu,142.23958,-0.2045682576000001,-9.224712481600001,3.115179782400001,-0.64290679,3.5211146,-2.56176825,,,
imu,142.248043,-0.2009793408,-9.219329106400002,3.115179782400001,-0.60552224,3.28185348,-2.55429134,,,
imu,142.256505,-0.2045682576000001,-9.221721717600001,3.119366852000001,-0.71019898,3.13979219,-2.62158353,,,
imu,142.264967,-0.2051664104,-9.2312921624,3.1199650048,-0.63542988,2.93043871,-2.66644499,,,
imu,142.27343,-0.2027737992,-9.236077384800002,3.128937296800001,-0.7550604399999999,2.84071579,-2.57672207,,,
imu,142.281892,-0.2111479384,-9.24146076,3.1229557688,-0.84478336,2.61640849,-2.61410662,,,
imu,142.290354,-0.2237091472,-9.235479232000001,3.12534838,-0.88964482,2.42200883,-2.65149117,,,
imu,142.298816,-0.2440463424,-9.2480404408,3.1211613104,-0.6503837,2.42948574,-2.62906044,,,
imu,142.307279,-0.2464389536,-9.233086620800002,3.1157779352,-0.7401066199999999,2.35471664,-2.65896808,,,
imu,142.315741,-0.260196468,-9.2277032456,3.1086001016,-0.69524516,2.26499372,-2.62158353,,,
imu,142.324203,-0.266177996,-9.228899551200001,3.115179782400001,-0.66533752,2.34723973,-2.59167589,,,
imu,142.332665,-0.2757484408,-9.2432552184,3.1109927128,-0.67281443,2.33228591,-2.68887572,,,
imu,142.341128,-0.2763465936,-9.231890315200001,3.1187686992,-0.78496808,2.39210119,-2.57672207,,,
imu,142.349795,-0.2829262744000001,-9.236077384800002,3.1115908656,-0.8672140899999999,2.48930102,-2.65896808,,,
imu,142.358257,-0.2733558296,-9.243853371200002,3.1187686992,-0.7550604399999999,2.66126995,-2.5991528,,,
imu,142.366719,-0.2763465936,-9.239666301600002,3.1181705464,-0.84478336,2.75846978,-2.61410662,,,
imu,142.375181,-0.2805336632,-9.246844135200002,3.115179782400001,-0.7999219,2.82576197,-2.62158353,,,
imu,142.383644,-0.2697669128,-9.2378718432,3.108001948800001,-0.73262971,2.8481927,-2.5991528,,,
imu,142.392106,-0.2566075512,-9.229497704000002,3.1091982544,-0.74758353,2.97530017,-2.6739219,,,
imu,142.400568,-0.2518223288000001,-9.219927259200002,3.1181705464,-0.83730645,3.02016163,-2.66644499,,,
imu,142.409169,-0.2476352592,-9.218132800800001,3.108001948800001,-0.77001426,3.16222292,-2.78607555,,,
imu,142.41777,-0.2404574256,-9.218132800800001,3.1086001016,-0.68029134,3.09493073,-2.76364482,,,
imu,142.426371,-0.2326814392,-9.217534648,3.11039456,-0.61299915,3.10988455,-2.78607555,,,
imu,142.434972,-0.236270356,-9.2271050928,3.11039456,-0.77749117,3.08745382,-2.87579847,,,
imu,142.443573,-0.2416537312,-9.238469996000001,3.107403796,-0.49336859,2.86314652,-2.87579847,,,
imu,142.452174,-0.2416537312,-9.2408626072,3.112189018400001,-0.56066078,2.86314652,-2.83093701,,,
imu,142.460774,-0.23926112,-9.2342829264,3.0996278096,-0.71767589,2.75846978,-2.92065993,,,
imu,142.469375,-0.2458408008,-9.233086620800002,3.1169742408,-0.65786061,2.76594669,-2.90570611,,,
imu,142.477976,-0.2434481896,-9.2378718432,3.1181705464,-0.40364567,2.83323888,-2.77859864,,,
imu,141.04108,,,,,,,-95.2161708,170.8824588,126.143116
imu,141.142612,,,,,,,-95.1551348,171.2120532,126.0942872
imu,141.244144,,,,,,,-95.26499960000001,170.6139004,125.9966296
imu,141.345767,,,,,,,-92.5916228,169.91809,124.7270808
imu,141.447269,,,,,,,-95.72887320000001,170.5650716,126.0088368
imu,141.548862,,,,,,,-92.6282444,169.8082252,123.7871264
imu,141.650424,,,,,,,-95.472522,170.4796212,125.960008
imu,141.752048,,,,,,,-95.66783720000001,171.077774,123.8969912
imu,142.486577,-0.2428500368,-9.2480404408,3.1109927128,-0.5756146,2.75846978,-2.83841392,,,
imu,142.495178,-0.2350740504,-9.249236746400001,3.1241520744,-0.47093786,2.72856214,-2.748691,,,
imu,142.503779,-0.2470371064,-9.240264454400002,3.1038148792,-0.36626112,2.66874686,-2.65896808,,,
imu,142.51238,-0.2524204816,-9.236077384800002,3.1050111848,-0.52327623,2.63883922,-2.89075229,,,
imu,142.52098,-0.2536167872,-9.242058912800001,3.1091982544,-0.47841477,2.73603905,-2.748691,,,
imu,142.529581,-0.2560093984,-9.247442288000002,3.096637045600001,-0.52327623,2.60893158,-2.85336774,,,
imu,142.538182,-0.2524204816,-9.2546201216,3.087066600800001,-0.67281443,2.54163939,-2.96552139,,,
imu,142.546783,-0.2637853848,-9.226506940000002,3.0912536704,-0.54570696,2.48930102,-2.87579847,,,
imu,142.555384,-0.2739539824000001,-9.222918023200002,3.09544074,-0.6279529699999999,2.5491163,-2.86084465,,,
imu,142.563985,-0.2697669128,-9.252227510400001,3.096637045600001,-0.5756146,2.63883922,-2.99542903,,,
imu,142.572586,-0.2691687600000001,-9.253423816000002,3.0906555176,-0.5681376899999999,2.51920866,-2.95804448,,,
imu,142.581187,-0.2715613712,-9.2546201216,3.094244434400001,-0.50832241,2.51173175,-2.95804448,,,
imu,142.589787,-0.2847207328,-9.259405344000001,3.1091982544,-0.6503837,2.59397776,-3.21225942,,,
imu,142.598388,-0.290104108,-9.267779483200002,3.1062074904,-0.79244499,2.54163939,-3.26459779,,,
imu,142.606989,-0.2954874832,-9.2641905664,3.1032167264,-0.82235263,2.57902394,-3.3468438,,,
imu,142.615477,-0.2996745528,-9.252825663200001,3.1091982544,-0.83730645,2.43696265,-3.38422835,,,
imu,142.623965,-0.305057928,-9.2480404408,3.1026185736,-1.00179847,2.52668557,-3.39918217,,,
imu,142.632452,-0.3218062064,-9.2342829264,3.101422268000001,-1.10647521,2.48930102,-3.51133582,,,
imu,142.64094,-0.3116376088,-9.240264454400002,3.1229557688,-1.04665993,2.57154703,-3.42908981,,,
imu,142.649428,-0.3146283728000001,-9.2312921624,3.1050111848,-1.01675229,2.48182411,-3.39170526,,,
imu,142.657915,-0.331974804,-9.2127494256,3.105609337600001,-0.97189083,2.46687029,-3.30198234,,,
imu,142.666403,-0.3379563320000001,-9.2133475784,3.1038148792,-1.15133667,2.42200883,-3.41413599,,,
imu,142.674891,-0.3457323184,-9.210954967200001,3.105609337600001,-1.0242292,2.33976282,-3.33936689,,,
imu,142.683379,-0.3570972216000001,-9.221721717600001,3.115179782400001,-1.08404448,2.42948574,-3.22721324,,,
imu,142.691866,-0.3594898328000001,-9.2157401896,3.1145816296,-0.94198319,2.60893158,-3.16739796,,,
imu,142.700354,-0.3762381112000001,-9.252227510400001,3.1271428384,-0.78496808,2.64631613,-2.98047521,,,
imu,142.708842,-0.3582935272000001,-9.271368400000002,3.133124366400001,-0.74758353,2.73603905,-2.90570611,,,
imu,142.717329,-0.3475267768,-9.246844135200002,3.0972351984,-0.7999219,2.98277708,-2.90570611,,,
imu,142.725817,-0.3469286240000001,-9.2091605088,3.0948425872,-0.7550604399999999,3.23699202,-2.68887572,,,
imu,142.734305,-0.3373581792000001,-9.215142036800001,3.1062074904,-0.61299915,3.58840679,-2.45709151,,,
imu,142.742792,-0.3146283728000001,-9.235479232000001,3.096038892800001,-0.47841477,3.81271409,-2.23278421,,,
imu,142.75128,-0.290104108,-9.225908787200002,3.0828795312,-0.44103022,4.104313579999999,-2.03090764,,,
imu,142.759768,-0.2536167872,-9.203777133600001,3.092449976,-0.5756146,4.23142105,-2.19539966,,,
imu,142.768256,-0.2428500368,-9.231890315200001,3.1038148792,-0.49336859,4.33609779,-2.26269185,,,
imu,142.776743,-0.2249054528,-9.2659850248,3.1026185736,-0.56066078,4.38095925,-2.26269185,,,
imu,142.785231,-0.2075590216,-9.2827333032,3.0912536704,-0.78496808,4.23142105,-2.39727623,,,
imu,142.793719,-0.191408896,-9.268377636,3.0858702952,-0.61299915,4.08188285,-2.50195297,,,
imu,142.802206,-0.1890162848,-9.2510312048,3.0739072392,-0.89712173,3.95477538,-2.77112173,,,
imu,142.810694,-0.1932033544,-9.235479232000001,3.082281378400001,-0.91207555,3.57345297,-2.78607555,,,
imu,142.819,-0.1991848824,-9.228899551200001,3.071514628,-0.66533752,3.2968073,-2.55429134,,,
imu,142.827306,-0.2117460912,-9.2342829264,3.0589534192,-0.5980453299999999,3.1472691,-2.28512258,,,
imu,142.835612,-0.2231109944,-9.246844135200002,3.038616224000001,-0.29149202,3.05006927,-2.06829219,,,
imu,142.843917,-0.2261017584,-9.247442288000002,3.0392143768,0.007584380000000002,2.79585433,-1.98604618,,,
imu,142.852223,-0.2290925224000001,-9.255816427200001,3.0434014464,0.16459949,2.58650085,-2.04586146,,,
imu,142.860529,-0.2643835376,-9.2797425392,3.0469903632,0.35152224,2.60893158,-2.1505382,,,
imu,142.868835,-0.2930948720000001,-9.2851259144,3.029643932,0.41881443,2.61640849,-2.34493786,,,
imu,142.877141,-0.2936930248,-9.309052026400002,3.040410682400001,0.3889067899999999,2.60145467,-2.38232241,,,
imu,142.885447,-0.3265914288,-9.322211388000001,3.0434014464,-0.10456927,2.86314652,-2.50195297,,,
imu,142.893753,-0.3212080536,-9.303070498400002,3.0350273072,-0.31392275,3.20708438,-2.32998404,,,
imu,142.902059,-0.320011748,-9.2917055952,3.0469903632,-0.61299915,3.41643786,-2.38979932,,,
imu,142.910364,-0.3026653168,-9.2917055952,3.0523737384,-1.05413684,3.64822207,-2.31503022,,,
imu,142.91867,-0.28412258,-9.294696359200001,3.0529718912,-1.28592105,4.00711375,-2.35241477,,,
imu,142.926976,-0.2506260232,-9.287518525600001,3.057158960800001,-1.62985891,4.23142105,-2.56924516,,,
imu,142.935282,-0.2374666616,-9.273162858400001,3.075103544800001,-1.95136604,4.31366706,-2.86084465,,,
imu,142.943588,-0.2207183832,-9.267181330400001,3.0810850728,-2.17567334,4.216467229999999,-3.01038285,,,
imu,142.951894,-0.2051664104,-9.2659850248,3.0912536704,-2.16071952,4.09683667,-3.17487487,,,
imu,142.9602,-0.2021756464,-9.2617979552,3.0936462816,-2.34016536,3.91739083,-3.30945925,,,
imu,142.968505,-0.2027737992,-9.252825663200001,3.1091982544,-2.58690339,3.64822207,-3.36179762,,,
imu,142.976811,-0.2021756464,-9.2719665528,3.1325262136,-2.62428794,3.22951511,-3.44404363,,,
imu,142.985117,-0.2009793408,-9.285724067200002,3.142694811200001,-2.43736519,2.91548489,-3.36927453,,,
imu,142.993423,-0.215335008,-9.280938844800001,3.152265256000001,-2.66167249,2.49677793,-3.57862801,,,
imu,143.001729,-0.233279592,-9.274359164000002,3.166022770400001,-2.63924176,2.10797861,-3.66087402,,,
imu,143.010035,-0.266177996,-9.2576108856,3.1630320064,-2.68410322,1.74161002,-3.66087402,,,
imu,143.018856,-0.2918985664000001,-9.245647829600001,3.170209840000001,-2.87850288,1.577118,-3.52628964,,,
imu,143.027677,-0.3086468448,-9.211553120000001,3.1624338536,-2.78130305,1.5023489,-3.40665908,,,
imu,143.036498,-0.3367600264,-9.202580828,3.179182132,-2.885979789999999,1.5023489,-3.30198234,,,
imu,143.045318,-0.3421434016,-9.211553120000001,3.1929396464,-2.8186876,1.60702564,-3.1973056,,,
imu,143.054139,-0.3343674152,-9.209758661600002,3.176191368,-2.77382614,1.65936401,-3.07019813,,,
imu,143.06296,-0.3499193880000001,-9.194804841600002,3.166022770400001,-2.91588743,1.7266562,-3.01038285,,,
imu,143.071781,-0.3523119992,-9.162504590400001,3.177387673600001,-2.79625687,1.86124058,-3.04029049,,,
imu,143.080602,-0.3499193880000001,-9.134989561600001,3.179182132,-2.73644159,1.92853277,-3.18982869,,,
imu,143.089423,-0.3564990688,-9.125419116800002,3.1690135344,-2.66167249,2.12293243,-3.21973633,,,
imu,143.098244,-0.376836264,-9.152335992800001,3.152265256000001,-2.42988828,2.33228591,-3.11505959,,,
imu,143.107065,-0.3541064576,-9.190019619200001,3.156452325600001,-2.1457657,2.57154703,-2.72626027,,,
imu,143.115886,-0.3277877344,-9.193608536000001,3.146881880800001,-1.98127368,2.72856214,-2.41970696,,,
imu,143.124707,-0.320011748,-9.1930103832,3.140900352800001,-1.96631986,2.76594669,-2.30755331,,,
imu,143.133528,-0.3152265256,-9.2133475784,3.1474800336,-1.90650458,2.76594669,-2.28512258,,,
imu,143.142348,-0.3056560808,-9.219329106400002,3.1397040472,-1.83921239,2.75099287,-2.33746095,,,
imu,143.151169,-0.3098431504,-9.2336847736,3.1199650048,-1.70462801,2.69117759,-2.41223005,,,
imu,143.15999,-0.3122357616,-9.233086620800002,3.1050111848,-1.59995127,2.70613141,-2.43466078,,,
imu,143.168811,-0.3343674152,-9.2157401896,3.105609337600001,-1.51770526,2.58650085,-2.53933752,,,
imu,143.177632,-0.3355637208,-9.204375286400001,3.1050111848,-1.43545925,2.74351596,-2.48699915,,,
imu,143.186453,-0.3289840400000001,-9.2091605088,3.113385324,-1.21862886,2.79585433,-2.28512258,,,
imu,143.195274,-0.3313766512,-9.220525412,3.1277409912,-1.21862886,2.72856214,-2.15801511,,,
imu,143.204095,-0.3511156936,-9.247442288000002,3.1319280608,-1.26349032,2.96034635,-2.21035348,,,
imu,143.212916,-0.3331711096,-9.2486385936,3.1301336024,-1.09152139,3.15474601,-2.18792275,,,
imu,143.221387,-0.3415452488,-9.222319870400002,3.143292964,-1.12142903,3.27437657,-2.26269185,,,
imu,143.229858,-0.3295821928000001,-9.2133475784,3.140900352800001,-1.14385976,3.39400713,-2.32998404,,,
imu,143.238329,-0.3355637208,-9.210954967200001,3.1576486312,-1.24105959,3.42391477,-2.59167589,,,
imu,143.2468,-0.3391526376000001,-9.228301398400001,3.1570504784,-1.14385976,3.51363769,-2.748691,,,
imu,143.255272,-0.334965568,-9.2366755376,3.164228312,-1.12142903,3.55102224,-2.73373718,,,
imu,143.263743,-0.3469286240000001,-9.240264454400002,3.164228312,-1.12890594,3.58092988,-2.95056757,,,
imu,143.272214,-0.3499193880000001,-9.246844135200002,3.1600412424,-1.05413684,3.54354533,-2.93561375,,,
imu,143.280685,-0.3535083048,-9.245647829600001,3.167219076,-1.09152139,3.54354533,-2.84589083,,,
imu,143.289156,-0.3648732080000001,-9.237273690400002,3.166022770400001,-0.9793677399999999,3.84262173,-2.748691,,,
imu,143.297627,-0.3559009160000001,-9.231890315200001,3.1654246176,-1.15133667,3.87252937,-2.71878336,,,
imu,141.853549,,,,,,,-95.4603148,170.6016932,125.7036568
imu,141.955112,,,,,,,-95.14292760000001,170.4429996,126.4849176
imu,142.056827,,,,,,,-95.167342,170.6993508,126.7168544
imu,142.162357,,,,,,,-95.04527,170.5406572,125.532756
imu,142.259799,,,,,,,-94.60581080000001,170.4918284,125.0810896
imu,142.361392,,,,,,,-95.0818916,170.1744412,125.7036568
imu,142.462924,,,,,,,-92.6526588,170.0157476,123.7749192
imu,142.564517,,,,,,,-95.03306280000001,170.5162428,126.448296
imu,143.306099,-0.3666676664,-9.239068148800001,3.1833692016,-1.13638285,3.94729847,-2.56924516,,,
imu,143.31457,-0.3481249296000001,-9.2588071912,3.186958118400001,-1.14385976,4.16412886,-2.5243837,,,
imu,143.323041,-0.3487230824000001,-9.2546201216,3.2025100912,-1.36816706,4.35105161,-2.50195297,,,
imu,143.331512,-0.35889168,-9.261199802400002,3.182172896,-1.36816706,4.388436159999999,-2.53186061,,,
imu,143.339983,-0.3535083048,-9.249834899200001,3.172004298400001,-1.38312088,4.46320526,-2.5243837,,,
imu,143.348454,-0.3236006648,-9.245049676800003,3.1923414936,-1.57004363,4.500589809999999,-2.41970696,,,
imu,143.356926,-0.3259932760000001,-9.244451524,3.1839673544,-1.55508981,4.59031273,-2.31503022,,,
imu,143.365397,-0.3128339144,-9.228301398400001,3.179182132,-1.68967419,4.65012801,-2.23278421,,,
imu,143.373868,-0.2918985664000001,-9.2103568144,3.1827710488,-1.78687402,4.74732784,-2.02343073,,,
imu,143.382339,-0.2913004136,-9.205571592000002,3.188154424,-1.90650458,4.784712389999999,-1.91875399,,,
imu,143.39081,-0.272159524,-9.1918140776,3.180378437600001,-1.57752054,4.77723548,-1.58229304,,,
imu,143.399281,-0.2404574256,-9.1882251608,3.1857618128,-1.57004363,4.8669584,-1.45518557,,,
imu,143.407753,-0.2219146888,-9.1924122304,3.18516366,-1.58499745,5.023973509999999,-1.39537029,,,
imu,143.416224,-0.2177276192,-9.1894214664,3.1809765904,-1.52518217,5.1660348,-1.34303192,,,
imu,143.424682,-0.2075590216,-9.1750657992,3.180378437600001,-1.3233056,5.12865025,-1.4028472,,,
imu,143.433141,-0.1860255208,-9.184038091200001,3.1923414936,-1.33825942,4.97163514,-1.59724686,,,
imu,143.441702,-0.1788476872,-9.1960011472,3.1899488824,-1.27096723,4.91929677,-1.84398489,,,
imu,143.45016,-0.1758569232,-9.204973439200002,3.1809765904,-1.24105959,4.7921893,-2.08324601,,,
imu,143.458619,-0.1746606176,-9.190019619200001,3.1857618128,-1.29339796,4.552928179999999,-2.24773803,,,
imu,143.467077,-0.167482784,-9.186430702400001,3.1833692016,-1.25601341,4.410866889999999,-2.40475314,,,
imu,143.475536,-0.1752587704,-9.199590064,3.200715632800001,-1.1737674,4.07440594,-2.53186061,,,
imu,143.483994,-0.1830347568,-9.235479232000001,3.210286077600001,-1.19619813,3.7454219,-2.65149117,,,
imu,143.492453,-0.1938015072,-9.2366755376,3.200715632800001,-1.21862886,3.27437657,-2.81598319,,,
imu,143.500911,-0.2159331608,-9.2300958568,3.2066971608,-1.21862886,2.86314652,-2.95804448,,,
imu,143.509369,-0.2464389536,-9.230694009600002,3.204902702400001,-1.27844414,2.44443956,-3.23469015,,,
imu,143.517828,-0.2913004136,-9.239068148800001,3.206099008,-1.16629049,2.33976282,-3.18235178,,,
imu,143.526286,-0.3373581792000001,-9.2157401896,3.186958118400001,-1.18872122,2.28742445,-3.01038285,,,
imu,143.534745,-0.3690602776000001,-9.207366050400001,3.1947341048,-1.08404448,2.30985518,-2.71130645,,,
imu,143.543203,-0.3929863896,-9.191215924800002,3.1947341048,-1.06909066,2.45939338,-2.41970696,,,
imu,143.551662,-0.3995660704000001,-9.190019619200001,3.1696116872,-1.08404448,2.87810034,-2.06829219,,,
imu,143.56012,-0.4079402096,-9.197795605600001,3.1839673544,-1.06161375,3.07997691,-2.09072292,,,
imu,143.568579,-0.4163143488000001,-9.2103568144,3.1899488824,-1.05413684,3.43886859,-2.08324601,,,
imu,143.577037,-0.4163143488000001,-9.223516176,3.203108244,-0.95693701,3.94729847,-2.19539966,,,
imu,143.585496,-0.4145198904,-9.228301398400001,3.2114823832,-1.04665993,4.28375942,-2.3748455,,,
imu,142.666151,,,,,,,-92.8357668,169.2833156,123.884784
imu,142.767744,,,,,,,-94.83774760000001,170.1256124,126.3018096
imu,142.869276,,,,,,,-95.0574772,170.7359724,126.265188
imu,142.970808,,,,,,,-95.13072040000002,170.52845,126.2407736
imu,143.072401,,,,,,,-95.42369319999999,170.650522,126.0088368
imu,143.174025,,,,,,,-94.9354052,170.3331348,126.021044
imu,143.275526,,,,,,,-94.8255404,170.2965132,125.7646928
imu,143.377211,,,,,,,-92.5916228,170.467414,124.739288
imu,143.478773,,,,,,,-95.3870716,171.3463324,125.3252336
imu,143.580214,,,,,,,-93.2386044,170.0523692,123.6284328
