Type,Timestamp,Data Accelerometer X,Data Accelerometer Y,Data Accelerometer Z,Data Gyroscope X,Data Gyroscope Y,Data Gyroscope Z,Data Magnetometer X,Data Magnetometer Y,Data Magnetometer Z
imu,397.877088,0.3965753064,-9.815089295200002,2.2598212784,10.64722731,-0.5687551700000002,-6.120777410000001,,,
imu,397.88571,0.3511156936,-9.780396432800002,2.2329044024,9.38362952,-1.75010695,-6.17311578,,,
imu,397.894333,0.2823281216,-9.7636481544,2.208978290400001,8.13498555,-2.72958216,-6.180592689999999,,,
imu,397.902955,0.2290925224000001,-9.7427128064,2.191631859200001,7.38729455,-3.49222698,-5.94133157,,,
imu,397.911577,0.19439966,-9.752283251200002,2.1994078456,6.43025007,-4.06794905,-5.85908556,,,
imu,397.9199,0.161501256,-9.7845835024,2.1886410952,5.63769761,-4.40441,-5.74693191,,,
imu,397.928222,0.1274065464,-9.7534795568,2.170696511200001,4.56102257,-4.83807078,-5.97123921,,,
imu,397.936545,0.08852661440000001,-9.676317845600002,2.1515556216,3.56659354,-5.077331900000001,-6.21797724,,,
imu,397.944867,0.0502448352,-9.596165370400001,2.1401907184,2.92357928,-5.19696246,-6.21050033,,,
imu,397.953189,0.03349655680000001,-9.575828175200002,2.1551445384,2.49739541,-5.189485550000001,-6.225454149999999,,,
imu,397.961512,0.0245242648,-9.571641105600001,2.1659112888,2.2656112,-5.08480881,-6.2628387,,,
imu,397.969834,0.007177833600000002,-9.544126076800001,2.1724909696,2.04878081,-4.942747519999999,-6.360038530000001,,,
imu,397.978157,-0.0251224176,-9.502255380800001,2.1808651088,1.84690424,-4.74087095,-6.442284539999999,,,
imu,397.986479,-0.06220789120000001,-9.511227672800002,2.204193068,1.64502767,-4.54647129,-6.464715269999999,,,
imu,397.994801,-0.05981528000000001,-9.543527924000001,2.205389373600001,1.33099745,-4.02308759,-6.32265398,,,
imu,398.003124,-0.026916876,-9.5501076048,2.1796688032,1.28613599,-3.64176518,-6.008623759999999,,,
imu,398.011381,0.0251224176,-9.516611048000001,2.201202304,1.09921324,-3.37259642,-5.784316459999999,,,
imu,398.019703,0.06160973840000001,-9.526779645600001,2.222137652,0.9646288599999999,-3.38007333,-6.046008309999999,,,
imu,398.028026,0.0933118368,-9.550705757600001,2.237091472,1.00201341,-3.52961153,-6.27779252,,,
imu,398.036348,0.1094619624,-9.5381445488,2.243073,0.94967504,-4.02308759,-6.5619151,,,
imu,398.044671,0.09570444800000001,-9.529770409600001,2.2472600696,0.85995212,-4.39693309,-6.576868919999999,,,
imu,398.052993,0.09390998960000001,-9.4962738528,2.2466619168,0.5982602699999999,-4.69600949,-6.47966909,,,
imu,398.061315,0.09091922560000001,-9.4831144912,2.269989876,0.56835263,-5.04742426,-6.247884879999999,,,
imu,398.069638,0.09630260080000001,-9.487899713600001,2.2658028064,0.65059864,-5.316593019999999,-5.86656247,,,
imu,398.07796,0.110658268,-9.478927421600002,2.281952932,0.71789083,-5.80259217,-5.851608649999999,,,
imu,398.086283,0.1268083936,-9.471151435200001,2.2855418488,0.73284465,-6.4231757,-5.86656247,,,
imu,398.094605,0.09570444800000001,-9.439449336800001,2.2837473904,0.80013684,-7.03628232,-6.053485220000001,,,
imu,398.102927,0.05802082160000001,-9.4322715032,2.2963085992,0.8449983,-7.746588770000001,-6.203023419999999,,,
imu,398.11125,0.017944584,-9.412532460800001,2.296906752,0.9646288599999999,-8.32978775,-6.113300499999999,,,
imu,398.119707,-0.0131593616,-9.405952780000002,2.3130568776,1.24127453,-8.6662487,-5.91142393,,,
imu,398.128164,-0.0514411408,-9.406550932800002,2.3220291696,1.24127453,-9.09243257,-5.784316459999999,,,
imu,398.136621,-0.1010878232,-9.403560168800002,2.3190384056,1.24875144,-9.22701695,-5.73197809,,,
imu,398.145078,-0.1591086448,-9.422102905600001,2.331001461600001,1.33847436,-9.144770939999999,-5.56000916,,,
imu,398.153536,-0.2021756464,-9.464571754400001,2.3429645176,1.50296638,-9.04757111,-5.38056332,,,
imu,398.161993,-0.2524204816,-9.501657228000001,2.338777448000001,1.51044329,-8.95037128,-5.350655679999999,,,
imu,398.17045,-0.3008708584000001,-9.529770409600001,2.3573201848,1.24875144,-8.5914796,-5.350655679999999,,,
imu,398.178907,-0.3511156936,-9.538742701600002,2.3662924768,1.09921324,-8.18772646,-5.3656095,,,
imu,398.187364,-0.4037531400000001,-9.565061424800001,2.3638998656,0.9571519499999999,-7.64938894,-5.27588658,,,
imu,398.195822,-0.4384460024000001,-9.575828175200002,2.3662924768,0.35152224,-6.939082490000001,-5.33570186,,,
imu,398.204279,-0.4958686712000001,-9.573435564,2.359712796,0.26927623,-6.11662239,-5.328224949999999,,,
imu,398.212736,-0.5180003248000001,-9.559678049600002,2.3501423512,-0.22419983,-5.35397757,-5.45533242,,,
imu,398.221193,-0.5485061176,-9.560874355200001,2.353731268,-0.7251528,-4.44927146,-5.567486069999999,,,
imu,398.22965,-0.58319898,-9.5668558832,2.3609091016,-0.93450628,-3.39502715,-5.6646859,,,
imu,398.238107,-0.6154992312,-9.642223136000002,2.406368714400001,-1.43545925,-2.45293649,-5.806747189999999,,,
imu,398.246565,-0.6125084672000001,-9.755274015200001,2.4302948264,-2.01118132,-1.48093819,-5.86656247,,,
imu,398.255022,-0.6220789120000001,-9.8144911424,2.4033779504,-3.25982529,-0.3893093300000001,-5.761885729999999,,,
imu,398.263479,-0.6119103144000001,-9.820472670400001,2.4051724088,-4.78511493,0.5976427899999996,-5.83665483,,,
imu,398.271936,-0.6029380224,-9.8049206976,2.409957631200001,-6.20572783,1.40514907,-5.90394702,,,
imu,398.280393,-0.601143564,-9.8144911424,2.4081631728,-7.686156009999999,2.22760917,-5.99366994,,,
imu,398.288851,-0.6107140088,-9.9137845072,2.4775488976,-9.20396874,2.93043871,-5.73197809,,,
imu,398.297308,-0.5796100632000001,-9.993936982400001,2.4619969248,-10.98347332,3.77532954,-5.22354821,,,
imu,398.305765,-0.5323559920000001,-9.960440425600002,2.441061576800001,-13.27140778,4.42582071,-4.81979507,,,
imu,398.314222,-0.5281689224000001,-9.8683248944,2.410555784,-15.20792747,4.85200458,-4.30388828,,,
imu,398.322686,-0.5443190480000001,-9.737329431200001,2.3878259776,-16.75564784,5.20341935,-3.87770441,,,
imu,398.331149,-0.5150095608,-9.642223136000002,2.3495441984,-18.11644546,5.71932614,-3.39918217,,,
imu,398.339613,-0.4809148512,-9.568052188800001,2.3465534344,-18.81179809,6.07821782,-3.09262886,,,
imu,398.348076,-0.4749333232000001,-9.433467808800001,2.2981030576,-19.05105921,6.25766366,-2.92065993,,,
imu,398.35654,-0.4821111568000001,-9.290509289600001,2.3004956688,-18.84170573,6.182894559999999,-3.02533667,,,
imu,398.365003,-0.4880926848000001,-9.184038091200001,2.326814392,-18.47533714,6.38477113,-3.13001341,,,
imu,398.373467,-0.4641665728000001,-9.123026505600002,2.36270356,-17.56315412,6.60907843,-2.76364482,,,
imu,398.38193,-0.4312681688,-9.094913324,2.4147428536,-15.98552611,6.71375517,-2.50195297,,,
imu,398.390394,-0.3995660704000001,-9.0715853648,2.4512301744,-14.65463613,6.82590882,-2.56176825,,,
imu,398.398858,-0.3905937784,-9.052444475200002,2.4931008704,-13.39851525,6.9604932,-2.57672207,,,
imu,398.407321,-0.3780325696000001,-9.0464629472,2.5672718176,-11.90313325,7.07264685,-2.51690679,,,
imu,398.415785,-0.3606861384,-9.0572296976,2.6025628328,-10.5199049,7.05021612,-2.36736859,,,
imu,398.424248,-0.3493212352000001,-9.066800142400002,2.6450316816,-9.3235993,7.21470814,-2.04586146,,,
imu,398.432712,-0.3427415544,-9.075772434400001,2.706043267200001,-8.351601,7.28947724,-1.84398489,,,
imu,398.441175,-0.3241988176,-9.110465296800001,2.7526991856,-7.36464888,7.37920016,-1.67949287,,,
imu,398.449639,-0.2972819416,-9.142167395200001,2.7927754232,-6.50480423,7.528738359999999,-1.63463141,,,
imu,398.458102,-0.2847207328,-9.183439938400001,2.8167015352,-5.61505194,7.46892308,-1.76173888,,,
imu,398.466566,-0.2859170384,-9.1918140776,2.8298608968,-5.009422229999999,7.39415398,-2.06829219,,,
imu,398.475029,-0.2757484408,-9.2169364952,2.8633574536,-4.38136179,7.51378454,-2.35989168,,,
imu,398.483493,-0.2757484408,-9.2312921624,2.8729278984,-3.94770101,7.51378454,-2.63653735,,,
imu,398.491957,-0.2823281216,-9.258209038400002,2.8908724824,-3.39440967,7.364246339999999,-2.86832156,,,
imu,398.50042,-0.2835244272,-9.280340692000001,2.9183875112,-3.28225602,7.13246213,-3.23469015,,,
imu,398.508884,-0.2649816904,-9.2917055952,2.928556108800001,-2.94579507,7.12498522,-3.56367419,,,
imu,398.517347,-0.266177996,-9.3060612624,2.9465006928,-2.78130305,6.97544702,-3.78798149,,,
imu,398.52618,-0.2745521352,-9.3108464848,2.957865596,-2.78130305,6.78104736,-4.22911918,,,
imu,398.535013,-0.2757484408,-9.3144354016,2.9770064856,-2.75139541,6.64646298,-4.51324176,,,
imu,398.543846,-0.2781410520000001,-9.319818776800002,2.9740157216,-2.69158013,6.36981731,-4.647826139999999,,,
imu,398.552679,-0.2936930248,-9.318622471200001,2.968632346400001,-2.73644159,6.01840254,-4.759979789999999,,,
imu,398.561511,-0.2984782472,-9.334174444000002,2.9883713888,-3.03551799,5.82400288,-4.78241052,,,
imu,398.570344,-0.3086468448,-9.3443430416,2.981791708,-3.12524091,5.592218669999999,-4.81979507,,,
imu,398.579177,-0.3122357616,-9.335968902400001,2.9752120272,-3.32711748,5.375388279999999,-4.81979507,,,
imu,398.58801,-0.3062542336,-9.3204169296,2.971024957600001,-3.33459439,5.12117334,-4.78241052,,,
imu,398.596843,-0.3170209840000001,-9.324005846400002,2.9626508184,-3.36450203,4.87443531,-4.58801086,,,
imu,398.605676,-0.3247969704000001,-9.322211388000001,2.953678526400001,-3.4168404,4.807143119999999,-4.32631901,,,
imu,398.614508,-0.320011748,-9.307257568,2.9351357896,-3.76825517,4.530497449999999,-4.07210407,,,
imu,398.623341,-0.3307784984000001,-9.261199802400002,2.908218913600001,-3.62619388,4.38095925,-3.7954584,,,
imu,398.632174,-0.3301803456000001,-9.2378718432,2.8998447744,-3.50656332,4.126744309999999,-3.45152054,,,
imu,398.641007,-0.3337692624,-9.245647829600001,2.8836946488,-3.25234838,3.94729847,-3.03281358,,,
imu,398.64984,-0.3337692624,-9.24146076,2.8669463704,-2.98317962,3.820191,-2.5991528,,,
imu,398.658673,-0.3355637208,-9.2432552184,2.8693389816,-2.60185721,3.70056044,-2.09072292,,,
imu,398.667506,-0.34393786,-9.2408626072,2.8675445232,-2.39998064,3.65569898,-1.91875399,,,
imu,398.676338,-0.3481249296000001,-9.264788719200002,2.8543851616,-2.09342733,3.64074516,-1.82903107,,,
imu,398.685171,-0.3523119992,-9.254021968800002,2.8298608968,-1.86912003,3.6706528,-1.66453905,,,
imu,397.830015,,,,,,,-96.8641428,170.284306,126.3384312
imu,398.694004,-0.3463304712,-9.245049676800003,2.8238793688,-1.57752054,3.81271409,-1.45518557,,,
imu,398.702837,-0.3355637208,-9.277948080800002,2.819692299200001,-1.03918302,4.02206757,-1.29817046,,,
imu,398.71167,-0.3170209840000001,-9.304266804000001,2.8286645912,-0.71767589,4.27628251,-1.34303192,,,
imu,398.720503,-0.3122357616,-9.337165208000002,2.8304590496,-0.60552224,4.4931129,-1.32060119,,,
imu,398.728965,-0.2895059552,-9.3622876256,2.835244272,-0.7550604399999999,4.68003565,-1.36546265,,,
imu,398.737427,-0.2703650656,-9.389204501600002,2.8418239528,-0.70272207,4.90434295,-1.38789338,,,
imu,398.745889,-0.263187232,-9.4203084472,2.8460110224,-1.01675229,4.95668132,-1.38789338,,,
imu,398.754352,-0.2554112456,-9.444832712,2.8513943976,-1.27844414,5.03145042,-1.39537029,,,
imu,398.762814,-0.2536167872,-9.462777296000002,2.8669463704,-1.65976655,5.24828081,-1.48509321,,,
imu,398.771276,-0.236270356,-9.460384684800001,2.8585722312,-2.10838115,5.50249575,-1.6271545,,,
imu,398.779739,-0.2219146888,-9.453206851200001,2.8579740784,-2.51213429,5.45015738,-1.7766927,,,
imu,398.788201,-0.2087553272,-9.464571754400001,2.859768536800001,-2.91588743,5.48754193,-2.001,,,
imu,398.796663,-0.2141387024,-9.4944793944,2.875918662400001,-3.20001001,5.27818845,-2.4496146,,,
imu,398.805125,-0.23926112,-9.491488630400001,2.8765168152,-3.84302427,5.12117334,-2.8982292,,,
imu,398.813588,-0.2530186344000001,-9.457393920800001,2.8902743296,-4.560807629999999,5.09874261,-3.14496723,,,
imu,398.82205,-0.2584020096,-9.443636406400001,2.9088170664,-5.061760599999999,5.03892733,-3.45152054,,,
imu,398.830512,-0.2607946208,-9.460982837600001,2.9195838168,-5.42065228,4.93425059,-3.80293531,,,
imu,398.838974,-0.2817299688000001,-9.448421628800002,2.927957956,-5.906651429999999,4.96415823,-4.04967334,,,
imu,398.847437,-0.3008708584000001,-9.412532460800001,2.9375284008,-6.332835299999999,4.88191222,-4.146873169999999,,,
imu,398.855899,-0.3128339144,-9.3963823352,2.9405191648,-6.60948097,4.91929677,-4.13939626,,,
imu,398.864361,-0.334965568,-9.4322715032,2.938126553600001,-7.02818793,4.90434295,-4.13191935,,,
imu,398.872824,-0.3511156936,-9.399971252000002,2.9327431784,-7.29735669,4.87443531,-4.0197657,,,
imu,398.881286,-0.3397507904000001,-9.3443430416,2.9351357896,-7.40951034,5.023973509999999,-3.90013514,,,
imu,398.889748,-0.3648732080000001,-9.309650179200002,2.9512859152,-7.5291409,5.03892733,-3.87770441,,,
imu,398.89821,-0.3816214864,-9.336567055200002,2.9674360408,-7.59643309,5.12865025,-3.90013514,,,
imu,398.906673,-0.4001642232,-9.374250681600001,2.9746138744,-7.88055567,5.32304991,-3.82536604,,,
imu,398.915135,-0.4055475984,-9.368269153600002,2.9883713888,-8.231970440000001,5.5398803,-3.60105874,,,
imu,398.923597,-0.4175106544000001,-9.3628857784,3.0134938064,-8.37403173,5.66698777,-3.36927453,,,
imu,398.932062,-0.4133235848,-9.371259917600002,3.022466098400001,-8.47870847,5.77914142,-3.24964397,,,
imu,398.940527,-0.4294737104000001,-9.370063612000001,3.0434014464,-8.91984616,6.19037147,-3.08515195,,,
imu,398.948992,-0.4366515440000001,-9.3838211264,3.0679257112,-9.39089149,6.422155679999999,-2.95056757,,,
imu,398.957456,-0.4563905864000001,-9.398774946400001,3.0810850728,-9.68249098,6.80347809,-2.71130645,,,
imu,398.965921,-0.4665591840000001,-9.410139849600002,3.1068056432,-10.16101322,7.222185049999999,-2.51690679,,,
imu,398.974386,-0.4653628784000001,-9.439449336800001,3.137311436000001,-10.65448928,7.670799649999999,-2.39727623,,,
imu,398.982851,-0.472540712,-9.4424401008,3.1391058944,-11.1928268,8.1567988,-2.18792275,,,
imu,398.991316,-0.4510072112,-9.3975786408,3.137311436000001,-11.99285617,8.78485924,-2.35241477,,,
imu,398.99978,-0.4199032656,-9.335370749600001,3.1391058944,-12.41156313,9.27085839,-2.36736859,,,
imu,399.008245,-0.3840140976,-9.3108464848,3.1528634088,-13.03962357,9.734426809999999,-2.63653735,,,
imu,399.01671,-0.3535083048,-9.300079734400002,3.1624338536,-13.39851525,10.06341085,-2.77859864,,,
imu,399.025175,-0.3277877344,-9.274359164000002,3.1510689504,-13.50319199,10.27276433,-2.89075229,,,
imu,399.03364,-0.2978800944000001,-9.237273690400002,3.195332257600001,-13.68263783,10.50454854,-3.00290594,,,
imu,399.042105,-0.2560093984,-9.214543884000001,3.236006648,-13.69759165,10.58679455,-2.90570611,,,
imu,399.050569,-0.2225128416,-9.1882251608,3.2533530792,-13.8845144,10.51950236,-2.8234601,,,
imu,399.059034,-0.185427368,-9.160710132,3.274288427200001,-13.5106689,10.40734871,-2.57672207,,,
imu,399.067499,-0.1483418944,-9.086539184800001,3.2904385528,-13.38356143,10.2503336,-2.32250713,,,
imu,399.075964,-0.1250139352,-9.045864794400002,3.330514790400001,-13.33869997,9.86153428,-2.31503022,,,
imu,399.084429,-0.0903210728,-9.042874030400002,3.3670021112,-12.89008537,9.40544277,-2.25521494,,,
imu,399.092893,-0.03588916800000001,-9.017153460000001,3.3909282232,-12.28445566,8.65775177,-2.20287657,,,
imu,399.101328,-0.0197390424,-8.985451361600001,3.427415544,-11.78350269,7.68575347,-2.40475314,,,
imu,399.109793,-0.0257205704,-8.968703083200001,3.479454837600001,-11.18534989,6.706278259999999,-2.62158353,,,
imu,399.118258,-0.0340947096,-9.00219964,3.5434571872,-10.82645821,5.86886434,-2.71130645,,,
imu,399.126722,-0.0406743904,-9.020144224000001,3.5715703688,-10.0712903,5.09874261,-2.56176825,,,
imu,399.135185,-0.04366515440000001,-9.020144224000001,3.6092539952,-9.74978317,4.27628251,-2.43466078,,,
imu,399.143647,-0.06101158560000001,-9.027920210400001,3.6481339272,-9.55538351,3.50616078,-2.3748455,,,
imu,399.152109,-0.07177833600000001,-9.042874030400002,3.6672748168,-9.42079913,2.76594669,-2.23278421,,,
imu,399.160572,-0.0813487808,-9.059024156000001,3.705556596,-9.42079913,2.33976282,-2.09072292,,,
imu,399.169034,-0.0980970592,-9.070987212,3.728884555200001,-9.570337330000001,1.6518871,-2.00847691,,,
imu,399.177496,-0.122621324,-9.070987212,3.734267930400001,-9.697444800000001,0.9191499199999997,-1.94866163,,,
imu,399.185958,-0.1471455888,-9.0542389336,3.755801431200001,-9.79464463,0.3957662200000001,-1.97109236,,,
imu,399.194421,-0.176455076,-9.014760848800002,3.764773723200001,-9.899321370000001,-0.07527911000000032,-2.0757691,,,
imu,399.202883,-0.2105497856,-8.966908624800002,3.778531237600001,-9.96661356,-0.4640784300000003,-2.21035348,,,
imu,399.211345,-0.2440463424,-8.9220471648,3.7719515568,-9.77969081,-0.5538013500000001,-2.1505382,,,
imu,399.219807,-0.2715613712,-8.903504428000002,3.796475821600001,-9.40584531,-0.6883857300000003,-2.03090764,,,
imu,399.22827,-0.3008708584000001,-8.911878567200002,3.816214864,-9.002092170000001,-0.6210935399999999,-1.97109236,,,
imu,399.236732,-0.3164228312,-8.897522900000002,3.826981614400001,-8.77778487,-0.39678624,-1.85893871,,,
imu,399.245194,-0.3307784984000001,-8.865820801600002,3.832364989600001,-8.30673954,-0.1126636599999999,-1.66453905,,,
imu,399.253657,-0.340947096,-8.844885453600002,3.848515115200001,-7.798309659999999,0.21632038,-1.57481613,,,
imu,399.262119,-0.3517138464,-8.849072523200002,3.853300337600001,-7.207633769999999,0.4854891399999999,-1.73930815,,,
imu,399.270581,-0.3570972216000001,-8.844885453600002,3.857487407200001,-6.60948097,0.6724118899999998,-1.97856927,,,
imu,399.279043,-0.3690602776000001,-8.844287300800001,3.8616744768,-5.936559069999999,0.9939190199999999,-2.16549202,,,
imu,399.287506,-0.3798270280000001,-8.840698384000001,3.8754319912,-5.338406269999999,1.38271834,-2.41223005,,,
imu,399.295968,-0.3899956256000001,-8.865222648800001,3.889189505600001,-4.75520729,1.56964109,-2.69635263,,,
imu,399.30443,-0.400762376,-8.865820801600002,3.8867968944,-4.1645314,1.89114822,-2.66644499,,,
imu,399.312892,-0.4049494456000001,-8.878382010400001,3.87303938,-3.89536264,2.26499372,-2.74121409,,,
imu,399.321355,-0.4103328208,-8.868811565600002,3.880815366400001,-3.38693276,2.66126995,-2.60662971,,,
imu,399.329817,-0.4097346680000001,-8.906495192000001,3.8921802696,-2.79625687,2.95286944,-2.41970696,,,
imu,399.338278,-0.4127254320000001,-8.940589901600001,3.8921802696,-2.69158013,3.33419185,-2.41970696,,,
imu,399.346739,-0.415716196,-8.956740027200002,3.8963673392,-2.26539626,3.71551426,-2.28512258,,,
imu,399.3552,-0.4079402096,-8.9597307912,3.890983964000001,-1.93641222,4.17908268,-2.34493786,,,
imu,399.363661,-0.3923882368,-8.927430540000001,3.8586837128,-1.622382,4.61274346,-2.31503022,,,
imu,399.372122,-0.3929863896,-8.8951302888,3.849113268000001,-1.43545925,4.9417275,-2.53186061,,,
imu,399.380583,-0.3935845424,-8.905897039200001,3.8287760728,-1.03918302,5.397819009999999,-2.77112173,,,
imu,399.389044,-0.3882011672000001,-8.911878567200002,3.790494293600001,-0.60552224,5.79409524,-2.83093701,,,
imu,399.397505,-0.3726491944000001,-8.9112804144,3.776736779200001,-0.11204618,6.26514057,-2.8982292,,,
imu,399.405966,-0.3086468448,-8.889746913600002,3.772549709600001,0.29170696,6.71375517,-2.71130645,,,
imu,399.414427,-0.272159524,-8.893335830400002,3.759390348,0.6954601,7.1100314,-2.69635263,,,
imu,399.422888,-0.2374666616,-8.9322157624,3.762979264800001,1.49548947,7.27452342,-2.64401426,,,
imu,399.431349,-0.191408896,-8.9818624448,3.7719515568,1.95158098,7.28947724,-2.75616791,,,
imu,399.43981,-0.155519728,-9.019546071200002,3.767166334400001,2.23570356,7.16236977,-2.86084465,,,
imu,399.448271,-0.1292010048,-9.040481419200002,3.757595889600001,2.40019558,6.99040084,-2.8234601,,,
imu,399.456732,-0.09211553120000002,-9.042275877600002,3.7546051256,2.54973378,6.6614168,-2.79355246,,,
imu,399.465193,-0.0723764888,-9.0464629472,3.7522125144,2.70674889,6.23523293,-2.748691,,,
imu,399.473654,-0.05861897440000001,-9.055435239200001,3.7199122632,2.83385636,5.66698777,-2.80102937,,,
imu,399.482115,-0.0502448352,-9.024331293600001,3.6768452616,3.06564057,5.023973509999999,-2.96552139,,,
imu,399.490576,-0.05682451600000001,-8.990236584000002,3.670265580800001,3.611455,4.15665195,-3.13001341,,,
imu,399.499037,-0.0562263632,-8.996816264800001,3.654115455200001,4.14979252,3.37905331,-3.50385891,,,
imu,397.931502,,,,,,,-97.4378812,169.6861532,127.0708632
imu,398.033034,,,,,,,-96.6688276,169.00255,127.3760432
imu,398.134658,,,,,,,-96.693242,168.1968748,128.096268
imu,398.23619,,,,,,,-93.92220760000001,167.1836772,126.4727104
imu,398.337783,,,,,,,-96.47351239999999,167.9893524,128.9996008
imu,398.439468,,,,,,,-94.6912612,168.1724604,125.8135216
imu,398.540877,,,,,,,-96.8275212,169.4420092,127.6201872
imu,398.64244,,,,,,,-97.12049400000001,169.8692612,127.7666736
imu,399.507498,-0.0855358504,-8.986049514400001,3.607459536800001,4.964775710000001,2.34723973,-3.9449966,,,
imu,399.515959,-0.11963056,-8.969899388800002,3.597889092,5.73489744,1.42010289,-4.19921154,,,
imu,399.52442,-0.1662864784,-8.969899388800002,3.602674314400001,6.43772698,0.76213481,-4.124442439999999,,,
imu,399.532881,-0.1991848824,-8.989638431200001,3.590711258400001,7.08821815,0.4555814999999996,-3.73564312,,,
imu,399.541702,-0.233279592,-8.9950218064,3.5871223416,7.62655567,0.3509047599999997,-2.99542903,,,
imu,399.550523,-0.2560093984,-9.044668488800001,3.615833676,7.62655567,0.5303505999999998,-2.15801511,,,
imu,399.559344,-0.2685706072,-9.123026505600002,3.6559099136,7.48449438,0.80699627,-1.36546265,,,
imu,399.568165,-0.2584020096,-9.225310634400001,3.691200928800001,6.77418793,1.07616503,-0.7523560299999998,,,
imu,399.576985,-0.2560093984,-9.2899111368,3.706752901600001,5.6302207,1.33037997,-0.6925407499999998,,,
imu,399.585806,-0.2548130928,-9.2827333032,3.6822286368,4.4339151,1.39019525,-1.14863226,,,
imu,399.594627,-0.2877114968,-9.225310634400001,3.6714618864,3.45443989,1.36028761,-1.95613854,,,
imu,399.603448,-0.3146283728000001,-9.1684861184,3.651124691200001,2.3403803,1.21074941,-2.86832156,,,
imu,399.612269,-0.3379563320000001,-9.118241283200001,3.6325819544,1.78708896,1.13598031,-3.48890509,,,
imu,399.62109,-0.3505175408000001,-9.098502240800002,3.6289930376,1.33099745,1.0537343,-4.13939626,,,
imu,399.629911,-0.35889168,-9.103287463200001,3.623609662400001,0.97210577,0.9939190199999999,-4.625395409999999,,,
imu,399.638732,-0.370854736,-9.114652366400001,3.612842912,0.82256757,1.04625739,-4.999240909999999,,,
imu,399.647553,-0.3846122504,-9.1170449776,3.6110484536,0.68050628,1.16588795,-4.999240909999999,,,
imu,399.656374,-0.3899956256000001,-9.1266154224,3.6283948848,0.8823828499999999,1.17336486,-4.64034923,,,
imu,399.665195,-0.3852104032000001,-9.1654953544,3.646937621600001,0.79265993,1.24065705,-4.30388828,,,
imu,399.674015,-0.3720510416,-9.194804841600002,3.6672748168,0.49358353,1.15841104,-4.15435008,,,
imu,399.682836,-0.3792288752000001,-9.220525412,3.6714618864,0.44872207,1.03878048,-3.78798149,,,
imu,399.691657,-0.3846122504,-9.224712481600001,3.6660785112,0.12721494,0.9714882899999999,-3.72816621,,,
imu,399.700478,-0.406743904,-9.1930103832,3.654713608,-0.16438455,0.8967191899999998,-3.78798149,,,
imu,399.709299,-0.4294737104000001,-9.155326756800001,3.6463394688,-0.31392275,0.76213481,-3.80293531,,,
imu,399.71812,-0.4450256832000001,-9.134989561600001,3.6451431632,-0.24663056,0.7920424499999998,-3.59358183,,,
imu,399.726941,-0.4528016696000001,-9.1224283528,3.6266004264,-0.7401066199999999,0.94905756,-3.45152054,,,
imu,399.735762,-0.4677554896000001,-9.121830200000002,3.6289930376,-0.91955246,1.11354958,-3.24216706,,,
imu,399.744241,-0.4809148512,-9.138578478400001,3.624805968,-1.0989983,1.4275798,-2.80850628,,,
imu,399.752719,-0.4779240872000001,-9.1331951032,3.5823371192,-1.21862886,1.96591732,-2.62906044,,,
imu,399.761198,-0.4892889904,-9.103885616000001,3.5685796048,-1.48779762,2.54163939,-2.35989168,,,
imu,399.769677,-0.4701481008,-9.069790906400002,3.558411007200001,-1.4728438,3.16969983,-1.90380017,,,
imu,399.778156,-0.4420349192,-9.059024156000001,3.546447951200001,-1.44293616,3.86505246,-1.46266248,,,
imu,399.786635,-0.4187069600000001,-9.044070336,3.523718144800001,-1.41302852,4.567882,-1.23087827,,,
imu,399.795113,-0.3762381112000001,-9.053042628,3.5219236864,-1.00927538,5.12117334,-1.26078591,,,
imu,399.803592,-0.3343674152,-9.060220461600002,3.5249144504,-0.8821679099999999,5.67446468,-1.36546265,,,
imu,399.812071,-0.2895059552,-9.0189479184,3.504577255200001,-0.58309151,5.99597181,-1.41032411,,,
imu,399.82055,-0.2320832864,-8.9806661392,3.5039791024,-0.26906129,6.10812546,-1.66453905,,,
imu,399.829029,-0.1692772424,-8.992629195200001,3.511755088800001,0.3216146,6.07074091,-2.04586146,,,
imu,399.837507,-0.1387714496,-9.039285113600002,3.5027827968,0.9646288599999999,5.74175687,-2.45709151,,,
imu,399.845986,-0.116639796,-9.084146573600002,3.507568019200001,1.24127453,5.38286519,-2.92065993,,,
imu,399.854465,-0.09869521200000002,-9.111063449600001,3.5249144504,1.40576655,4.91181986,-3.1973056,,,
imu,399.862944,-0.08314323920000001,-9.117643130400001,3.5183347696,1.64502767,4.46320526,-3.29450543,,,
imu,399.871423,-0.1010878232,-9.119437588800002,3.5129513944,1.88428879,3.85757555,-3.36179762,,,
imu,399.879901,-0.1238176296,-9.1373821728,3.5386719648,1.99644244,3.27437657,-3.15244414,,,
imu,399.88838,-0.1387714496,-9.146354464800002,3.5362793536,2.15345755,2.79585433,-2.91318302,,,
imu,399.896859,-0.1423603664,-9.175663952,3.536877506400001,2.23570356,2.39210119,-2.51690679,,,
imu,399.905338,-0.1483418944,-9.202580828,3.5398682704,2.53477996,1.90610204,-2.32250713,,,
imu,399.913817,-0.161501256,-9.173869493600002,3.5225218392,2.37028794,1.56964109,-2.34493786,,,
imu,399.922295,-0.191408896,-9.152335992800001,3.5267089088,2.27308811,1.06868812,-2.38232241,,,
imu,399.930774,-0.2243073,-9.1499433816,3.515942158400001,2.18336519,0.7696117199999999,-2.56924516,,,
imu,399.939253,-0.2619909264,-9.1164468248,3.504577255200001,2.23570356,0.4854891399999999,-2.64401426,,,
imu,399.947714,-0.2984782472,-9.098502240800002,3.5177366168,2.10111918,0.3733354899999997,-2.65896808,,,
imu,399.956175,-0.3367600264,-9.062613072800001,3.490221588,2.07121154,0.5752120599999997,-2.77112173,,,
imu,399.964636,-0.3553027632,-9.054837086400001,3.491417893600001,2.25065738,0.8219500899999996,-2.75616791,,,
imu,399.973097,-0.3696584304000001,-9.0787631984,3.4985957272,2.15345755,0.9939190199999999,-2.81598319,,,
imu,399.981558,-0.3750418056000001,-9.098502240800002,3.488427129600001,2.12354991,1.34533379,-3.07767504,,,
imu,399.990019,-0.3780325696000001,-9.114652366400001,3.4956049632,1.98148862,1.56964109,-3.43656672,,,
imu,399.99848,-0.391790084,-9.1200357416,3.493810504800001,1.94410407,1.68179474,-3.9449966,,,
imu,400.006941,-0.3953790008,-9.138578478400001,3.49919388,1.68988913,1.77899457,-4.49828794,,,
imu,400.015402,-0.3923882368,-9.145756312000001,3.5015864912,1.39081273,1.88367131,-4.954379449999999,,,
imu,400.023863,-0.4013605288,-9.176860257600001,3.493810504800001,1.31604363,2.01825569,-5.35813259,,,
imu,400.032324,-0.3876030144000001,-9.1930103832,3.5015864912,1.22632071,1.98834805,-5.67216281,,,
imu,400.040785,-0.3870048616000001,-9.218132800800001,3.4944086576,0.9646288599999999,1.86124058,-5.79179337,,,
imu,400.049246,-0.3929863896,-9.231890315200001,3.511156936,0.55339881,1.65936401,-5.86656247,,,
imu,400.057707,-0.4079402096,-9.225310634400001,3.5135495472,0.29170696,1.45001053,-6.0385314,,,
imu,400.066168,-0.4163143488000001,-9.216338342400002,3.5129513944,-0.17186146,1.3528107,-6.046008309999999,,,
imu,400.074629,-0.4300718632,-9.229497704000002,3.5249144504,-0.40364567,1.09859576,-5.86656247,,,
imu,400.08309,-0.4384460024000001,-9.237273690400002,3.518932922400001,-0.43355331,0.80699627,-5.57496298,,,
imu,400.091551,-0.4528016696000001,-9.2271050928,3.5033809496,-0.63542988,0.6574580699999997,-5.53757843,,,
imu,400.100012,-0.4767277816000001,-9.2271050928,3.5183347696,-0.8821679099999999,0.41819695,-5.43290169,,,
imu,400.108473,-0.4958686712000001,-9.239666301600002,3.5273070616,-1.18124431,0.2611818399999999,-5.13382529,,,
imu,400.116934,-0.5114206440000001,-9.246245982400001,3.5225218392,-1.50275144,0.3284740299999998,-4.976810179999999,,,
imu,400.125395,-0.5221873944000001,-9.216338342400002,3.5039791024,-1.7719202,0.2237972899999998,-4.92447181,,,
imu,400.133856,-0.5293652280000001,-9.1684861184,3.5057735608,-2.24296553,0.06678217999999969,-4.87213344,,,
imu,400.142317,-0.5473098120000001,-9.1272135752,3.4997920328,-2.57942648,0.1565051,-4.602964679999999,,,
imu,400.150782,-0.5610673264,-9.132596950400002,3.4896234352,-2.53456502,0.4256738599999998,-4.29641137,,,
imu,400.159247,-0.5718340768000001,-9.108670838400002,3.4686880872,-2.54951884,0.70231953,-3.97490424,,,
imu,400.167711,-0.5724322296000001,-9.062613072800001,3.462108406400001,-2.5196112,0.86681155,-3.57862801,,,
imu,400.176176,-0.565254396,-9.032705432800002,3.451939808800001,-2.48222665,1.03878048,-3.15244414,,,
imu,400.184641,-0.5640580904000001,-8.996816264800001,3.428611849600001,-2.08595042,1.47991817,-2.79355246,,,
imu,400.193106,-0.5407301312,-8.983058750400001,3.4322007664,-1.36816706,1.8761944,-2.56176825,,,
imu,400.201571,-0.5395338256000001,-9.009975626400001,3.444163822400001,-0.5980453299999999,2.13788625,-2.47204533,,,
imu,400.210036,-0.5413282840000001,-9.021938682400002,3.431004460800001,-0.17186146,2.36967046,-2.44213769,,,
imu,400.218501,-0.5329541448,-9.006984862400001,3.427415544,0.4861066199999999,2.66126995,-2.41970696,,,
imu,400.226966,-0.5377393672000002,-9.0159571544,3.4351915304,0.91229049,2.78837742,-2.44213769,,,
imu,400.23543,-0.517402172,-9.038088808000001,3.4429675168,1.45062801,3.10988455,-2.45709151,,,
imu,400.243895,-0.5162058664000001,-9.087735490400002,3.4489490448,1.83942733,3.38653022,-2.41223005,,,
imu,400.25236,-0.5030465048,-9.140372936800002,3.4627065592,2.06373463,3.55102224,-2.35241477,,,
imu,400.260825,-0.4910834488,-9.1708787296,3.4758659208,2.13102682,3.6706528,-2.28512258,,,
imu,400.26929,-0.4839056152000001,-9.1882251608,3.457921336800001,1.9665348,3.797760269999999,-2.26269185,,,
imu,400.277754,-0.4797185456,-9.2061697448,3.470482545600001,1.79456587,4.0444983,-2.50942988,,,
imu,400.286219,-0.4761296288000001,-9.2139457312,3.4549305728,1.76465823,4.1192674,-2.38979932,,,
imu,400.294684,-0.4731388648000001,-9.2169364952,3.466295476,1.52539711,4.126744309999999,-2.36736859,,,
imu,400.303149,-0.4665591840000001,-9.246245982400001,3.4734733096,1.07678251,4.26132869,-2.5243837,,,
imu,400.311614,-0.4288755576000001,-9.249834899200001,3.4639028648,0.8524752099999999,4.35105161,-2.54681443,,,
imu,400.320078,-0.4031549872,-9.262396108,3.4740714624,0.64312173,4.26132869,-2.70382954,,,
imu,398.744063,,,,,,,-96.7908996,169.6373244,127.9619888
imu,398.845595,,,,,,,-97.0228364,169.30773,127.730052
imu,398.947188,,,,,,,-97.10828680000002,170.4307924,127.91316
imu,399.04869,,,,,,,-96.8275212,170.772594,127.3394216
imu,399.150252,,,,,,,-97.9505836,172.3107012,126.08208
imu,399.251815,,,,,,,-94.6912612,172.1520076,122.5175776
imu,399.353377,,,,,,,-97.70643960000001,172.8234036,125.5571704
imu,399.45497,,,,,,,-97.0228364,172.1031788,122.3466768
imu,400.328543,-0.3899956256000001,-9.260003496800001,3.4710806984,0.09730729999999999,4.05197521,-3.01785976,,,
imu,400.337008,-0.4037531400000001,-9.250433052000002,3.472875156800001,-0.52327623,3.78280645,-3.38422835,,,
imu,400.345473,-0.4073420568000001,-9.2312921624,3.474669615200001,-0.8672140899999999,3.64822207,-3.4216129,,,
imu,400.353934,-0.4097346680000001,-9.224712481600001,3.474669615200001,-0.9943215599999999,3.40896095,-3.3468438,,,
imu,400.362395,-0.4205014184,-9.1924122304,3.457921336800001,-1.49527453,3.04259236,-3.4216129,,,
imu,400.370856,-0.4384460024000001,-9.1648972016,3.4740714624,-1.80930475,2.86314652,-3.35432071,,,
imu,400.379317,-0.4492127528000001,-9.139176631200002,3.4734733096,-1.86912003,2.75099287,-3.18982869,,,
imu,400.387778,-0.4659610312,-9.124820964000001,3.457921336800001,-1.78687402,2.55659321,-3.15244414,,,
imu,400.396239,-0.4946723656000001,-9.100296699200001,3.4531361144,-1.78687402,2.30237827,-3.15244414,,,
imu,400.4047,-0.5150095608,-9.0961096296,3.460912100800001,-1.60742818,2.13040934,-2.8982292,,,
imu,400.413161,-0.5389356728,-9.090128101600001,3.4501453504,-1.72705874,2.01825569,-2.83093701,,,
imu,400.421622,-0.5550857984,-9.084146573600002,3.4597157952,-1.37564397,2.16031698,-2.72626027,,,
imu,400.430083,-0.5867878968000001,-9.0961096296,3.466295476,-1.16629049,2.33228591,-2.55429134,,,
imu,400.438544,-0.5927694248,-9.127811728000001,3.4764640736,-1.12890594,2.7734236,-2.31503022,,,
imu,400.447005,-0.6172936896000001,-9.152934145600002,3.4896234352,-1.05413684,3.17717674,-2.11315365,,,
imu,400.455466,-0.6143029256000001,-9.173271340800001,3.4973994216,-1.14385976,3.65569898,-1.82903107,,,
imu,400.463927,-0.5921712720000001,-9.169084271200001,3.4854363656,-1.12890594,4.246374869999999,-1.73183124,,,
imu,400.472388,-0.5861897440000001,-9.146354464800002,3.492614199200001,-1.0989983,4.75480475,-1.78416961,,,
imu,400.480849,-0.5748248408000001,-9.151737840000001,3.497997574400001,-1.01675229,5.22585008,-1.67201596,,,
imu,400.48931,-0.5538894928000001,-9.154728604,3.4896234352,-0.9943215599999999,5.58474176,-1.73930815,,,
imu,400.497771,-0.5293652280000001,-9.154728604,3.481249296000001,-1.14385976,5.876341249999999,-1.87389253,,,
imu,400.506232,-0.5191966304000001,-9.157719368,3.4950068104,-1.06909066,6.04831018,-2.13558438,,,
imu,400.514693,-0.5180003248000001,-9.173869493600002,3.504577255200001,-1.00179847,6.28009439,-2.11315365,,,
imu,400.523154,-0.5036446576000001,-9.162504590400001,3.487230824,-1.06161375,6.36981731,-2.11315365,,,
imu,400.531615,-0.5012520464000001,-9.142167395200001,3.490819740800001,-1.00927538,6.444586409999999,-2.02343073,,,
imu,400.540076,-0.4982612824000001,-9.143961853600002,3.502184644000001,-1.05413684,6.564216969999999,-2.09072292,,,
imu,400.548537,-0.4862982264000001,-9.172673188000001,3.5105587832,-1.18872122,6.52683242,-2.05333837,,,
imu,400.557655,-0.4809148512,-9.171476882400002,3.5009883384,-1.49527453,6.64646298,-2.00847691,,,
imu,400.566773,-0.4803166984,-9.13678402,3.493212352,-1.53265908,6.579170789999999,-1.88136944,,,
imu,400.575891,-0.4761296288000001,-9.115250519200002,3.4920160464,-1.71210492,6.63898607,-1.79912343,,,
imu,400.585009,-0.4743351704000001,-9.1014930048,3.4854363656,-1.64481273,6.54178624,-1.67949287,,,
imu,400.594128,-0.4785222400000001,-9.105081921600002,3.5009883384,-1.67472037,6.48197096,-1.57481613,,,
imu,400.603246,-0.4581850448000001,-9.118241283200001,3.489025282400001,-1.45041307,6.556740059999999,-1.31312428,,,
imu,400.612364,-0.4462219888000001,-9.110465296800001,3.4920160464,-1.45041307,6.579170789999999,-1.12620153,,,
imu,400.621482,-0.4330626272,-9.1092689912,3.4968012688,-1.60742818,6.59412461,-1.12620153,,,
imu,400.6306,-0.424688488,-9.1200357416,3.512353241600001,-1.44293616,6.54178624,-1.1037708,,,
imu,400.639718,-0.4181088072000001,-9.128409880800001,3.5039791024,-1.35321324,6.51935551,-1.06638625,,,
imu,400.648836,-0.391790084,-9.119437588800002,3.515942158400001,-1.45788998,6.317478939999999,-1.21592445,,,
imu,400.657954,-0.3804251808,-9.107474532800001,3.508166172,-1.43545925,6.14551001,-1.35050883,,,
imu,400.667072,-0.3660695136000001,-9.0996985464,3.504577255200001,-1.27844414,5.988494899999999,-1.44023175,,,
imu,400.676191,-0.3313766512,-9.111661602400002,3.514745852800001,-1.19619813,5.79409524,-1.38041647,,,
imu,400.685309,-0.3134320672,-9.115250519200002,3.514745852800001,-1.35321324,5.52492648,-1.44770866,,,
imu,400.694427,-0.3080486920000001,-9.1331951032,3.529699672800001,-1.40555161,5.263234629999999,-1.61220068,,,
imu,400.703545,-0.3086468448,-9.132596950400002,3.509960630400001,-1.21862886,4.92677368,-1.54490849,,,
imu,400.712663,-0.3038616224,-9.100296699200001,3.5009883384,-1.16629049,4.59778964,-1.41780102,,,
imu,400.721781,-0.2936930248,-9.089529948800001,3.511156936,-1.07656757,4.35852852,-1.20844754,,,
imu,400.730899,-0.3026653168,-9.096707782400001,3.5087643248,-1.12142903,4.18655959,-1.1785399,,,
imu,400.740017,-0.2930948720000001,-9.0996985464,3.518932922400001,-1.10647521,4.01459066,-1.12620153,,,
imu,400.749136,-0.2673743016,-9.095511476800002,3.5416627288,-1.0989983,3.73794499,-1.18601681,,,
imu,400.758254,-0.2823281216,-9.110465296800001,3.554223937600001,-1.03170611,3.58092988,-1.50004703,,,
imu,400.766451,-0.3158246784000001,-9.126017269600002,3.5673832992,-1.21862886,3.42391477,-1.80660034,,,
imu,400.774649,-0.3283858872000001,-9.152335992800001,3.581140813600001,-1.44293616,3.40896095,-1.81407725,,,
imu,400.782847,-0.3194135952000001,-9.160111979200002,3.5895149528,-1.52518217,3.45382241,-1.63463141,,,
imu,400.791045,-0.3265914288,-9.150541534400002,3.579346355200001,-1.61490509,3.63326825,-1.71687742,,,
imu,400.799243,-0.3367600264,-9.13678402,3.5805426608,-1.71210492,3.76037572,-1.8514618,,,
imu,400.80744,-0.3421434016,-9.123026505600002,3.5661869936,-1.65228964,3.95477538,-1.73930815,,,
imu,400.815638,-0.3289840400000001,-9.090128101600001,3.5614017712,-1.36069015,4.02206757,-1.64210832,,,
imu,400.823836,-0.320011748,-9.065005684,3.5512331736,-1.20367504,4.20899032,-1.87389253,,,
imu,400.832034,-0.3152265256,-9.063211225600002,3.535083048000001,-0.71019898,4.1192674,-2.09819983,,,
imu,400.840232,-0.3008708584000001,-9.049453711200002,3.518932922400001,0.08983038999999998,4.07440594,-2.24773803,,,
imu,400.848429,-0.3020671640000001,-9.0159571544,3.493810504800001,0.26927623,4.00711375,-2.4496146,,,
imu,400.856627,-0.3212080536,-8.990236584000002,3.4985957272,0.73284465,3.73046808,-2.81598319,,,
imu,400.864825,-0.35889168,-9.017751612800001,3.4944086576,1.38333582,3.57345297,-3.05524431,,,
imu,400.873023,-0.3840140976,-9.065005684,3.4800529904,1.86185806,3.43886859,-3.08515195,,,
imu,400.88122,-0.3959771536000001,-9.093717018400001,3.4597157952,1.98148862,3.55102224,-2.92065993,,,
imu,400.889418,-0.4097346680000001,-9.097305935200001,3.4650991704,2.01139626,3.73046808,-2.71130645,,,
imu,400.897616,-0.4205014184,-9.1164468248,3.470482545600001,2.03382699,3.81271409,-2.49447606,,,
imu,400.905814,-0.4121272792,-9.132596950400002,3.4525379616,2.25065738,3.90243701,-2.32250713,,,
imu,400.914012,-0.4169125016,-9.154728604,3.446556433600001,2.116073,4.149175039999999,-2.16549202,,,
imu,400.922209,-0.4103328208,-9.1720750352,3.4429675168,1.74970441,4.22394414,-2.24026112,,,
imu,400.930407,-0.4115291264,-9.178056563200002,3.4501453504,1.90671952,4.30619015,-2.12810747,,,
imu,400.938605,-0.3870048616000001,-9.2061697448,3.4549305728,1.64502767,4.33609779,-2.04586146,,,
imu,400.946803,-0.391790084,-9.203178980800002,3.434593377600001,1.54035093,4.37348234,-2.06081528,,,
imu,400.955001,-0.3953790008,-9.203777133600001,3.431004460800001,1.33099745,4.433297619999999,-2.06081528,,,
imu,400.963459,-0.3792288752000001,-9.2067678976,3.4351915304,1.1440747,4.478159079999999,-2.02343073,,,
imu,400.971917,-0.3630787496,-9.228899551200001,3.446556433600001,1.18145925,4.552928179999999,-1.67949287,,,
imu,400.980376,-0.3600879856,-9.234881079200001,3.428611849600001,1.10669015,4.44825144,-1.69444669,,,
imu,400.988834,-0.3469286240000001,-9.2300958568,3.4250229328,1.01696723,4.4183438,-1.63463141,,,
imu,400.997293,-0.3307784984000001,-9.212151272800002,3.4160506408,0.71789083,4.3435747,-1.57481613,,,
imu,401.005751,-0.311039456,-9.1672898128,3.406480196,0.5982602699999999,4.36600543,-1.36546265,,,
imu,401.01421,-0.2895059552,-9.146952617600002,3.421434016000001,0.30666078,4.32862088,-1.38041647,,,
imu,401.022668,-0.2416537312,-9.193608536000001,3.4160506408,0.26927623,4.16412886,-1.52247776,,,
imu,401.031127,-0.206362716,-9.2169364952,3.396311598400001,0.17955331,3.70056044,-1.84398489,,,
imu,401.039585,-0.1926052016,-9.214543884000001,3.391526376000001,0.08983038999999998,3.2220382,-2.25521494,,,
imu,401.048044,-0.1710717008,-9.1930103832,3.4022931264,-0.09709236,2.67622377,-2.50195297,,,
imu,401.056502,-0.1716698536,-9.188823313600002,3.4070783488,-0.31392275,2.09302479,-2.68887572,,,
imu,401.06496,-0.1728661592,-9.212151272800002,3.407676501600001,-0.46346095,1.577118,-2.90570611,,,
imu,401.073419,-0.2009793408,-9.245647829600001,3.409470960000001,-0.73262971,1.01634975,-3.0477674,,,
imu,401.081877,-0.2243073,-9.249834899200001,3.4238266272,-1.10647521,0.4854891399999999,-2.91318302,,,
imu,401.090336,-0.2446444952,-9.237273690400002,3.4280136968,-1.5476129,0.08173599999999981,-2.95804448,,,
imu,401.098794,-0.2715613712,-9.228301398400001,3.4351915304,-1.61490509,-0.20986349,-2.89075229,,,
imu,401.107253,-0.3188154424,-9.217534648,3.4447619752,-1.88407385,-0.4491246100000001,-2.96552139,,,
imu,401.115711,-0.352910152,-9.1858325496,3.4531361144,-2.01118132,-0.6210935399999999,-3.04029049,,,
imu,401.12417,-0.391790084,-9.149345228800001,3.4459582808,-2.04856587,-0.7706317400000002,-3.14496723,,,
imu,399.556489,,,,,,,-97.53553880000001,172.420566,126.0454584
imu,399.658174,,,,,,,-97.3280164,171.9200708,125.532756
imu,399.759584,,,,,,,-97.18153000000001,171.505026,126.3506384
imu,399.861177,,,,,,,-97.608782,172.35953,125.8257288
imu,399.962831,,,,,,,-97.29139479999999,171.9078636,126.1919448
imu,400.064302,,,,,,,-97.35243080000001,172.0055212,126.2163592
imu,400.165864,,,,,,,-95.2161708,170.3209276,125.4473056
imu,400.267427,,,,,,,-97.6576108,171.4195756,127.1074848
imu,401.149545,-0.481513004,-9.060220461600002,3.460912100800001,-1.51770526,-0.03041764999999996,-2.91318302,,,
imu,401.158003,-0.4886908376000001,-9.027920210400001,3.456126878400001,-1.16629049,0.47801223,-2.71130645,,,
imu,401.166559,-0.4845037680000001,-9.005190404000002,3.4668936288,-0.7401066199999999,0.9565344699999998,-2.59167589,,,
imu,401.175114,-0.4833074624000001,-9.005190404000002,3.472875156800001,-0.48589168,1.41262598,-2.40475314,,,
imu,401.183669,-0.4737370176,-9.023733140800001,3.4758659208,0.09730729999999999,1.89862513,-2.35989168,,,
imu,401.192224,-0.4599795032,-9.007583015200002,3.456126878400001,0.7104139199999999,2.22760917,-2.36736859,,,
imu,401.200779,-0.4450256832000001,-8.9884421256,3.4698843928,1.38333582,2.24256299,-2.38232241,,,
imu,401.209334,-0.4480164472000001,-9.006984862400001,3.4830437544,1.75718132,2.324809,-2.64401426,,,
imu,401.217889,-0.4438293776000001,-9.024331293600001,3.4878289768,2.23570356,2.38462428,-2.88327538,,,
imu,401.226444,-0.4199032656,-9.042874030400002,3.4985957272,2.69179507,2.31733209,-2.85336774,,,
imu,401.234999,-0.43366078,-9.072183517600001,3.5033809496,2.97591765,2.18274771,-2.80850628,,,
imu,401.243554,-0.4348570856000001,-9.068594600800001,3.502184644000001,3.3123786,2.07059406,-2.75616791,,,
imu,401.252109,-0.4222958768,-9.09192256,3.511755088800001,3.25256332,2.09302479,-2.54681443,,,
imu,401.260665,-0.4294737104000001,-9.136185867200002,3.5273070616,3.64136264,2.05564024,-2.1505382,,,
imu,401.26922,-0.4276792520000001,-9.170280576800002,3.523718144800001,3.56659354,2.13040934,-2.00847691,,,
imu,401.277775,-0.4199032656,-9.1924122304,3.535681200800001,3.47687062,2.08554788,-1.88136944,,,
imu,401.28627,-0.430670016,-9.198393758400002,3.541064576,3.2376095,2.12293243,-1.91875399,,,
imu,401.294826,-0.4342589328000001,-9.216338342400002,3.539270117600001,3.12545585,2.24256299,-1.81407725,,,
imu,401.303381,-0.439642308,-9.2312921624,3.5249144504,2.61702597,2.19022462,-1.94866163,,,
imu,401.311936,-0.451605364,-9.2408626072,3.517138464,2.3403803,2.23508608,-2.09819983,,,
imu,401.320491,-0.4761296288000001,-9.221123564800001,3.486632671200001,1.84690424,2.29490136,-2.38979932,,,
imu,401.329046,-0.4773259344000001,-9.197795605600001,3.479454837600001,1.18145925,2.45939338,-2.6739219,,,
imu,401.337601,-0.4767277816000001,-9.198393758400002,3.4597157952,0.97210577,2.63136231,-2.8982292,,,
imu,401.346156,-0.481513004,-9.204973439200002,3.4393786,0.74779847,2.72856214,-3.06272122,,,
imu,401.354711,-0.4886908376000001,-9.1918140776,3.417246946400001,0.64312173,2.98277708,-3.23469015,,,
imu,401.363266,-0.4821111568000001,-9.175663952,3.4016949736,0.59078336,3.13979219,-3.39918217,,,
imu,401.371636,-0.4821111568000001,-9.1654953544,3.397507904,0.57582954,3.30428421,-3.26459779,,,
imu,401.380005,-0.4647647256,-9.179851021600001,3.386143000800001,0.57582954,3.46877623,-3.15992105,,,
imu,401.388375,-0.4791203928000001,-9.1924122304,3.361618736,0.71789083,3.69308353,-3.07767504,,,
imu,401.396744,-0.4779240872000001,-9.188823313600002,3.3502538328,0.7403215599999999,3.99215993,-2.89075229,,,
imu,401.405114,-0.4647647256,-9.178056563200002,3.3364963184,0.6954601,4.11179049,-2.77859864,,,
imu,401.413483,-0.4659610312,-9.1858325496,3.3275240264,0.65807555,4.388436159999999,-2.55429134,,,
imu,401.421852,-0.4522035168,-9.181047327200002,3.3179535816,0.7253677399999999,4.523020539999999,-2.39727623,,,
imu,401.430222,-0.4390441552000001,-9.190617772000001,3.313766512,0.74779847,4.73237402,-2.21783039,,,
imu,401.438591,-0.4366515440000001,-9.193608536000001,3.292831164,0.7253677399999999,4.7921893,-2.18044584,,,
imu,401.446961,-0.4330626272,-9.187627008000002,3.288045941600001,0.56835263,4.87443531,-2.23278421,,,
imu,401.45533,-0.4294737104000001,-9.186430702400001,3.293429316800001,0.51601426,5.06135806,-2.23278421,,,
imu,401.4637,-0.4390441552000001,-9.201982675200002,3.2850551776,0.78518302,5.07631188,-2.23278421,,,
imu,401.472069,-0.4366515440000001,-9.203777133600001,3.280868108,0.8375213899999999,5.23332699,-2.21783039,,,
imu,401.480439,-0.4097346680000001,-9.204973439200002,3.277877344000001,0.79265993,5.420249739999999,-2.26269185,,,
imu,401.488808,-0.3935845424,-9.2127494256,3.2784754968,0.83004448,5.3903421,-2.36736859,,,
imu,401.497177,-0.3792288752000001,-9.229497704000002,3.2772791912,0.8375213899999999,5.41277283,-2.38232241,,,
imu,401.505547,-0.3624805968,-9.2312921624,3.275484732800001,0.8524752099999999,5.43520356,-2.2253073,,,
imu,401.513916,-0.3606861384,-9.2312921624,3.2784754968,0.7552753799999999,5.397819009999999,-2.2253073,,,
imu,401.522286,-0.3576953744,-9.2336847736,3.2886440944,0.67302937,5.27818845,-2.12063056,,,
imu,401.530655,-0.3337692624,-9.255816427200001,3.286849636000001,0.41133752,5.19594244,-2.05333837,,,
imu,401.539025,-0.311039456,-9.267779483200002,3.2850551776,0.31413769,5.12865025,-1.89632326,,,
imu,401.547394,-0.311039456,-9.2510312048,3.283858872000001,0.4711528,5.00901969,-1.79164652,,,
imu,401.555764,-0.3086468448,-9.2432552184,3.296420080800001,0.21693786,4.94920441,-1.7766927,,,
imu,401.564133,-0.3056560808,-9.245049676800003,3.3012053032,0.2468455,4.65012801,-1.67201596,,,
imu,401.572961,-0.3104413032000001,-9.245647829600001,3.3012053032,-0.09709236,4.63517419,-1.64958523,,,
imu,401.581788,-0.3020671640000001,-9.228899551200001,3.280868108,-0.16438455,4.44825144,-1.84398489,,,
imu,401.590616,-0.3170209840000001,-9.224114328800002,3.2946256224,-0.25410747,4.28375942,-1.97856927,,,
imu,401.599443,-0.3098431504,-9.228899551200001,3.2982145392,-0.23167674,4.216467229999999,-2.03838455,,,
imu,401.608271,-0.3056560808,-9.2366755376,3.286849636000001,-0.39616876,4.02954448,-2.27764567,,,
imu,401.617098,-0.3080486920000001,-9.220525412,3.274288427200001,-0.53823005,3.96225229,-2.47204533,,,
imu,401.625926,-0.305057928,-9.1858325496,3.282064413600001,-0.6279529699999999,3.84262173,-2.69635263,,,
imu,401.634753,-0.2990764,-9.2067678976,3.291634858400001,-0.54570696,3.73794499,-2.84589083,,,
imu,401.643581,-0.305057928,-9.24146076,3.2832607192,-0.5307531400000001,3.63326825,-2.93561375,,,
imu,401.652408,-0.3068523864000001,-9.225310634400001,3.282064413600001,-0.5756146,3.40148404,-3.33188998,,,
imu,401.661236,-0.3128339144,-9.202580828,3.2994108448,-0.5756146,3.13231528,-3.5711511,,,
imu,401.670064,-0.331974804,-9.228301398400001,3.31974804,-0.8672140899999999,2.81080815,-3.87770441,,,
imu,401.678891,-0.3576953744,-9.262994260800001,3.3370944712,-1.25601341,2.42948574,-3.96742733,,,
imu,401.687719,-0.3702565832000001,-9.285724067200002,3.335898165600001,-1.54013599,2.00330187,-3.87770441,,,
imu,401.696546,-0.3762381112000001,-9.2755554696,3.332309248800001,-1.57004363,1.7266562,-3.80293531,,,
imu,401.705374,-0.4222958768,-9.250433052000002,3.335898165600001,-1.98875059,1.56216418,-3.7206893,,,
imu,401.714201,-0.4575868920000001,-9.228899551200001,3.3478612216,-2.46727283,1.56216418,-3.45152054,,,
imu,401.723029,-0.4797185456,-9.232488468000001,3.3484593744,-2.5196112,1.59207182,-2.96552139,,,
imu,401.731856,-0.4928779072000001,-9.2271050928,3.340683388,-2.49718047,1.8761944,-2.42718387,,,
imu,401.740684,-0.5084298800000001,-9.2312921624,3.331112943200001,-2.60933412,2.10797861,-2.12063056,,,
imu,401.749511,-0.5066354216000001,-9.209758661600002,3.332309248800001,-2.60185721,2.28742445,-1.83650798,,,
imu,401.758339,-0.5084298800000001,-9.173271340800001,3.323935109600001,-2.64671867,2.71360832,-1.82903107,,,
imu,401.767166,-0.5048409632,-9.136185867200002,3.312570206400001,-2.4448421,3.21456129,-1.85893871,,,
imu,401.775634,-0.4970649768000001,-9.145158159200001,3.3155609704,-2.04856587,3.56597606,-1.9262309,,,
imu,401.784101,-0.4964668240000001,-9.145756312000001,3.298812692000001,-2.01118132,3.96225229,-2.1505382,,,
imu,401.792569,-0.4767277816000001,-9.142765548000002,3.307784984,-1.72705874,4.478159079999999,-2.41970696,,,
imu,401.801036,-0.4581850448000001,-9.140372936800002,3.325729568,-1.67472037,4.82957385,-2.57672207,,,
imu,401.809503,-0.430670016,-9.153532298400002,3.331711096,-1.62985891,5.20341935,-2.69635263,,,
imu,401.817971,-0.4019586816,-9.1684861184,3.318551734400001,-1.40555161,5.42772665,-2.64401426,,,
imu,401.826438,-0.3576953744,-9.161308284800002,3.3293184848,-1.62985891,5.55483412,-2.74121409,,,
imu,401.834905,-0.3433397072,-9.1720750352,3.346664916,-1.46536689,5.48754193,-2.84589083,,,
imu,401.843373,-0.31403022,-9.1858325496,3.3484593744,-1.28592105,5.40529592,-2.85336774,,,
imu,401.85184,-0.305057928,-9.184038091200001,3.3364963184,-1.33825942,5.20341935,-2.83093701,,,
imu,401.860307,-0.3014690112,-9.171476882400002,3.340683388,-1.49527453,4.92677368,-2.83841392,,,
imu,401.868775,-0.2972819416,-9.184636244000002,3.3646095,-1.57004363,4.672558739999999,-2.76364482,,,
imu,401.877242,-0.2847207328,-9.201982675200002,3.3759744032,-1.42050543,4.433297619999999,-2.53933752,,,
imu,401.885709,-0.287113344,-9.193608536000001,3.3490575272,-1.30835178,4.17908268,-2.30755331,,,
imu,401.894177,-0.2877114968,-9.159513826400001,3.341879693600001,-1.4728438,3.90243701,-2.1505382,,,
imu,401.902644,-0.2889078024000001,-9.142765548000002,3.3508519856,-1.48779762,3.66317589,-2.20287657,,,
imu,401.911112,-0.2913004136,-9.149345228800001,3.344870457600001,-1.30087487,3.49120696,-2.30755331,,,
imu,401.919579,-0.3080486920000001,-9.159513826400001,3.3442723048,-1.03170611,3.2968073,-2.49447606,,,
imu,401.928046,-0.3056560808,-9.160111979200002,3.341879693600001,-0.93450628,3.10240764,-2.75616791,,,
imu,401.936514,-0.3307784984000001,-9.179851021600001,3.396311598400001,-0.84478336,2.94539253,-2.94309066,,,
imu,401.944981,-0.3236006648,-9.260003496800001,3.4220321688,-0.67281443,2.6238854,-3.32441307,,,
imu,401.953448,-0.3463304712,-9.3036686512,3.4220321688,-0.81487572,2.18274771,-3.77302767,,,
imu,401.961916,-0.3882011672000001,-9.272564705600002,3.4268173912,-1.0989983,1.94348659,-4.28145755,,,
imu,400.368989,,,,,,,-95.1551348,170.5772788,124.3242432
imu,400.470583,,,,,,,-97.76747560000001,171.5294404,126.2163592
imu,400.572114,,,,,,,-97.547746,171.321918,124.739288
imu,400.673677,,,,,,,-97.6820252,171.1876388,126.6680256
imu,400.775239,,,,,,,-97.3768452,170.9923236,126.1187016
imu,400.876924,,,,,,,-97.82851160000001,171.44399,126.2407736
imu,400.978364,,,,,,,-97.6209892,171.2730892,126.509332
imu,401.079958,,,,,,,-97.5843676,171.260882,126.0942872
imu,401.970383,-0.4276792520000001,-9.242058912800001,3.4597157952,-1.62985891,1.71917929,-4.51324176,,,
imu,401.978849,-0.4689517952000001,-9.220525412,3.454332420000001,-1.9962275,1.43505671,-4.453426479999999,,,
imu,401.987315,-0.4970649768000001,-9.209758661600002,3.442369364000001,-2.45231901,1.41262598,-4.37118047,,,
imu,401.995781,-0.5144114080000001,-9.183439938400001,3.4381822944,-2.85607215,1.45001053,-4.13939626,,,
imu,402.004247,-0.5257763112000001,-9.134989561600001,3.4220321688,-2.93831816,1.68927165,-3.80293531,,,
imu,402.012713,-0.5275707696,-9.098502240800002,3.426219238400001,-3.17757928,1.73413311,-3.45152054,,,
imu,402.02118,-0.5389356728,-9.0925207128,3.419041404800001,-3.10281018,1.9509635,-3.15992105,,,
imu,402.029646,-0.5263744640000001,-9.079959504000001,3.400498668,-2.65419558,2.10797861,-2.8982292,,,
imu,402.038112,-0.5162058664000001,-9.093717018400001,3.414854335200001,-2.35511918,2.40705501,-2.73373718,,,
imu,402.046578,-0.5078317272000001,-9.125419116800002,3.431004460800001,-2.07847351,2.48182411,-2.63653735,,,
imu,402.055044,-0.5132151024,-9.138578478400001,3.4417712112,-2.04108896,2.51920866,-2.64401426,,,
imu,402.06351,-0.5018501992000001,-9.1373821728,3.457921336800001,-1.88407385,2.72108523,-2.55429134,,,
imu,402.071976,-0.4671573368000001,-9.1122597552,3.4507435032,-2.03361205,2.90800798,-2.35241477,,,
imu,402.080442,-0.4205014184,-9.102091157600002,3.457323184,-1.9214584,2.91548489,-2.25521494,,,
imu,402.088908,-0.3553027632,-9.0925207128,3.451341656,-2.10090424,2.93043871,-2.31503022,,,
imu,402.097374,-0.2703650656,-9.089529948800001,3.448350892000001,-1.95136604,2.84071579,-2.17296893,,,
imu,402.10584,-0.1979885768,-9.108072685600002,3.4405749056,-1.9962275,2.52668557,-1.97856927,,,
imu,402.114306,-0.1519308112,-9.115848672,3.4447619752,-1.80182784,2.13040934,-1.98604618,,,
imu,402.122773,-0.0723764888,-9.135587714400002,3.4459582808,-1.63733582,1.54721036,-1.75426197,,,
imu,402.131239,0.1250139352,-9.1266154224,3.414854335200001,-1.33078251,1.02382666,-1.36546265,,,
imu,402.139705,0.3792288752000001,-9.054837086400001,3.37956332,-0.90459864,-0.3818324200000003,-1.01404788,,,
imu,402.148171,0.517402172,-9.073379823200002,3.378965167200001,-0.53823005,-2.96136637,-1.1037708,,,
imu,402.156637,0.5814045216000001,-9.096707782400001,3.326327720800001,0.1720764,-6.20634531,-1.4028472,,,
imu,402.165103,0.6107140088,-9.097904088000002,3.3012053032,0.6281679099999999,-9.57843172,-1.69444669,,,
imu,402.173569,0.6382290376000002,-9.096707782400001,3.3119720536,1.33847436,-12.9280874,-1.35798574,,,
imu,402.182033,0.6172936896000001,-9.172673188000001,3.2611290656,1.84690424,-16.4422351,-0.91684805,,,
imu,402.190496,0.7458965416000001,-9.125419116800002,3.268306899200001,2.31047266,-20.0311519,-0.37103362,,,
imu,402.19896,0.6400234960000001,-9.1272135752,3.295821928000001,2.60954906,-24.25560605,0.09253480000000014,,,
imu,402.207423,0.4743351704000001,-9.159513826400001,3.265914288000001,2.90114855,-28.06883015,0.1897346300000002,,,
imu,402.215887,0.2829262744000001,-9.1750657992,3.258736454400001,3.34228624,-31.34371673,0.54862631,,,
imu,402.22435,0.08374139200000001,-9.176262104800001,3.2443807872,3.33480933,-33.99801978,1.40099405,,,
imu,402.232814,-0.1280046992,-9.214543884000001,3.2617272184,3.20770186,-35.84481655,1.85708556,,,
imu,402.241277,-0.3576953744,-9.2546201216,3.2712976632,3.36471697,-37.01121451,2.39542308,,,
imu,402.249741,-0.5598710208000001,-9.267779483200002,3.2533530792,3.29742478,-37.25795254,2.94123751,,,
imu,402.258204,-0.7399150136000001,-9.2641905664,3.2581383016,3.17779422,-36.87663013,3.6066825,,,
imu,402.266668,-0.9115848672000001,-9.279144386400002,3.270699510400001,2.58711833,-35.89715492,3.92071272,,,
imu,402.275132,-1.0605249144,-9.28632222,3.2886440944,2.116073,-34.30457309,3.8309898,,,
imu,402.283595,-1.1981000584,-9.304266804000001,3.295821928000001,1.63755076,-32.30076121,3.65902087,,,
imu,402.292059,-1.3021786456,-9.304266804000001,3.3059905256,1.26370526,-29.84085782,3.33751374,,,
imu,402.300522,-1.3733588288,-9.303070498400002,3.3269258736,0.53096808,-26.99963202,2.72440712,,,
imu,402.308986,-1.4397537896,-9.294098206400001,3.335898165600001,0.04496892999999999,-24.06120639,1.84960865,,,
imu,402.317449,-1.486409708,-9.280340692000001,3.3364963184,-0.53823005,-20.94333492,0.6832106900000001,,,
imu,402.325913,-1.5300748624,-9.268377636,3.355637208000001,-0.82982954,-17.60115615,-0.4458027199999999,,,
imu,402.334376,-1.552206516,-9.265386872,3.3490575272,-1.37564397,-14.18420828,-1.5523854,,,
imu,402.34284,-1.5653658776,-9.2271050928,3.346066763200001,-1.7719202,-10.81959878,-2.45709151,,,
imu,402.351303,-1.5444305296,-9.188823313600002,3.337692624000001,-2.01865823,-7.43255855,-3.36179762,,,
imu,402.359767,-1.513326584,-9.161308284800002,3.3430759992,-1.95884295,-4.17262579,-4.35622665,,,
imu,402.368231,-1.477437416,-9.170280576800002,3.3388889296,-2.16071952,-1.286538530000001,-5.42542478,,,
imu,402.376669,-1.4092479968,-9.160710132,3.3364963184,-2.1457657,1.59954873,-6.135731229999999,,,
imu,402.38513,-1.3255066048,-9.1499433816,3.349655680000001,-1.95136604,4.07440594,-6.659114929999999,,,
imu,402.393591,-1.2333910736,-9.145158159200001,3.3508519856,-1.95136604,6.11560237,-7.100252619999999,,,
imu,402.402052,-1.1640053488,-9.136185867200002,3.3598242776,-1.88407385,7.84276858,-7.145114079999999,,,
imu,402.410513,-1.0820584152,-9.135587714400002,3.355637208000001,-1.91398149,9.255904569999998,-7.249790819999999,,,
imu,402.418974,-1.0084856208,-9.131400644800001,3.3687965696,-1.6971511,10.35501034,-7.10772953,,,
imu,402.427435,-0.9289312984000001,-9.127811728000001,3.3693947224,-1.46536689,10.99054769,-6.816130039999999,,,
imu,402.435896,-0.8685178656000001,-9.126017269600002,3.3592261248,-1.50275144,11.54383903,-6.43480763,,,
imu,402.444357,-0.7943469184000002,-9.136185867200002,3.378965167200001,-1.51022835,11.76814633,-5.829177919999999,,,
imu,402.452818,-0.7321390272000001,-9.1236246584,3.361020583200001,-1.0989983,11.76814633,-5.09644074,,,
imu,402.461279,-0.6711274416,-9.096707782400001,3.3520482912,-0.8522602699999999,11.55879285,-4.42351884,,,
imu,402.46974,-0.6190881480000001,-9.0805576568,3.361020583200001,-0.66533752,10.93820932,-3.69825857,,,
imu,402.478201,-0.5754229936,-9.093118865600001,3.361618736,-0.47841477,10.15313377,-3.16739796,,,
imu,402.486662,-0.5425245896,-9.111063449600001,3.365207652800001,0.07487657,9.41291968,-2.59167589,,,
imu,402.495123,-0.5215892416000001,-9.1122597552,3.355637208000001,0.11226112,8.54559812,-2.09072292,,,
imu,402.503584,-0.499457588,-9.097305935200001,3.3532445968,0.35899915,7.68575347,-1.68696978,,,
imu,402.512045,-0.49347606,-9.108670838400002,3.363413194400001,0.50853735,6.57169388,-1.47013939,,,
imu,402.520506,-0.4964668240000001,-9.1331951032,3.353842749600001,0.97210577,5.749233779999999,-1.20844754,,,
imu,402.528967,-0.4976631296000001,-9.140372936800002,3.3484593744,1.23379762,4.96415823,-0.90937114,,,
imu,402.537428,-0.502448352,-9.133793256,3.337692624000001,1.45062801,4.20151341,-0.7299252999999999,,,
imu,402.545889,-0.5299633808,-9.136185867200002,3.3269258736,1.54035093,3.37905331,-0.6476792899999999,,,
imu,402.55435,-0.5401319784,-9.157121215200002,3.3245332624,1.76465823,2.88557725,-0.5654332799999999,,,
imu,402.562811,-0.5843952856000001,-9.174467646400002,3.314364664800001,1.8917657,2.51173175,-0.63272547,,,
imu,402.571272,-0.5957601888000001,-9.191215924800002,3.3041960672,2.10859609,2.34723973,-0.6476792899999999,,,
imu,402.579733,-0.6166955368000001,-9.226506940000002,3.3191498872,1.88428879,2.26499372,-0.74487912,,,
imu,402.58855,-0.6370327320000001,-9.235479232000001,3.2994108448,1.87681188,2.50425484,-0.90937114,,,
imu,402.597367,-0.6436124128,-9.219927259200002,3.2886440944,1.95905789,2.71360832,-1.00657097,,,
imu,402.606184,-0.6549773160000001,-9.2277032456,3.300607150400001,1.91419643,2.95286944,-1.12620153,,,
imu,402.615001,-0.6705292888000001,-9.2480404408,3.282064413600001,1.80204278,3.40148404,-1.23835518,,,
imu,402.623818,-0.6627533024,-9.2127494256,3.2647179824,1.42819728,3.81271409,-1.52247776,,,
imu,402.632635,-0.6597625384000001,-9.182243632800002,3.2695032048,1.26370526,4.20899032,-1.91875399,,,
imu,402.641452,-0.6472013296000001,-9.186430702400001,3.2695032048,1.2188438,4.40338998,-2.38232241,,,
imu,401.181479,,,,,,,-97.5599532,170.9923236,126.509332
imu,401.283103,,,,,,,-94.76450439999999,170.3575492,124.1777568
imu,401.384604,,,,,,,-97.49891720000001,170.9679092,126.9487912
imu,401.486136,,,,,,,-94.95981959999999,169.8448468,125.0200536
imu,401.587699,,,,,,,-97.1937372,171.0411524,127.546944
imu,401.689261,,,,,,,-97.48671,170.5040356,127.1929352
imu,401.790824,,,,,,,-97.3280164,170.650522,127.3150072
imu,401.892386,,,,,,,-97.3158092,170.8092156,126.9609984
imu,402.650269,-0.6531828576,-9.219927259200002,3.2635216768,0.97958268,4.60526655,-2.88327538,,,
imu,402.659086,-0.6543791632000001,-9.2510312048,3.270101357600001,0.9197674,4.91929677,-3.13749032,,,
imu,402.667903,-0.6400234960000001,-9.2785462336,3.2653161352,0.79265993,5.17351171,-3.37675144,,,
imu,402.67672,-0.6483976352,-9.270172094400001,3.2641198296,0.7253677399999999,5.352957549999999,-3.59358183,,,
imu,402.685537,-0.6705292888000001,-9.263592413600001,3.25993276,0.47862971,5.48006502,-3.65339711,,,
imu,402.694353,-0.6777071224000001,-9.245647829600001,3.247371551200001,0.38142988,5.80157215,-3.5711511,,,
imu,402.70317,-0.6956517064000001,-9.232488468000001,3.2437826344,0.26179932,6.08569473,-3.15244414,,,
imu,402.711987,-0.6968480120000001,-9.239666301600002,3.2348103424,0.43376825,6.51935551,-2.70382954,,,
imu,402.720804,-0.6795015808000001,-9.220525412,3.2168657584,0.3216146,6.89320101,-2.5243837,,,
imu,402.729621,-0.6926609424000001,-9.190617772000001,3.1929396464,0.5982602699999999,7.19227741,-2.31503022,,,
imu,402.738438,-0.6992406232000001,-9.1828417856,3.1827710488,0.7702292,7.56612291,-2.23278421,,,
imu,402.747255,-0.7153907488000001,-9.173869493600002,3.166022770400001,0.74779847,7.96239914,-2.50195297,,,
imu,402.756072,-0.7183815128000002,-9.187028855200001,3.167817228800001,0.9646288599999999,8.40353683,-2.6739219,,,
imu,402.764889,-0.7435039304000001,-9.1965993,3.159443089600001,1.03939796,8.79981306,-2.89075229,,,
imu,402.773706,-0.76264482,-9.218730953600001,3.154059714400001,1.21136689,9.19608929,-3.1973056,,,
imu,401.993979,,,,,,,-97.5111244,170.772594,126.4849176
imu,402.095633,,,,,,,-94.80112600000001,170.8702516,126.814512
imu,402.197074,,,,,,,-96.693242,170.6139004,127.4492864
imu,402.298667,,,,,,,-92.20099239999999,169.8814684,126.38726
imu,402.400229,,,,,,,-94.5813964,170.467414,128.8409072
imu,402.501761,,,,,,,-94.984234,169.5030452,126.2285664
imu,402.603354,,,,,,,-95.106306,170.284306,128.767664
imu,402.704886,,,,,,,-95.19175639999999,170.0645764,129.1216728
