Type,Timestamp,Data Accelerometer X,Data Accelerometer Y,Data Accelerometer Z,Data Gyroscope X,Data Gyroscope Y,Data Gyroscope Z,Data Magnetometer X,Data Magnetometer Y,Data Magnetometer Z
imu,600.264294,-0.0305057928,-9.538742701600002,2.980595402400001,4.18717707,-0.07527911000000032,-3.06272122,,,
imu,600.272883,0.0137575144,-9.553696521600001,2.9722212632,3.95539286,-0.2248173100000002,-3.03281358,,,
imu,600.281578,0.0167482784,-9.557883591200001,2.9835861664,3.67874719,-0.2995864100000003,-3.10010577,,,
imu,600.290273,0.0113649032,-9.572239258400002,2.971024957600001,3.43948607,-0.45660152,-3.04029049,,,
imu,600.298968,0.011963056,-9.566257730400002,2.9470988456,3.26751714,-0.6883857300000003,-2.79355246,,,
imu,600.307663,0.02871133440000001,-9.553696521600001,2.966239735200001,3.00582529,-0.8753084800000002,-2.56176825,,,
imu,600.316357,0.05742266880000001,-9.549509452,2.9614545128,2.63197979,-1.07718505,-2.50195297,,,
imu,600.325052,0.09091922560000001,-9.538742701600002,2.954874832000001,2.55721069,-1.1145696,-2.18792275,,,
imu,600.333747,0.08912476720000001,-9.5423316184,2.9746138744,2.3403803,-1.44355364,-2.01595382,,,
imu,600.342442,0.06579680800000001,-9.5429297712,2.9973436808,2.18336519,-1.86973751,-1.93370781,,,
imu,600.351137,0.0490485296,-9.519601812000001,2.9883713888,2.09364227,-2.22115228,-1.73930815,,,
imu,600.359832,0.0514411408,-9.475936657600002,2.9865769304,2.07121154,-2.55013632,-1.52247776,,,
imu,600.368527,0.026916876,-9.472347740800002,3.010503042400001,2.13850373,-2.7594898,-1.33555501,,,
imu,600.377221,0.007177833600000002,-9.48072188,3.008708584,2.09364227,-2.96136637,-1.52247776,,,
imu,600.385916,0.01495382,-9.4555994624,3.0051196672,2.25065738,-2.97632019,-1.64958523,,,
imu,600.394611,0.008972292000000002,-9.4250936696,3.0248587096,2.37028794,-3.00622783,-1.64210832,,,
imu,600.403306,0.0053833752,-9.440047489600001,3.0392143768,2.43758013,-3.1333353,-1.84398489,,,
imu,600.412001,-0.0023926112,-9.477132963200003,3.0284476264,2.80394872,-3.2828735,-2.26269185,,,
imu,600.420696,0.0017944584,-9.5010590752,3.011699348,2.89367164,-3.26791968,-2.75616791,,,
imu,600.429391,0.0017944584,-9.484908949600001,3.021269792800001,2.90862546,-3.40250406,-3.02533667,,,
imu,600.438085,-0.0113649032,-9.4980683112,3.0398125296,2.89367164,-3.46231934,-2.83093701,,,
imu,600.44678,-0.0233279592,-9.532163020800002,3.022466098400001,2.84133327,-3.29782732,-2.65149117,,,
imu,600.455475,-0.03588916800000001,-9.536350090400001,3.029643932,2.72170271,-3.2828735,-2.58419898,,,
imu,600.46417,-0.0382817792,-9.526181492800001,3.0284476264,2.72170271,-3.22305822,-2.35241477,,,
imu,600.472865,-0.007177833600000002,-9.516012895200001,3.0099048896,2.87124091,-3.25296586,-2.18792275,,,
imu,600.481336,0.011963056,-9.505246144800001,3.0111011952,2.62450288,-3.40998097,-2.17296893,,,
imu,600.489807,0.0185427368,-9.499264616800001,3.012895653600001,2.62450288,-3.49970389,-2.10567674,,,
imu,600.498278,0.0065796808,-9.51062952,3.012895653600001,2.53477996,-3.71653428,-1.96361545,,,
imu,600.50675,0.0143556672,-9.502255380800001,3.014690112,2.3403803,-4.00813377,-1.9262309,,,
imu,600.515221,0.004187069600000001,-9.4801237272,3.0278494736,2.1908421,-4.06047214,-1.72435433,,,
imu,600.523692,-0.0065796808,-9.475936657600002,3.011699348,2.13102682,-4.07542596,-1.52247776,,,
imu,600.532163,-0.0113649032,-9.457393920800001,3.008708584,2.23570356,-4.06047214,-1.49257012,,,
imu,600.540634,0.020935348,-9.431075197600002,2.9949510696,2.14598064,-4.06047214,-1.59724686,,,
imu,600.549105,0.09869521200000002,-9.419710294400002,3.003325208800001,2.27308811,-4.00065686,-1.61967759,,,
imu,600.557577,0.1638938672,-9.448421628800002,2.980595402400001,2.43758013,-4.34459472,-1.7019236,,,
imu,600.566048,0.2243073,-9.456197615200002,2.9746138744,2.44505704,-4.965178249999999,-1.99352309,,,
imu,600.574519,0.3212080536,-9.4765348104,2.979997249600001,2.49739541,-5.780161440000001,-2.24026112,,,
imu,600.58299,0.4539979752000001,-9.529770409600001,2.996147375200001,2.47496468,-6.916651760000001,-2.23278421,,,
imu,600.591461,0.6382290376000002,-9.583006008800002,3.0039233616,2.25813429,-8.61391033,-1.86641562,,,
imu,600.599932,0.7345316384000001,-9.599754287200001,3.0063159728,1.93662716,-10.93922934,-1.39537029,,,
imu,600.608404,0.7913561544000001,-9.591978300800001,3.021269792800001,1.48801256,-13.73559368,-0.5654332799999999,,,
imu,600.616875,0.8709104768000001,-9.558481744000002,3.0302420848,1.05435178,-16.94318807,0.38413429,,,
imu,600.625346,0.9749890640000002,-9.517807353600002,3.0188771816,0.97958268,-20.2554592,1.37108641,,,
imu,600.633817,1.0874417904,-9.488497866400001,3.0272513208,1.03939796,-23.79951454,2.19354651,,,
imu,600.642288,1.1831462384,-9.4424401008,3.026653168000001,1.04687487,-28.02396869,2.68702257,,,
imu,600.650759,1.2537282688,-9.3927934184,3.029643932,1.19641307,-32.73442199,3.27769846,,,
imu,600.659231,1.3362733552,-9.353315333600001,3.0428032936,1.62259694,-37.6018904,4.30951204,,,
imu,600.667702,1.5240933344,-9.3246039992,3.03562546,2.22074974,-42.7609583,5.318894889999999,,,
imu,600.676173,1.7358394256,-9.328791068800001,3.0164845704,2.78151799,-48.6677172,6.283416280000001,,,
imu,600.684643,1.83931986,-9.351520875200002,2.996147375200001,3.17779422,-55.57638204,7.315229860000001,,,
imu,600.693113,1.8147955952,-9.311444637600001,2.9692304992,3.56659354,-63.06824586,8.6909813,,,
imu,600.701583,1.7143059248,-9.273761011200001,2.931546872800001,4.1348387,-70.59749423,10.51534734,,,
imu,600.710053,1.5468231408,-9.260003496800001,2.8824983432,5.06197554,-77.61831271999999,12.86309708,,,
imu,600.718522,1.3685736064,-9.219927259200002,2.819692299200001,6.10874294,-84.00359386,15.2706621,,,
imu,600.726992,1.1951092944,-9.201384522400001,2.769447464,7.25271017,-89.76829147,17.0651205,,,
imu,600.735462,1.0037003984,-9.209758661600002,2.7401379768,8.493877229999999,-94.86754409,18.10441099,,,
imu,600.743932,0.8224601,-9.242058912800001,2.712622948,9.660275189999998,-99.13685969999999,18.65022542,,,
imu,600.752402,0.5987509528,-9.304864956800001,2.686902377600001,11.05845736,-102.59866903,18.98668637,,,
imu,600.760872,0.3642750552,-9.381428515200001,2.6725467104,11.88839437,-105.43241792,19.59979299,,,
imu,600.769342,0.1620994088,-9.419112141600001,2.6300778616,12.44916262,-107.31659924,19.95120776,,,
imu,600.777812,-0.03588916800000001,-9.420906600000002,2.603759138400001,13.08469997,-108.61010467,20.04840759,,,
imu,600.786316,-0.2817299688000001,-9.4346641144,2.60196468,13.56322221,-109.07367309,19.34557805,,,
imu,600.794786,-0.5191966304000001,-9.477132963200003,2.597179457600001,14.10155973,-108.62505849,18.50816413,,,
imu,600.803256,-0.6980443176000002,-9.495675700000001,2.5702625816,14.55765124,-107.2866916,18.06702644,,,
imu,600.811726,-0.8756956992000001,-9.4962738528,2.5397567888,14.76700472,-105.10343388,17.90253442,,,
imu,600.820196,-1.0324117328,-9.507638756,2.5517198448,15.15580404,-102.47903847,17.69318094,,,
imu,600.828666,-1.1526404456,-9.5381445488,2.5606921368,15.35768061,-99.13685969999999,16.93801303,,,
imu,600.837135,-1.2973934232,-9.571641105600001,2.5499253864,15.58198791,-95.42831233999999,15.68189215,,,
imu,600.845605,-1.4020701632,-9.610521037600002,2.5565050672,15.47731117,-91.14404291,14.45567891,,,
imu,600.854075,-1.4636799016,-9.687084596000002,2.5642810536,15.35768061,-86.29152832,13.5509728,,,
imu,600.862545,-1.4816244856,-9.7474980288,2.5535143032,15.14085022,-81.11002968999999,12.93038927,,,
imu,600.871015,-1.4732503464,-9.773816752000002,2.4895119536,14.49783596,-75.90610032999999,12.12288299,,,
imu,600.879485,-1.4559039152,-9.802528086400002,2.476352592,13.7052835,-70.78441697999999,11.17331542,,,
imu,600.888038,-1.4134350664,-9.791761336000002,2.4518283272,13.01740778,-65.81974874,10.01439437,,,
imu,600.89659,-1.3350770496,-9.767237071200002,2.437472660000001,12.26971678,-61.18406454,8.840519500000001,,,
imu,600.905143,-1.2794488392,-9.7265626808,2.406368714400001,11.67156398,-56.51099579,7.748890640000001,,,
imu,600.913695,-1.2393726016,-9.7122070136,2.3991908808,11.30519539,-52.06223434,6.64978487,,,
imu,600.922248,-1.1945111416,-9.716992236000001,2.3812462968,11.10331882,-47.74058036,5.849755500000001,,,
imu,600.9308,-1.160416432,-9.710412555200001,2.374666616,11.17061101,-43.52360312,5.296464159999999,,,
imu,600.939353,-1.1221346528,-9.727160833600001,2.3525349624,11.03602663,-39.40382571,4.78803428,,,
imu,600.947905,-1.0688990536,-9.7492924872,2.3333940728,10.7145195,-35.53826324,4.34689659,,,
imu,600.956458,-1.0096819264,-9.752283251200002,2.3052808912,10.46778147,-31.80728515,3.77117452,,,
imu,600.965011,-0.9414925072000001,-9.772620446400001,2.2783640152,10.16870507,-28.39033728,3.50200576,,,
imu,600.973563,-0.8320305448000002,-9.791761336000002,2.249652680800001,9.914490129999999,-25.24255817,3.1580679,,,
imu,600.982116,-0.7255593464000001,-9.827650504000003,2.208978290400001,9.592982999999998,-22.2742249,2.88142223,,,
imu,600.990668,-0.6292567456000001,-9.837819101600003,2.1778743448,9.017260929999999,-19.78441387,2.51505364,,,
imu,600.999221,-0.5365430616000001,-9.835426490400001,2.1557426912,8.3966774,-17.76564817,2.12625432,,,
imu,601.007773,-0.4234921824,-9.8300431152,2.1527519272,7.77609387,-15.98614359,1.93933157,,,
imu,601.016326,-0.3164228312,-9.861147060800002,2.130022120800001,7.43215601,-14.51319232,1.64025517,,,
imu,601.024878,-0.2231109944,-9.878493492,2.1276295096,6.92372613,-13.57857857,1.27388658,,,
imu,601.033431,-0.1471455888,-9.88447502,2.1461722464,6.19846586,-12.95051813,0.81031816,,,
imu,601.041983,-0.05802082160000001,-9.870119352800002,2.1401907184,5.59283615,-12.57667263,0.4962879400000002,,,
imu,601.050536,-0.008972292000000002,-9.860548908000002,2.1449759408,4.93486807,-12.74116465,0.3093651899999998,,,
imu,601.059089,-0.0203371952,-9.860548908000002,2.164714983200001,4.31428454,-13.06267178,-0.06448030999999999,,,
imu,601.067641,-0.08852661440000001,-9.837819101600003,2.1886410952,3.55911663,-13.45894801,-0.7299252999999999,,,
imu,601.076194,-0.182436604,-9.805518850400002,2.2143616656,3.08059439,-13.48885565,-0.7000176599999999,,,
imu,601.084746,-0.2697669128,-9.7714241408,2.2388859304,2.88619473,-13.24211762,-0.4682334499999998,,,
imu,601.093517,-0.3289840400000001,-9.7403201952,2.2418766944,2.85628709,-12.92061049,-0.2813106999999999,,,
imu,601.102287,-0.4037531400000001,-9.6918698184,2.2358951664,2.55721069,-12.15796567,-0.3934643499999999,,,
imu,601.111058,-0.4575868920000001,-9.637437913600001,2.2502508336,2.57216451,-11.11119827,-0.5803870999999998,,,
imu,601.119828,-0.4480164472000001,-9.637437913600001,2.2424748472,2.63197979,-9.8625543,-0.8046943999999998,,,
imu,601.128599,-0.3690602776000001,-9.6745233872,2.2299136384,2.73665653,-8.838217629999999,-1.20844754,,,
imu,601.137369,-0.3307784984000001,-9.7056273328,2.205389373600001,2.59459524,-8.03818826,-1.76921579,,,
imu,601.14614,-0.3098431504,-9.739123889600002,2.2203431936,2.43758013,-7.42508164,-2.4496146,,,
imu,601.15491,-0.2595983152,-9.758264779200001,2.2352970136,2.21327283,-6.804498110000001,-3.01038285,,,
imu,601.163681,-0.2021756464,-9.794752100000002,2.2526434448,1.95905789,-6.2736375,-2.92813684,,,
imu,601.172451,-0.1280046992,-9.8043225448,2.2502508336,1.43567419,-6.10914548,-2.93561375,,,
imu,601.181222,-0.07955432240000002,-9.800733628000001,2.2616157368,0.7403215599999999,-6.146530029999999,-2.96552139,,,
imu,601.189992,-0.101685976,-9.765442612800001,2.2873363072,0.29170696,-6.53532935,-3.15244414,,,
imu,600.264739,,,,,,,89.6618732,-23.92003880000002,128.0596464
imu,600.365508,,,,,,,89.2346212,-24.88440760000001,128.2549616
imu,600.465026,,,,,,,89.6984948,-24.81116440000002,126.9609984
imu,601.198763,-0.1501363528,-9.7128051664,2.2975049048,0.007584380000000002,-6.886744119999999,-3.20478251,,,
imu,601.207533,-0.2195220776,-9.654784344800001,2.3220291696,-0.127,-7.07366687,-2.95056757,,,
imu,601.216304,-0.2673743016,-9.5776226336,2.3429645176,-0.0522309,-7.01385159,-2.71130645,,,
imu,601.225074,-0.2978800944000001,-9.549509452,2.3585164904,0.20946095,-6.804498110000001,-2.66644499,,,
imu,601.233844,-0.3253951232,-9.592576453600001,2.3788536856,0.7403215599999999,-6.24372986,-2.65896808,,,
imu,601.242615,-0.3493212352000001,-9.630260080000001,2.3770592272,1.00949032,-5.78763835,-2.93561375,,,
imu,601.251385,-0.3624805968,-9.6637566368,2.3926112,1.31604363,-5.249300829999999,-3.24216706,,,
imu,601.260156,-0.3600879856,-9.689477207200001,2.4027797976,1.16650543,-4.87545533,-3.57862801,,,
imu,601.268926,-0.3744436528,-9.719983000000001,2.4111539368,0.9197674,-4.19505652,-4.10948862,,,
imu,601.277697,-0.4091365152000001,-9.721179305600002,2.425509604,0.8749059399999999,-3.48475007,-4.408565019999999,,,
imu,601.286467,-0.4151180432000001,-9.682897526400001,2.4231169928,0.3889067899999999,-2.7594898,-4.44594957,,,
imu,601.294894,-0.4037531400000001,-9.656578803200002,2.437472660000001,0.41133752,-1.89964515,-4.04219643,,,
imu,601.303321,-0.3726491944000001,-9.648204664000001,2.4129483952,0.51601426,-1.15943106,-3.93004278,,,
imu,601.311747,-0.3427415544,-9.633250844,2.396798269600001,0.60573718,-0.7332471900000002,-4.33379592,,,
imu,601.320174,-0.3445360128,-9.591380148,2.4069668672,0.40386061,-0.4192169699999999,-4.52071867,,,
imu,601.328601,-0.3582935272000001,-9.587193078400002,2.406368714400001,0.66555246,-0.0603252900000002,-4.37865738,,,
imu,601.337027,-0.3804251808,-9.6296619272,2.3920130472,0.85995212,0.1864127399999997,-4.27398064,,,
imu,601.345454,-0.4330626272,-9.652989886400002,2.3914148944,1.12164397,0.5453044199999999,-4.13191935,,,
imu,601.353881,-0.5108224912,-9.678710456800001,2.410555784,1.26370526,1.09111885,-3.78798149,,,
imu,601.362307,-0.6184899952000001,-9.6799067624,2.413546548,1.07678251,2.04068642,-3.26459779,,,
imu,601.370734,-0.7411113192000001,-9.6667474008,2.409957631200001,1.22632071,3.46877623,-2.66644499,,,
imu,601.379161,-0.9540537160000001,-9.672728928800002,2.4267059096,1.35342818,5.30061918,-2.53933752,,,
imu,601.387587,-1.2537282688,-9.70502918,2.4458467992,1.42819728,7.88015313,-3.0477674,,,
imu,601.396014,-1.573141864,-9.6942624296,2.4356782016,1.57025857,11.64103886,-3.78050458,,,
imu,601.404441,-1.8698256528,-9.7151977776,2.4350800488,1.49548947,16.88235277,-4.52819558,,,
imu,601.412867,-2.165313136,-9.755872168000002,2.4189299232,1.49548947,23.260157,-5.43290169,,,
imu,601.421294,-2.569066276,-9.755274015200001,2.3674887824,1.368382,30.49032897,-6.7862224,,,
imu,601.429721,-3.0093067368,-9.7301515976,2.293915988,1.0693056,39.20092912,-8.70778827,,,
imu,601.438147,-3.4339952248,-9.7295534448,2.2000059984,1.00949032,49.90786423999999,-10.7489847,,,
imu,601.446574,-3.8299723784,-9.794752100000002,2.0899458832,0.94219813,62.24476574,-12.45372018,,,
imu,601.455001,-4.0518870672,-9.8617452136,1.9541651976,0.91229049,76.12938761000001,-14.25565549,,,
imu,601.463427,-4.1284506256,-9.9753942456,1.836329096,0.50853735,91.26265345,-16.84266635,,,
imu,601.471854,-4.130245084,-10.1171564592,1.686790896,-0.26906129,106.47068839,-20.38672169,,,
imu,601.480281,-4.109309736000001,-10.2302073384,1.5354582376,-1.35321324,121.70863097,-24.01302304,,,
imu,601.488707,-4.0800002488,-10.3576138848,1.354816092,-2.69158013,136.72974316,-27.51969383,,,
imu,601.497171,-4.041120316800001,-10.4329811376,1.1329014032,-4.48603853,151.58636333,-30.75719586,,,
imu,601.505634,-3.9848939536,-10.5221059048,0.9091922560000001,-6.5571426,166.30092221,-33.78534441,,,
imu,601.514098,-3.8933765752,-10.5436394056,0.6466031768,-8.41889319,180.91828126,-36.50693965,,,
imu,601.522562,-3.7617829592,-10.5113391544,0.3804251808,-10.5199049,195.23656391,-38.96684303999999,,,
imu,601.531025,-3.612842912,-10.4449441936,0.1471455888,-12.43399386,209.11370887,-41.51646934999999,,,
imu,601.539489,-3.416648793600001,-10.3671843296,-0.09390998960000001,-14.19854462,222.48990086,-44.15581857999999,,,
imu,601.547952,-3.2413900232,-10.3247154808,-0.3457323184,-15.55186533,235.28289387,-46.85498309,,,
imu,601.556416,-3.071514628,-10.30318198,-0.5604691736,-16.64349419,245.03278451,-49.36722485,,,
imu,601.564879,-2.7664567,-10.249348228,-0.7877672376000001,-17.35380064,247.93382559,-51.61777476,,,
imu,601.573343,-2.4009853392,-10.2128609072,-0.9845595088000001,-17.70521541,248.03850233,-53.77860174999999,,,
imu,601.581806,-1.9655301008,-10.132708432,-1.1640053488,-17.64540013,248.03850233,-55.99924402,,,
imu,601.59027,-1.5217007232,-10.0693042352,-1.2477467408,-17.18183171,248.03850233,-58.14511718999999,,,
imu,601.598733,-1.1675942656,-10.0705005408,-1.2944026592,-16.47900217,248.03850233,-59.87228339999999,,,
imu,601.607197,-0.7865709320000001,-9.966421953600003,-1.4050609272,-15.55934224,248.03850233,-60.65735895,,,
imu,601.615661,-0.2625890792,-9.9724034816,-1.414631372,-14.52005175,248.03850233,-60.9938199,,,
imu,601.624124,0.1686790896,-10.0687060824,-1.342853036,-13.57796109,248.03850233,-61.42000376999999,,,
imu,601.632588,0.5694414656000001,-10.1751772808,-1.2357836848,-12.77793172,248.03850233,-61.80132618,,,
imu,601.641051,0.9504647992000002,-10.3283043976,-1.0922270128,-12.34427094,248.03850233,-61.34523467,,,
imu,601.649515,1.3410585776,-10.4730573752,-0.9205571592,-12.51623987,248.03850233,-59.35637661,,,
imu,601.657978,1.7340449672,-10.5029650152,-0.7512799168000001,-13.22654632,248.03850233,-56.11139767,,,
imu,601.666442,2.2197450408,-10.3342859256,-0.5891805080000001,-14.30322136,248.03850233,-51.96171261999999,,,
imu,601.674905,2.6396483064,-10.1045952504,-0.3606861384,-15.41728095,248.03850233,-48.16344234,,,
imu,601.683369,3.010503042400001,-9.863539672000002,-0.125612088,-15.91823392,248.03850233,-45.25492435,,,
imu,601.691832,3.3155609704,-9.6218859408,0.1268083936,-15.61915752,247.27585751,-42.83240550999999,,,
imu,601.700399,3.6379653296,-9.416121377600001,0.4103328208,-14.22097535,239.95596262,-40.4323174,,,
imu,601.708965,3.8473188096,-9.261199802400002,0.7213722768,-12.36670167,225.90684873,-38.03222929,,,
imu,601.717532,4.040522164,-9.2127494256,1.0084856208,-9.876890640000001,210.76610598,-35.13866512,,,
imu,601.726099,4.174508391200001,-9.184636244000002,1.2304003096,-7.678679099999999,195.13188717,-31.54227141,,,
imu,601.734665,4.2355199768,-9.197197452800001,1.5258877928,-5.68982104,178.91446938,-27.13837142,,,
imu,601.743232,4.27679252,-9.2001882168,1.7448117176,-4.00003938,162.68209777,-22.24099537,,,
imu,601.751798,4.237912588,-9.2755554696,1.8865739312,-2.46727283,146.62169509,-17.70998791,,,
imu,601.760365,4.0782057904,-9.3126409432,1.9122945016,-1.27844414,130.88279954,-13.84442544,,,
imu,601.768931,3.840140976,-9.356904250400001,1.976895004,-0.52327623,116.0486101,-10.53963122,,,
imu,601.777498,3.564990688,-9.470553282400001,2.0648234656,0.26927623,101.97706548,-7.09277571,,,
imu,601.786064,3.3245332624,-9.5877912312,2.1270313568,0.80013684,89.27379539,-3.71321239,,,
imu,601.794631,3.0392143768,-9.669738164800002,2.089347730400001,1.21136689,77.50513905,-1.66453905,,,
imu,601.803197,2.6875005304,-9.794752100000002,2.0899458832,1.28613599,67.13466488,-1.01404788,,,
imu,601.811764,2.4009853392,-9.8916528536,2.090544036,1.00201341,58.28948035,-0.66263311,,,
imu,601.82033,2.2047912208,-9.9095974376,2.0708049936,0.65807555,50.80509344,-0.04204958000000003,,,
imu,601.828897,2.0558511736,-9.8581562968,2.0612345488,0.3889067899999999,44.36747393,0.5112417599999999,,,
imu,601.837464,1.9194723352,-9.853969227200002,2.0971237168,0.11226112,38.56539177,0.3990881100000001,,,
imu,601.84603,1.7011465632,-9.818678212000002,2.0702068408,-0.35878421,33.46613915,-0.3112183399999999,,,
imu,601.854597,1.3703680648,-9.8043225448,2.0618327016,-0.8672140899999999,29.18186972,-0.68506384,,,
imu,601.863163,0.9444832712000001,-9.83961356,2.0612345488,-1.48779762,26.11633662,-0.51309491,,,
imu,601.87173,0.5987509528,-9.8916528536,2.0414955064,-2.31025772,24.51627788,0.6009646800000001,,,
imu,601.880247,0.4205014184,-9.8713156584,2.0349158256,-3.12524091,24.11252474,2.19354651,,,
imu,601.888813,0.4181088072000001,-9.8013317808,2.054654868000001,-3.54394787,24.18729384,3.84594362,,,
imu,601.89738,0.4773259344000001,-9.688879054400001,2.0654216184,-3.55890169,24.10504783,4.705788269999999,,,
imu,601.905742,0.5395338256000001,-9.6039413568,2.07858098,-3.3420713,23.73867924,4.705788269999999,,,
imu,601.914104,0.6286585928,-9.6039413568,2.1043015504,-3.00561035,23.01341897,4.54129625,,,
imu,601.922465,0.7943469184000002,-9.6075302736,2.144377788,-2.6691494,22.16105123,4.817941919999999,,,
imu,601.930827,0.9929336480000002,-9.596763523200002,2.1886410952,-2.33268845,20.97222254,5.34880253,,,
imu,601.939189,1.1735757936,-9.593772759200002,2.22811918,-2.10090424,19.34973307,5.408617809999999,,,
imu,601.947551,1.3476382584,-9.611119190400002,2.2933178352,-2.13828879,17.40573647,4.67588063,,,
imu,601.955913,1.4762411104,-9.587193078400002,2.3411700592,-2.17567334,15.27481712,3.74126688,,,
imu,601.964275,1.5593843496,-9.5907819952,2.3818444496,-2.13828879,13.08408249,3.06086807,,,
imu,601.972636,1.6263774632,-9.595567217600001,2.4416597296,-2.39250373,11.25971645,2.67206875,,,
imu,601.980998,1.7292597448,-9.578818939200001,2.4936990232,-2.68410322,9.667134619999999,2.47019218,,,
imu,601.98936,1.830347568,-9.561472508000001,2.5355697192,-2.72896468,7.92501459,2.32065398,,,
imu,601.997722,1.8979388344,-9.537546396000002,2.5798330264,-2.95327198,5.876341249999999,1.84960865,,,
imu,602.006084,1.9158834184,-9.4843107968,2.5923942352,-3.028041079999999,3.96225229,1.07948692,,,
imu,600.566566,,,,,,,90.28444040000001,-25.17738040000001,128.035232
imu,600.668067,,,,,,,93.47051959999999,-26.06850600000001,127.0952776
imu,600.76966,,,,,,,96.92515720000002,-25.885398,129.255952
imu,600.871192,,,,,,,105.9584852,-28.03386520000002,125.044468
imu,600.972755,,,,,,,106.8374036,-27.52116280000001,126.570368
imu,601.074287,,,,,,,108.20461,-27.98503640000001,123.1645592
imu,601.17588,,,,,,,108.7295196,-28.1559372,125.4473056
imu,601.277503,,,,,,,108.7783484,-27.93620760000002,125.4473056
imu,602.014445,1.9003314456,-9.452010545600002,2.6486205984,-3.12524091,2.13788625,0.2869344599999999,,,
imu,602.022807,1.8650404304,-9.426289975200001,2.679724544,-3.14019473,0.3658585799999998,-0.37851053,,,
imu,602.031169,1.8231697344,-9.398176793600001,2.6982672808,-3.09533327,-1.03232359,-0.7822636699999999,,,
imu,602.039531,1.7962528584,-9.395784182400002,2.736549060000001,-2.93084125,-2.16881391,-1.26826282,,,
imu,602.047893,1.785486108,-9.371259917600002,2.736549060000001,-2.91588743,-3.36511951,-1.70940051,,,
imu,602.056255,1.7723267464,-9.325202152000001,2.748512116,-2.72896468,-4.56142511,-2.44213769,,,
imu,602.064616,1.70473548,-9.269573941600001,2.754493644000001,-2.04856587,-5.757730710000001,-3.44404363,,,
imu,602.072978,1.6108254904,-9.271368400000002,2.754493644000001,-1.60742818,-6.782067379999999,-4.363703559999999,,,
imu,602.08134,1.5061487504,-9.260003496800001,2.7353527544,-1.07656757,-7.612004389999999,-5.00671782,,,
imu,602.089702,1.4104443024,-9.266583177600001,2.7299693792,-0.32139966,-8.18772646,-5.45533242,,,
imu,602.098064,1.3356752024,-9.28632222,2.7012580448,0.26927623,-8.67372561,-5.896470109999999,,,
imu,602.106887,1.2746636168,-9.283331456,2.6863042248,0.74779847,-8.95037128,-6.352561619999999,,,
imu,602.115711,1.2130538784,-9.286920372800001,2.673743016,1.40576655,-9.39898588,-6.74136094,,,
imu,602.124534,1.157425668,-9.313239096000002,2.6534058208,1.8917657,-9.87750812,-7.279698460000001,,,
imu,602.133358,1.1400792368,-9.329389221600001,2.6330686256,2.76656417,-10.30369199,-7.803082159999999,,,
imu,602.142181,1.1370884728,-9.328192916,2.6025628328,3.27499405,-10.6850144,-8.33394277,,,
imu,602.151005,1.1203401944,-9.350324569600001,2.5894034712,3.88062376,-11.23082883,-8.75264973,,,
imu,602.159829,1.118545736,-9.403560168800002,2.569066276,4.46382274,-11.89627382,-8.99938776,,,
imu,602.168652,1.1311069448,-9.471151435200001,2.5499253864,4.87505279,-12.60658027,-9.268556519999999,,,
imu,602.177476,1.1646035016,-9.530368562400001,2.5547106088,5.09936009,-13.48137874,-9.530248369999999,,,
imu,602.186299,1.1777628632,-9.566257730400002,2.545140164,5.18908301,-14.6477767,-9.65735584,,,
imu,602.195123,1.2106612672,-9.605735815200001,2.5397567888,5.2563752,-15.97118977,-9.76203258,,,
imu,602.203946,1.2698783944,-9.630260080000001,2.524204816,5.04702172,-17.45909486,-9.94147842,,,
imu,602.21277,1.3924997184,-9.609922884800001,2.509250996,4.83019133,-19.34327618,-10.14335499,,,
imu,602.221593,1.513326584,-9.583006008800002,2.491306412,4.72551459,-21.7508412,-10.16578572,,,
imu,602.230417,1.6048439624,-9.530966715200002,2.473959980800001,4.78532987,-24.89862031,-10.18073954,,,
imu,602.239241,1.755578468,-9.484908949600001,2.450632021600001,4.964775710000001,-28.5548293,-10.13587808,,,
imu,602.248064,1.9433984472,-9.441841948000002,2.4338837432,5.37600576,-32.5923607,-9.485386909999999,,,
imu,602.256888,2.2346988608,-9.444832712,2.4117520896,6.04145075,-37.55702894,-8.25917367,,,
imu,602.265711,2.520615899200001,-9.444234559200002,2.3764610744,6.96858759,-43.68061823,-6.77874549,,,
imu,602.274535,2.7168100176,-9.353913486400002,2.3190384056,7.79104769,-51.19491278,-5.75440882,,,
imu,602.283358,2.854983314400001,-9.246245982400001,2.2664009592,8.935014919999999,-59.78588237,-4.43847266,,,
imu,602.292182,2.945304387200001,-9.176262104800001,2.1718928168,10.43787383,-69.02734312999999,-2.68887572,,,
imu,602.301006,2.9853806248,-9.114652366400001,2.0594400904,12.17999386,-78.74732612999999,-0.02709575999999991,,,
imu,602.309528,2.9058263024,-9.079361351200001,1.9278464744,14.22119029,-88.85610845,2.60477656,,,
imu,602.31805,2.7449231992,-9.087735490400002,1.8135992896,16.26238672,-98.70319891999999,4.930095570000001,,,
imu,602.326572,2.4769507448,-9.1642990488,1.7119133136,18.31106006,-108.22878226,7.15073784,,,
imu,602.335094,2.2173524296,-9.370661764800001,1.6544906448,20.26253357,-116.61787528,9.41624157,,,
imu,602.343616,1.8943499176,-9.6434194416,1.5904882952,21.556039,-124.24432348,11.7565144,,,
imu,602.352138,1.5874975312,-9.805518850400002,1.4547076096,22.04203815,-130.75671209,13.84257229,,,
imu,602.36066,1.2955989648,-9.965225648,1.4050609272,21.88502304,-136.13261038,15.23327755,,,
imu,602.369182,0.9911391896000001,-10.0812672912,1.3051694096,21.08499367,-140.46174127,16.45949079,,,
imu,602.377704,0.6466031768,-10.180560656,1.2555227272,19.89616498,-143.67681257,17.78290386,,,
imu,602.386226,0.1938015072,-10.3833344552,1.289019284,18.33349079,-145.67314754,19.0091171,,,
imu,602.394748,-0.161501256,-10.428794068,1.2345873792,16.3969711,-146.09933141,20.07083832,,,
imu,602.40327,-0.4187069600000001,-10.371969552,1.172379488,14.1538981,-144.97779491,20.78862168,,,
imu,602.411792,-0.6286585928,-10.2349925608,1.199296364,12.16504004,-142.45807624,20.38486854,,,
imu,602.420314,-0.9038088808000001,-10.1638123776,1.306963868,10.44535074,-139.22805112,19.29323968,,,
imu,602.428836,-1.127518028,-10.1638123776,1.3566105504,9.03221475,-135.25781191,18.32871829,,,
imu,602.437358,-1.184342544,-10.1022026392,1.39070526,7.76861696,-129.95668272,17.61841184,,,
imu,602.44588,-1.1909222248,-9.9724034816,1.5007653752,6.71437265,-124.58078443,16.44453697,,,
imu,602.454402,-1.1951092944,-9.8982325344,1.5958716704,5.7797589,-119.36937816,14.77718604,,,
imu,602.462924,-1.1986982112,-9.945486605600001,1.692772424,5.1816061,-114.06824897,12.66122051,,,
imu,602.471446,-1.2088668088,-10.0124797192,1.7741212048,4.30680763,-108.7820736,10.45553206,,,
imu,602.479968,-1.205277892,-9.9401032304,1.8375254016,3.17779422,-103.54075969,8.59378147,,,
imu,602.48849,-1.1759684048,-9.8294449624,1.8770034864,2.31794957,-98.33683033,7.001199640000001,,,
imu,602.497012,-1.1861370024,-9.758264779200001,1.91408896,1.57025857,-92.96093203999999,5.932001509999999,,,
imu,602.505534,-1.0832547208,-9.673925234400002,2.0109897136,1.15902852,-87.45792628,5.318894889999999,,,
imu,602.514257,-1.0240375936,-9.553696521600001,2.0169712416,0.9870595899999999,-82.65027314999999,4.81046501,,,
imu,602.52298,-1.00190594,-9.5184055064,2.0737957576,1.30856672,-78.13421951,4.623542260000001,,,
imu,602.531703,-0.9702038416000002,-9.422102905600001,2.0977218696,1.90671952,-73.80508861999999,4.182404569999999,,,
imu,602.540426,-0.9779798280000002,-9.413130613600002,2.1910337064,2.863764,-69.71521885,4.182404569999999,,,
imu,602.549149,-1.0174579128,-9.499862769600002,2.253839750400001,3.731085559999999,-65.65525672,4.01791255,,,
imu,602.557872,-1.0162616072,-9.505246144800001,2.290327071200001,4.32176145,-61.53547931000001,3.77865143,,,
imu,602.566595,-1.109573444,-9.6051376624,2.3824426024,4.69560695,-57.46056336,3.27769846,,,
imu,602.575318,-1.208268656,-9.711010708000002,2.454819091200001,4.63579167,-53.24358612,2.80665313,,,
imu,602.584041,-1.2627005608,-9.746301723200002,2.4757544392,4.2843769,-48.54808664,2.04400831,,,
imu,602.592764,-1.3231139936,-9.752283251200002,2.4996805512,3.49182444,-43.47874166,0.9000410799999998,,,
imu,602.601487,-1.3685736064,-9.7122070136,2.5265974272,2.79647181,-38.18508938,-0.3112183399999999,,,
imu,602.61021,-1.393696024,-9.6667474008,2.555308761600001,2.27308811,-32.71199126,-1.34303192,,,
imu,602.618933,-1.393696024,-9.633250844,2.5499253864,1.69736604,-27.11178567,-2.38979932,,,
imu,602.627656,-1.3673773008,-9.573435564,2.5236066632,1.34595127,-21.54896463,-3.31693616,,,
imu,602.636378,-1.3613957728,-9.5213962704,2.5349715664,1.33847436,-16.20297398,-4.21416536,,,
imu,602.645101,-1.3775458984,-9.520199964800002,2.5684681232,1.5179202,-11.02147535,-4.89456417,,,
imu,602.653824,-1.4421464008,-9.606333968000001,2.6061517496,1.83942733,-5.929699640000001,-5.42542478,,,
imu,602.662547,-1.5785252392,-9.739722042400002,2.6294797088,1.73475059,-0.6360473600000001,-6.12825432,,,
imu,602.67127,-1.8315438736,-9.85456738,2.6510132096,1.28613599,5.09874261,-7.04791425,,,
imu,602.679993,-2.1288258152,-9.901821451200002,2.6312741672,0.22441477,11.7457156,-8.07972783,,,
imu,602.688716,-2.4147428536,-9.8617452136,2.5846182488,-0.9793677399999999,19.60394801,-8.90966484,,,
imu,602.697439,-2.7203989344,-9.828846809600002,2.5606921368,-2.17567334,28.76316276,-9.88914005,,,
imu,602.706162,-2.9195838168,-9.809107767200002,2.529588191200001,-3.01308726,39.05139092,-11.16021475,,,
imu,602.714885,-3.063738641600001,-9.802528086400002,2.4805396616,-3.79816281,50.19198682,-12.99953461,,,
imu,602.723048,-3.133124366400001,-9.802528086400002,2.4667821472,-4.48603853,61.68399749,-15.34728435,,,
imu,602.731212,-3.096637045600001,-9.768433376800001,2.414144700800001,-5.35336009,73.37788473,-18.31561762,,,
imu,602.739375,-2.996147375200001,-9.7510869456,2.3812462968,-5.77954396,85.05681815,-21.32133544,,,
imu,602.747539,-2.784401284,-9.745105417600001,2.3262162392,-6.190774009999999,96.27218315,-24.30462253,,,
imu,602.755702,-2.4745581336,-9.746301723200002,2.2574286672,-6.51228114,106.7024726,-27.1234176,,,
imu,602.763866,-2.150957468800001,-9.745105417600001,2.1934263176,-6.68425007,116.02617937,-29.27676768,,,
imu,602.772029,-1.8399180128,-9.708019944000002,2.1072923144,-6.7066808,124.10871908,-30.67494985,,,
imu,602.780193,-1.534261932,-9.657775108800001,2.0319250616,-6.736588439999999,131.16692212,-31.25814883,,,
imu,602.788356,-1.1472570704,-9.661364025600001,1.98885806,-6.46741968,136.89423518,-31.65442506,,,
imu,602.796519,-0.6866794144,-9.760059237600002,1.9822783792,-6.43751204,141.50748865,-32.46193134,,,
imu,602.804683,-0.2787392048,-9.8162856008,1.9691190176,-6.51228114,144.43843737,-33.60589857,,,
imu,602.812846,0.04187069600000001,-9.887465784000002,1.9864654488,-6.878649729999999,145.81418881,-34.48069704,,,
imu,602.82101,0.3642750552,-9.9580478144,2.0163730888,-7.60391,145.78428117,-34.51060468,,,
imu,602.829173,0.6609588440000002,-9.941897688800001,2.021756464,-8.59086212,144.8347136,-33.71805222,,,
imu,601.379615,,,,,,,108.876006,-28.24138760000001,125.0078464
imu,601.480598,,,,,,,108.082538,-28.82733320000002,126.4971248
imu,601.582313,,,,,,,98.7196156,-30.25557560000001,130.3057712
imu,601.683723,,,,,,,80.5308876,-27.65544200000001,124.6416304
imu,601.785316,,,,,,,76.8443132,-24.83557880000003,111.2869536
imu,601.886817,,,,,,,75.55035000000001,-22.96787720000002,108.5769552
imu,601.98838,,,,,,,79.09043799999999,-22.72373320000001,104.2067776
imu,602.089973,,,,,,,76.75886279999999,-21.31990520000002,106.4162808
imu,602.837337,0.9187627008000002,-9.9000269928,2.0648234656,-9.63762952,142.72622498,-32.70119246,,,
imu,602.8455,1.1927166832,-9.8061170032,2.0480751872,-10.68439692,139.70555334,-32.28996241,,,
imu,602.853664,1.477437416,-9.7331423616,2.0839643552,-11.22273444,136.13159036,-31.64694815,,,
imu,602.861827,1.7280634392,-9.617100718400001,2.12344244,-11.30498045,131.24169122,-30.51793474,,,
imu,602.869991,1.9834746848,-9.5148165896,2.1844540256,-11.02833478,125.25268631,-29.04498347,,,
imu,602.878154,2.2149598184,-9.3479319584,2.2095764432,-10.42270507,118.09728344,-27.71409349,,,
imu,602.886317,2.311262419200001,-9.222918023200002,2.2795603208,-9.3235993,109.98483609,-26.71218755,,,
imu,602.894481,2.3262162392,-9.222319870400002,2.4039761032,-7.81326348,101.52097397,-25.57569723,,,
imu,602.902644,2.286738154400001,-9.2133475784,2.434481896,-6.527234959999999,92.78046618,-24.00554613,,,
imu,602.910808,2.1886410952,-9.3144354016,2.4901101064,-5.196344979999999,84.40632698,-22.07650335,,,
imu,602.919266,2.0953292584,-9.399971252000002,2.522410357600001,-4.44865398,76.39107946,-20.10259911,,,
imu,602.927725,1.9900543656,-9.377839598400001,2.4960916344,-3.7906859,68.35340121,-18.12869487,,,
imu,602.936183,1.8776016392,-9.348530111200002,2.4996805512,-3.117764,60.77181447,-16.54358995,,,
imu,602.944642,1.7537840096,-9.328192916,2.481137814400001,-2.01118132,53.63884233,-15.01830031,,,
imu,602.9531,1.6138162544,-9.358100556000002,2.479343356,-1.11395212,46.72270057999999,-14.2631324,,,
imu,602.961559,1.4517168456,-9.412532460800001,2.4805396616,-0.37373803,39.97852776,-13.84442544,,,
imu,602.969944,1.2537282688,-9.446627170400001,2.4536227856,0.5982602699999999,33.99699976,-13.74722561,,,
imu,602.978403,1.0509544696,-9.5291722568,2.4440523408,1.36090509,28.88279332,-13.56777977,,,
imu,602.986861,0.8828735328,-9.623082246400001,2.4368745072,1.67493531,24.78544664,-13.28365719,,,
imu,602.99532,0.7405131664000002,-9.6733270816,2.4069668672,2.04878081,21.21896057,-12.79765804,,,
imu,603.003778,0.6101158560000001,-9.718786694400002,2.401583492,2.17588828,18.1758582,-12.48362782,,,
imu,603.012236,0.46356842,-9.739722042400002,2.3962001168,2.16093446,15.56641661,-12.37895108,,,
imu,603.020695,0.3493212352000001,-9.775611210400001,2.3932093528,1.92167334,13.45045108,-12.43876636,,,
imu,603.029153,0.2590001624000001,-9.786976113600002,2.3908167416,1.53287402,11.70085414,-12.67055057,,,
imu,603.037612,0.212344244,-9.797742864000002,2.3914148944,1.2936129,10.3998718,-12.86495023,,,
imu,603.04607,0.1567160336,-9.785181655200002,2.4033779504,0.9048135799999999,9.13627401,-13.07430371,,,
imu,603.054529,0.1010878232,-9.773816752000002,2.4261077568,0.71789083,8.022214420000001,-13.08178062,,,
imu,603.062987,0.06160973840000001,-9.8043225448,2.460202466400001,0.49358353,7.057693029999999,-12.82008877,,,
imu,603.071446,0.004187069600000001,-9.8013317808,2.461398772,0.03749201999999999,5.988494899999999,-12.46119709,,,
imu,603.079904,-0.02871133440000001,-9.731946056000002,2.4380708128,-0.32887657,4.92677368,-11.99762867,,,
imu,603.088363,-0.092713684,-9.6458120528,2.4476412576,-0.5980453299999999,3.91739083,-11.56396789,,,
imu,603.096821,-0.1531271168,-9.5656595776,2.4398652712,-0.51579932,2.96782326,-10.98076891,,,
imu,603.105279,-0.2177276192,-9.527377798400002,2.4392671184,-0.23915365,2.30985518,-10.0760628,,,
imu,603.113738,-0.2715613712,-9.568650341600001,2.4440523408,0.15712258,1.8014253,-9.05920304,,,
imu,603.122554,-0.3080486920000001,-9.597959828800002,2.4482394104,0.34404533,1.33037997,-7.94514345,,,
imu,603.131369,-0.3630787496,-9.623680399200001,2.454819091200001,0.4711528,1.09111885,-7.077821889999999,,,
imu,603.140185,-0.4091365152000001,-9.633250844,2.4560153968,0.60573718,1.06868812,-6.644161110000001,,,
imu,603.149,-0.4432312248,-9.6296619272,2.4536227856,0.88985976,1.30047233,-6.17311578,,,
imu,603.157816,-0.4581850448000001,-9.672728928800002,2.485324884000001,0.7403215599999999,1.50982581,-5.41047096,,,
imu,603.166632,-0.4384460024000001,-9.6709344704,2.487717495200001,0.43376825,1.74161002,-5.09644074,,,
imu,603.175447,-0.4210995712,-9.6535880392,2.4996805512,0.42629134,2.05564024,-4.78241052,,,
imu,603.184263,-0.3977716120000001,-9.6284656216,2.500278704,0.35152224,2.1752708,-4.66277996,,,
imu,603.193078,-0.3505175408000001,-9.630858232800001,2.5355697192,0.44872207,2.35471664,-4.21416536,,,
imu,603.201894,-0.2775428992,-9.6428212888,2.5397567888,0.4861066199999999,2.36219355,-3.70573548,,,
imu,603.21071,-0.1932033544,-9.655382497600002,2.570860734400001,0.22441477,2.10797861,-3.33936689,,,
imu,603.219525,-0.08374139200000001,-9.6709344704,2.5917960824,0.26927623,1.62945637,-2.94309066,,,
imu,603.228341,0.04366515440000001,-9.6775141512,2.6103388192,0.23189168,0.7770886299999997,-2.44213769,,,
imu,603.237156,0.1620994088,-9.676317845600002,2.6306760144,-0.01484635000000001,-0.4939860700000001,-1.88884635,,,
imu,603.245972,0.2440463424,-9.6703363176,2.643835376000001,-0.14943073,-2.15386009,-1.56733922,,,
imu,603.254788,0.3427415544,-9.696655040800001,2.655798432,-0.48589168,-4.28477944,-1.21592445,,,
imu,603.263603,0.472540712,-9.711010708000002,2.648022445600001,-0.5980453299999999,-6.610098450000001,-0.4682334499999998,,,
imu,603.272419,0.6830904976000001,-9.697253193600002,2.673144863200001,-0.9494601,-9.47375498,0.8477027100000001,,,
imu,603.281234,0.903210728,-9.687084596000002,2.6839116136,-1.21115195,-13.01033341,2.26831561,,,
imu,603.29005,1.0479637056,-9.667943706400001,2.6725467104,-1.41302852,-17.51891014,3.63659014,,,
imu,603.298865,1.15144414,-9.627269316000001,2.6659670296,-1.56256672,-22.75274714,5.04972613,,,
imu,603.307681,1.18135178,-9.574631869600001,2.649816904,-1.43545925,-28.34547582,6.851661440000001,,,
imu,603.316497,1.1568275152,-9.519003659200001,2.6234981808,-1.22610577,-34.22232708,9.24427264,,,
imu,603.324988,1.1263217224,-9.511227672800002,2.619909264,-0.92702937,-40.09917834,11.39762272,,,
imu,603.33348,1.169388724,-9.493283088800002,2.5702625816,-0.19429219,-45.51993809,13.13974275,,,
imu,603.341971,1.2399707544,-9.457992073600002,2.5577013728,0.50853735,-50.88088256,13.98463358,,,
imu,603.350463,1.369769912,-9.398774946400001,2.5523179976,1.27865908,-56.43622669,14.36595599,,,
imu,603.358954,1.5857030728,-9.376045140000002,2.5409530944,2.20579592,-62.20840121,14.79213986,,,
imu,603.367446,1.8112066784,-9.363483931200001,2.4859230368,3.40210152,-68.65349762999999,15.85386108,,,
imu,603.375937,1.926052016,-9.3455393472,2.4805396616,4.17222325,-76.1079769,17.37167381,,,
imu,603.384429,1.9224630992,-9.310248332,2.455417244,4.98720644,-84.04845531999999,19.48016243,,,
imu,603.39292,1.8357309432,-9.294098206400001,2.389620436,5.89191255,-92.07117975,22.01483492,,,
imu,603.401412,1.73464312,-9.305463109600002,2.311860572000001,7.0508336,-99.82473542,25.01307583,,,
imu,603.409903,1.6138162544,-9.298285276000001,2.2568305144,8.26956993,-107.12967649,28.21319331,,,
imu,603.418395,1.4499223872,-9.3108464848,2.1988096928,9.705136649999998,-113.76169566,31.13666512,,,
imu,603.426886,1.2734673112,-9.4555994624,2.1940244704,11.12574955,-120.0722077,33.70124525,,,
imu,603.435378,1.0174579128,-9.818678212000002,2.2394840832,12.18747077,-125.70979784,35.9069337,,,
imu,603.443869,0.7423076248,-10.0214520112,2.1605279136,12.35196279,-130.62960462,37.16305458,,,
imu,603.452361,0.4839056152000001,-10.1033989448,2.1288258152,11.44725668,-134.36058271,37.52194626,,,
imu,603.460852,0.2009793408,-10.0902395832,2.0827680496,10.08645906,-136.8204861,37.70886901,,,
imu,603.469344,0.0233279592,-10.0035074272,2.0211583112,8.83781509,-137.77005367,37.61914609,,,
imu,603.477836,-0.1818384512,-9.9095974376,1.9912506712,7.92563207,-137.85229968,37.49951553,,,
imu,603.486327,-0.4037531400000001,-9.818678212000002,1.9374169192,7.36486382,-137.20180851,37.49951553,,,
imu,603.494819,-0.5879842024,-9.745105417600001,1.9314353912,7.30504854,-135.57931904,37.23782368,,,
imu,603.50331,-0.7967395296000002,-9.792957641600001,2.0301306032,7.40224837,-133.03716964,36.70696307,,,
imu,603.511802,-1.0623193728,-9.974197940000002,2.13839626,7.23775635,-129.96415963,35.76487241,,,
imu,603.520293,-1.3015804928,-10.066911624,2.1521537744,6.59474209,-125.64998256,34.24705968,,,
imu,603.528739,-1.468465124,-10.0298261504,2.264008348,5.31619048,-120.19183826,31.59275663,,,
imu,603.537185,-1.6562851032,-9.9269438688,2.2927196824,3.81333157,-113.88132622,28.19076258,,,
imu,603.54563,-1.6939687296,-9.8043225448,2.341768212,2.57964142,-106.50161605,25.19252167,,,
imu,603.554076,-1.6879872016,-9.6709344704,2.419528076,1.92915025,-98.68076819,22.70271064,,,
imu,603.562522,-1.6790149096,-9.562070660800002,2.4183317704,1.64502767,-90.93468942999999,20.74376022,,,
imu,603.570968,-1.5952735176,-9.477132963200003,2.420126228800001,1.84690424,-83.11384156999999,19.63717754,,,
imu,603.579413,-1.4098461496,-9.377839598400001,2.4482394104,2.40019558,-75.69674685,18.69508688,,,
imu,603.587859,-1.22621324,-9.359895014400001,2.461398772,3.47687062,-69.05725077,17.32681235,,,
imu,603.596305,-1.085647332,-9.4041583216,2.483530425600001,4.359146,-63.41218371999999,15.84638417,,,
imu,603.60475,-0.9815687448000001,-9.4663662128,2.5140362184,5.15169846,-58.238162,15.24823137,,,
imu,603.613196,-0.9097904088000002,-9.5381445488,2.552916150400001,5.74985126,-53.73706218,15.00897025,,,
imu,603.621642,-0.8398065312,-9.626671163200001,2.576244109600001,6.05640457,-49.37054674,14.82952441,,,
imu,603.630088,-0.7781967928000002,-9.6703363176,2.610936972000001,5.87695873,-45.25076933,14.26127925,,,
imu,603.638533,-0.7578595976000001,-9.7301515976,2.6396483064,5.77228199,-41.17585338,13.64069572,,,
imu,603.646979,-0.6998387760000001,-9.746899876,2.6444335288,5.07692936,-37.05607597,12.97525073,,,
imu,602.191429,,,,,,,76.4292684,-22.02792280000001,104.7072728
imu,602.293022,,,,,,,75.6846292,-22.1377876,107.5149288
imu,602.394584,,,,,,,75.3794492,-23.71251640000001,111.6897912
imu,602.496147,,,,,,,77.6377812,-26.65445160000002,120.0517232
imu,602.597679,,,,,,,80.921518,-27.66764920000002,124.7148736
imu,602.699272,,,,,,,83.4972372,-28.07048680000002,127.2051424
imu,602.801017,,,,,,,81.80043640000001,-28.18035160000001,125.7891072
imu,602.902397,,,,,,,79.6641764,-26.88638840000002,118.4403728
imu,603.655425,-0.5772174520000001,-9.7510869456,2.6563965848,4.41148437,-33.16808277,12.24251355,,,
imu,603.663871,-0.4372496968000001,-9.711608860800002,2.6450316816,3.67127028,-29.29504339,11.19574615,,,
imu,603.672316,-0.3373581792000001,-9.6817012208,2.648022445600001,2.99087147,-26.17717192,9.84990235,,,
imu,603.680762,-0.2296906752000001,-9.646410205600002,2.624694486400001,2.4151494,-23.34342303,8.87042714,,,
imu,603.689208,-0.092713684,-9.596165370400001,2.610936972000001,2.116073,-20.73398144,8.40685872,,,
imu,603.697654,0.0514411408,-9.576426328,2.604955444,2.04878081,-18.49090844,8.1675976,,,
imu,603.706099,0.155519728,-9.560874355200001,2.613927736,2.01887317,-16.97309571,7.532060250000001,,,
imu,603.714545,0.2207183832,-9.549509452,2.6175166528,2.03382699,-15.64968264,7.01615346,,,
imu,603.722991,0.2703650656,-9.5357519376,2.624694486400001,2.06373463,-14.62534597,6.784369250000001,,,
imu,603.731485,0.3236006648,-9.554294674400001,2.6486205984,2.27308811,-13.69820913,6.717077060000001,,,
imu,603.739979,0.3570972216000001,-9.553696521600001,2.6569947376,2.43010322,-12.86079521,6.455385210000001,,,
imu,603.748473,0.3547046104000001,-9.572239258400002,2.6761356272,2.50487232,-12.12805803,5.93947842,,,
imu,603.756967,0.3636769024000001,-9.572837411200002,2.6851079192,2.51234923,-11.31307484,5.431048539999999,,,
imu,603.765461,0.3726491944000001,-9.526779645600001,2.6725467104,2.29551884,-10.50556856,4.862803380000001,,,
imu,603.773955,0.3899956256000001,-9.498666464000001,2.6839116136,2.28804193,-9.53357026,4.43661951,,,
imu,603.782449,0.4234921824,-9.491488630400001,2.6815190024,2.44505704,-8.59895651,3.91323581,,,
imu,603.790943,0.4432312248,-9.493283088800002,2.6599855016,2.5646876,-7.77649641,3.21040627,,,
imu,603.799437,0.4898871432,-9.502255380800001,2.661779960000001,2.57216451,-7.021328499999999,2.51505364,,,
imu,603.807931,0.5197947832,-9.506442450400002,2.6426390704,2.863764,-6.55028317,1.85708556,,,
imu,603.816425,0.5467116592000001,-9.48072188,2.625890792,3.25256332,-6.16148385,1.38604023,,,
imu,603.82492,0.5473098120000001,-9.4753385048,2.6252926392,3.52173208,-5.80259217,0.9822870900000003,,,
imu,603.833414,0.5317578392000001,-9.531564868,2.640844612,3.74603938,-5.510992679999999,0.6757337799999998,,,
imu,603.841908,0.502448352,-9.569248494400002,2.645629834400001,3.96286977,-5.204439369999999,0.5710570399999999,,,
imu,603.850402,0.4749333232000001,-9.5704448,2.6396483064,3.85071612,-4.93527061,0.15982699,,,
imu,603.858896,0.4438293776000001,-9.618895176800002,2.655798432,3.70865483,-4.41936382,-0.4158950799999999,,,
imu,603.86739,0.3959771536000001,-9.651195428000001,2.655200279200001,3.611455,-3.70905737,-0.62524856,,,
imu,603.875884,0.3397507904000001,-9.634447149600001,2.645629834400001,3.45443989,-3.06604311,-0.8495558599999999,,,
imu,603.884378,0.3415452488,-9.5668558832,2.6354612368,2.98339456,-2.04918335,-1.12620153,,,
imu,603.892872,0.3541064576,-9.567454036,2.64682614,2.63197979,-0.8080162900000003,-1.49257012,,,
imu,603.901366,0.391790084,-9.588987536800001,2.6390501536,2.51234923,0.2910894799999997,-2.02343073,,,
imu,603.90986,0.454596128,-9.609922884800001,2.6127314304,2.30299575,0.9939190199999999,-2.83093701,,,
imu,603.918354,0.5000557408,-9.599156134400001,2.620507416800001,2.13102682,1.77151766,-3.69825857,,,
imu,603.926848,0.5096261856000001,-9.5907819952,2.620507416800001,1.84690424,2.30237827,-4.40108811,,,
imu,603.935279,0.5048409632,-9.611119190400002,2.6282834032,1.71979677,2.55659321,-4.93942563,,,
imu,603.943709,0.4749333232000001,-9.617100718400001,2.6175166528,1.75718132,2.90053107,-5.23102512,,,
imu,603.95214,0.3666676664,-9.620091482400001,2.6264889448,1.61512003,3.3715764,-5.60487062,,,
imu,603.96057,0.206362716,-9.626671163200001,2.6282834032,1.24127453,4.126744309999999,-6.203023419999999,,,
imu,603.969001,0.0185427368,-9.604539509600002,2.6234981808,1.18893616,5.614649399999999,-6.5619151,,,
imu,603.977431,-0.1327899216,-9.6284656216,2.624694486400001,0.9870595899999999,7.87267622,-7.010529699999999,,,
imu,603.985862,-0.2590001624000001,-9.594370912,2.5947868464,0.88985976,10.81110185,-7.81055907,,,
imu,603.994292,-0.3612842912,-9.599754287200001,2.604955444,1.03939796,14.31029573,-8.92461866,,,
imu,604.002723,-0.5580765624000001,-9.6326526912,2.6181148056,1.10669015,17.99641236,-10.14335499,,,
imu,604.011153,-0.7554669864000001,-9.6117173432,2.578038568,0.9870595899999999,22.19095887,-11.85556738,,,
imu,604.019584,-0.9749890640000002,-9.591380148,2.5636829008,1.02444414,27.37993441,-13.27618028,,,
imu,604.028014,-1.381732968,-9.6224840936,2.5816274848,0.9048135799999999,33.36146241,-14.95848503,,,
imu,604.036445,-1.8692275,-9.6817012208,2.5606921368,0.64312173,40.73369567,-17.20903494,,,
imu,604.044875,-2.329805156,-9.7750130576,2.4954934816,0.26179932,50.28170974,-19.62407687,,,
imu,604.053305,-2.718604476,-9.894045464800001,2.4267059096,-0.46346095,61.72885895,-22.61484087,,,
imu,604.061699,-2.938126553600001,-9.984366537600001,2.3130568776,-1.7719202,74.52185196,-26.03926565,,,
imu,604.07013,-2.9506877624,-9.9813757736,2.1635186776,-3.15514855,88.09992052,-30.30110435,,,
imu,604.07856,-2.823281216,-9.9048122152,1.997830352,-4.1645314,101.67051217,-35.30315714,,,
imu,604.086991,-2.601366527200001,-9.820472670400001,1.8865739312,-4.85988403,114.44855136,-40.51456340999999,,,
imu,604.095421,-2.2777658624,-9.815089295200002,1.7753175104,-4.95708386,126.32936135,-45.09790924,,,
imu,604.103852,-1.8375254016,-9.8168837536,1.6503035752,-4.89726858,136.94657355,-48.78402586999999,,,
imu,604.112282,-1.3452456472,-9.8593526024,1.5378508488,-4.66548437,145.82914263,-51.67759004,,,
imu,604.120713,-0.7393168608000001,-9.9329253968,1.5031579864,-4.52342308,152.58079236,-54.58610803,,,
imu,604.129143,-0.1656883256,-10.0621264016,1.4989709168,-4.48603853,157.21647656,-57.56939512,,,
imu,604.137962,0.2679724544000001,-10.2128609072,1.5097376672,-4.85240712,159.63151849,-59.71526829,,,
imu,604.14678,0.6854831088000001,-10.2601149784,1.5306730152,-5.54028284,160.35677876,-59.67788374,,,
imu,604.155598,0.9091922560000001,-10.192523712,1.5534028216,-6.714157709999999,159.23524226,-57.58434894,,,
imu,604.164416,1.1759684048,-10.1249324456,1.638938672,-7.828217299999999,157.08189218,-54.53376966,,,
imu,604.173235,1.438557484,-10.0136760248,1.6616684784,-8.77778487,154.106082,-51.71497459,,,
imu,604.182053,1.6323589912,-9.935916160800002,1.7238763696,-9.480614410000001,150.03864296,-49.4793785,,,
imu,604.190871,1.7609618432,-9.809107767200002,1.7783082744,-9.86193682,144.9094827,-47.04190584,,,
imu,604.199689,1.9302390856,-9.6709344704,1.8608533608,-10.09372103,139.09992363,-44.20815695,,,
imu,604.208508,2.1617242192,-9.655382497600002,1.9613430312,-9.719875530000001,132.50528901,-41.08280857,,,
imu,604.217326,2.3321977672,-9.579417092000002,2.0468788816,-9.18153801,124.93117918,-38.36869024,,,
imu,604.226144,2.4500338688,-9.377839598400001,2.1192553704,-8.54600066,116.10842538,-36.46955509999999,,,
imu,604.234962,2.4518283272,-9.290509289600001,2.246063764000001,-7.708586739999999,106.66508805,-34.68257361,,,
imu,604.243781,2.36270356,-9.302472345600002,2.3244217808,-6.34778912,97.00492033,-32.71614628,,,
imu,604.252599,2.2436711528,-9.327594763200002,2.4009853392,-4.97203768,87.44195244000001,-30.31605817,,,
imu,604.261417,2.0612345488,-9.3168280128,2.4153410064,-3.93274719,78.00609202,-27.83372405,,,
imu,604.270235,1.866236736,-9.406550932800002,2.4727636752,-3.01308726,69.37026097,-25.29157465,,,
imu,604.279054,1.6772204512,-9.458590226400002,2.5074565376,-2.2205348,61.59427457,-22.81671744,,,
imu,604.287872,1.4547076096,-9.4831144912,2.529588191200001,-1.54013599,54.35662568999999,-20.44653697,,,
imu,604.29669,1.2220261704,-9.502255380800001,2.5612902896,-1.14385976,47.70217579,-18.36795599,,,
imu,604.305508,0.9821668976000001,-9.564463272000001,2.5684681232,-0.7550604399999999,41.95243199999999,-16.52863613,,,
imu,604.314327,0.7781967928000002,-9.637437913600001,2.5606921368,-0.5980453299999999,37.18216341999999,-15.12297705,,,
imu,604.323145,0.6083213976,-9.700243957600001,2.5642810536,-0.5681376899999999,33.10724747,-14.08368656,,,
imu,604.331963,0.4378478496000001,-9.70502918,2.554112456,-0.44850713,29.6902996,-13.31356483,,,
imu,604.340439,0.3044597752,-9.701440263200002,2.576244109600001,-0.5008455,26.8490738,-12.67802748,,,
imu,604.348916,0.1866236736,-9.6733270816,2.569066276,-0.51579932,24.54618552,-12.04249013,,,
imu,604.357392,0.09749890640000002,-9.672130776000001,2.570860734400001,-0.40364567,22.52741982,-11.50415261,,,
imu,604.365868,0.0466559184,-9.641624983200002,2.5636829008,-0.53823005,20.78529979,-11.29479913,,,
imu,604.374344,0.002990764,-9.567454036,2.564879206400001,-0.43355331,19.30487161,-11.11535329,,,
imu,604.382821,-0.07775986400000001,-9.5393408544,2.583421943200001,-0.23167674,17.98145854,-11.03310728,,,
imu,604.391297,-0.173464312,-9.554294674400001,2.595983152,-0.0522309,16.80758367,-10.93590745,,,
imu,604.399773,-0.2715613712,-9.566257730400002,2.564879206400001,-0.15690764,15.94773902,-10.62187723,,,
imu,604.408249,-0.3564990688,-9.578220786400001,2.585814554400001,-0.21672292,15.64118571,-9.9265246,,,
imu,604.416726,-0.400762376,-9.620091482400001,2.6055535968,-0.08213854000000001,15.64866262,-9.23117197,,,
imu,604.425202,-0.4013605288,-9.636241608,2.613927736,-0.6279529699999999,15.65613953,-9.03677231,,,
imu,604.433678,-0.439642308,-9.626671163200001,2.6127314304,-1.05413684,15.72343172,-8.939572479999999,,,
imu,604.442155,-0.4671573368000001,-9.636241608,2.6354612368,-1.59247436,15.91035447,-8.96948012,,,
imu,604.450631,-0.4593813504000001,-9.654784344800001,2.649816904,-2.01865823,16.36644598,-9.13397214,,,
imu,604.459107,-0.4145198904,-9.630260080000001,2.659387348800001,-2.30278081,17.02441406,-9.26107961,,,
imu,604.467583,-0.3714528888,-9.6218859408,2.7012580448,-2.54951884,17.40573647,-9.2536027,,,
imu,603.003929,,,,,,,73.9145852,-25.18958760000001,113.5697
imu,603.105522,,,,,,,73.24318919999999,-25.83656920000001,111.8851064
imu,603.207084,,,,,,,73.47512599999999,-27.14273960000002,109.1629008
imu,603.308677,,,,,,,73.353054,-25.95864120000002,112.4222232
imu,603.410179,,,,,,,74.6836388,-26.58120840000002,117.414968
imu,603.511741,,,,,,,79.55431159999999,-27.7286852,123.4331176
imu,603.613365,,,,,,,84.11980439999999,-28.82733320000002,128.2061328
imu,603.714866,,,,,,,86.53683000000001,-29.49872920000001,128.889736
imu,604.47606,-0.3128339144,-9.6159044128,2.7347546016,-2.84111833,17.60761304,-9.34332562,,,
imu,604.484536,-0.2703650656,-9.6326526912,2.760475172,-3.20001001,17.75715124,-9.59754056,,,
imu,604.493012,-0.2685706072,-9.61530626,2.764064088800001,-3.37197894,18.01136618,-9.859232409999999,,,
imu,604.501488,-0.2619909264,-9.61530626,2.7838031312,-3.58133242,18.2506273,-9.90409387,,,
imu,604.509965,-0.2404574256,-9.631456385600002,2.7927754232,-3.82059354,18.6992419,-9.82184786,,,
imu,604.518441,-0.19439966,-9.640428677600001,2.801747715200001,-3.98508556,19.01327212,-9.507817639999999,,,
imu,604.526917,-0.1327899216,-9.6326526912,2.820290452000001,-4.321546509999999,19.12542577,-9.35080253,,,
imu,604.535393,-0.0526374464,-9.585398620000001,2.8274682856,-4.69539201,19.11794886,-9.23864888,,,
imu,604.543858,0.0065796808,-9.562070660800002,2.85617962,-4.867360939999999,18.67681117,-9.26107961,,,
imu,604.552323,0.0173464312,-9.590183842400002,2.8902743296,-5.009422229999999,18.04875073,-9.51529455,,,
imu,604.560788,0.03588916800000001,-9.535153784800002,2.8543851616,-5.271114079999999,17.54779776,-9.67230966,,,
imu,604.569253,0.04246884880000001,-9.4908904776,2.854983314400001,-5.413175369999999,17.17395226,-9.87418623,,,
imu,604.577717,0.0634041968,-9.464571754400001,2.8484036336,-5.5851443,16.72533766,-9.65735584,,,
imu,604.586182,0.08912476720000001,-9.3628857784,2.8394313416,-5.48794447,16.2318616,-9.26107961,,,
imu,604.594647,0.1178361016,-9.305463109600002,2.8364405776,-5.061760599999999,15.58884734,-9.02181849,,,
imu,604.603112,0.1423603664,-9.290509289600001,2.8460110224,-4.45613089,14.80377179,-8.962003209999999,,,
imu,604.611577,0.1698753952,-9.3036686512,2.850198092000001,-3.49908641,13.77195821,-8.97695703,,,
imu,604.620041,0.161501256,-9.3335762912,2.8537870088,-2.5196112,12.61303716,-8.99191085,,,
imu,604.628506,0.1417622136,-9.4071490856,2.8615629952,-1.89155076,11.34943937,-9.11901832,,,
imu,604.636971,0.1028822816,-9.451412392800002,2.8280664384,-1.45041307,10.42977944,-9.33584871,,,
imu,604.645436,0.08194693360000001,-9.4621791432,2.817299688,-1.33825942,9.69704226,-9.47791,,,
imu,604.653901,0.04486146000000001,-9.465169907200002,2.829262744000001,-1.16629049,9.19608929,-9.64240202,,,
imu,604.662366,-0.002990764,-9.5213962704,2.8328516608,-1.21862886,8.49325975,-9.99381679,,,
imu,604.67083,-0.0275150288,-9.5812115504,2.838833188800001,-0.91955246,8.16427571,-10.225601,,,
imu,604.679295,-0.0562263632,-9.635643455200002,2.8507962448,-0.7401066199999999,7.79790712,-10.47981594,,,
imu,604.68776,-0.0514411408,-9.66016772,2.85617962,-0.71019898,7.54369218,-10.92843054,,,
imu,604.696225,-0.06400234960000001,-9.706225485600001,2.866348217600001,-0.8672140899999999,7.25209269,-11.83313665,,,
imu,604.70469,-0.0562263632,-9.727758986400001,2.877713120800001,-1.26349032,6.6614168,-12.45372018,,,
imu,604.713154,-0.08673215600000002,-9.70502918,2.8789094264,-1.68219728,6.40720186,-12.82756568,,,
imu,604.721619,-0.101685976,-9.727758986400001,2.9088170664,-2.01865823,6.12307928,-13.216365,,,
imu,604.730084,-0.110658268,-9.715795930400002,2.9058263024,-2.40745755,5.704372319999999,-13.47805685,,,
imu,604.738549,-0.1423603664,-9.676915998400002,2.895059552,-2.90841052,5.420249739999999,-13.84442544,,,
imu,604.747012,-0.1782495344,-9.637437913600001,2.918985664,-3.14767164,5.23332699,-13.98648673,,,
imu,604.755476,-0.236270356,-9.631456385600002,2.921976428000001,-3.4168404,4.85948149,-14.24817858,,,
imu,604.763939,-0.3020671640000001,-9.617698871200002,2.914798594400001,-3.68600916,4.6426511,-14.49491661,,,
imu,604.772403,-0.3762381112000001,-9.642223136000002,2.945304387200001,-3.81311663,4.68003565,-14.51734734,,,
imu,604.780867,-0.3750418056000001,-9.676915998400002,2.9925584584,-3.73087062,5.03892733,-14.3379015,,,
imu,604.78933,-0.3624805968,-9.638036066400002,2.9871750832,-3.64862461,5.21837317,-14.22574785,,,
imu,604.797794,-0.2996745528,-9.556089132800002,2.981791708,-3.66357843,5.21089626,-14.46500897,,,
imu,604.806257,-0.266177996,-9.510031367200002,3.020073487200001,-3.63367079,5.03892733,-14.90614666,,,
imu,604.814721,-0.2685706072,-9.5148165896,3.0469903632,-3.23739456,4.62022037,-15.18279233,,,
imu,604.823184,-0.2691687600000001,-9.554294674400001,3.054168196800001,-3.06542563,4.126744309999999,-15.33233053,,,
imu,604.831648,-0.3116376088,-9.5632669664,3.084673989600001,-3.1925331,3.62579134,-15.41457654,,,
imu,604.840111,-0.370854736,-9.617100718400001,3.1241520744,-3.55142478,3.39400713,-15.25756143,,,
imu,604.848575,-0.4019586816,-9.6117173432,3.1295354496,-3.95517792,3.26689966,-14.84633138,,,
imu,604.857038,-0.4205014184,-9.5776226336,3.146283728,-4.157054489999999,3.34166876,-14.1135942,,,
imu,604.865502,-0.4438293776000001,-9.560874355200001,3.161237548,-4.34397724,3.38653022,-13.84442544,,,
imu,604.873966,-0.4892889904,-9.502853533600002,3.137311436000001,-4.47856162,3.49868387,-13.85937926,,,
imu,604.882429,-0.5185984776000001,-9.408943544000001,3.109796407200001,-4.441177069999999,3.8949601,-13.88180999,,,
imu,604.890893,-0.5407301312,-9.3586987088,3.117572393600001,-4.29163887,4.2688056,-13.69488724,,,
imu,604.899356,-0.5389356728,-9.319220624000002,3.0990296568,-3.94770101,4.75480475,-13.32104174,,,
imu,604.90782,-0.5431227424,-9.255816427200001,3.071514628,-3.40188658,5.397819009999999,-13.13411899,,,
imu,604.916283,-0.5981528,-9.2300958568,3.033831001600001,-2.60933412,5.592218669999999,-13.26122646,,,
imu,604.924747,-0.6400234960000001,-9.242657065600001,2.9865769304,-1.83921239,5.681941589999999,-13.6649796,,,
imu,604.93321,-0.6765108168000001,-9.239666301600002,2.9500896096,-0.90459864,5.50997266,-14.15845566,,,
imu,604.941674,-0.7052221512000001,-9.273761011200001,2.943509928800001,0.22441477,5.50997266,-14.49491661,,,
imu,604.950136,-0.7901598488000001,-9.318024318400001,2.910611524800001,1.28613599,5.113696429999999,-14.62202408,,,
imu,604.958598,-0.8727049352000001,-9.3664746952,2.865151912,2.22822665,4.53797436,-14.42762442,,,
imu,604.967061,-0.9851576616000001,-9.422701058400001,2.817897840800001,2.7889949,4.00711375,-14.02387128,,,
imu,604.975523,-1.112564208,-9.463973601600001,2.7401379768,3.02077911,3.85757555,-13.1415959,,,
imu,604.983985,-1.21125942,-9.471151435200001,2.671350404800001,3.17031731,4.13422122,-12.10230541,,,
imu,604.992447,-1.244157824,-9.412532460800001,2.60196468,3.23013259,4.29123633,-11.21255312,,,
imu,605.00091,-1.2214280176,-9.328791068800001,2.551121692,3.32733242,4.15665195,-10.65926178,,,
imu,605.009372,-1.1705850296,-9.297687123200001,2.5074565376,3.55911663,3.51363769,-10.20317027,,,
imu,605.017834,-1.1197420416,-9.298285276000001,2.4631932304,4.23951544,2.67622377,-10.09101662,,,
imu,605.026297,-1.079665804,-9.3383615136,2.4356782016,4.62083785,1.21074941,-10.04615516,,,
imu,605.034759,-1.1101715968,-9.4041583216,2.410555784,4.86009897,-0.39678624,-9.60501747,,,
imu,605.043221,-1.1329014032,-9.3802322096,2.325019933600001,4.77785296,-2.10899863,-8.97695703,,,
imu,605.051683,-1.1729776408,-9.392195265600002,2.3046827384,4.52363802,-4.11281051,-8.34141968,,,
imu,605.060146,-1.2315966152,-9.394587876800001,2.2735787928,4.47877656,-5.952130370000001,-7.42175975,,,
imu,605.068608,-1.3225158408,-9.3766432928,2.225128416,4.26942308,-7.8437886,-6.442284539999999,,,
imu,605.07707,-1.4523149984,-9.401765710400001,2.2023986096,4.1348387,-9.64572391,-5.60487062,,,
imu,605.085532,-1.5127284312,-9.4454308648,2.1808651088,4.27689999,-11.24578265,-4.47585721,,,
imu,605.093995,-1.5097376672,-9.5010590752,2.174285428,4.19465398,-12.63648791,-3.24216706,,,
imu,605.102457,-1.4074535384,-9.4974701584,2.174285428,4.32176145,-14.21411592,-1.87389253,,,
imu,605.110919,-1.2603079496,-9.554294674400001,2.2077819848,4.68813004,-16.18054325,-0.4308489,,,
imu,605.119382,-1.1023956104,-9.642223136000002,2.2484563752,4.97225262,-18.84980012,0.75050288,,,
imu,605.127844,-0.9277349928000002,-9.706225485600001,2.264008348,5.13674464,-22.28170181,2.27579252,,,
imu,605.136306,-0.7435039304000001,-9.8043225448,2.2921215296,5.30871357,-26.49120214,4.51886552,,,
imu,605.144768,-0.5891805080000001,-9.917971576800003,2.3202347112,5.12179082,-31.29885527,7.06101492,,,
imu,605.153558,-0.424688488,-9.977786856800002,2.323823628,4.78532987,-36.83176867,9.25922646,,,
imu,605.162421,-0.2853188856,-9.993936982400001,2.3369829896,4.40400746,-42.71609684,11.00134649,,,
imu,605.171284,-0.1100601152,-10.0202557056,2.3680869352,3.72360865,-48.88454759,12.48925158,,,
imu,605.180148,0.03887993200000001,-10.0322187616,2.3920130472,3.02077911,-55.38198238,14.14164869,,,
imu,605.189011,0.1800439928,-9.9789831624,2.3944056584,2.40019558,-62.33550868,16.17536821,,,
imu,605.197874,0.3559009160000001,-9.916177118400002,2.416537312,1.83195042,-69.74512648999999,18.13431863,,,
imu,605.206738,0.4952705184000001,-9.8850731728,2.42251884,1.4431511,-77.55102052999999,20.54188365,,,
imu,605.215601,0.5718340768000001,-9.839015407200002,2.40756502,1.24875144,-85.66346788,23.2709558,,,
imu,605.224464,0.5963583416000001,-9.7427128064,2.3662924768,0.80761375,-93.99274562,26.05236632,,,
imu,605.233328,0.5808063688,-9.6087265792,2.3010938216,0.5982602699999999,-102.25473117,29.24500689,,,
imu,605.242191,0.5233837000000001,-9.486105255200002,2.2167542768,1.01696723,-110.29988633,32.81149296,,,
imu,605.251055,0.4127254320000001,-9.4005694048,2.1461722464,1.47305874,-118.06091891,36.29573302,,,
imu,603.819339,,,,,,,87.00070360000001,-29.09589160000001,128.6944208
imu,603.917911,,,,,,,89.6984948,-29.57197240000002,128.7310424
imu,604.019626,,,,,,,86.8053884,-29.20575640000001,129.1582944
imu,604.121036,,,,,,,85.01093,-29.87715240000002,124.6050088
imu,604.222568,,,,,,,75.81890840000001,-27.76530680000002,119.6244712
imu,604.324131,,,,,,,74.6470172,-27.98503640000001,112.3001512
imu,604.425724,,,,,,,73.169946,-26.94742440000002,114.0091592
imu,604.527256,,,,,,,73.01125239999999,-26.98404600000002,113.3133488
imu,604.628849,,,,,,,72.32764920000001,-27.13053240000001,112.593124
imu,604.730442,,,,,,,72.08350519999999,-27.8263428,111.7508272
imu,604.839786,,,,,,,71.66846039999999,-28.96161240000001,111.5066832
imu,604.933567,,,,,,,70.4599476,-30.57296280000001,112.104836
imu,605.035129,,,,,,,72.1567484,-31.9035476,111.1160528
imu,605.136661,,,,,,,70.2035964,-33.11206040000001,111.5066832
imu,605.238346,,,,,,,73.30422519999999,-33.88111400000003,111.3357824
