Type,Timestamp,Data Accelerometer X,Data Accelerometer Y,Data Accelerometer Z,Data Gyroscope X,Data Gyroscope Y,Data Gyroscope Z,Data Magnetometer X,Data Magnetometer Y,Data Magnetometer Z
imu,96.21432,-0.3570972216000001,-9.578818939200001,2.4380708128,4.01520814,-35.67284762,1.75988573,,,
imu,96.22296,-0.3212080536,-9.573435564,2.443454188,4.24699235,-35.62050925,2.24588488,,,
imu,96.231601,-0.3277877344,-9.556089132800002,2.425509604,4.56849948,-35.8822011,2.44776145,,,
imu,96.240241,-0.3893974728000001,-9.520199964800002,2.4308929792,4.63579167,-36.27100042,2.32065398,,,
imu,96.248882,-0.4665591840000001,-9.532163020800002,2.4308929792,4.71056077,-36.24109278,2.52253055,,,
imu,96.257522,-0.5586747152,-9.555490980000002,2.437472660000001,5.00216026,-35.94201638,2.74683785,,,
imu,96.265995,-0.6316493568000001,-9.5638651192,2.4380708128,5.248898290000001,-35.37377122,2.79169931,,,
imu,96.274467,-0.7118018320000001,-9.578220786400001,2.449435716,5.36852885,-34.33448073,2.39542308,,,
imu,96.28294,-0.7512799168000001,-9.575230022400001,2.4536227856,5.44329795,-33.07088294,1.78979337,,,
imu,96.291412,-0.7907580016000001,-9.595567217600001,2.454819091200001,5.65265143,-31.75494678,1.14677911,,,
imu,96.299884,-0.8230582528,-9.616502565600001,2.4536227856,5.60778997,-30.26704169,0.5710570399999999,,,
imu,96.308357,-0.8296379336000002,-9.6434194416,2.437472660000001,5.65265143,-28.89129025,-0.25887997,,,
imu,96.316829,-0.8583492680000002,-9.657176956,2.4249114512,5.60778997,-27.53796954,-1.00657097,,,
imu,96.325302,-0.8733030880000001,-9.646410205600002,2.428500368,5.46572868,-25.90052625,-1.44023175,,,
imu,96.333774,-0.885266144,-9.666149248000002,2.4207243816,5.27132902,-24.2182215,-1.39537029,,,
imu,96.342247,-0.9056033392000001,-9.6912716656,2.4069668672,5.11431391,-22.58077821,-1.22340136,,,
imu,96.350719,-0.9103885616000001,-9.706823638400001,2.3973964224,5.04702172,-20.75641217,-1.08881698,,,
imu,96.359192,-0.9067996448000001,-9.693066124000001,2.398592728,4.8825297,-19.10401506,-1.14115535,,,
imu,96.367664,-0.8750975464000001,-9.690673512800002,2.37765738,4.65074549,-17.23478756,-1.14863226,,,
imu,96.376136,-0.8487788232000001,-9.680504915200002,2.359712796,4.38157673,-15.85903612,-1.26826282,,,
imu,96.384609,-0.8302360864000001,-9.671532623200001,2.3585164904,4.29185381,-14.43842322,-1.4776163,,,
imu,96.393081,-0.8248527112,-9.684093832000002,2.3513386568,4.15726943,-13.21968689,-1.60472377,,,
imu,96.401554,-0.8093007384,-9.685888290400001,2.3573201848,3.7609932,-11.91122764,-1.89632326,,,
imu,96.410026,-0.7949450712000001,-9.696056888000001,2.3579183376,3.64883955,-10.54295311,-1.85893871,,,
imu,96.418499,-0.7931506128000001,-9.709216249600003,2.3585164904,3.6862241,-9.16720167,-1.88136944,,,
imu,96.426971,-0.7823838624,-9.709814402400001,2.3579183376,3.3871477,-7.985849890000001,-2.18044584,,,
imu,96.435444,-0.7787949456000002,-9.7086180968,2.3489460456,3.0880713,-6.81945193,-2.47204533,,,
imu,96.443916,-0.7877672376000001,-9.708019944000002,2.3513386568,2.81890254,-5.60819251,-2.55429134,,,
imu,96.452388,-0.7638411256000001,-9.709814402400001,2.3561238792,2.60954906,-4.3296409,-2.80102937,,,
imu,96.460861,-0.741709472,-9.718786694400002,2.362105407200001,2.40019558,-3.10342766,-3.0477674,,,
imu,96.469326,-0.7129981376000001,-9.716992236000001,2.3519368096,2.27308811,-1.95198352,-3.1973056,,,
imu,96.47779,-0.7100073736000001,-9.714599624800002,2.3471515872,1.93662716,-1.03232359,-3.53376655,,,
imu,96.486255,-0.6896701784000001,-9.709216249600003,2.3603109488,1.71979677,-0.09023292999999999,-3.84031986,,,
imu,96.49472,-0.6723237472000001,-9.703832874400002,2.359712796,1.28613599,0.62007352,-4.13939626,,,
imu,96.503185,-0.6591643856000001,-9.689477207200001,2.3435626704,0.9048135799999999,1.36028761,-4.34874974,,,
imu,96.51165,-0.6436124128,-9.671532623200001,2.3441608232,0.67302937,1.99582496,-4.63287232,,,
imu,96.520115,-0.6196863008000001,-9.6667474008,2.3435626704,0.70293701,2.57154703,-4.85717962,,,
imu,96.528579,-0.6053306336000001,-9.662560331200002,2.3411700592,0.5982602699999999,3.08745382,-4.92447181,,,
imu,96.537044,-0.580208216,-9.6499991224,2.3280106976,0.49358353,3.47625314,-4.82727198,,,
imu,96.545509,-0.5670488544000001,-9.634447149600001,2.3190384056,0.3739529699999999,3.75289881,-4.67773378,,,
imu,96.553974,-0.5730303824,-9.617698871200002,2.3196365584,0.3889067899999999,3.96225229,-4.53567249,,,
imu,96.562439,-0.5808063688,-9.612913648800001,2.3154494888,0.55339881,4.11179049,-4.25154991,,,
imu,96.570903,-0.5867878968000001,-9.637437913600001,2.3184402528,0.70293701,4.523020539999999,-3.81041222,,,
imu,96.579368,-0.5999472584000001,-9.6428212888,2.3339922256,0.57582954,4.82209694,-3.43656672,,,
imu,96.587833,-0.5837971328000001,-9.6296619272,2.3513386568,0.73284465,5.20341935,-3.18235178,,,
imu,96.596298,-0.5855915912,-9.638634219200002,2.3579183376,0.7104139199999999,5.36043446,-3.05524431,,,
imu,96.604763,-0.5790119104,-9.667943706400001,2.3561238792,0.78518302,5.614649399999999,-3.32441307,,,
imu,96.613228,-0.5891805080000001,-9.689477207200001,2.3585164904,0.8823828499999999,5.90624889,-3.42908981,,,
imu,96.621692,-0.5915731192000001,-9.6745233872,2.3680869352,0.83004448,6.16794074,-3.39170526,,,
imu,96.630157,-0.5915731192000001,-9.657775108800001,2.3758629216,0.66555246,6.59412461,-3.22721324,,,
imu,96.638622,-0.6005454112,-9.6709344704,2.3764610744,0.50853735,6.863293369999999,-3.08515195,,,
imu,96.647087,-0.6023398696000001,-9.686486443200002,2.37765738,0.3963837,7.341815609999999,-3.06272122,,,
imu,96.655552,-0.6083213976,-9.682299373600001,2.3758629216,0.19450713,7.82033785,-3.24964397,,,
imu,96.664016,-0.6316493568000001,-9.682299373600001,2.3812462968,-0.06718472,8.19418335,-3.40665908,,,
imu,96.672495,-0.6806978864000002,-9.679308609600001,2.380648144,-0.10456927,8.87458216,-3.35432071,,,
imu,96.680974,-0.7171852072000001,-9.675719692800001,2.3926112,-0.20924601,9.7269499,-3.1973056,,,
imu,96.689453,-0.7548688336000001,-9.664952942400001,2.3854333664,-0.47841477,10.82605567,-3.06272122,,,
imu,96.697932,-0.7889635432000001,-9.635045302400002,2.3782555328,-0.65786061,11.94011526,-3.2720747,,,
imu,96.70641,-0.8607418792,-9.635045302400002,2.3842370608,-0.6503837,13.45792799,-3.5711511,,,
imu,96.714889,-0.9402962016,-9.655382497600002,2.3914148944,-0.64290679,15.01312527,-3.92256587,,,
imu,96.723368,-1.0174579128,-9.642223136000002,2.3782555328,-0.6279529699999999,16.88982968,-4.318842099999999,,,
imu,96.731847,-1.0820584152,-9.621287788000002,2.3728721576,-0.78496808,19.25253324,-4.991764,,,
imu,96.740326,-1.169388724,-9.5985579816,2.3752647688,-0.7550604399999999,21.94422084,-5.77683955,,,
imu,96.748804,-1.2154464896,-9.594370912,2.3579183376,-0.73262971,24.86021574,-6.4123769,,,
imu,96.757283,-1.223222476,-9.591380148,2.3423663648,-0.48589168,28.24725597,-7.100252619999999,,,
imu,96.765762,-1.2208298648,-9.589585689600002,2.3435626704,-0.20924601,31.64925002,-7.862897439999999,,,
imu,96.774241,-1.2136520312,-9.5776226336,2.3411700592,-0.16438455,34.76712149,-9.05920304,,,
imu,96.78272,-1.2148483368,-9.5985579816,2.3244217808,-0.08961545,38.03453116,-10.21064718,,,
imu,96.791198,-1.2136520312,-9.654784344800001,2.3292070032,0.03749201999999999,41.40661756999999,-11.16021475,,,
imu,96.799677,-1.208268656,-9.759461084800002,2.3471515872,-0.007369440000000005,44.66655033,-11.93781339,,,
imu,96.808156,-1.1532385984,-9.818080059200001,2.344758976,-0.32887657,47.88909854,-12.5434431,,,
imu,96.816635,-1.1041900688,-9.8402117128,2.3154494888,-0.77001426,51.10416984,-13.0668268,,,
imu,96.825114,-1.0509544696,-9.866530436000001,2.2933178352,-1.4728438,54.02764165,-13.47805685,,,
imu,96.833592,-0.9546518688000002,-9.845595088000001,2.269989876,-2.19062716,56.61465251,-13.78461016,,,
imu,96.842071,-0.8350213088000001,-9.818080059200001,2.2783640152,-2.92336434,58.71566421999999,-13.91171763,,,
imu,96.85055,-0.7261574992000001,-9.810902225600001,2.2574286672,-3.67853225,60.67461463999999,-14.06873274,,,
imu,96.859029,-0.62806044,-9.812696684000002,2.231109944,-4.42622325,62.02045844,-14.22574785,,,
imu,96.867508,-0.5341504504000001,-9.794752100000002,2.2317080968,-4.747730379999999,62.98497982999999,-14.1883633,,,
imu,96.876056,-0.4288755576000001,-9.7612555432,2.2382877776,-5.226252619999999,63.50088662,-13.98648673,,,
imu,96.884605,-0.311039456,-9.727160833600001,2.2382877776,-5.68982104,63.53827116999999,-13.80704089,,,
imu,96.893154,-0.2141387024,-9.724170069600001,2.249054528,-5.94403598,63.25414859,-13.50048758,,,
imu,96.901703,-0.137575144,-9.708019944000002,2.252045292,-6.17582019,62.43168849,-13.4406723,,,
imu,96.910251,-0.04605776560000001,-9.654186192000001,2.252045292,-6.235635469999999,61.35501344999999,-13.08178062,,,
imu,96.9188,0.04187069600000001,-9.613511801600001,2.263410195200001,-6.41508131,60.12132329999999,-12.65559675,,,
imu,96.927349,0.1507345056,-9.5740337168,2.293915988,-6.31788148,58.34929562999999,-12.16212069,,,
imu,96.935897,0.236270356,-9.5154147424,2.3034864328,-5.94403598,56.26323773999999,-11.39947587,,,
imu,96.944446,0.3002727056,-9.511227672800002,2.3274125448,-5.697297949999999,53.74351907,-10.90599981,,,
imu,96.952995,0.3612842912,-9.495675700000001,2.3722740048,-5.34588318,51.03687764999999,-10.13587808,,,
imu,96.961544,0.4252866408000001,-9.48072188,2.3973964224,-4.725299649999999,48.09097511,-9.19378742,,,
imu,96.970092,0.4659610312,-9.520199964800002,2.4326874376,-4.24677741,45.08525728999999,-8.18440457,,,
imu,96.978641,0.5000557408,-9.516012895200001,2.450632021600001,-3.98508556,41.72064778999999,-7.42175975,,,
imu,96.98719,0.5042428104000001,-9.5213962704,2.483530425600001,-3.60376315,38.18406936,-6.56939201,,,
imu,96.995739,0.4797185456,-9.558481744000002,2.5194195936,-3.30468675,34.94656733,-5.65720899,,,
imu,97.004287,0.4348570856000001,-9.591978300800001,2.5367660248,-3.12524091,31.73149603,-4.80484125,,,
imu,97.012836,0.4163143488000001,-9.5865949256,2.552916150400001,-3.17757928,28.76316276,-3.90013514,,,
imu,97.021385,0.3989679176000001,-9.572239258400002,2.5828237904,-3.05794872,26.0266137,-3.13749032,,,
imu,97.029934,0.3541064576,-9.561472508000001,2.5905997768,-3.028041079999999,23.49194121,-2.83841392,,,
imu,97.038482,0.3122357616,-9.557285438400001,2.5888053184,-2.98317962,21.1666222,-2.61410662,,,
imu,97.047031,0.2775428992,-9.554294674400001,2.601366527200001,-2.90093361,19.0730874,-2.3748455,,,
imu,97.05558,0.2374666616,-9.5237888816,2.6145258888,-2.75139541,17.22629063,-2.001,,,
imu,96.249878,,,,,,,92.6892588,-29.69404440000001,129.500096
imu,97.064087,0.1967922712,-9.504647992000002,2.6103388192,-2.61681103,15.38697077,-2.06829219,,,
imu,97.072635,0.1716698536,-9.484908949600001,2.6145258888,-2.370073,13.9140195,-2.04586146,,,
imu,97.081351,0.1357806856,-9.471749588000002,2.613329583200001,-2.00370441,12.66537553,-1.88136944,,,
imu,97.090068,0.1250139352,-9.474740352000001,2.6252926392,-1.74201256,11.58122358,-1.75426197,,,
imu,97.098784,0.1190324072,-9.471749588000002,2.6270870976,-1.3233056,10.6989482,-1.70940051,,,
imu,97.1075,0.09630260080000001,-9.499862769600002,2.6330686256,-0.90459864,9.734426809999999,-1.83650798,,,
imu,97.116216,0.08374139200000001,-9.51062952,2.6336667784,-0.49336859,8.9792589,-2.01595382,,,
imu,97.124932,0.0723764888,-9.5501076048,2.652807668,-0.20924601,8.49325975,-2.06829219,,,
imu,97.133648,0.0532355992,-9.5668558832,2.6569947376,-0.05970781,7.94744532,-2.17296893,,,
imu,97.142364,0.05443190480000001,-9.556089132800002,2.6605836544,-0.08961545,7.54369218,-2.30755331,,,
imu,97.15108,0.03588916800000001,-9.5776226336,2.685706072000001,-0.127,7.20723123,-2.34493786,,,
imu,97.159796,0.03289840400000001,-9.6075302736,2.670752252,-0.30644584,7.00535466,-2.26269185,,,
imu,97.168512,0.007775986400000001,-9.6218859408,2.6773319328,-0.55318387,6.74366281,-2.50942988,,,
imu,97.177228,0.0023926112,-9.606333968000001,2.6821171552,-0.69524516,6.69880135,-2.73373718,,,
imu,97.185944,-0.0263187232,-9.588987536800001,2.688696836,-0.90459864,6.6614168,-3.13001341,,,
imu,97.194661,-0.0352910152,-9.600352440000002,2.6916876,-0.97189083,6.60907843,-3.54124346,,,
imu,97.203377,-0.04187069600000001,-9.6015487456,2.6839116136,-1.07656757,6.534309329999999,-3.98985806,,,
imu,97.212093,-0.0370854736,-9.591978300800001,2.686902377600001,-1.21115195,6.37729422,-4.25154991,,,
imu,97.220809,-0.03588916800000001,-9.5566872856,2.67673378,-1.26349032,6.32495585,-4.48333412,,,
imu,97.229525,-0.04007623760000001,-9.557285438400001,2.664770724000001,-1.3233056,6.11560237,-4.68521069,,,
imu,97.238241,-0.0340947096,-9.562668813600002,2.6695559464,-1.48032071,5.99597181,-4.61044159,,,
imu,97.246957,-0.0346928624,-9.553696521600001,2.6659670296,-1.4728438,5.95858726,-4.59548777,,,
imu,97.255673,-0.0263187232,-9.554892827200002,2.667761488,-1.27844414,5.84643361,-4.22164227,,,
imu,97.264389,-0.0245242648,-9.554892827200002,2.6581910432,-1.13638285,5.58474176,-4.10948862,,,
imu,97.273105,-0.0131593616,-9.536948243200001,2.6581910432,-1.07656757,5.57726485,-4.00481188,,,
imu,97.281582,-0.004187069600000001,-9.529770409600001,2.6629762656,-0.73262971,5.352957549999999,-3.91508896,,,
imu,97.290058,-0.0125612088,-9.537546396000002,2.661779960000001,-0.69524516,5.00901969,-3.89265823,,,
imu,97.298534,-0.017944584,-9.546518688,2.6695559464,-0.54570696,4.70246638,-3.89265823,,,
imu,97.30701,-0.0245242648,-9.560874355200001,2.679724544,-0.51579932,4.31366706,-4.04967334,,,
imu,97.315487,-0.026916876,-9.560874355200001,2.6845097664,-0.33635348,4.18655959,-4.13939626,,,
imu,97.323963,-0.0346928624,-9.571641105600001,2.6880986832,-0.43355331,3.98468302,-4.37865738,,,
imu,97.332439,-0.04246884880000001,-9.578220786400001,2.689893141600001,-0.6279529699999999,3.797760269999999,-4.63287232,,,
imu,97.340915,-0.0466559184,-9.575828175200002,2.6958746696,-0.59056842,3.64822207,-4.68521069,,,
imu,97.349392,-0.0490485296,-9.5698466472,2.712622948,-0.59056842,3.56597606,-4.602964679999999,,,
imu,97.357868,-0.06519865520000001,-9.592576453600001,2.718604476,-0.80739881,3.35662258,-4.70016451,,,
imu,97.366344,-0.062806044,-9.588987536800001,2.7198007816,-0.8672140899999999,3.28933039,-4.80484125,,,
imu,97.37482,-0.07775986400000001,-9.594370912,2.7299693792,-0.95693701,3.22951511,-4.78241052,,,
imu,97.383297,-0.08733030880000002,-9.596763523200002,2.733558296,-1.12890594,2.96782326,-4.9169949,,,
imu,97.391773,-0.1010878232,-9.593174606400002,2.746119504800001,-1.21115195,2.87810034,-5.05157928,,,
imu,97.400249,-0.1160416432,-9.5776226336,2.747913963200001,-1.40555161,2.75099287,-5.17120984,,,
imu,97.408725,-0.125612088,-9.5590798968,2.747913963200001,-1.51022835,2.76594669,-5.16373293,,,
imu,97.417202,-0.1411640608,-9.5237888816,2.7419324352,-1.4728438,2.79585433,-5.20859439,,,
imu,97.425678,-0.1387714496,-9.5172092008,2.7413342824,-1.49527453,2.55659321,-5.13382529,,,
imu,97.434154,-0.1483418944,-9.492086783200001,2.742530588,-1.34573633,2.58650085,-5.01419473,,,
imu,97.44263,-0.1609031032,-9.484908949600001,2.7347546016,-1.24105959,2.63136231,-4.82727198,,,
imu,97.451107,-0.1776513816,-9.4699551296,2.736549060000001,-1.04665993,2.51173175,-4.72259524,,,
imu,97.459583,-0.1878199792,-9.4735440464,2.7287730736,-1.01675229,2.45191647,-4.67773378,,,
imu,97.468059,-0.1890162848,-9.479525574400002,2.740736129600001,-0.6279529699999999,2.57154703,-4.47585721,,,
imu,97.476536,-0.1932033544,-9.5004609224,2.746119504800001,-0.37373803,2.58650085,-4.386134289999999,,,
imu,97.485052,-0.1866236736,-9.5357519376,2.763465936,-0.29149202,2.68370068,-4.26650373,,,
imu,97.493569,-0.1758569232,-9.554892827200002,2.778419756,-0.15690764,2.86314652,-4.13939626,,,
imu,97.502086,-0.1716698536,-9.578818939200001,2.8011495624,-0.32887657,2.97530017,-4.20668845,,,
imu,97.510603,-0.1692772424,-9.6117173432,2.7999532568,-0.55318387,2.96782326,-4.44594957,,,
imu,97.51912,-0.1710717008,-9.612913648800001,2.794569881600001,-0.64290679,3.13231528,-4.53567249,,,
imu,97.527637,-0.1626975616,-9.592576453600001,2.7939717288,-1.05413684,3.26689966,-4.68521069,,,
imu,97.536154,-0.1638938672,-9.560874355200001,2.7939717288,-1.31582869,3.26689966,-4.73007215,,,
imu,97.544671,-0.1752587704,-9.561472508000001,2.8047384792,-1.3233056,3.41643786,-4.65530305,,,
imu,97.553188,-0.1860255208,-9.553098368800002,2.793373576,-1.40555161,3.46877623,-4.83474889,,,
imu,97.561705,-0.1896144376,-9.547116840800001,2.778419756,-1.34573633,3.60336061,-4.6179185,,,
imu,97.570222,-0.1979885768,-9.52558334,2.771241922400001,-1.45041307,3.78280645,-4.47585721,,,
imu,97.578739,-0.1997830352,-9.506442450400002,2.7700456168,-1.30835178,4.104313579999999,-4.19921154,,,
imu,97.587256,-0.2075590216,-9.512423978400001,2.7861957424,-0.97189083,4.478159079999999,-4.08705789,,,
imu,97.595773,-0.2069608688,-9.507040603200002,2.7730363808,-0.79244499,4.82957385,-4.0945348,,,
imu,97.60429,-0.2027737992,-9.502255380800001,2.783204978400001,-0.80739881,4.99406587,-4.25154991,,,
imu,97.612807,-0.2051664104,-9.4938812416,2.778419756,-0.67281443,5.25575772,-4.25154991,,,
imu,97.621324,-0.1997830352,-9.493283088800002,2.7826068256,-0.45598404,5.5398803,-4.33379592,,,
imu,97.629841,-0.1722680064,-9.508835061600001,2.7855975896,-0.32139966,5.77914142,-4.48333412,,,
imu,97.638358,-0.1632957144,-9.5010590752,2.7742326864,-0.19429219,5.898771979999999,-4.602964679999999,,,
imu,97.646874,-0.1537252696,-9.4938812416,2.789186506400001,0.0001074699999999984,6.17541765,-4.692687599999999,,,
imu,97.655391,-0.1339862272,-9.504647992000002,2.790382812,0.20946095,6.24270984,-4.63287232,,,
imu,97.663908,-0.1118545736,-9.519601812000001,2.7885883536,0.44124516,6.38477113,-4.408565019999999,,,
imu,97.672425,-0.08433954480000001,-9.533359326400001,2.7957661872,0.5010604399999999,6.34738658,-4.29641137,,,
imu,97.680942,-0.07895616960000001,-9.553098368800002,2.8095237016,0.44124516,6.23523293,-4.28145755,,,
imu,97.689361,-0.06400234960000001,-9.557883591200001,2.81131816,0.34404533,6.05578709,-4.22164227,,,
imu,97.69778,-0.04486146000000001,-9.568650341600001,2.8029440208,0.44872207,5.831479789999999,-4.17678081,,,
imu,97.706199,-0.0233279592,-9.5602762024,2.8065329376,0.50853735,5.69689541,-3.93751969,,,
imu,97.714618,-0.02990764000000001,-9.554892827200002,2.804140326400001,0.3963837,5.27818845,-3.95995042,,,
imu,97.723037,-0.0263187232,-9.555490980000002,2.817299688,0.10478421,4.784712389999999,-4.034719519999999,,,
imu,97.731456,-0.0376836264,-9.5566872856,2.8005514096,-0.03727708,4.50806672,-4.06462716,,,
imu,97.739876,-0.04366515440000001,-9.545322382400002,2.8137107712,-0.17186146,4.05197521,-4.034719519999999,,,
imu,97.748295,-0.0442633072,-9.5249851872,2.8190941464,-0.26906129,3.79028336,-4.124442439999999,,,
imu,97.756714,-0.07596540560000001,-9.5237888816,2.812514465600001,-0.11952309,3.38653022,-4.13191935,,,
imu,97.765133,-0.09450814240000002,-9.520798117600002,2.8119163128,-0.127,3.13979219,-3.87770441,,,
imu,97.773552,-0.09929336480000002,-9.522592576000001,2.817299688,-0.08213854000000001,3.02016163,-3.7206893,,,
imu,97.781971,-0.1178361016,-9.516012895200001,2.823281216,-0.007369440000000005,2.98277708,-3.67582784,,,
imu,97.79039,-0.1220231712,-9.502255380800001,2.8184959936,0.11226112,2.95286944,-3.71321239,,,
imu,97.798809,-0.1339862272,-9.5082369088,2.8167015352,0.13469185,2.90800798,-3.55619728,,,
imu,97.807228,-0.125612088,-9.519601812000001,2.8107200072,0.05992275,2.7734236,-3.63844329,,,
imu,97.815647,-0.1178361016,-9.5184055064,2.8274682856,0.1720764,2.78090051,-3.75807385,,,
imu,97.824066,-0.1208268656,-9.5219944232,2.8244775216,0.3216146,2.72108523,-3.7954584,,,
imu,97.832485,-0.10467674,-9.5213962704,2.8226830632,0.5010604399999999,2.74351596,-3.73564312,,,
imu,97.840904,-0.0980970592,-9.533359326400001,2.82627198,0.58330645,2.61640849,-3.74312003,,,
imu,97.849323,-0.09570444800000001,-9.541135312800002,2.8208886048,0.44124516,2.44443956,-3.81788913,,,
imu,97.857742,-0.08733030880000002,-9.529770409600001,2.8304590496,0.41133752,2.22760917,-3.84031986,,,
imu,97.866161,-0.0855358504,-9.5327611736,2.8298608968,0.45619898,2.1752708,-3.75059694,,,
imu,97.87458,-0.09151737840000002,-9.533957479200001,2.8077292432,0.3216146,2.06311715,-3.8702275,,,
imu,96.351506,,,,,,,95.3015996,-30.25557560000001,130.6964016
imu,96.452916,,,,,,,96.70542760000001,-30.13350360000002,130.5499152
imu,96.554936,,,,,,,97.21812999999999,-30.8171068,130.720816
imu,96.656041,,,,,,,96.9495716,-31.07345800000001,129.9395552
imu,96.757603,,,,,,,95.83871640000001,-30.46309800000002,130.7940592
imu,96.859166,,,,,,,94.837726,-31.20773720000001,127.9986104
imu,96.960728,,,,,,,89.16137799999998,-29.6330084,128.7188352
imu,97.064549,,,,,,,89.8205668,-30.04805320000001,125.1909544
imu,97.882999,-0.1058730456,-9.524387034400002,2.8244775216,0.29170696,1.94348659,-3.99733497,,,
imu,97.891521,-0.1088638096,-9.519601812000001,2.8244775216,0.3963837,1.98087114,-3.75807385,,,
imu,97.900043,-0.1010878232,-9.541135312800002,2.825075674400001,0.5010604399999999,1.9509635,-3.54872037,,,
imu,97.908565,-0.1058730456,-9.541135312800002,2.832253508,0.42629134,1.90610204,-3.56367419,,,
imu,97.917087,-0.09570444800000001,-9.549509452,2.8304590496,0.35899915,1.76404075,-3.50385891,,,
imu,97.925609,-0.09570444800000001,-9.557285438400001,2.8226830632,0.3963837,1.71917929,-3.48142818,,,
imu,97.934131,-0.1004896704,-9.553098368800002,2.829262744000001,0.36647606,1.7266562,-3.35432071,,,
imu,97.942653,-0.09151737840000002,-9.534555632000002,2.835244272,0.09730729999999999,1.77899457,-3.48890509,,,
imu,97.951175,-0.092713684,-9.5184055064,2.82627198,0.08983038999999998,1.71170238,-3.65339711,,,
imu,97.959697,-0.08493769760000001,-9.522592576000001,2.8190941464,0.10478421,1.67431783,-3.7206893,,,
imu,97.968219,-0.0741709472,-9.502853533600002,2.814308924,0.18703022,1.77899457,-3.7206893,,,
imu,97.976742,-0.062806044,-9.478927421600002,2.814308924,0.23936859,1.55468727,-3.8702275,,,
imu,97.985264,-0.06579680800000001,-9.460384684800001,2.819692299200001,0.44124516,1.49487199,-3.9449966,,,
imu,97.993786,-0.05443190480000001,-9.462777296000002,2.817299688,0.7403215599999999,1.31542615,-4.10948862,,,
imu,98.002308,-0.05443190480000001,-9.4699551296,2.8161033824,0.8973366700000001,1.27056469,-4.0197657,,,
imu,98.01083,-0.07118018320000001,-9.491488630400001,2.8310572024,1.26370526,1.28551851,-3.8702275,,,
imu,98.019352,-0.0735727944,-9.535153784800002,2.833449813600001,1.2936129,1.11354958,-3.99733497,,,
imu,98.027874,-0.080750628,-9.562668813600002,2.8400294944,1.39828964,0.9939190199999999,-3.90013514,,,
imu,98.036396,-0.1070693512,-9.5602762024,2.8418239528,1.4431511,0.8219500899999996,-3.95247351,,,
imu,98.044918,-0.101685976,-9.554294674400001,2.8400294944,1.2188438,0.7770886299999997,-4.02724261,,,
imu,98.05344,-0.09570444800000001,-9.5668558832,2.8585722312,1.11416706,0.8892422799999999,-3.88518132,,,
imu,98.061962,-0.1034804344,-9.587193078400002,2.859170384,0.85995212,0.9191499199999997,-3.91508896,,,
imu,98.070484,-0.1088638096,-9.609324732000001,2.8460110224,0.60573718,0.9116730099999999,-3.90013514,,,
imu,98.079006,-0.09570444800000001,-9.597959828800002,2.844216564,0.6132140899999999,0.9116730099999999,-3.95995042,,,
imu,98.087528,-0.10467674,-9.558481744000002,2.8448147168,0.43376825,0.92662683,-4.19921154,,,
imu,98.096277,-0.09989151760000002,-9.526779645600001,2.8669463704,0.34404533,1.01634975,-4.28893446,,,
imu,98.105026,-0.09749890640000002,-9.555490980000002,2.864553759200001,0.13469185,0.8369039099999998,-4.28893446,,,
imu,98.113776,-0.0813487808,-9.555490980000002,2.8484036336,0.08983038999999998,0.6051196999999999,-4.37865738,,,
imu,98.122525,-0.09690075360000001,-9.5219944232,2.8310572024,0.21693786,0.4555814999999996,-4.65530305,,,
imu,98.131274,-0.1112564208,-9.477731116000001,2.829262744000001,0.3889067899999999,0.2910894799999997,-4.78241052,,,
imu,98.140023,-0.110658268,-9.436458572800001,2.8149070768,0.44872207,0.07425908999999997,-4.57305704,,,
imu,98.148773,-0.1178361016,-9.453206851200001,2.8047384792,0.68798319,-0.007986920000000008,-4.27398064,,,
imu,98.157485,-0.1297991576,-9.4591883792,2.814308924,1.01696723,-0.1575251200000003,-4.13939626,,,
imu,98.166234,-0.1477437416,-9.485507102400002,2.808327396000001,1.24875144,-0.2696787700000001,-4.20668845,,,
imu,98.174984,-0.155519728,-9.510031367200002,2.8119163128,1.52539711,-0.2023865800000002,-3.88518132,,,
imu,98.183733,-0.1620994088,-9.524387034400002,2.8190941464,1.57025857,-0.2771556799999999,-3.89265823,,,
imu,98.192482,-0.1938015072,-9.530966715200002,2.8298608968,1.5926893,-0.1425713000000002,-3.88518132,,,
imu,98.201231,-0.2009793408,-9.551902063200002,2.829262744000001,1.64502767,0.02192071999999978,-3.84031986,,,
imu,98.209981,-0.2141387024,-9.556089132800002,2.8238793688,1.45062801,0.1864127399999997,-3.82536604,,,
imu,98.21873,-0.2129423968,-9.5656595776,2.819692299200001,1.30856672,0.4555814999999996,-3.78798149,,,
imu,98.227479,-0.2141387024,-9.585996772800002,2.8214867576,0.97210577,0.5079198699999998,-3.88518132,,,
imu,98.236228,-0.2057645632,-9.596165370400001,2.8184959936,0.91229049,0.7097964399999999,-4.034719519999999,,,
imu,98.244978,-0.2171294664,-9.583006008800002,2.825075674400001,0.7552753799999999,0.9789651999999998,-4.08705789,,,
imu,98.253727,-0.1967922712,-9.577024480800002,2.8460110224,0.50853735,1.2032725,-4.012288789999999,,,
imu,98.262476,-0.1938015072,-9.592576453600001,2.833449813600001,0.44872207,1.44253362,-3.93004278,,,
imu,98.271225,-0.1830347568,-9.593174606400002,2.8274682856,0.41133752,1.55468727,-3.96742733,,,
imu,98.279975,-0.1842310624,-9.557883591200001,2.837636883200001,0.26179932,1.6518871,-3.9449966,,,
imu,98.288724,-0.1752587704,-9.5381445488,2.837636883200001,0.29918387,1.73413311,-3.88518132,,,
imu,98.297198,-0.1668846312,-9.527975951200002,2.8226830632,0.21693786,1.84628676,-3.82536604,,,
imu,98.305671,-0.1782495344,-9.4974701584,2.82627198,0.2468455,1.8014253,-3.84779677,,,
imu,98.314145,-0.167482784,-9.4944793944,2.8304590496,0.44124516,1.98087114,-3.63096638,,,
imu,98.322619,-0.1650901728,-9.4938812416,2.823281216,0.46367589,1.96591732,-3.55619728,,,
imu,98.331092,-0.1591086448,-9.499862769600002,2.829262744000001,0.46367589,1.77151766,-3.69825857,,,
imu,98.339566,-0.1609031032,-9.505246144800001,2.8340479664,0.7403215599999999,1.84628676,-3.57862801,,,
imu,98.34804,-0.1573141864,-9.513022131200001,2.8370387304,0.8674290299999999,1.9509635,-3.42908981,,,
imu,98.356514,-0.1519308112,-9.5219944232,2.835244272,0.8749059399999999,2.08554788,-3.28702852,,,
imu,98.364987,-0.1429585192,-9.534555632000002,2.8298608968,0.9571519499999999,2.14536316,-3.30945925,,,
imu,98.373461,-0.1327899216,-9.534555632000002,2.8370387304,0.9646288599999999,2.28742445,-3.20478251,,,
imu,98.381935,-0.1244157824,-9.530368562400001,2.8364405776,0.73284465,2.11545552,-3.37675144,,,
imu,98.390408,-0.1280046992,-9.527377798400002,2.8274682856,0.8449983,2.19770153,-3.53376655,,,
imu,98.398882,-0.1064711984,-9.530966715200002,2.8364405776,0.7253677399999999,2.28742445,-3.65339711,,,
imu,98.407356,-0.116639796,-9.552500216,2.85617962,0.65807555,2.2500399,-3.77302767,,,
imu,98.41583,-0.110658268,-9.555490980000002,2.841225800000001,0.57582954,2.22013226,-4.11696553,,,
imu,98.424303,-0.1154434904,-9.5429297712,2.843020258400001,0.5982602699999999,2.10797861,-4.28145755,,,
imu,98.432777,-0.1184342544,-9.530368562400001,2.8484036336,0.43376825,2.12293243,-4.15435008,,,
imu,98.441251,-0.107667504,-9.532163020800002,2.841225800000001,0.3216146,2.01077878,-4.012288789999999,,,
imu,98.449724,-0.1118545736,-9.516611048000001,2.8310572024,0.4861066199999999,2.06311715,-3.66087402,,,
imu,98.458198,-0.1178361016,-9.4974701584,2.835244272,0.5982602699999999,2.07059406,-3.5711511,,,
imu,98.466672,-0.1202287128,-9.4944793944,2.817897840800001,0.73284465,2.07807097,-3.58610492,,,
imu,98.475146,-0.128602852,-9.495077547200001,2.822084910400001,0.6954601,1.98087114,-3.6459202,,,
imu,98.483619,-0.1190324072,-9.498666464000001,2.8244775216,1.00949032,2.13788625,-3.5711511,,,
imu,98.492093,-0.1214250184,-9.5154147424,2.8208886048,1.15902852,2.08554788,-3.61601256,,,
imu,98.500623,-0.1202287128,-9.529770409600001,2.8107200072,1.12164397,1.97339423,-3.75807385,,,
imu,98.509152,-0.1088638096,-9.553098368800002,2.8340479664,1.09173633,1.95844041,-3.74312003,,,
imu,98.517682,-0.1070693512,-9.558481744000002,2.8226830632,1.04687487,1.91357895,-3.70573548,,,
imu,98.526212,-0.1028822816,-9.540537160000001,2.8244775216,1.12164397,1.84628676,-3.74312003,,,
imu,98.534741,-0.1004896704,-9.533957479200001,2.8274682856,1.00949032,1.74908693,-3.90013514,,,
imu,98.543271,-0.1010878232,-9.520798117600002,2.8137107712,1.0693056,1.66684092,-4.00481188,,,
imu,98.551801,-0.1034804344,-9.5219944232,2.8101218544,1.05435178,1.45748744,-4.11696553,,,
imu,98.56033,-0.1130508792,-9.536350090400001,2.8065329376,1.07678251,1.30047233,-4.169303899999999,,,
imu,97.163853,,,,,,,87.1716044,-28.97381960000001,127.3882504
imu,97.265477,,,,,,,86.903046,-28.97381960000001,126.448296
imu,97.367009,,,,,,,86.8786316,-28.72967560000001,127.6568088
imu,97.468632,,,,,,,86.964082,-28.91278360000003,127.8765384
imu,97.570378,,,,,,,86.6466948,-28.85174760000002,126.7290616
imu,97.671696,,,,,,,85.865434,-28.36345960000002,126.7656832
imu,97.773259,,,,,,,86.1584068,-28.21697320000001,125.3252336
imu,97.874821,,,,,,,86.292686,-28.66863960000001,126.4116744
imu,98.56886,-0.1190324072,-9.5249851872,2.796962492800001,1.18893616,1.4275798,-4.012288789999999,,,
imu,98.57739,-0.1297991576,-9.527975951200002,2.794569881600001,1.10669015,1.26308778,-4.13191935,,,
imu,98.585919,-0.1292010048,-9.541135312800002,2.8005514096,1.15902852,1.12102649,-3.96742733,,,
imu,98.594449,-0.1327899216,-9.551902063200002,2.8071310904,0.94219813,1.09859576,-3.95995042,,,
imu,98.602979,-0.1471455888,-9.5656595776,2.8047384792,0.83004448,0.9939190199999999,-4.07210407,,,
imu,98.611508,-0.1513326584,-9.5656595776,2.822084910400001,0.7552753799999999,0.86681155,-4.0197657,,,
imu,98.620038,-0.1489400472,-9.561472508000001,2.8077292432,0.7253677399999999,0.9116730099999999,-3.88518132,,,
imu,98.628568,-0.1543234224,-9.5489112992,2.8190941464,0.65807555,1.00887284,-3.85527368,,,
imu,98.637097,-0.1537252696,-9.557285438400001,2.8065329376,0.6132140899999999,1.00887284,-3.69078166,,,
imu,98.645627,-0.1519308112,-9.557285438400001,2.8119163128,0.3739529699999999,0.9191499199999997,-3.75807385,,,
imu,98.654157,-0.1746606176,-9.5447242296,2.808327396000001,0.30666078,0.9640113799999996,-3.72816621,,,
imu,98.662686,-0.1609031032,-9.537546396000002,2.8077292432,0.04496892999999999,0.8294269999999999,-3.67582784,,,
imu,98.671216,-0.1626975616,-9.531564868,2.8167015352,0.08235347999999998,1.03130357,-3.59358183,,,
imu,98.679746,-0.1650901728,-9.534555632000002,2.8149070768,0.16459949,1.11354958,-3.53376655,,,
imu,98.688275,-0.1597067976,-9.549509452,2.8256738272,0.08983038999999998,1.07616503,-3.57862801,,,
imu,98.696805,-0.1638938672,-9.548313146400002,2.820290452000001,0.10478421,1.18084177,-3.54124346,,,
imu,98.705206,-0.1603049504,-9.554892827200002,2.8161033824,0.12721494,1.1285034,-3.41413599,,,
imu,98.713607,-0.1573141864,-9.551902063200002,2.829262744000001,-0.01484635000000001,1.30794924,-3.45899745,,,
imu,98.722009,-0.1507345056,-9.551303910400001,2.8274682856,-0.21672292,1.32290306,-3.51881273,,,
imu,98.73041,-0.143556672,-9.5429297712,2.8310572024,-0.11952309,1.46496435,-3.44404363,,,
imu,98.738811,-0.1429585192,-9.553696521600001,2.8238793688,-0.3513073,1.48739508,-3.46647436,,,
imu,98.747212,-0.1543234224,-9.530368562400001,2.829262744000001,-0.24663056,1.53973345,-3.48142818,,,
imu,98.755614,-0.1567160336,-9.5237888816,2.817299688,-0.22419983,1.56216418,-3.58610492,,,
imu,98.764015,-0.1597067976,-9.516611048000001,2.822084910400001,-0.2017691,1.5023489,-3.62348947,,,
imu,98.772416,-0.1519308112,-9.517807353600002,2.815505229600001,-0.32139966,1.45748744,-3.6459202,,,
imu,98.780817,-0.1459492832,-9.513022131200001,2.819692299200001,-0.2765382,1.53973345,-3.74312003,,,
imu,98.789219,-0.1471455888,-9.507040603200002,2.8238793688,-0.26906129,1.49487199,-3.7206893,,,
imu,98.79762,-0.143556672,-9.5237888816,2.822084910400001,-0.20924601,1.43505671,-3.66835093,,,
imu,98.806021,-0.1321917688,-9.539939007200001,2.8478054808,-0.11204618,1.54721036,-3.61601256,,,
imu,98.814422,-0.1333880744,-9.5590798968,2.8615629952,-0.19429219,1.58459491,-3.43656672,,,
imu,98.822823,-0.1363788384,-9.574631869600001,2.877713120800001,-0.30644584,1.577118,-3.39170526,,,
imu,98.831225,-0.1393696024,-9.576426328,2.8789094264,-0.41112258,1.63693328,-3.3468438,,,
imu,98.839626,-0.1148453376,-9.564463272000001,2.8878817184,-0.64290679,1.56216418,-3.36179762,,,
imu,98.848027,-0.1088638096,-9.537546396000002,2.883096496000001,-0.97189083,1.60702564,-3.496382,,,
imu,98.856428,-0.10467674,-9.506442450400002,2.88608726,-1.06909066,1.46496435,-3.83284295,,,
imu,98.86483,-0.1214250184,-9.493283088800002,2.8884798712,-1.12890594,1.44253362,-3.99733497,,,
imu,98.873231,-0.125612088,-9.464571754400001,2.8866854128,-1.20367504,1.33037997,-4.11696553,,,
imu,98.881632,-0.13458438,-9.435262267200002,2.889676176800001,-1.04665993,1.38271834,-4.11696553,,,
imu,98.890033,-0.1363788384,-9.420906600000002,2.8836946488,-0.71019898,1.39019525,-3.91508896,,,
imu,98.898435,-0.1507345056,-9.420906600000002,2.8944613992,-0.33635348,1.43505671,-3.60853565,,,
imu,98.90725,-0.1549215752,-9.447225323200001,2.899246621600001,0.11973803,1.53225654,-3.36927453,,,
imu,98.916066,-0.1519308112,-9.4801237272,2.910013372,0.4861066199999999,1.62945637,-3.11505959,,,
imu,98.924881,-0.1453511304,-9.458590226400002,2.910611524800001,0.53096808,1.73413311,-3.15244414,,,
imu,98.933697,-0.1178361016,-9.48072188,2.941117317600001,0.51601426,1.88367131,-3.26459779,,,
imu,98.942513,-0.09869521200000002,-9.520798117600002,2.953678526400001,0.55339881,1.98087114,-3.54872037,,,
imu,98.951328,-0.1052748928,-9.5357519376,2.9303505672,0.5010604399999999,2.00330187,-3.99733497,,,
imu,98.960144,-0.08374139200000001,-9.519601812000001,2.9345376368,0.6132140899999999,2.01077878,-4.37865738,,,
imu,98.968959,-0.07716171120000001,-9.484908949600001,2.9387247064,0.57582954,1.99582496,-4.73007215,,,
imu,98.977775,-0.07775986400000001,-9.48072188,2.957267443200001,0.58330645,1.79394839,-4.931948719999999,,,
imu,98.986591,-0.080750628,-9.504647992000002,2.9470988456,0.6281679099999999,1.69674856,-5.18616366,,,
imu,98.995406,-0.08912476720000001,-9.4831144912,2.936930248,0.59078336,1.39019525,-5.39551714,,,
imu,99.004222,-0.1124527264,-9.460384684800001,2.9303505672,0.8674290299999999,1.01634975,-5.38056332,,,
imu,99.013037,-0.1250139352,-9.4382530312,2.9363320952,0.97958268,0.8369039099999998,-5.23102512,,,
imu,99.021853,-0.1531271168,-9.434065961600002,2.914798594400001,1.21136689,0.7097964399999999,-4.78988743,,,
imu,99.030669,-0.1668846312,-9.456795768000001,2.9094152192,1.50296638,0.4705353199999998,-4.341272829999999,,,
imu,99.039484,-0.1860255208,-9.474142199200001,2.9004429272,1.75718132,0.41819695,-3.97490424,,,
imu,99.0483,-0.2069608688,-9.479525574400002,2.8932650936,1.92915025,0.4481045899999998,-3.53376655,,,
imu,99.057115,-0.2057645632,-9.493283088800002,2.889676176800001,2.02635008,0.3808123999999999,-3.35432071,,,
imu,99.065931,-0.215335008,-9.498666464000001,2.880105732000001,2.04878081,0.4555814999999996,-3.15244414,,,
imu,99.074747,-0.2225128416,-9.505246144800001,2.875918662400001,2.116073,0.4929660499999997,-3.06272122,,,
imu,99.083562,-0.2261017584,-9.5118258256,2.8824983432,2.08616536,0.7696117199999999,-2.99542903,,,
imu,99.092378,-0.2261017584,-9.517807353600002,2.8657500648,1.97401171,0.9939190199999999,-3.1225365,,,
imu,99.101193,-0.2201202304,-9.529770409600001,2.8633574536,2.07868845,1.39767216,-3.15992105,,,
imu,99.109667,-0.2105497856,-9.5184055064,2.859170384,2.07868845,1.83133294,-3.26459779,,,
imu,99.118141,-0.1926052016,-9.516012895200001,2.854983314400001,1.91419643,1.90610204,-3.62348947,,,
imu,99.126615,-0.1782495344,-9.526181492800001,2.8609648424,1.92915025,2.31733209,-3.68330475,,,
imu,99.135088,-0.1597067976,-9.5327611736,2.845412869600001,1.83942733,2.43696265,-3.75807385,,,
imu,99.143562,-0.1429585192,-9.5381445488,2.8436184112,1.95158098,2.72108523,-3.73564312,,,
imu,99.152036,-0.1208268656,-9.5566872856,2.841225800000001,1.98148862,2.71360832,-3.82536604,,,
imu,99.160509,-0.1070693512,-9.5776226336,2.8519925504,1.80951969,2.51920866,-4.102011709999999,,,
imu,99.168983,-0.1028822816,-9.585996772800002,2.852590703200001,1.60764312,2.54163939,-4.11696553,,,
imu,99.177457,-0.09390998960000001,-9.5800152448,2.8573759256,1.37585891,2.52668557,-4.124442439999999,,,
imu,99.185931,-0.0903210728,-9.589585689600002,2.864553759200001,1.1440747,2.33228591,-4.102011709999999,,,
imu,99.194404,-0.08912476720000001,-9.5877912312,2.854983314400001,1.00201341,2.13788625,-4.02724261,,,
imu,99.202878,-0.1028822816,-9.568052188800001,2.859170384,0.7253677399999999,1.8761944,-4.0197657,,,
imu,99.211352,-0.1088638096,-9.553098368800002,2.8507962448,0.47862971,1.6518871,-3.99733497,,,
imu,99.219825,-0.1208268656,-9.528574104,2.8537870088,0.57582954,1.61450255,-3.75059694,,,
imu,99.228299,-0.11963056,-9.5184055064,2.8537870088,0.56835263,1.36776452,-3.77302767,,,
imu,99.236773,-0.1268083936,-9.479525574400002,2.8406276472,0.6281679099999999,1.30047233,-3.84779677,,,
imu,99.245246,-0.1333880744,-9.469356976800002,2.854983314400001,0.7702292,1.24813396,-3.70573548,,,
imu,99.253648,-0.13458438,-9.477731116000001,2.852590703200001,0.97958268,1.15841104,-3.82536604,,,
imu,99.262122,-0.143556672,-9.48072188,2.8436184112,0.9571519499999999,1.08364194,-4.13939626,,,
imu,99.270596,-0.1333880744,-9.485507102400002,2.837636883200001,1.12164397,0.9565344699999998,-4.35622665,,,
imu,99.27907,-0.1327899216,-9.479525574400002,2.8519925504,1.28613599,0.9939190199999999,-4.16182699,,,
imu,99.287543,-0.1387714496,-9.519003659200001,2.844216564,1.4431511,0.9341037399999998,-4.07210407,,,
imu,99.296017,-0.13458438,-9.544126076800001,2.838235036,1.60016621,0.9041961000000001,-3.8702275,,,
imu,99.304491,-0.1417622136,-9.5656595776,2.838833188800001,1.5926893,0.8967191899999998,-3.70573548,,,
imu,99.312953,-0.1447529776,-9.583604161600002,2.854983314400001,1.45810492,0.7770886299999997,-3.68330475,,,
imu,99.321415,-0.1531271168,-9.593772759200002,2.8543851616,1.33847436,0.8593346399999997,-3.51133582,,,
imu,99.329877,-0.1579123392,-9.593174606400002,2.8400294944,1.26370526,0.8593346399999997,-3.39170526,,,
imu,99.33834,-0.1441548248,-9.571042952800001,2.843020258400001,1.00201341,0.8144731799999998,-3.39170526,,,
imu,99.346802,-0.1543234224,-9.5423316184,2.841225800000001,0.7403215599999999,0.7696117199999999,-3.5711511,,,
imu,99.355264,-0.1543234224,-9.529770409600001,2.8268701328,0.7253677399999999,0.9565344699999998,-3.48142818,,,
imu,99.363727,-0.155519728,-9.5172092008,2.8328516608,0.68798319,1.08364194,-3.60853565,,,
imu,99.372189,-0.161501256,-9.5118258256,2.829262744000001,0.7253677399999999,1.16588795,-3.7954584,,,
imu,99.380651,-0.16449202,-9.498666464000001,2.835244272,0.7403215599999999,1.24813396,-3.91508896,,,
imu,97.976266,,,,,,,87.98948680000001,-28.48553160000002,123.7993336
imu,98.078408,,,,,,,85.865434,-28.29021640000002,126.5825752
imu,98.179696,,,,,,,88.7097116,-29.52314360000001,123.9946488
imu,98.280984,,,,,,,86.0241276,-28.65643240000002,127.0708632
imu,98.390084,,,,,,,86.23164999999999,-28.41228840000001,126.2163592
imu,98.484109,,,,,,,86.2560644,-28.5831892,127.2661784
imu,98.585702,,,,,,,86.26827159999999,-27.80192840000002,126.7168544
imu,98.687234,,,,,,,86.2194428,-28.40008120000002,126.99762
imu,99.389113,-0.1692772424,-9.4944793944,2.8304590496,0.76275229,1.3528107,-3.98985806,,,
imu,99.397576,-0.1770532288,-9.499264616800001,2.823281216,0.7552753799999999,1.43505671,-3.98238115,,,
imu,99.406038,-0.170473548,-9.510031367200002,2.8310572024,0.94219813,1.63693328,-4.034719519999999,,,
imu,99.4145,-0.1686790896,-9.520798117600002,2.8424221056,0.9197674,1.59954873,-4.07210407,,,
imu,99.422962,-0.158510492,-9.540537160000001,2.8406276472,1.06182869,1.77899457,-4.04967334,,,
imu,99.431425,-0.1579123392,-9.553696521600001,2.838235036,1.09921324,1.89114822,-4.0197657,,,
imu,99.439887,-0.1477437416,-9.571641105600001,2.838833188800001,1.05435178,1.80890221,-3.91508896,,,
imu,99.448349,-0.1363788384,-9.566257730400002,2.8513943976,0.82256757,1.68179474,-4.057150249999999,,,
imu,99.456812,-0.1321917688,-9.560874355200001,2.8513943976,0.74779847,1.56964109,-4.102011709999999,,,
imu,99.465274,-0.1387714496,-9.552500216,2.8603666896,0.7253677399999999,1.44253362,-4.102011709999999,,,
imu,99.473736,-0.137575144,-9.539939007200001,2.8406276472,0.55339881,1.24813396,-4.10948862,,,
imu,99.482198,-0.1423603664,-9.531564868,2.8466091752,0.3739529699999999,1.11354958,-4.16182699,,,
imu,99.490661,-0.152528964,-9.516012895200001,2.8418239528,0.4711528,1.06868812,-3.9449966,,,
imu,99.499123,-0.1567160336,-9.5004609224,2.843020258400001,0.5982602699999999,1.01634975,-3.80293531,,,
imu,99.507585,-0.16449202,-9.5082369088,2.8466091752,0.5982602699999999,0.92662683,-3.78798149,,,
imu,99.516053,-0.1692772424,-9.511227672800002,2.8340479664,0.7552753799999999,0.9415806499999997,-3.81041222,,,
imu,99.52452,-0.173464312,-9.5172092008,2.841225800000001,0.83004448,1.03878048,-3.67582784,,,
imu,99.532987,-0.1812402984,-9.5291722568,2.8478054808,0.8973366700000001,1.06868812,-3.68330475,,,
imu,99.541455,-0.1776513816,-9.530966715200002,2.832253508,0.8449983,1.0537343,-3.78050458,,,
imu,99.549922,-0.1908107432,-9.536948243200001,2.8370387304,0.8674290299999999,1.03878048,-3.95247351,,,
imu,99.558389,-0.1800439928,-9.5423316184,2.8424221056,0.9048135799999999,1.14345722,-3.90013514,,,
imu,99.566857,-0.1926052016,-9.553098368800002,2.8400294944,0.8749059399999999,1.2032725,-3.99733497,,,
imu,99.575324,-0.197390424,-9.556089132800002,2.841225800000001,0.78518302,1.34533379,-3.99733497,,,
imu,99.583791,-0.1920070488,-9.559678049600002,2.8436184112,0.7104139199999999,1.41262598,-3.86275059,,,
imu,99.592259,-0.1949978128,-9.5668558832,2.850198092000001,0.53096808,1.43505671,-3.83284295,,,
imu,99.600726,-0.1920070488,-9.566257730400002,2.8466091752,0.3739529699999999,1.45001053,-3.8702275,,,
imu,99.609193,-0.1961941184,-9.568650341600001,2.8490017864,0.29170696,1.45001053,-3.80293531,,,
imu,99.617661,-0.1902125904,-9.555490980000002,2.8400294944,0.22441477,1.5023489,-3.68330475,,,
imu,99.626128,-0.1896144376,-9.533957479200001,2.8543851616,-0.01484635000000001,1.71917929,-3.83284295,,,
imu,99.634595,-0.1842310624,-9.528574104,2.859768536800001,0.01506129,1.77899457,-3.80293531,,,
imu,99.643063,-0.1890162848,-9.516012895200001,2.8490017864,-0.13447691,1.86871749,-3.88518132,,,
imu,99.65153,-0.173464312,-9.501657228000001,2.8507962448,-0.0522309,1.90610204,-3.74312003,,,
imu,99.659998,-0.1662864784,-9.481918185600001,2.847207328000001,0.03749201999999999,2.01825569,-3.68330475,,,
imu,99.668465,-0.161501256,-9.478329268800001,2.8627593008,0.23936859,2.22013226,-3.48142818,,,
imu,99.676932,-0.1495382,-9.488497866400001,2.8573759256,0.23189168,2.16031698,-3.51133582,,,
imu,99.6854,-0.143556672,-9.4974701584,2.873526051200001,0.26927623,2.22013226,-3.63096638,,,
imu,99.693867,-0.1357806856,-9.508835061600001,2.864553759200001,0.3739529699999999,2.12293243,-3.54872037,,,
imu,99.702334,-0.1250139352,-9.517807353600002,2.8729278984,0.35899915,2.10797861,-3.72816621,,,
imu,99.710802,-0.116639796,-9.5184055064,2.8795075792,0.3739529699999999,2.07059406,-3.91508896,,,
imu,99.719527,-0.1172379488,-9.523190728800001,2.895059552,0.38142988,2.08554788,-3.8702275,,,
imu,99.728253,-0.09749890640000002,-9.5357519376,2.896854010400001,0.41881443,2.18274771,-3.8702275,,,
imu,99.736978,-0.09929336480000002,-9.554294674400001,2.9016392328,0.33656842,2.03320951,-3.98238115,,,
imu,99.745704,-0.09690075360000001,-9.553696521600001,2.9076207608,0.26179932,1.96591732,-4.079580979999999,,,
imu,99.754429,-0.1100601152,-9.559678049600002,2.9165930528,0.22441477,1.90610204,-4.07210407,,,
imu,99.763155,-0.113649032,-9.553696521600001,2.920181969600001,0.10478421,2.0257326,-4.0945348,,,
imu,99.77188,-0.09749890640000002,-9.517807353600002,2.921976428000001,-0.03727708,2.07807097,-4.15435008,,,
imu,99.780606,-0.1058730456,-9.477132963200003,2.9237708864,-0.30644584,2.04816333,-4.31136519,,,
imu,99.789331,-0.101685976,-9.432869656000001,2.9159949,-0.19429219,2.00330187,-4.408565019999999,,,
imu,99.798057,-0.1190324072,-9.425691822400001,2.924369039200001,0.007584380000000002,2.01077878,-4.66277996,,,
imu,99.806782,-0.1399677552,-9.440645642400002,2.9321450256,0.03001510999999998,1.90610204,-4.909517989999999,,,
imu,99.815508,-0.1501363528,-9.450216087200001,2.93094872,0.32909151,2.12293243,-4.715118329999999,,,
imu,99.824233,-0.137575144,-9.450216087200001,2.94590254,0.6281679099999999,2.26499372,-4.67773378,,,
imu,99.832958,-0.1549215752,-9.4663662128,2.9470988456,0.8524752099999999,2.41453192,-4.931948719999999,,,
imu,99.841684,-0.1591086448,-9.502853533600002,2.951884068,1.2188438,2.51173175,-5.17868675,,,
imu,99.850409,-0.1668846312,-9.508835061600001,2.941117317600001,1.39081273,2.67622377,-5.23102512,,,
imu,99.859135,-0.1579123392,-9.526779645600001,2.9417154704,1.65998149,2.9229618,-5.216071299999999,,,
imu,99.86786,-0.152528964,-9.529770409600001,2.9393228592,1.62259694,3.10240764,-5.20111748,,,
imu,99.876586,-0.143556672,-9.5459205352,2.938126553600001,1.45062801,3.19213056,-5.26840967,,,
imu,99.885311,-0.1250139352,-9.5566872856,2.9345376368,1.33099745,3.39400713,-5.305794219999999,,,
imu,99.894037,-0.128602852,-9.553696521600001,2.9333413312,0.9272443100000001,3.64074516,-5.43290169,,,
imu,99.902762,-0.1262102408,-9.555490980000002,2.9387247064,0.70293701,3.75289881,-5.56000916,,,
imu,99.911488,-0.1411640608,-9.532163020800002,2.9405191648,0.57582954,3.78280645,-5.68711663,,,
imu,99.920213,-0.161501256,-9.5393408544,2.9465006928,0.41881443,3.58840679,-5.97871612,,,
imu,99.928805,-0.200381188,-9.519003659200001,2.9584637488,0.29170696,3.68560662,-6.45723836,,,
imu,99.937396,-0.2488315648,-9.492086783200001,2.957865596,0.36647606,3.78280645,-6.9357606,,,
imu,99.945987,-0.28412258,-9.4974701584,2.9327431784,0.65807555,4.126744309999999,-7.1600679,,,
imu,99.954579,-0.320011748,-9.447225323200001,2.9088170664,0.79265993,4.46320526,-7.02548352,,,
imu,99.96317,-0.3176191368,-9.3628857784,2.892068788,1.20388998,4.85948149,-6.920806779999999,,,
imu,99.971761,-0.3355637208,-9.3144354016,2.8693389816,1.57025857,5.29314227,-6.666591840000001,,,
imu,99.980353,-0.340947096,-9.342548583200001,2.8579740784,2.06373463,5.88381816,-6.27779252,,,
imu,99.988944,-0.3600879856,-9.401167557600001,2.833449813600001,2.5646876,6.38477113,-5.896470109999999,,,
imu,99.997536,-0.3846122504,-9.443636406400001,2.829262744000001,2.87124091,6.90067792,-5.83665483,,,
imu,100.006127,-0.4163143488000001,-9.483712644000002,2.8238793688,2.94601001,7.59603055,-5.918900839999999,,,
imu,100.014718,-0.4898871432,-9.519003659200001,2.8208886048,2.89367164,8.418490649999999,-5.97123921,,,
imu,100.02331,-0.6220789120000001,-9.534555632000002,2.79636434,2.29551884,9.4278735,-6.158161959999999,,,
imu,100.031901,-0.8075062800000001,-9.5381445488,2.7670548528,1.72727368,11.00550151,-6.12825432,,,
imu,100.040492,-1.0479637056,-9.594370912,2.7610733248,0.9870595899999999,13.50278945,-5.851608649999999,,,
imu,100.049084,-1.3165343128,-9.6733270816,2.742530588,0.09730729999999999,16.88235277,-5.41047096,,,
imu,100.057675,-1.6305645328,-9.6846919848,2.7138192536,-0.8672140899999999,21.26382203,-5.044102369999999,,,
imu,100.066266,-2.004410032800001,-9.669738164800002,2.700659892,-1.89902767,26.79673543,-5.20859439,,,
imu,100.074858,-2.3752647688,-9.6918698184,2.709632184,-2.90093361,33.48856988,-5.65720899,,,
imu,100.083449,-2.7610733248,-9.752881404000002,2.7371472128,-3.75330135,41.68326324,-6.15068505,,,
imu,100.092041,-3.1690135344,-9.803126239200001,2.747913963200001,-4.57576145,51.15650821,-6.689022570000001,,,
imu,100.100632,-3.4950068104,-9.803126239200001,2.7443250464,-5.413175369999999,61.81858187,-7.556344129999999,,,
imu,100.109223,-3.7845127656,-9.828846809600002,2.7532973384,-6.28049693,73.87136079,-8.82741883,,,
imu,100.117815,-4.010016371200001,-9.914980812800001,2.7192026288,-7.162772309999999,87.06810694,-10.225601,,,
imu,100.126248,-4.037531400000001,-9.986759148800001,2.6270870976,-8.18710898,101.0947901,-11.82565974,,,
imu,100.134681,-3.886198741600001,-10.0166667888,2.4817359672,-9.6226757,115.26353455,-12.97710388,,,
imu,100.143114,-3.5685796048,-9.973001634400003,2.3531331152,-10.94608877,128.76683401,-13.8145178,,,
imu,100.151547,-3.233614036800001,-9.8886620896,2.2382877776,-12.29193257,141.16355079,-14.95100812,,,
imu,100.15998,-2.8137107712,-9.8162856008,2.072001299200001,-13.27888469,152.36396197,-16.25946737,,,
imu,100.168413,-2.3226273224,-9.786377960800001,1.9212667936,-13.69759165,162.30825227,-16.85762017,,,
imu,100.176846,-1.773523052,-9.697851346400002,1.8070196088,-13.84712985,170.31602288,-16.69312815,,,
imu,100.185279,-1.163407196,-9.5447242296,1.7023428688,-13.82469912,176.37979689,-16.21460591,,,
imu,100.193712,-0.6920627896000001,-9.413130613600002,1.6317608384,-13.57796109,180.275267,-16.16226754,,,
imu,100.202145,-0.367863972,-9.2366755376,1.5181118064,-13.27140778,182.54077073,-16.74546652,,,
imu,98.788918,,,,,,,85.9508844,-28.76629720000001,126.6069896
imu,98.890359,,,,,,,86.2804788,-27.64323480000002,125.6182064
imu,98.991891,,,,,,,85.9630916,-27.99724360000002,127.2661784
imu,99.093484,,,,,,,88.7829548,-28.93719800000001,124.800324
imu,99.195107,,,,,,,85.438182,-28.43670280000001,126.6558184
imu,99.296578,,,,,,,88.428946,-29.24237800000002,124.3974864
imu,99.398171,,,,,,,85.81660520000001,-28.81512600000002,126.8511336
imu,99.499703,,,,,,,86.3171004,-28.13152280000002,125.9966296
imu,100.210578,-0.09690075360000001,-9.131998797600001,1.4588946792,-12.26202493,183.65483032,-17.2538964,,,
imu,100.219011,0.2326814392,-9.097904088000002,1.4224073584,-10.90870422,183.83427616,-17.35857314,,,
imu,100.227444,0.6741182056000001,-9.070389059200002,1.3924997184,-9.01704599,183.12396971,-17.09688129,,,
imu,100.235877,1.1400792368,-8.9770772224,1.4457353176,-7.09548012,181.01548109,-16.71555888,,,
imu,100.24431,1.6520980336,-8.9878439728,1.6012550456,-4.605669089999999,176.80598076,-16.08002153,,,
imu,100.252743,2.1389944128,-9.0596223088,1.698753952,-2.10090424,170.91417568,-15.3098998,,,
imu,100.261176,2.576244109600001,-9.1014930048,1.830347568,-0.08213854000000001,163.54941933,-14.49491661,,,
imu,100.269609,2.8866854128,-9.087137337600002,1.9206686408,1.60016621,154.56965042,-13.53787213,,,
imu,100.278042,3.0996278096,-9.132596950400002,2.0779828272,2.90114855,144.62536012,-12.08735159,,,
imu,100.286475,3.2910367056,-9.145158159200001,2.150359316,3.82828539,134.34460887,-9.94895533,,,
imu,100.294908,3.439976752800001,-9.1481489232,2.189239248,4.86757588,123.51056628,-7.01800661,,,
imu,100.303341,3.5667851464,-9.1918140776,2.2562323616,5.87695873,112.56437004,-4.0945348,,,
imu,100.311774,3.644545010400001,-9.1583175208,2.2891307656,6.72932647,101.30414358,-1.60472377,,,
imu,100.320207,3.576953744000001,-9.150541534400002,2.2915233768,7.51440202,89.90185583,0.002811879999999878,,,
imu,100.328687,3.481249296000001,-9.204973439200002,2.290327071200001,8.28452375,79.01547487,1.16920984,,,
imu,100.337167,3.3807596256,-9.211553120000001,2.2831492376,8.88267655,68.88426182,2.30570016,,,
imu,100.345875,3.265914288000001,-9.239666301600002,2.2646065008,9.33876806,59.57550886999999,3.54686722,,,
imu,100.354355,3.091851823200001,-9.2546201216,2.2484563752,9.6677521,51.17146202999999,4.8029881,,,
imu,100.362835,2.9273598032,-9.328791068800001,2.2406803888,9.675229009999999,43.57492147,5.625448199999999,,,
imu,100.371315,2.7556899496,-9.415523224800001,2.2233339576,9.548121539999999,37.17468650999999,6.03667825,,,
imu,100.379795,2.5923942352,-9.453805004000001,2.2023986096,9.136891489999998,31.77635749,6.238554820000001,,,
imu,100.388275,2.4117520896,-9.543527924000001,2.1970152344,8.7705229,27.11824256,6.01424752,,,
imu,100.396756,2.2346988608,-9.585996772800002,2.1635186776,8.366769759999999,23.55175649,5.33384871,,,
imu,100.405236,2.120451676000001,-9.609922884800001,2.117460912,7.888247519999999,20.97222254,4.41418878,,,
imu,100.413716,2.006802644,-9.662560331200002,2.1186572176,7.2751409,18.90859538,3.3823752,,,
imu,100.422196,1.9332298496,-9.703832874400002,2.0923384944,6.81157248,17.68985905,2.47766909,,,
imu,100.430676,1.8435069296,-9.755274015200001,2.0839643552,6.17603513,16.89730659,1.59539371,,,
imu,100.439156,1.6933705768,-9.7995373224,2.0552530208,5.16665228,16.36644598,0.3766573800000002,,,
imu,100.447636,1.5785252392,-9.803724392000001,2.0480751872,4.10493106,16.47859963,-0.6177716499999999,,,
imu,100.456116,1.4433427064,-9.864137824800002,2.084562508,3.05816366,17.15152153,-0.99909406,,,
imu,100.464596,1.3960886352,-9.80970592,2.0660197712,2.07121154,18.31044258,-0.8346020399999998,,,
imu,100.473076,1.411640608,-9.745105417600001,2.1019089392,1.27865908,19.79087076,-0.49066418,,,
imu,100.481556,1.492391236,-9.5381445488,2.0977218696,0.8524752099999999,21.20400675,-0.88694041,,,
imu,100.490036,1.6437238944,-9.310248332,2.1037033976,0.57582954,22.20591269,-1.97109236,,,
imu,100.498516,1.7262689808,-9.205571592000002,2.1306202736,0.9870595899999999,22.7367733,-3.39170526,,,
imu,100.506996,1.8135992896,-9.222918023200002,2.1192553704,1.73475059,22.68443493,-4.43847266,,,
imu,100.515477,1.9481836696,-9.249834899200001,2.1031052448,2.46748777,22.41526617,-5.08148692,,,
imu,100.523957,2.0749920632,-9.342548583200001,2.1605279136,3.61893191,21.764775,-5.3656095,,,
imu,100.53241,2.1395925656,-9.4412437952,2.1856503312,4.11240797,20.39650047,-5.851608649999999,,,
imu,100.540863,2.1760798864,-9.606932120800002,2.1964170816,4.69560695,18.74410336,-6.292746339999999,,,
imu,100.549317,2.1461722464,-9.808509614400002,2.2023986096,4.77785296,17.30105973,-6.52453055,,,
imu,100.55777,2.1168627592,-9.9167752712,2.1659112888,4.14231561,15.52155515,-6.442284539999999,,,
imu,100.566223,2.1007126336,-9.942495841600001,2.162322372,3.55163972,13.84672731,-5.91142393,,,
imu,100.574677,2.0977218696,-9.905410368000002,2.1605279136,2.83385636,12.20928402,-5.634778259999999,,,
imu,100.58313,2.1156664536,-9.844996935200001,2.1437796352,2.34785721,10.65408674,-5.522624609999999,,,
imu,100.591584,2.0977218696,-9.825856045600002,2.150359316,2.17588828,8.93439744,-5.46280933,,,
imu,100.600037,2.0648234656,-9.773218599200002,2.1539482328,1.71979677,7.11750831,-5.874039379999999,,,
imu,100.60849,1.9900543656,-9.706225485600001,2.1551445384,1.32352054,5.34548064,-6.292746339999999,,,
imu,100.616944,1.905116668,-9.603343204000002,2.1485648576,1.00201341,3.84262173,-6.509576729999999,,,
imu,100.625397,1.7777101216,-9.545322382400002,2.1539482328,0.65807555,2.6238854,-6.69649948,,,
imu,100.63385,1.650901728,-9.499264616800001,2.1407888712,0.35152224,2.07807097,-6.576868919999999,,,
imu,100.642304,1.6036476568,-9.405952780000002,2.1276295096,0.29918387,1.49487199,-6.4123769,,,
imu,100.650757,1.5815160032,-9.340155972000002,2.1521537744,0.51601426,1.27056469,-6.2628387,,,
imu,100.65921,1.5366545432,-9.307257568,2.1635186776,0.71789083,0.8593346399999997,-6.47966909,,,
imu,100.667664,1.486409708,-9.281536997600002,2.15335008,0.97210577,0.6574580699999997,-6.89089914,,,
imu,100.676117,1.3775458984,-9.307855720800001,2.162322372,1.22632071,0.2387511099999999,-7.32455992,,,
imu,100.684571,1.244157824,-9.3545116392,2.1515556216,1.2936129,0.1789358299999999,-7.6834516,,,
imu,100.693024,1.163407196,-9.4382530312,2.15335008,1.12164397,0.80699627,-7.66102087,,,
imu,100.701477,1.1358921672,-9.489694172,2.126433204,1.00201341,1.36776452,-7.361944469999999,,,
imu,100.709931,1.1388829312,-9.48072188,2.1222461344,0.85995212,1.94348659,-7.122683349999999,,,
imu,100.718384,1.163407196,-9.478329268800001,2.1581353024,0.85995212,2.324809,-7.63859014,,,
imu,100.726837,1.1526404456,-9.495077547200001,2.1808651088,0.8973366700000001,2.81080815,-7.92271272,,,
imu,100.735311,1.1311069448,-9.571641105600001,2.1988096928,0.9571519499999999,2.98277708,-7.96757418,,,
imu,100.743785,1.1083771384,-9.6326526912,2.2143616656,1.12164397,3.26689966,-7.75074379,,,
imu,100.752259,1.052748928,-9.657176956,2.2143616656,0.9945364999999999,3.60336061,-7.234837000000001,,,
imu,100.760732,1.0132708432,-9.667345553600002,2.225128416,0.9347212199999999,4.08935976,-6.51705364,,,
imu,100.769206,0.9911391896000001,-9.6745233872,2.2125672072,1.02444414,4.87443531,-5.545055339999999,,,
imu,100.77768,1.0282246632,-9.6745233872,2.189239248,1.00949032,5.60717249,-4.602964679999999,,,
imu,100.786153,1.124527264,-9.593174606400002,2.171294664,0.9347212199999999,6.08569473,-4.04219643,,,
imu,100.794627,1.22621324,-9.537546396000002,2.192230012,1.18145925,6.45206332,-4.07210407,,,
imu,100.803101,1.2944026592,-9.554294674400001,2.191631859200001,1.40576655,6.32495585,-4.4683803,,,
imu,100.811575,1.3649846896,-9.588987536800001,2.1760798864,1.89924261,5.966064169999999,-4.67773378,,,
imu,100.820048,1.417622136,-9.595567217600001,2.1677057472,2.1908421,5.51744957,-4.46090339,,,
imu,100.828522,1.4576983736,-9.6039413568,2.1856503312,2.36281103,4.91181986,-4.169303899999999,,,
imu,100.836996,1.4738484992,-9.685888290400001,2.1850521784,2.22822665,4.33609779,-3.78798149,,,
imu,100.845469,1.4636799016,-9.772022293600001,2.1665094416,1.88428879,3.68560662,-3.3468438,,,
imu,100.853943,1.471455888,-9.7504887928,2.1180590648,1.39081273,3.04259236,-2.94309066,,,
imu,100.862417,1.5031579864,-9.662560331200002,2.1132738424,0.8973366700000001,2.33228591,-2.59167589,,,
imu,100.870891,1.5749363224,-9.5877912312,2.0803754384,0.8823828499999999,1.62197946,-2.28512258,,,
imu,100.879364,1.6604721728,-9.5489112992,2.045084423200001,0.76275229,0.5378275100000001,-2.23278421,,,
imu,100.887838,1.73464312,-9.5381445488,2.0420936592,1.00201341,-0.53884753,-2.09819983,,,
imu,100.896312,1.8231697344,-9.524387034400002,2.0361121312,1.19641307,-1.88469133,-2.09819983,,,
imu,100.904785,1.9374169192,-9.513620284000002,2.0253453808,1.17398234,-3.52961153,-2.40475314,,,
imu,100.913259,2.0163730888,-9.5237888816,2.045084423200001,1.22632071,-5.271731559999999,-2.41970696,,,
imu,100.921733,2.106694161600001,-9.562668813600002,2.0181675472,1.05435178,-7.223205070000001,-2.70382954,,,
imu,100.930207,2.2209413464,-9.5184055064,2.0169712416,0.66555246,-9.27935532,-2.96552139,,,
imu,100.93901,2.280756626400001,-9.522592576000001,2.0564493264,0.38142988,-11.74673562,-3.31693616,,,
imu,100.947814,2.3232254752,-9.556089132800002,2.0462807288,0.17955331,-14.34122339,-3.71321239,,,
imu,100.956618,2.3501423512,-9.562070660800002,2.0564493264,-0.0522309,-16.9656188,-4.25154991,,,
imu,100.965421,2.4386689656,-9.572239258400002,2.0731976048,-0.34383039,-19.70964477,-4.625395409999999,,,
imu,100.974225,2.5977776104,-9.558481744000002,2.0708049936,-0.5980453299999999,-22.84994697,-4.83474889,,,
imu,100.983029,2.817897840800001,-9.5566872856,2.0773846744,-0.64290679,-26.39400231,-4.96185636,,,
imu,100.991832,3.0679257112,-9.519601812000001,2.0594400904,-0.85973718,-30.93248668,-5.41794787,,,
imu,101.000636,3.323935109600001,-9.493283088800002,2.089347730400001,-0.41859949,-36.41306171,-5.59739371,,,
imu,101.00944,3.5667851464,-9.479525574400002,2.0899458832,-0.007369440000000005,-42.9852656,-5.4403786,,,
imu,101.018243,3.7797275432,-9.419112141600001,2.0408973536,0.6281679099999999,-50.58928307,-4.715118329999999,,,
imu,99.60157,,,,,,,85.5358396,-28.09490120000002,126.7046472
imu,99.703041,,,,,,,85.9142628,-28.72967560000001,126.8267192
imu,99.804604,,,,,,,85.6945332,-28.21697320000001,126.7412688
imu,99.906227,,,,,,,85.8288124,-28.76629720000001,126.3506384
imu,100.007881,,,,,,,85.12079480000001,-28.53436040000001,126.9609984
imu,100.109444,,,,,,,85.81660520000001,-29.36445000000001,122.5786136
imu,100.210884,,,,,,,78.98057320000001,-26.00747000000001,116.4261848
imu,100.312416,,,,,,,82.1666524,-24.57922760000002,106.5017312
imu,101.027047,3.893974728,-9.380830362400001,2.000821116,1.52539711,-59.24754485,-3.3468438,,,
imu,101.03585,3.886198741600001,-9.343146736000001,1.9439966,2.58711833,-68.63854380999999,-1.69444669,,,
imu,101.044654,3.7569977368,-9.33118368,1.890162848,3.69370101,-78.33609607999999,0.03271952000000011,,,
imu,101.053458,3.5386719648,-9.353315333600001,1.8680311944,4.78532987,-87.88411015,1.93933157,,,
imu,101.062261,3.275484732800001,-9.438851184,1.8387217072,5.82462036,-96.58723339,3.62911323,,,
imu,101.071065,2.969828652,-9.599754287200001,1.8458995408,6.50501917,-104.24358923,4.89271102,,,
imu,101.079869,2.658789196,-9.719983000000001,1.8548718328,6.55735754,-110.79336239,5.206741239999999,,,
imu,101.088672,2.3304033088,-9.7959484056,1.845301388,6.25080423,-116.15430686,4.705788269999999,,,
imu,101.097476,2.0462807288,-9.758264779200001,1.7938602472,5.53302087,-120.58063758,4.055297100000001,,,
imu,101.10628,1.8189826648,-9.6159044128,1.7424191064,4.71056077,-124.03497,3.40480593,,,
imu,101.115083,1.5916846008,-9.5184055064,1.7220819112,4.22456162,-126.65936541,3.10572953,,,
imu,101.123887,1.384723732,-9.437056725600002,1.7071280912,4.14979252,-128.70803875,3.33751374,,,
imu,101.132691,1.2016889752,-9.367072848000001,1.6921742712,4.232038530000001,-129.98659036,4.01791255,,,
imu,101.141163,1.0276265104,-9.379035904000002,1.7501950928,4.52363802,-130.95111175,4.49643479,,,
imu,101.149636,0.8362176144000002,-9.4250936696,1.7627563016,4.84514515,-131.31748034,5.16187978,,,
imu,101.158108,0.6525847048000001,-9.4286825864,1.7848879552,4.93486807,-131.25018815,5.57310983,,,
imu,101.16658,0.4360533912000001,-9.450814240000001,1.8088140672,4.71056077,-130.51745097,5.558156009999999,,,
imu,101.175053,0.248233412,-9.461580990400002,1.8596570552,4.9572988,-128.95477678,5.24412579,,,
imu,101.183525,0.09690075360000001,-9.46576806,1.9182760296,5.30123666,-126.6518885,4.638496079999999,,,
imu,101.191998,-0.04127254320000001,-9.440047489600001,1.9517725864,5.54049778,-123.76580124,3.94314345,,,
imu,101.20047,-0.173464312,-9.4005694048,2.0271398392,5.89191255,-120.56568376,3.21788318,,,
imu,101.208943,-0.2673743016,-9.422102905600001,2.1192553704,6.38538861,-117.11882825,2.67206875,,,
imu,100.413979,,,,,,,80.38440120000001,-22.30868840000002,107.5637576
imu,100.515572,,,,,,,81.9957516,-22.4307604,105.9768216
imu,100.617134,,,,,,,81.776022,-22.77256200000002,106.9900192
imu,100.718727,,,,,,,81.165662,-22.83359800000002,106.1355152
imu,100.82029,,,,,,,81.7516076,-22.68711160000001,107.0022264
imu,100.921883,,,,,,,81.8248508,-22.62607560000001,106.2209656
imu,101.023415,,,,,,,81.89809400000001,-22.93125560000002,106.2209656
imu,101.125008,,,,,,,80.3355724,-24.16418280000001,110.578936
