Type,Timestamp,Data Accelerometer X,Data Accelerometer Y,Data Accelerometer Z,Data Gyroscope X,Data Gyroscope Y,Data Gyroscope Z,Data Magnetometer X,Data Magnetometer Y,Data Magnetometer Z
imu,490.621216,-0.2458408008,-9.478927421600002,3.0697201696,-0.7251528,3.66317589,-2.72626027,,,
imu,490.629768,-0.251224176,-9.479525574400002,3.0810850728,-0.9793677399999999,3.67812971,-2.64401426,,,
imu,490.638321,-0.245242648,-9.481918185600001,3.091851823200001,-1.0989983,3.96225229,-2.50942988,,,
imu,490.646874,-0.2410555784,-9.474142199200001,3.086468448,-1.38312088,4.06692903,-2.43466078,,,
imu,490.655426,-0.2141387024,-9.433467808800001,3.091851823200001,-1.51770526,4.06692903,-2.47952224,,,
imu,490.663979,-0.203371952,-9.402962016000002,3.0936462816,-1.28592105,4.09683667,-2.50195297,,,
imu,490.672531,-0.1788476872,-9.405952780000002,3.113983476800001,-1.26349032,4.02206757,-2.57672207,,,
imu,490.681084,-0.1471455888,-9.3622876256,3.1169742408,-1.09152139,3.92486774,-2.68139881,,,
imu,490.689636,-0.1453511304,-9.363483931200001,3.12534838,-1.16629049,3.5211146,-2.77112173,,,
imu,490.698189,-0.125612088,-9.344941194400002,3.1259465328,-1.14385976,3.10988455,-2.9729983,,,
imu,490.706741,-0.1507345056,-9.328192916,3.1397040472,-1.07656757,2.66874686,-3.21973633,,,
imu,490.715294,-0.1728661592,-9.3592968616,3.1391058944,-0.8672140899999999,2.27247063,-3.35432071,,,
imu,490.723846,-0.2099516328,-9.3694654592,3.146881880800001,-1.00927538,1.8014253,-3.44404363,,,
imu,490.732399,-0.2691687600000001,-9.371259917600002,3.131329908000001,-1.04665993,1.39767216,-3.40665908,,,
imu,490.740952,-0.3152265256,-9.356306097600001,3.123553921600001,-0.8821679099999999,1.41262598,-3.39170526,,,
imu,490.749504,-0.340947096,-9.3377633608,3.1229557688,-0.77749117,1.59954873,-3.20478251,,,
imu,490.758057,-0.3445360128,-9.379035904000002,3.104413032,-0.38869185,1.79394839,-2.75616791,,,
imu,490.766609,-0.3427415544,-9.390998960000001,3.1068056432,-0.01484635000000001,2.33976282,-2.3748455,,,
imu,490.775162,-0.3259932760000001,-9.3963823352,3.09544074,0.18703022,2.81080815,-2.31503022,,,
imu,490.783714,-0.3044597752,-9.4041583216,3.0972351984,0.60573718,3.0725,-2.40475314,,,
imu,490.792267,-0.2948893304,-9.398774946400001,3.083477684,0.71789083,3.28185348,-2.51690679,,,
imu,490.800644,-0.2877114968,-9.355109792000002,3.061346030400001,0.8749059399999999,3.37905331,-2.77112173,,,
imu,490.809021,-0.2930948720000001,-9.3664746952,3.0368217656,1.0693056,3.41643786,-3.16739796,,,
imu,490.817398,-0.2918985664000001,-9.355109792000002,3.0194753344,0.97210577,3.46129932,-3.60105874,,,
imu,490.825775,-0.2739539824000001,-9.3652783896,3.030840237600001,1.16650543,3.54354533,-3.7954584,,,
imu,490.834152,-0.2488315648,-9.420906600000002,3.015288264800001,1.26370526,3.55849915,-3.84779677,,,
imu,490.842529,-0.2380648144,-9.440047489600001,3.0278494736,1.05435178,3.63326825,-3.8702275,,,
imu,490.850906,-0.2290925224000001,-9.465169907200002,3.036223612800001,0.8449983,3.5958837,-3.8702275,,,
imu,490.859283,-0.2177276192,-9.4962738528,3.026653168000001,0.8674290299999999,3.5211146,-3.54124346,,,
imu,490.867661,-0.2189239248,-9.4908904776,3.0469903632,0.64312173,3.40896095,-3.44404363,,,
imu,490.876038,-0.1955959656,-9.513022131200001,3.0487848216,0.40386061,3.30428421,-3.33936689,,,
imu,490.884415,-0.1908107432,-9.516611048000001,3.056560808,0.007584380000000002,3.12483837,-3.25712088,,,
imu,490.892792,-0.1860255208,-9.493283088800002,3.055962655200001,-0.23915365,2.80333124,-3.16739796,,,
imu,490.901169,-0.1949978128,-9.482516338400002,3.0481866688,-0.63542988,2.45939338,-3.24216706,,,
imu,490.909546,-0.2249054528,-9.4621791432,3.0607478776,-0.74758353,2.1752708,-3.30198234,,,
imu,490.917923,-0.2595983152,-9.434065961600002,3.0481866688,-0.7999219,2.03320951,-3.26459779,,,
imu,490.9263,-0.2823281216,-9.403560168800002,3.0392143768,-0.9644139199999999,1.89114822,-3.33188998,,,
imu,490.934677,-0.2859170384,-9.3975786408,3.0350273072,-0.8672140899999999,2.1005017,-3.21973633,,,
imu,490.943054,-0.3241988176,-9.4041583216,3.0469903632,-0.61299915,2.39210119,-2.98047521,,,
imu,490.951431,-0.3062542336,-9.385017432000001,3.021269792800001,-0.24663056,2.64631613,-2.77859864,,,
imu,490.959808,-0.3182172896000001,-9.370661764800001,3.03562546,-0.30644584,2.9977309,-2.90570611,,,
imu,490.968185,-0.2835244272,-9.415523224800001,3.0583552664,-0.18681528,3.2220382,-2.98047521,,,
imu,490.976563,-0.2727576768,-9.426888128000002,3.0858702952,-0.22419983,3.31176112,-3.13749032,,,
imu,490.98494,-0.2715613712,-9.437056725600002,3.073309086400001,-0.21672292,3.19960747,-3.31693616,,,
imu,490.993317,-0.2691687600000001,-9.463973601600001,3.089459212,-0.37373803,3.16969983,-3.36927453,,,
imu,491.002135,-0.2763465936,-9.458590226400002,3.0930481288,-0.59056842,3.08745382,-3.1973056,,,
imu,491.010953,-0.2805336632,-9.460384684800001,3.105609337600001,-0.76253735,2.9229618,-3.01038285,,,
imu,491.019771,-0.2895059552,-9.462777296000002,3.104413032,-0.874691,3.07997691,-2.35989168,,,
imu,491.02859,-0.2859170384,-9.447823476,3.1205631576,-1.26349032,3.16969983,-1.79164652,,,
imu,491.037408,-0.2918985664000001,-9.435262267200002,3.112189018400001,-1.33078251,3.18465365,-1.43275484,,,
imu,491.046226,-0.290104108,-9.4412437952,3.1086001016,-1.33078251,3.19960747,-1.23087827,,,
imu,491.055044,-0.3014690112,-9.426289975200001,3.112189018400001,-1.48779762,3.25194584,-1.23835518,,,
imu,491.063863,-0.3098431504,-9.398774946400001,3.1115908656,-1.56256672,3.33419185,-1.49257012,,,
imu,491.072681,-0.3277877344,-9.4005694048,3.1026185736,-1.57004363,3.41643786,-1.9262309,,,
imu,491.081499,-0.3182172896000001,-9.405952780000002,3.1020204208,-1.54013599,3.48373005,-2.20287657,,,
imu,491.090317,-0.3194135952000001,-9.355109792000002,3.1032167264,-1.20367504,3.73794499,-2.35989168,,,
imu,491.099136,-0.3056560808,-9.376045140000002,3.096038892800001,-0.90459864,3.97720611,-2.56176825,,,
imu,491.107954,-0.2895059552,-9.381428515200001,3.1032167264,-0.82982954,4.18655959,-2.80102937,,,
imu,491.116772,-0.275150288,-9.367072848000001,3.1187686992,-0.71019898,4.35105161,-2.8982292,,,
imu,491.12559,-0.2584020096,-9.3592968616,3.0972351984,-0.5307531400000001,4.28375942,-2.95056757,,,
imu,491.134409,-0.2410555784,-9.328192916,3.101422268000001,-0.5008455,4.28375942,-3.11505959,,,
imu,491.143227,-0.2488315648,-9.3383615136,3.086468448,-0.55318387,4.09683667,-3.24964397,,,
imu,491.152045,-0.2697669128,-9.3694654592,3.1050111848,-0.28401511,3.77532954,-3.14496723,,,
imu,491.160863,-0.2835244272,-9.368269153600002,3.098431504000001,-0.29896893,3.61083752,-3.09262886,,,
imu,491.169682,-0.3068523864000001,-9.370661764800001,3.1008241152,0.04496892999999999,3.67812971,-2.81598319,,,
imu,491.1785,-0.3128339144,-9.415523224800001,3.089459212,-0.07466163,3.61831443,-2.75616791,,,
imu,491.187318,-0.3277877344,-9.432869656000001,3.1050111848,0.10478421,3.76037572,-2.49447606,,,
imu,491.196136,-0.340947096,-9.437654878400002,3.1211613104,-0.01484635000000001,3.86505246,-2.26269185,,,
imu,491.204671,-0.3469286240000001,-9.460982837600001,3.0972351984,-0.15690764,4.0444983,-2.06829219,,,
imu,491.213206,-0.3612842912,-9.443636406400001,3.0948425872,-0.23167674,4.4931129,-1.96361545,,,
imu,491.221741,-0.3696584304000001,-9.4412437952,3.084673989600001,-0.29896893,4.762281659999999,-1.88884635,,,
imu,491.230276,-0.3738455000000001,-9.431075197600002,3.071514628,-0.4260764,5.285665359999999,-1.78416961,,,
imu,491.23881,-0.3804251808,-9.437654878400002,3.071514628,-0.38121494,5.82400288,-1.94866163,,,
imu,491.247345,-0.367863972,-9.4322715032,3.071514628,-0.31392275,6.30252512,-2.02343073,,,
imu,491.25588,-0.3606861384,-9.437654878400002,3.062542336,-0.23915365,6.74366281,-2.13558438,,,
imu,491.264414,-0.3816214864,-9.418513988800001,3.0649349472,-0.29896893,7.1848005,-2.44213769,,,
imu,490.680333,,,,,,,-85.9142844,187.61853,107.7468656
imu,491.272949,-0.3792288752000001,-9.401765710400001,3.0529718912,-0.23167674,7.603507459999999,-2.6739219,,,
imu,491.281484,-0.3750418056000001,-9.373054376,3.041606988,-0.31392275,8.306337,-2.91318302,,,
imu,491.290019,-0.3840140976,-9.355109792000002,3.0260550152,0.03001510999999998,8.78485924,-3.23469015,,,
imu,491.298553,-0.3714528888,-9.3868118904,3.021269792800001,0.20946095,9.37553513,-3.55619728,,,
imu,491.307088,-0.3445360128,-9.347333805600002,3.0021289032,0.32909151,10.06341085,-3.87770441,,,
imu,491.315623,-0.3182172896000001,-9.325800304800001,2.9680341936,0.67302937,10.76624039,-4.04967334,,,
imu,491.324158,-0.2428500368,-9.3210150824,2.9447062344,1.25622835,11.3718701,-4.18425772,,,
imu,491.332692,-0.200381188,-9.315033554400001,2.9159949,1.73475059,11.93263835,-4.21416536,,,
imu,491.341227,-0.1710717008,-9.346735652800001,2.907022608,2.49739541,12.29153003,-4.169303899999999,,,
imu,491.349762,-0.1268083936,-9.355109792000002,2.9171912056,2.80394872,12.52331424,-4.0945348,,,
imu,491.358297,-0.080750628,-9.4005694048,2.9447062344,3.21517877,12.77005227,-4.21416536,,,
imu,491.366831,-0.0161501256,-9.523190728800001,3.007512278400001,3.52920899,12.74762154,-4.34874974,,,
imu,491.375366,0.05383375200000001,-9.4669643656,3.0134938064,3.4619168,12.45602205,-4.55062631,,,
imu,491.383901,0.1160416432,-9.440047489600001,2.990764,3.13293276,11.80553088,-4.78241052,,,
imu,491.392436,0.2039701048,-9.4041583216,2.9626508184,3.24508641,10.63913292,-5.11887147,,,
imu,491.40097,0.2996745528,-9.4005694048,2.9722212632,2.87871782,8.93439744,-5.35813259,,,
imu,491.409414,0.4474182944000001,-9.4454308648,2.9644452768,2.60954906,7.13246213,-4.887087259999999,,,
imu,491.417857,0.6956517064000001,-9.420906600000002,2.9602582072,2.34785721,4.93425059,-3.95995042,,,
imu,491.4263,0.9235479232000001,-9.429280739200001,2.921976428000001,2.37028794,1.45001053,-3.03281358,,,
imu,491.434743,1.0760768872,-9.388008196000001,2.877713120800001,2.55721069,-3.3576426,-2.30755331,,,
imu,491.443186,1.1358921672,-9.405952780000002,2.8603666896,3.05816366,-8.76344853,-1.04395552,,,
imu,491.45163,1.079665804,-9.416121377600001,2.8364405776,3.69370101,-14.2739312,0.44394957,,,
imu,491.460073,0.9247442288000001,-9.3963823352,2.7742326864,4.359146,-19.47038365,2.20850033,,,
imu,491.468516,0.6418179544000001,-9.370063612000001,2.7090340312,5.26385211,-23.94157583,3.71883615,,,
imu,491.476959,0.3535083048,-9.401765710400001,2.6779300856,6.16108131,-27.23889314,5.281510340000001,,,
imu,491.485402,-0.0017944584,-9.460982837600001,2.6892949888,6.69941883,-29.13055137,6.044155160000001,,,
imu,491.493846,-0.4049494456000001,-9.642223136000002,2.7443250464,6.96858759,-29.63150434,6.68716942,,,
imu,491.502289,-0.76264482,-9.657775108800001,2.750306574400001,6.95363377,-28.15855307,7.292799130000001,,,
imu,491.510732,-1.058730456,-9.6709344704,2.761671477600001,6.53492681,-25.33228109,7.10587638,,,
imu,491.519175,-1.3332825912,-9.746301723200002,2.7879902008,5.75732817,-21.39942643,5.932001509999999,,,
imu,491.527618,-1.5420379184,-9.7959484056,2.817897840800001,4.81523751,-16.50952729,3.95809727,,,
imu,491.536062,-1.6556869504,-9.8043225448,2.8579740784,3.59650118,-10.99904462,1.64773208,,,
imu,491.544505,-1.707726244,-9.775611210400001,2.865151912,2.23570356,-5.27920847,-1.31312428,,,
imu,491.552948,-1.7208856056,-9.7325442088,2.852590703200001,1.27118217,0.4481045899999998,-4.48333412,,,
imu,491.561391,-1.728661592,-9.672728928800002,2.8603666896,-0.007369440000000005,6.138033099999999,-7.93766654,,,
imu,491.569834,-1.7101188552,-9.6494009696,2.880105732000001,-1.03170611,11.82796161,-10.92095363,,,
imu,491.578278,-1.5934790592,-9.690673512800002,2.9351357896,-1.86164312,17.76462815,-12.79765804,,,
imu,491.586721,-1.4487260816,-9.6912716656,2.9841843192,-2.95327198,23.4844643,-14.33042459,,,
imu,491.595164,-1.2710747,-9.634447149600001,3.002727056,-4.05237775,28.20239451,-15.52673019,,,
imu,491.603607,-1.085647332,-9.565061424800001,3.0230642512,-5.03932987,31.94832642,-16.55106686,,,
imu,491.612025,-0.8499751288000001,-9.495077547200001,3.02067164,-5.936559069999999,34.88675205,-17.07445056,,,
imu,491.620443,-0.5999472584000001,-9.475936657600002,3.038018071200001,-6.67677316,36.57653371,-17.4782037,,,
imu,491.628861,-0.3367600264,-9.4621791432,3.077496156,-7.36464888,37.31674779999999,-17.54549589,,,
imu,491.637278,-0.0376836264,-9.4460290176,3.109796407200001,-8.14224752,36.92047157,-16.89500472,,,
imu,491.645696,0.2410555784,-9.423897364000002,3.1247502272,-8.411416280000001,35.54472012999999,-15.62393002,,,
imu,491.654114,0.4797185456,-9.394587876800001,3.1438911168,-8.55347757,32.86798635,-13.93414836,,,
imu,491.662532,0.6890720256,-9.351520875200002,3.156452325600001,-8.276831900000001,29.241685,-11.71350609,,,
imu,491.670949,0.8535640456000001,-9.322211388000001,3.158246784000001,-7.71606365,24.83778501,-9.156402869999999,,,
imu,491.679286,0.9911391896000001,-9.304864956800001,3.1827710488,-6.98332647,19.76844003,-6.56939201,,,
imu,491.687703,1.0748805816,-9.255816427200001,3.1779858264,-6.108528,14.14580371,-4.00481188,,,
imu,491.696121,1.1119660552,-9.2707702472,3.203108244,-5.02437605,8.20913717,-1.64958523,,,
imu,491.704539,1.1149568192,-9.2851259144,3.225838050400001,-3.97013174,2.11545552,0.66825687,,,
imu,491.712957,1.0964140824,-9.274957316800002,3.2485678568,-3.12524091,-4.00065686,2.35056162,,,
imu,491.721375,1.0054948568,-9.290509289600001,3.2443807872,-2.28782699,-9.90741576,3.92818963,,,
imu,491.729792,0.8344231560000002,-9.245049676800003,3.1995193272,-1.59247436,-15.58986736,5.33384871,,,
imu,491.73821,0.5927694248,-9.224114328800002,3.154657867200001,-0.92702937,-20.36761285,6.47033903,,,
imu,491.746628,0.296085636,-9.256414580000001,3.1474800336,-0.40364567,-24.18831386,7.21055312,,,
imu,491.755046,0.0065796808,-9.287518525600001,3.146881880800001,-0.0522309,-26.64821725,7.95824412,,,
imu,491.763463,-0.2763465936,-9.330585527200002,3.143292964,0.01506129,-27.54544645,8.556396920000001,,,
imu,491.771881,-0.5347486032000001,-9.351520875200002,3.1528634088,-0.11204618,-27.10430876,9.49848758,,,
imu,491.780299,-0.7429057776,-9.367671000800001,3.1666209232,-0.30644584,-25.42948092,10.05177892,,,
imu,491.788717,-0.9390998960000001,-9.393391571200002,3.1690135344,-0.73262971,-23.01443899,9.52091831,,,
imu,491.797134,-1.1179475832,-9.398176793600001,3.163630159200001,-1.23358268,-20.34518212,8.04049013,,,
imu,491.805552,-1.2513356576,-9.402962016000002,3.1480781864,-1.58499745,-16.89832661,6.021724430000001,,,
imu,491.814017,-1.3811348152,-9.370063612000001,3.1271428384,-1.80182784,-13.12248706,3.54686722,,,
imu,491.822482,-1.4852134024,-9.3718580704,3.113983476800001,-1.94388913,-8.93541746,0.8551796199999999,,,
imu,491.830947,-1.549215752,-9.412532460800001,3.1391058944,-1.98875059,-4.23244107,-1.9262309,,,
imu,491.839411,-1.5258877928,-9.4203084472,3.1684153816,-2.28782699,0.70231953,-4.43847266,,,
imu,491.847876,-1.4660725128,-9.409541696800002,3.159443089600001,-2.13081188,5.60717249,-6.60677656,,,
imu,491.856341,-1.3972849408,-9.419710294400002,3.1749950624,-2.2205348,10.09331849,-8.36385041,,,
imu,491.864806,-1.2465504352,-9.4244955168,3.179780284800001,-2.75139541,14.3626341,-9.769509489999999,,,
imu,491.873271,-1.0982085408,-9.4107380024,3.214473147200001,-2.99065653,18.15342747,-10.80879998,,,
imu,491.881735,-0.9151737840000002,-9.418513988800001,3.2156694528,-3.29720984,20.82268434,-11.84061356,,,
imu,491.8902,-0.7309427216000001,-9.419710294400002,3.206099008,-3.33459439,22.57228128,-12.49110473,,,
imu,491.898665,-0.5102243384,-9.4041583216,3.212080536000001,-3.476655679999999,23.4844643,-13.05187298,,,
imu,491.90713,-0.3032634696000001,-9.4244955168,3.217463911200001,-3.57385551,23.66391014,-13.40328775,,,
imu,491.915595,-0.1220231712,-9.395186029600001,3.2282306616,-3.60376315,23.17791099,-13.04439607,,,
imu,491.92406,0.0466559184,-9.3664746952,3.2264362032,-3.73834753,21.89935938,-12.10978232,,,
imu,491.932524,0.1896144376,-9.3622876256,3.228828814400001,-3.62619388,20.01517806,-10.91347672,,,
imu,491.940989,0.334965568,-9.352717180800001,3.233614036800001,-3.34954821,17.68985905,-9.67978657,,,
imu,491.949454,0.4438293776000001,-9.339557819200001,3.2455770928,-2.78130305,14.89349471,-8.2068353,,,
imu,491.957919,0.5670488544000001,-9.358100556000002,3.2784754968,-2.48222665,11.5214083,-6.62920729,,,
imu,491.966384,0.6436124128,-9.3718580704,3.2922330112,-2.19810407,7.75304566,-5.00671782,,,
imu,491.974848,0.6759126640000002,-9.339557819200001,3.2844570248,-1.80930475,3.56597606,-3.5711511,,,
imu,491.983313,0.6872775672000001,-9.340155972000002,3.2874477888,-1.43545925,-0.7033395499999999,-2.26269185,,,
imu,491.991778,0.7255593464000001,-9.313239096000002,3.2994108448,-1.12142903,-4.80816314,-0.91684805,,,
imu,492.000243,0.7183815128000002,-9.2929019008,3.292831164,-0.88964482,-9.099909479999999,0.38413429,,,
imu,492.008708,0.6789034280000001,-9.2139457312,3.271895816,-0.5980453299999999,-13.33184054,1.52810152,,,
imu,492.017525,0.56824516,-9.1750657992,3.238399259200001,-0.30644584,-17.17497228,2.76926858,,,
imu,492.026342,0.4210995712,-9.1302043392,3.195332257600001,-0.14195382,-20.52462796,3.86837435,,,
imu,492.035158,0.2727576768,-9.1302043392,3.1714061456,0.11973803,-23.11911573,4.907664840000001,,,
imu,492.043975,0.0980970592,-9.1583175208,3.1606393952,0.7253677399999999,-24.83880503,5.827324770000001,,,
imu,492.052792,-0.080750628,-9.158915673600001,3.1516671032,1.03192105,-26.11735664,5.98433988,,,
imu,492.061609,-0.2889078024000001,-9.222319870400002,3.113385324,1.78708896,-26.67812489,5.819847859999999,,,
imu,492.070426,-0.5144114080000001,-9.208562356000002,3.091851823200001,2.34785721,-26.45381759,5.59554056,,,
imu,492.079243,-0.7201759712000001,-9.208562356000002,3.061944183200001,3.12545585,-25.32480418,5.229171969999999,,,
imu,490.781784,,,,,,,-88.35572440000001,187.9359172,109.7366392
imu,490.88536,,,,,,,-87.47680600000001,186.9349268,108.1741176
imu,490.984939,,,,,,,-87.904058,188.2166828,110.090648
imu,491.086471,,,,,,,-87.781986,188.0335748,110.3103776
imu,491.188095,,,,,,,-88.1359948,188.1556468,109.7976752
imu,491.289749,,,,,,,-88.3068956,188.4364124,110.0540264
imu,491.391159,,,,,,,-88.23365240000001,188.1312324,110.4934856
imu,491.492721,,,,,,,-88.6120756,187.9969532,110.456864
imu,492.08806,-0.9079959504000001,-9.269573941600001,3.0487848216,3.80585466,-23.58268415,4.61606535,,,
imu,492.096877,-1.0712916648,-9.3317818328,3.029045779200001,4.50120729,-21.29474969,3.76369761,,,
imu,492.105694,-1.2280076984,-9.304266804000001,3.014690112,5.09936009,-18.58810827,2.71693021,,,
imu,492.114511,-1.3811348152,-9.368269153600002,2.996745528,5.67508216,-15.30574478,1.65520899,,,
imu,492.123328,-1.4690632768,-9.435262267200002,3.017680876,5.98911238,-11.23830574,1.02714855,,,
imu,492.132145,-1.546224988,-9.484908949600001,3.0428032936,6.01902002,-6.76711356,-0.01961884999999985,,,
imu,492.140962,-1.5701511,-9.550705757600001,3.0457940576,5.7049898,-2.36321357,-0.99909406,,,
imu,492.149779,-1.5623751136,-9.599754287200001,3.056560808,5.21899065,2.2500399,-1.8514618,,,
imu,492.158595,-1.5097376672,-9.619493329600001,3.055962655200001,4.44886892,6.863293369999999,-2.70382954,,,
imu,492.167412,-1.4110424552,-9.659569567200002,3.0607478776,3.61893191,11.43168538,-3.5711511,,,
imu,492.176229,-1.2519338104,-9.673925234400002,3.0577571136,2.62450288,15.42435532,-4.19173463,,,
imu,492.185046,-1.1000029992,-9.678112304,3.0428032936,1.76465823,19.20767178,-4.40108811,,,
imu,492.193863,-0.9169682424000002,-9.675121540000001,3.0332328488,0.77770611,22.09375904,-4.53567249,,,
imu,492.20268,-0.7249611936,-9.648204664000001,3.026653168000001,-0.15690764,24.4564626,-4.75250288,,,
imu,492.211497,-0.5419264368000001,-9.613511801600001,3.0134938064,-0.9644139199999999,26.07895207,-4.98428709,,,
imu,492.219972,-0.3385544848000001,-9.5907819952,3.002727056,-1.50275144,26.71448942,-5.17120984,,,
imu,492.228447,-0.1632957144,-9.5656595776,2.9931566112,-1.88407385,26.56495122,-5.59739371,,,
imu,492.236922,0.0053833752,-9.561472508000001,3.014690112,-2.18315025,25.85464477,-5.88151629,,,
imu,492.245397,0.13458438,-9.530368562400001,3.032634696,-2.51213429,24.32935513,-5.99366994,,,
imu,492.253872,0.2554112456,-9.488497866400001,3.036223612800001,-2.78877996,22.42274308,-6.270315609999999,,,
imu,492.262347,0.3606861384,-9.469356976800002,3.0511774328,-2.75887232,20.1198548,-6.33013089,,,
imu,492.270822,0.4665591840000001,-9.4113361552,3.068523864000001,-2.91588743,17.45059793,-6.32265398,,,
imu,492.279297,0.5479079648000001,-9.401167557600001,3.087066600800001,-3.05794872,14.14580371,-6.292746339999999,,,
imu,492.287772,0.6268641344,-9.370661764800001,3.09544074,-3.03551799,10.52697927,-6.008623759999999,,,
imu,492.296247,0.6980443176000002,-9.342548583200001,3.089459212,-2.77382614,6.78852427,-5.44785551,,,
imu,492.304722,0.7333353328000001,-9.3246039992,3.087066600800001,-2.36259609,2.73603905,-4.7674567,,,
imu,492.313197,0.7321390272000001,-9.2707702472,3.087066600800001,-2.0709966,-1.55570729,-3.98985806,,,
imu,492.321672,0.7363260968000002,-9.250433052000002,3.0978333512,-1.91398149,-5.72034616,-2.94309066,,,
imu,492.330147,0.7201759712000001,-9.230694009600002,3.0978333512,-1.37564397,-9.735446829999999,-1.82903107,,,
imu,492.338622,0.6436124128,-9.194804841600002,3.0912536704,-0.91207555,-13.63091694,-0.91684805,,,
imu,492.347097,0.4767277816000001,-9.184038091200001,3.0607478776,-0.4260764,-17.50395632,-0.3411259799999999,,,
imu,492.355572,0.2159331608,-9.217534648,3.061944183200001,0.18703022,-20.74145835,0.4215188400000001,,,
imu,492.364047,-0.05861897440000001,-9.261199802400002,3.0649349472,1.01696723,-22.7976086,1.41594787,,,
imu,492.372522,-0.3373581792000001,-9.28632222,3.051775585600001,1.39081273,-23.75465308,2.00662376,,,
imu,492.380997,-0.6143029256000001,-9.311444637600001,3.038018071200001,1.8917657,-23.43314595,2.62720729,,,
imu,492.389472,-0.8589474208000002,-9.353315333600001,3.0601497248,1.95158098,-22.26674799,2.90385296,,,
imu,492.397947,-1.0629175256,-9.392195265600002,3.0721127808,2.12354991,-19.8816137,3.3823752,,,
imu,492.406422,-1.2196335592,-9.459786532,3.108001948800001,2.06373463,-16.53943493,3.8309898,,,
imu,492.414897,-1.3153380072,-9.541135312800002,3.1528634088,1.85438115,-12.65891864,4.055297100000001,,,
imu,492.42336,-1.3596013144,-9.5566872856,3.1767895208,1.13659779,-8.37464921,3.89080508,,,
imu,492.431824,-1.3673773008,-9.557285438400001,3.1875562712,0.68798319,-4.00813377,3.07582189,,,
imu,492.440287,-1.3709662176,-9.523190728800001,3.180378437600001,0.34404533,0.27613566,1.94680848,,,
imu,492.448751,-1.36079762,-9.507638756,3.1558541728,-0.24663056,4.68003565,0.7579797899999998,,,
imu,492.457214,-1.2914118952,-9.516012895200001,3.1438911168,-0.38869185,8.92692053,-0.60281783,,,
imu,492.465678,-1.2088668088,-9.502853533600002,3.1456855752,-0.55318387,13.00931339,-1.89632326,,,
imu,492.474141,-1.1119660552,-9.484908949600001,3.1247502272,-0.5307531400000001,16.91973732,-2.89075229,,,
imu,492.482605,-1.0276265104,-9.451412392800002,3.101422268000001,-0.68029134,20.25443918,-3.75059694,,,
imu,492.491069,-0.9229497704,-9.403560168800002,3.086468448,-0.60552224,23.20781863,-4.4683803,,,
imu,492.499532,-0.8122915024000001,-9.353315333600001,3.061346030400001,-0.52327623,25.89950623,-4.909517989999999,,,
imu,492.507996,-0.6693329832000001,-9.364082084000001,3.0481866688,-0.23167674,28.32202507,-5.12634838,,,
imu,492.516459,-0.5263744640000001,-9.3269966104,3.0697201696,0.25432241,30.08657583,-5.17868675,,,
imu,492.524923,-0.3654713608,-9.3138372488,3.065533100000001,0.13469185,31.19315851,-5.56000916,,,
imu,492.533386,-0.2195220776,-9.349726416800001,3.071514628,0.20946095,31.65672693,-5.86656247,,,
imu,492.54185,-0.07955432240000002,-9.323407693600002,3.0691220168,0.45619898,31.39503508,-6.270315609999999,,,
imu,492.550313,0.02871133440000001,-9.3317818328,3.068523864000001,0.81509066,30.49780588,-6.576868919999999,,,
imu,492.558777,0.1680809368,-9.343744888800002,3.055962655200001,0.9347212199999999,29.23420809,-6.67406875,,,
imu,492.56724,0.3188154424,-9.3832229736,3.071514628,1.23379762,27.68648772,-6.69649948,,,
imu,492.575704,0.4557924336,-9.3718580704,3.057158960800001,1.45810492,25.54061455,-6.43480763,,,
imu,492.584167,0.6274622872000001,-9.390998960000001,3.0451959048,1.42072037,22.86388077,-6.270315609999999,,,
imu,492.592631,0.7530743752000001,-9.444234559200002,3.0529718912,1.39828964,19.49927127,-5.94880848,,,
imu,492.601095,0.8332268504000001,-9.450216087200001,3.068523864000001,1.33847436,15.61127807,-5.43290169,,,
imu,492.609558,0.963026008,-9.477731116000001,3.083477684,1.12164397,11.49897757,-4.82727198,,,
imu,492.618022,1.0467674,-9.4496179344,3.065533100000001,1.11416706,7.012831569999999,-4.15435008,,,
imu,492.626572,0.9917373424000001,-9.396980488,3.0487848216,0.9347212199999999,1.8014253,-3.61601256,,,
imu,492.635122,0.8547603512000002,-9.374250681600001,3.024260556800001,0.70293701,-3.34268878,-3.10010577,,,
imu,492.643672,0.6992406232000001,-9.401167557600001,3.0134938064,0.91229049,-7.79892714,-2.25521494,,,
imu,492.652222,0.4910834488,-9.413130613600002,3.0122975008,0.9945364999999999,-11.32802866,-1.02152479,,,
imu,492.660772,0.2266999112,-9.460384684800001,3.0134938064,0.9347212199999999,-14.0496239,0.01028879000000016,,,
imu,492.669322,-0.0490485296,-9.471749588000002,2.9955492224,1.09173633,-15.86651303,1.2140713,,,
imu,492.677872,-0.3666676664,-9.499862769600002,2.9943529168,1.07678251,-16.26278926,2.58234583,,,
imu,492.686422,-0.5891805080000001,-9.520798117600002,3.0093067368,0.83004448,-15.55995972,3.4571443,,,
imu,492.694972,-0.780589404,-9.555490980000002,3.0122975008,0.26927623,-13.90756261,4.02538946,,,
imu,492.703522,-0.9426888128,-9.553098368800002,3.0314383904,-0.23915365,-11.39532085,4.122589290000001,,,
imu,492.712072,-1.06172122,-9.575230022400001,3.0463922104,-0.83730645,-8.43446449,3.98800491,,,
imu,492.720622,-1.133499556,-9.5800152448,3.0583552664,-1.41302852,-4.92031679,3.73378997,,,
imu,492.729172,-1.1891277664,-9.545322382400002,3.0553645024,-1.9962275,-1.25663089,2.70197639,,,
imu,492.737722,-1.1885296136,-9.519601812000001,3.0523737384,-2.60933412,2.53416248,1.3636095,,,
imu,492.746272,-1.1741739464,-9.4908904776,3.038018071200001,-2.95327198,6.41467877,0.1673038999999998,,,
imu,492.754822,-1.0952177768,-9.477731116000001,3.0487848216,-3.20748692,10.28024124,-0.8645096799999998,,,
imu,492.763372,-0.9839613560000001,-9.429878892000001,3.0529718912,-3.15514855,14.04860388,-1.69444669,,,
imu,492.771801,-0.8392083784000002,-9.401167557600001,3.047588516000001,-3.17757928,17.36087501,-2.66644499,,,
imu,492.780351,-0.6753145112000001,-9.402962016000002,3.0601497248,-2.95327198,19.92545514,-3.39918217,,,
imu,492.788901,-0.5012520464000001,-9.374848834400002,3.0721127808,-2.76634923,22.01151303,-4.0197657,,,
imu,492.797451,-0.3415452488,-9.334174444000002,3.073309086400001,-2.53456502,23.46203357,-4.52071867,,,
imu,492.806001,-0.1501363528,-9.288116678400002,3.0577571136,-2.25791935,24.02280182,-5.02914855,,,
imu,492.814551,0.0430670016,-9.2552182744,3.0529718912,-1.41302852,23.90317126,-5.4403786,,,
imu,492.823101,0.2308869808,-9.273162858400001,3.056560808,-0.80739881,22.84145004,-5.98619303,,,
imu,492.83148,0.4121272792,-9.3204169296,3.0679257112,-0.38121494,21.04699164,-6.60677656,,,
imu,492.83986,0.5317578392000001,-9.3138372488,3.1038148792,-0.02232326000000001,18.56465752,-7.339513739999999,,,
imu,492.84824,0.6400234960000001,-9.326398457600002,3.104413032,0.76275229,15.68604717,-7.601205589999999,,,
imu,492.856619,0.7500836112000001,-9.3138372488,3.1026185736,1.06182869,12.53826806,-7.451667389999999,,,
imu,492.864999,0.8260490168000001,-9.289312984,3.0972351984,1.5179202,9.076458729999999,-7.04791425,,,
imu,492.873378,0.8541621984000002,-9.297687123200001,3.0936462816,1.67493531,5.19594244,-6.30022325,,,
imu,492.881758,0.8595455736000001,-9.327594763200002,3.100225962400001,2.00391935,1.19579559,-5.29831731,,,
imu,492.890138,0.8344231560000002,-9.358100556000002,3.1008241152,2.02635008,-2.65481306,-4.18425772,,,
imu,492.898517,0.7752060288000001,-9.385615584800002,3.1038148792,2.16841137,-6.33345278,-3.10010577,,,
imu,491.594284,,,,,,,-84.6935644,187.4110076,110.5423144
imu,491.695877,,,,,,,-88.40455320000001,188.4242052,110.4934856
imu,491.797409,,,,,,,-85.6823476,187.4720436,107.2585776
imu,491.899002,,,,,,,-87.0373468,188.900286,110.2005128
imu,492.000564,,,,,,,-87.87964360000001,188.3875836,106.8923616
imu,492.102188,,,,,,,-87.8674364,188.9857364,110.334792
imu,492.203659,,,,,,,-86.74437400000001,188.8148356,110.5301072
imu,492.305252,,,,,,,-87.3791484,188.656142,109.6267744
imu,492.906897,0.666940372,-9.3975786408,3.1020204208,1.93662716,-10.27378435,-2.25521494,,,
imu,492.915277,0.5012520464000001,-9.398176793600001,3.078094308800001,2.29551884,-13.49633256,-1.27573973,,,
imu,492.923656,0.2799355104,-9.3975786408,3.0703183224,2.37776485,-16.0683896,-0.08691103999999994,,,
imu,492.932036,0.0514411408,-9.4454308648,3.053570044,2.49739541,-17.98995547,0.8850872600000002,,,
imu,492.940415,-0.1830347568,-9.491488630400001,3.0434014464,2.22822665,-18.66287737,1.8122241,,,
imu,492.948795,-0.3774344168000001,-9.516012895200001,3.0493829744,1.92915025,-18.36380097,2.57486892,,,
imu,492.957175,-0.5341504504000001,-9.553098368800002,3.0434014464,1.63755076,-17.15254155,3.11320644,,,
imu,492.965554,-0.6454068712000001,-9.547714993600001,3.0583552664,1.2936129,-15.2459295,3.56182104,,,
imu,492.973934,-0.7488873056,-9.548313146400002,3.05057928,0.77770611,-13.05519487,3.54686722,,,
imu,492.982313,-0.8727049352000001,-9.5656595776,3.053570044,0.23189168,-10.45323019,3.47957503,,,
imu,492.990693,-0.9474740352000001,-9.566257730400002,3.073309086400001,-0.24663056,-7.507327650000001,3.1580679,,,
imu,492.999073,-1.0395895664,-9.565061424800001,3.0828795312,-1.09152139,-4.2548718,2.53000746,,,
imu,493.007452,-1.0425803304,-9.555490980000002,3.096038892800001,-1.76444329,-0.57623208,1.5879168,,,
imu,493.015832,-1.0635156784,-9.499862769600002,3.088861059200001,-2.4448421,3.17717674,0.4289957499999999,,,
imu,493.024212,-1.0641138312,-9.48072188,3.0906555176,-3.08785636,6.556740059999999,-1.21592445,,,
imu,493.03303,-1.0509544696,-9.477132963200003,3.094244434400001,-3.36450203,10.1755645,-2.66644499,,,
imu,493.041848,-0.9935318008000001,-9.458590226400002,3.0912536704,-3.68600916,13.77195821,-3.97490424,,,
imu,493.050666,-0.9121830200000002,-9.406550932800002,3.087066600800001,-3.77573208,17.15152153,-5.10391765,,,
imu,493.059485,-0.8200674888,-9.346735652800001,3.070916475200001,-3.66357843,20.07499334,-6.34508471,,,
imu,493.068303,-0.6986424704000002,-9.321613235200001,3.0601497248,-3.32711748,22.6620042,-6.860991499999999,,,
imu,493.077121,-0.5556839512000001,-9.287518525600001,3.0679257112,-2.91588743,25.03966158,-6.928283689999999,,,
imu,493.085939,-0.3487230824000001,-9.294098206400001,3.057158960800001,-2.51213429,26.84159689,-6.905852959999999,,,
imu,493.094758,-0.1453511304,-9.309052026400002,3.0583552664,-1.89902767,27.76873373,-7.010529699999999,,,
imu,493.103576,0.0502448352,-9.315033554400001,3.0661312528,-1.18872122,27.60424171,-7.19745245,,,
imu,493.112394,0.2255036056,-9.3036686512,3.0529718912,-0.5008455,26.5499974,-7.48157503,,,
imu,493.121212,0.3953790008,-9.303070498400002,3.040410682400001,0.04496892999999999,24.76301591,-7.578774859999999,,,
imu,493.130031,0.5473098120000001,-9.287518525600001,3.0434014464,0.5982602699999999,22.40778926,-7.70588233,,,
imu,493.138849,0.6932590952000001,-9.295294512000002,3.030840237600001,1.40576655,19.26748706,-7.63859014,,,
imu,493.147667,0.8200674888,-9.367671000800001,3.0529718912,1.7422275,15.66361644,-7.36942138,,,
imu,493.156485,0.9079959504000001,-9.374250681600001,3.070916475200001,1.97401171,11.83543852,-6.748837849999999,,,
imu,493.165304,0.9618297024000001,-9.399971252000002,3.0810850728,2.07121154,7.506307629999999,-5.65720899,,,
imu,493.174122,0.9881484256000002,-9.434065961600002,3.0816832256,1.77961205,3.21456129,-4.43847266,,,
imu,493.18294,0.9839613560000001,-9.440047489600001,3.084673989600001,1.83195042,-1.144477240000001,-3.04029049,,,
imu,493.191758,0.9917373424000001,-9.422701058400001,3.078094308800001,1.60016621,-5.451177400000001,-1.6271545,,,
imu,493.200577,0.9223516176000001,-9.404756474400001,3.0679257112,1.30856672,-9.87750812,-0.6102947399999998,,,
imu,493.209395,0.7644392784,-9.4173176832,3.049981127200001,1.12912088,-14.26645429,0.07758098000000002,,,
imu,493.218213,0.56824516,-9.447225323200001,3.0607478776,1.03192105,-17.92266328,1.02714855,,,
imu,493.227031,0.35889168,-9.4591883792,3.049981127200001,0.81509066,-20.7788429,1.77483955,,,
imu,493.235508,0.1453511304,-9.448421628800002,3.05057928,0.97210577,-22.54339366,2.44776145,,,
imu,493.243984,-0.140565908,-9.4735440464,3.0368217656,0.9870595899999999,-23.64997634,2.72440712,,,
imu,493.25246,-0.4193051128000001,-9.482516338400002,3.02067164,0.8449983,-23.64249943,3.21040627,,,
imu,493.260936,-0.6795015808000001,-9.478927421600002,3.0463922104,0.7104139199999999,-22.17702507,3.44219048,,,
imu,493.269413,-0.963026008,-9.531564868,3.0463922104,0.30666078,-19.59749112,3.39732902,,,
imu,493.277889,-1.2190354064,-9.540537160000001,3.047588516000001,-0.19429219,-16.07586651,3.27022155,,,
imu,493.286365,-1.3990793992,-9.5842023144,3.0631404888,-0.44103022,-11.33550557,2.85151459,,,
imu,493.294841,-1.5324674736,-9.609324732000001,3.0912536704,-0.90459864,-5.93717655,1.74493191,,,
imu,493.303318,-1.5545991272,-9.641026830400001,3.1391058944,-1.72705874,-0.2023865800000002,-0.1616801399999999,,,
imu,493.311794,-1.516317348,-9.6326526912,3.137311436000001,-2.79625687,5.78661833,-2.5991528,,,
imu,493.32027,-1.3805366624,-9.537546396000002,3.1086001016,-3.66357843,11.30457791,-5.14877911,,,
imu,493.328746,-1.1963056,-9.516611048000001,3.096637045600001,-4.276685049999999,16.22438469,-7.780651429999999,,,
imu,493.337223,-1.0084856208,-9.475936657600002,3.096038892800001,-4.85988403,20.32173137,-10.36018538,,,
imu,493.345699,-0.8326286976000001,-9.4250936696,3.083477684,-5.510375199999999,23.67138705,-12.34156653,,,
imu,493.354175,-0.5987509528,-9.355109792000002,3.0529718912,-5.5851443,26.43036684,-13.3659032,,,
imu,493.362652,-0.3547046104000001,-9.3347725968,3.0679257112,-5.59262121,28.38931726,-14.60707026,,,
imu,493.371128,-0.116639796,-9.304864956800001,3.0451959048,-5.360837,29.00990079,-15.48186873,,,
imu,493.379604,0.1208268656,-9.2707702472,3.0314383904,-4.90474549,28.59867074,-15.81832968,,,
imu,493.38808,0.334965568,-9.286920372800001,3.0368217656,-4.00751629,27.29021149,-15.78842204,,,
imu,493.396557,0.5449172008000001,-9.304266804000001,3.0511774328,-3.37197894,24.81535428,-15.6089762,,,
imu,493.405033,0.7231667352000001,-9.2994815816,3.0529718912,-2.68410322,21.63019062,-14.98091576,,,
imu,493.413509,0.8374139200000001,-9.2994815816,3.0757016976,-1.86164312,17.48050557,-13.89676381,,,
imu,493.421985,0.9367072848000002,-9.3377633608,3.104413032,-1.33825942,12.93454429,-12.36399726,,,
imu,493.430462,1.004896704,-9.33118368,3.115179782400001,-0.83730645,8.21661408,-10.4499083,,,
imu,493.438929,1.0186542184,-9.327594763200002,3.138507741600001,-0.44103022,3.32671494,-8.348896589999999,,,
imu,493.447396,0.9821668976000001,-9.355109792000002,3.159443089600001,-0.127,-1.54823038,-5.84413174,,,
imu,493.455864,0.9331183680000001,-9.3347725968,3.1558541728,-0.01484635000000001,-6.370837330000001,-3.48890509,,,
imu,493.464331,0.8499751288000001,-9.305463109600002,3.1618357008,0.29918387,-10.95418316,-1.38789338,,,
imu,493.472798,0.6681366776000001,-9.289312984,3.138507741600001,0.64312173,-15.30574478,0.15982699,,,
imu,493.481266,0.4569887392,-9.2929019008,3.1349188248,1.06182869,-19.1339227,1.62530135,,,
imu,493.489733,0.1949978128,-9.2851259144,3.1109927128,1.25622835,-22.10225597,2.60477656,,,
imu,493.4982,-0.07716171120000001,-9.2964908176,3.083477684,1.56278166,-23.85185291,3.37489829,,,
imu,493.506668,-0.4043512928,-9.303070498400002,3.0679257112,1.92167334,-24.35280588,4.115112379999999,,,
imu,493.515135,-0.7177833600000001,-9.3718580704,3.0703183224,2.07868845,-23.58268415,4.5039117,,,
imu,493.523602,-0.9791761336000001,-9.420906600000002,3.0858702952,2.12354991,-21.19754986,5.012341579999999,,,
imu,493.53207,-1.2130538784,-9.471749588000002,3.1086001016,2.28056502,-17.98995547,5.01981849,,,
imu,493.540537,-1.3865181904,-9.5459205352,3.131329908000001,2.10859609,-13.92251643,4.49643479,,,
imu,493.549005,-1.477437416,-9.587193078400002,3.143292964,1.49548947,-9.20458622,3.24031391,,,
imu,493.557472,-1.5306730152,-9.597959828800002,3.161237548,0.71789083,-4.20253343,1.44585551,,,
imu,493.565939,-1.5025598336,-9.592576453600001,3.1696116872,-0.23167674,0.8369039099999998,-0.6925407499999998,,,
imu,493.574407,-1.4965783056,-9.530966715200002,3.173200604000001,-1.00179847,5.74175687,-3.13001341,,,
imu,493.582874,-1.4798300272,-9.526181492800001,3.1534615616,-1.49527453,10.43725635,-5.41047096,,,
imu,493.591341,-1.4301833448,-9.507040603200002,3.1474800336,-2.01865823,15.1103251,-7.361944469999999,,,
imu,493.599809,-1.318926924,-9.465169907200002,3.1414985056,-2.72896468,19.80582458,-8.9545263,,,
imu,493.608276,-1.1657998072,-9.433467808800001,3.1271428384,-2.90093361,24.1573862,-10.21812409,,,
imu,493.616743,-0.9618297024000001,-9.4215047528,3.1241520744,-3.23739456,27.73882609,-11.24246076,,,
imu,493.625211,-0.7662337368000001,-9.393391571200002,3.119366852000001,-3.45422495,30.40060605,-12.10978232,,,
imu,493.633678,-0.4946723656000001,-9.3754469872,3.0930481288,-3.40936349,32.07543389,-12.79018113,,,
imu,493.642138,-0.2249054528,-9.344941194400002,3.0810850728,-3.0429949,32.76330961,-13.05934989,,,
imu,493.650598,0.0340947096,-9.319818776800002,3.089459212,-2.86354906,31.94832642,-13.64254887,,,
imu,493.659057,0.2530186344000001,-9.367072848000001,3.101422268000001,-2.55699575,30.10152965,-13.85937926,,,
imu,493.667517,0.4378478496000001,-9.357502403200002,3.1050111848,-2.03361205,27.32759604,-13.5154414,,,
imu,493.675977,0.6202844536000002,-9.359895014400001,3.1247502272,-1.57752054,23.89569435,-12.7677504,,,
imu,493.684436,0.7614485144,-9.379035904000002,3.140302200000001,-1.2485365,19.81330149,-11.45181424,,,
imu,493.692896,0.8828735328,-9.3688673064,3.1510689504,-1.01675229,15.25238639,-9.769509489999999,,,
imu,493.701356,0.9749890640000002,-9.367072848000001,3.1654246176,-0.84478336,10.3998718,-7.690928509999999,,,
imu,493.709816,1.0222431352,-9.3443430416,3.1534615616,-0.58309151,5.10621952,-5.61982444,,,
imu,493.718275,1.0264302048,-9.318024318400001,3.1450874224,-0.28401511,-0.5612782599999999,-3.43656672,,,
imu,492.406789,,,,,,,-87.92847240000002,188.6805564,109.9319544
imu,492.508535,,,,,,,-87.17162600000002,188.7660068,110.5423144
imu,492.609945,,,,,,,-87.4523916,188.8270428,110.6521792
imu,492.711507,,,,,,,-87.3181124,188.8880788,110.456864
imu,492.81307,,,,,,,-84.9255012,187.8748812,106.85574
imu,492.914663,,,,,,,-86.97631080000001,188.5096556,110.0051976
imu,493.016195,,,,,,,-86.3293292,188.6927636,108.3938472
imu,493.117788,,,,,,,-87.30590520000001,188.5096556,110.1028552
imu,493.726735,1.022841288,-9.332379985600001,3.1444892696,0.007584380000000002,-5.98203801,-1.33555501,,,
imu,493.735195,0.9444832712000001,-9.280340692000001,3.142694811200001,0.30666078,-11.52242832,0.3542266500000002,,,
imu,493.743655,0.780589404,-9.242657065600001,3.1271428384,0.64312173,-17.01795717,1.56548607,,,
imu,493.752114,0.5604691736,-9.243853371200002,3.109796407200001,1.15155161,-21.99010232,2.65711493,,,
imu,493.760574,0.275150288,-9.2659850248,3.088861059200001,1.57773548,-25.81828024,3.39732902,,,
imu,493.769034,-0.06400234960000001,-9.284527761600001,3.0816832256,1.90671952,-28.17350689,4.399234959999999,,,
imu,493.777493,-0.3660695136000001,-9.3108464848,3.0948425872,2.29551884,-29.01839772,5.1768336,,,
imu,493.785953,-0.6711274416,-9.392195265600002,3.1187686992,2.49739541,-28.49501402,5.932001509999999,,,
imu,493.794413,-0.9486703408000001,-9.4005694048,3.1259465328,2.52730305,-26.82766309,6.49276976,,,
imu,493.802873,-1.169388724,-9.460982837600001,3.1325262136,2.28056502,-24.31542133,6.36566229,,,
imu,493.811332,-1.3984812464,-9.505844297600001,3.1420966584,2.07868845,-20.83865818,5.83480168,,,
imu,493.819792,-1.5599825024,-9.5423316184,3.15525602,1.50296638,-16.64411167,4.73569591,,,
imu,493.828252,-1.6760241456,-9.558481744000002,3.1570504784,1.15902852,-11.85141236,3.48705194,,,
imu,493.836712,-1.725670828,-9.553696521600001,3.1863599656,0.66555246,-6.33345278,2.05148522,,,
imu,493.845189,-1.7149040776,-9.576426328,3.198921174400001,0.15712258,-0.5612782599999999,0.4962879400000002,,,
imu,493.853667,-1.6227885464,-9.534555632000002,3.1905470352,-0.59056842,5.00901969,-1.3280781,,,
imu,493.862188,-1.4798300272,-9.475936657600002,3.1875562712,-1.23358268,10.16808759,-3.35432071,,,
imu,493.870666,-1.3386659664,-9.439449336800001,3.1666209232,-1.49527453,14.81872561,-5.10391765,,,
imu,493.879143,-1.1323032504,-9.404756474400001,3.156452325600001,-1.5476129,18.78896482,-6.36751544,,,
imu,493.887621,-0.9223516176000001,-9.367671000800001,3.136115130400001,-1.59995127,22.11618977,-7.26474464,,,
imu,493.896098,-0.666940372,-9.342548583200001,3.1109927128,-1.56256672,24.51627788,-7.90028199,,,
imu,493.904576,-0.4145198904,-9.310248332,3.1026185736,-1.1737674,25.90698314,-8.24421985,,,
imu,493.913053,-0.1453511304,-9.3006778872,3.091851823200001,-0.82982954,26.03409061,-8.43861951,,,
imu,493.921531,0.0933118368,-9.318622471200001,3.0900573648,-0.39616876,25.0546154,-8.34141968,,,
imu,493.930009,0.2703650656,-9.381428515200001,3.1068056432,-0.04475399000000001,23.11809571,-8.01243564,,,
imu,493.938486,0.4557924336,-9.377241445600001,3.1181705464,0.3963837,20.5684694,-7.36942138,,,
imu,493.946964,0.6184899952000001,-9.370063612000001,3.12534838,0.6281679099999999,17.39825956,-6.30022325,,,
imu,493.955441,0.726755652,-9.388606348800002,3.1391058944,0.76275229,13.51026636,-5.03662546,,,
imu,493.963919,0.7680281952000001,-9.3832229736,3.149274492,0.80013684,9.29328912,-3.80293531,,,
imu,493.972396,0.7566632920000002,-9.374848834400002,3.146881880800001,0.68050628,4.79966621,-2.39727623,,,
imu,493.980874,0.663949608,-9.3479319584,3.1307317552,0.68050628,0.5976427899999996,-1.06638625,,,
imu,493.989351,0.5688433128,-9.348530111200002,3.1349188248,0.9048135799999999,-3.2081044,0.1897346300000002,,,
imu,493.997829,0.424688488,-9.33118368,3.128937296800001,0.8973366700000001,-6.70729828,0.8850872600000002,,,
imu,494.006306,0.2266999112,-9.3383615136,3.1295354496,0.9571519499999999,-9.76535447,1.34117877,,,
imu,494.014784,-0.0023926112,-9.340754124800002,3.107403796,1.18893616,-11.88879691,1.84960865,,,
imu,494.023261,-0.2320832864,-9.4041583216,3.1187686992,1.40576655,-13.0776256,2.40289999,,,
imu,494.031739,-0.4581850448000001,-9.4412437952,3.115179782400001,1.34595127,-13.11501015,2.64963802,,,
imu,494.040216,-0.6717255944000001,-9.4460290176,3.1145816296,1.42072037,-12.24768859,2.75431476,,,
imu,494.04902,-0.8392083784000002,-9.479525574400002,3.122357616,1.31604363,-10.50556856,2.98609897,,,
imu,494.057824,-0.9349128264000002,-9.495675700000001,3.1349188248,1.19641307,-8.11295736,2.89637605,,,
imu,494.066627,-1.0330098856,-9.5148165896,3.1414985056,0.620691,-5.428746670000001,1.92437775,,,
imu,494.075431,-1.1047882216,-9.499862769600002,3.126544685600001,0.14216876,-2.61742851,0.5710570399999999,,,
imu,494.084235,-1.1412755424,-9.501657228000001,3.128937296800001,-0.33635348,0.5527813299999997,-0.66263311,,,
imu,494.093038,-1.0868436376,-9.486703408,3.1301336024,-0.5307531400000001,4.05945212,-1.7766927,,,
imu,494.101842,-1.0479637056,-9.444832712,3.154059714400001,-0.8522602699999999,7.1848005,-3.33188998,,,
imu,494.110646,-0.9666149248000001,-9.4382530312,3.137311436000001,-0.95693701,10.27276433,-4.40108811,,,
imu,494.119449,-0.8601437264,-9.423897364000002,3.140900352800001,-1.23358268,13.09903631,-4.79736434,,,
imu,494.128253,-0.6842868032,-9.3652783896,3.133124366400001,-1.35321324,15.52155515,-5.08148692,,,
imu,494.137057,-0.5138132552000001,-9.3688673064,3.1271428384,-1.15133667,17.33096737,-5.5151477,,,
imu,494.14586,-0.3236006648,-9.3622876256,3.1229557688,-1.13638285,17.97398163,-5.83665483,,,
imu,494.154664,-0.1495382,-9.312042790400001,3.1086001016,-0.84478336,18.02632,-5.93385466,,,
imu,494.163468,0.0125612088,-9.336567055200002,3.107403796,-0.63542988,17.33096737,-5.896470109999999,,,
imu,494.172271,0.131593616,-9.334174444000002,3.104413032,-0.10456927,15.81315464,-5.91142393,,,
imu,494.181075,0.2278962168,-9.325800304800001,3.108001948800001,0.3739529699999999,13.95140405,-5.72450118,,,
imu,494.189879,0.3032634696000001,-9.3204169296,3.0936462816,0.78518302,11.91768453,-5.2908404,,,
imu,494.198682,0.3780325696000001,-9.312042790400001,3.0972351984,1.18145925,9.68208844,-4.64034923,,,
imu,494.207486,0.4187069600000001,-9.3210150824,3.089459212,1.41324346,7.177323589999999,-3.88518132,,,
imu,494.21629,0.4587831976000001,-9.3060612624,3.108001948800001,1.56278166,4.59031273,-2.84589083,,,
imu,494.225093,0.4683536424000001,-9.3383615136,3.112189018400001,1.89924261,1.92105586,-2.14306129,,,
imu,494.233897,0.4587831976000001,-9.359895014400001,3.122357616,2.10111918,-0.9126930300000002,-1.33555501,,,
imu,494.242701,0.3774344168000001,-9.3413522776,3.117572393600001,2.116073,-3.66419591,-0.8944173199999998,,,
imu,494.251187,0.2739539824000001,-9.349726416800001,3.104413032,2.22822665,-6.25120677,-0.6925407499999998,,,
imu,494.259673,0.09690075360000001,-9.3664746952,3.0810850728,2.28056502,-8.40455685,-0.4158950799999999,,,
imu,494.26816,-0.1070693512,-9.3766432928,3.073309086400001,2.31047266,-9.91489267,0.09253480000000014,,,
imu,494.276646,-0.3385544848000001,-9.419112141600001,3.0631404888,2.25065738,-10.43079946,0.4065650199999999,,,
imu,494.285133,-0.5168040192000001,-9.464571754400001,3.0332328488,2.42262631,-10.13919997,0.44394957,,,
imu,494.293619,-0.6914646368,-9.488497866400001,3.0487848216,2.4151494,-8.72606398,0.54862631,,,
imu,494.302106,-0.8433954480000001,-9.5184055064,3.038018071200001,2.13850373,-6.76711356,0.38413429,,,
imu,494.310592,-0.9636241608000001,-9.5812115504,3.0553645024,1.86933497,-4.26982562,0.242073,,,
imu,494.319078,-1.0084856208,-9.5907819952,3.0589534192,1.45062801,-1.13700033,-0.18411087,,,
imu,494.327565,-0.998915176,-9.5949690648,3.047588516000001,1.04687487,2.07059406,-1.09629389,,,
imu,494.336051,-0.9516611048000001,-9.584800467200001,3.0487848216,0.56835263,4.93425059,-2.3000764,,,
imu,494.344538,-0.8625363376,-9.562070660800002,3.049981127200001,0.07487657,7.67827656,-3.42908981,,,
imu,494.353024,-0.7512799168000001,-9.488497866400001,3.038616224000001,-0.40364567,9.98864175,-4.49081103,,,
imu,494.361511,-0.6322475096000001,-9.4944793944,3.0302420848,-0.71019898,11.9700229,-5.11139456,,,
imu,494.369997,-0.5030465048,-9.450216087200001,3.0320365432,-0.9644139199999999,13.43549726,-5.42542478,,,
imu,494.378483,-0.3732473472,-9.4412437952,3.029045779200001,-1.22610577,14.3626341,-5.761885729999999,,,
imu,494.38697,-0.2368685088,-9.420906600000002,3.0302420848,-1.18124431,14.72152578,-5.739455,,,
imu,494.395456,-0.0855358504,-9.382624820800002,3.0487848216,-1.19619813,14.53460303,-5.44785551,,,
imu,494.403943,0.07895616960000001,-9.395784182400002,3.038616224000001,-1.12890594,13.85420422,-5.14877911,,,
imu,494.412429,0.2045682576000001,-9.423299211200002,3.059551572000001,-0.82982954,12.36629913,-4.670256869999999,,,
imu,494.420916,0.3224043592,-9.3832229736,3.059551572000001,-0.5756146,10.2503336,-4.33379592,,,
imu,494.429402,0.3792288752000001,-9.3658765424,3.05057928,-0.40364567,7.65584583,-3.90761205,,,
imu,494.437888,0.4139217376000001,-9.332379985600001,3.049981127200001,-0.32887657,4.77723548,-3.30198234,,,
imu,494.446375,0.4055475984,-9.339557819200001,3.054168196800001,-0.13447691,1.79394839,-2.68887572,,,
imu,494.454874,0.3702565832000001,-9.340754124800002,3.0643367944,-0.02232326000000001,-0.8304470200000003,-2.05333837,,,
imu,494.463373,0.3379563320000001,-9.324005846400002,3.0679257112,0.46367589,-3.37259642,-1.47013939,,,
imu,494.471872,0.257205704,-9.3335762912,3.0649349472,0.80761375,-5.85493054,-1.04395552,,,
imu,494.480371,0.1501363528,-9.3592968616,3.0757016976,1.26370526,-7.94846534,-0.7074945699999999,,,
imu,494.488871,0.002990764,-9.367671000800001,3.082281378400001,1.47305874,-9.60833936,-0.28878761,,,
imu,494.49737,-0.1519308112,-9.401167557600001,3.0852721424,1.64502767,-10.56538384,-0.1018648599999998,,,
imu,494.505869,-0.3020671640000001,-9.4250936696,3.0882629064,1.60016621,-10.7597835,-0.07195722000000004,,,
imu,494.514368,-0.4372496968000001,-9.446627170400001,3.084673989600001,1.28613599,-10.46818401,-0.1616801399999999,,,
imu,494.522867,-0.5592728680000001,-9.441841948000002,3.0828795312,1.2936129,-9.43637043,-0.4682334499999998,,,
imu,494.531366,-0.684884956,-9.4460290176,3.0697201696,1.02444414,-8.18024955,-0.9617095099999999,,,
imu,494.539865,-0.7758041816000001,-9.465169907200002,3.084673989600001,0.78518302,-6.39326806,-1.49257012,,,
imu,493.21935,,,,,,,-87.6721212,188.8270428,109.480288
imu,493.320852,,,,,,,-87.12279720000001,188.9857364,110.6033504
imu,493.422475,,,,,,,-88.087166,188.8880788,109.5535312
imu,493.524038,,,,,,,-87.73315720000001,188.8514572,109.8220896
imu,493.625631,,,,,,,-87.70874280000001,188.4974484,109.3215944
imu,493.727285,,,,,,,-86.378158,187.5208724,106.2575872
imu,493.828695,,,,,,,-87.8064004,188.3753764,109.9197472
imu,493.930257,,,,,,,-85.58469,188.0824036,107.0510552
imu,494.548365,-0.8362176144000002,-9.471151435200001,3.11039456,0.50853735,-4.28477944,-2.15801511,,,
imu,494.556864,-0.8571529624000002,-9.471749588000002,3.0996278096,0.14216876,-1.89216824,-3.09262886,,,
imu,494.565363,-0.8589474208000002,-9.460982837600001,3.113983476800001,-0.20924601,0.6125966099999998,-3.91508896,,,
imu,494.573862,-0.7967395296000002,-9.458590226400002,3.121759463200001,-0.37373803,2.96034635,-4.52071867,,,
imu,494.582361,-0.7393168608000001,-9.448421628800002,3.1307317552,-0.62047606,5.09874261,-5.238502029999999,,,
imu,494.59086,-0.6525847048000001,-9.4346641144,3.128339144,-0.83730645,6.7361859,-5.74693191,,,
imu,494.599359,-0.5778156048000002,-9.434065961600002,3.134320672,-0.9644139199999999,7.89510695,-5.95628539,,,
imu,494.607859,-0.4827093096,-9.4107380024,3.126544685600001,-0.95693701,8.79981306,-5.8889932,,,
imu,494.616358,-0.3702565832000001,-9.3628857784,3.115179782400001,-1.01675229,9.4278735,-5.545055339999999,,,
imu,494.624857,-0.2374666616,-9.329987374400002,3.087066600800001,-0.82235263,9.56993479,-5.10391765,,,
imu,494.633356,-0.110658268,-9.305463109600002,3.0667294056,-0.3513073,9.37553513,-4.23659609,,,
imu,494.641855,0.0113649032,-9.3036686512,3.0607478776,0.04496892999999999,8.612890310000001,-3.496382,,,
imu,494.650354,0.1130508792,-9.325800304800001,3.0487848216,0.6281679099999999,7.409107799999999,-2.85336774,,,
imu,494.658818,0.1746606176,-9.308453873600001,3.0463922104,1.06182869,5.73427996,-2.38979932,,,
imu,494.667281,0.212344244,-9.330585527200002,3.0350273072,1.65998149,3.6706528,-1.93370781,,,
imu,494.675745,0.2195220776,-9.325800304800001,3.008708584,2.33290339,1.64441019,-1.69444669,,,
imu,494.684209,0.1926052016,-9.3317818328,2.9955492224,2.73665653,-0.37435551,-1.51500085,,,
imu,494.692672,0.1668846312,-9.325800304800001,2.979997249600001,3.12545585,-2.40807503,-1.44770866,,,
imu,494.701136,0.06579680800000001,-9.330585527200002,2.9656415824,3.41705534,-4.0305645,-1.52247776,,,
imu,494.709599,-0.04845037680000001,-9.3862137376,2.9566692904,3.64136264,-5.54090032,-1.59724686,,,
imu,494.718063,-0.1920070488,-9.4137287664,2.9506877624,3.52920899,-6.22129913,-1.39537029,,,
imu,494.726526,-0.3032634696000001,-9.460982837600001,2.9500896096,3.60397809,-6.50542171,-1.20844754,,,
imu,494.73499,-0.385808556,-9.505246144800001,2.9560711376,3.15536349,-6.146530029999999,-1.32060119,,,
imu,494.743453,-0.4976631296000001,-9.527377798400002,2.9614545128,3.13293276,-5.623146330000001,-1.59724686,,,
imu,494.751917,-0.5861897440000001,-9.554892827200002,2.9692304992,2.75908726,-4.74087095,-1.91875399,,,
imu,494.76038,-0.6477994824000001,-9.596763523200002,2.9859787776,2.17588828,-3.36511951,-2.23278421,,,
imu,494.768844,-0.6741182056000001,-9.605735815200001,3.001530750400001,1.60016621,-1.83235296,-2.6739219,,,
imu,494.777307,-0.6896701784000001,-9.606333968000001,2.996745528,0.8449983,-0.2173404000000003,-3.29450543,,,
imu,494.785771,-0.663949608,-9.595567217600001,2.993754764000001,0.08983038999999998,1.41262598,-3.81788913,,,
imu,494.794235,-0.6316493568000001,-9.578818939200001,3.0051196672,-0.41112258,2.98277708,-4.17678081,,,
imu,494.802698,-0.5933675776,-9.554892827200002,3.012895653600001,-0.74758353,4.25385178,-4.48333412,,,
imu,494.811162,-0.5401319784,-9.5291722568,2.9931566112,-1.16629049,5.18098862,-4.5431494,,,
imu,494.819625,-0.4928779072000001,-9.502255380800001,3.0009325976,-1.38312088,6.00344872,-4.34874974,,,
imu,494.828089,-0.4324644744,-9.4765348104,2.997941833600001,-1.4728438,6.5866477,-4.11696553,,,
imu,494.836552,-0.3744436528,-9.433467808800001,2.9901658472,-1.67472037,6.93806247,-3.75059694,,,
imu,494.845016,-0.3098431504,-9.412532460800001,2.9865769304,-1.56256672,7.13993904,-3.4216129,,,
imu,494.853479,-0.242251884,-9.385017432000001,2.999736292,-1.19619813,6.930585559999999,-3.05524431,,,
imu,494.862247,-0.20935348,-9.3658765424,2.9853806248,-0.95693701,6.2875713,-2.92813684,,,
imu,494.871015,-0.1686790896,-9.385615584800002,2.9722212632,-0.61299915,5.58474176,-2.80850628,,,
imu,494.879783,-0.1429585192,-9.380830362400001,2.9883713888,-0.2765382,4.739850929999999,-2.57672207,,,
imu,494.888551,-0.1501363528,-9.3688673064,2.9943529168,-0.127,3.6706528,-2.58419898,,,
imu,494.897319,-0.1686790896,-9.3927934184,3.001530750400001,0.23936859,2.76594669,-2.5243837,,,
imu,494.906086,-0.1920070488,-9.4041583216,2.9883713888,0.45619898,2.2500399,-2.06081528,,,
imu,494.914854,-0.2261017584,-9.423299211200002,2.9973436808,0.65807555,1.79394839,-1.75426197,,,
imu,494.923622,-0.2344758976,-9.4244955168,3.0051196672,0.57582954,1.47244126,-1.80660034,,,
imu,494.93239,-0.2506260232,-9.455001309600002,2.9955492224,0.4861066199999999,1.24813396,-1.94118472,,,
imu,494.941158,-0.2649816904,-9.467562518400001,3.014690112,0.41881443,1.02382666,-2.18792275,,,
imu,494.949926,-0.2942911776,-9.450216087200001,3.0140919592,0.35899915,0.9714882899999999,-2.55429134,,,
imu,494.958626,-0.3206099008000001,-9.4555994624,3.003325208800001,0.31413769,0.80699627,-2.77859864,,,
imu,494.967393,-0.3606861384,-9.454403156800002,3.012895653600001,0.41881443,0.7397040799999997,-2.95056757,,,
imu,494.976161,-0.3750418056000001,-9.474142199200001,3.0122975008,0.35152224,0.8144731799999998,-3.00290594,,,
imu,494.984929,-0.4025568344,-9.472347740800002,3.0111011952,0.16459949,1.18831868,-2.87579847,,,
imu,494.993697,-0.415716196,-9.4663662128,3.008708584,-0.18681528,1.577118,-2.77859864,,,
imu,495.002465,-0.4181088072000001,-9.454403156800002,3.010503042400001,-0.13447691,1.97339423,-2.70382954,,,
imu,495.011233,-0.4121272792,-9.440047489600001,3.0003344448,-0.32887657,2.38462428,-2.70382954,,,
imu,495.02,-0.4205014184,-9.4316733504,2.9925584584,-0.47841477,2.5491163,-2.68139881,,,
imu,495.028768,-0.4169125016,-9.455001309600002,3.005717820000001,-0.49336859,2.81080815,-2.80850628,,,
imu,495.037536,-0.424688488,-9.471749588000002,3.0278494736,-0.54570696,3.25942275,-2.85336774,,,
imu,495.046304,-0.4366515440000001,-9.4735440464,3.0260550152,-0.55318387,3.57345297,-2.74121409,,,
imu,495.055072,-0.4228940296000001,-9.4621791432,3.0158864176,-0.66533752,4.05945212,-2.62158353,,,
imu,495.063548,-0.4103328208,-9.4424401008,3.017680876,-0.7999219,4.433297619999999,-2.54681443,,,
imu,495.072024,-0.3953790008,-9.439449336800001,3.0158864176,-0.67281443,4.88938913,-2.51690679,,,
imu,495.080501,-0.3798270280000001,-9.423299211200002,3.005717820000001,-0.66533752,5.18846553,-2.40475314,,,
imu,495.088977,-0.3559009160000001,-9.416121377600001,3.0003344448,-0.62047606,5.45015738,-2.15801511,,,
imu,495.097453,-0.34393786,-9.4250936696,2.999138139200001,-0.38121494,5.75671069,-2.04586146,,,
imu,495.105929,-0.3086468448,-9.430477044800002,3.0009325976,-0.34383039,5.988494899999999,-2.001,,,
imu,495.114406,-0.2817299688000001,-9.438851184,3.0111011952,-0.32139966,6.138033099999999,-2.03838455,,,
imu,495.122882,-0.2476352592,-9.446627170400001,3.008708584,-0.44850713,6.13055619,-2.06081528,,,
imu,495.131358,-0.2386629672,-9.443636406400001,3.0188771816,-0.60552224,6.00344872,-1.96361545,,,
imu,495.139834,-0.2266999112,-9.443636406400001,3.0182790288,-0.81487572,5.86886434,-1.96361545,,,
imu,495.148311,-0.2009793408,-9.420906600000002,3.017082723200001,-0.7401066199999999,5.65203395,-1.8514618,,,
imu,495.156787,-0.20935348,-9.3993730992,3.0188771816,-0.73262971,5.47258811,-1.78416961,,,
imu,495.165263,-0.19439966,-9.4005694048,3.011699348,-0.68776825,5.1660348,-1.65706214,,,
imu,495.173739,-0.2051664104,-9.3868118904,3.0122975008,-0.74758353,4.762281659999999,-1.73930815,,,
imu,495.182216,-0.2189239248,-9.392195265600002,3.0063159728,-0.49336859,4.56040509,-1.82903107,,,
imu,495.190692,-0.2464389536,-9.414326919200002,3.014690112,-0.41859949,4.23889796,-1.71687742,,,
imu,495.199168,-0.2590001624000001,-9.416121377600001,3.0182790288,-0.38121494,4.171605769999999,-1.74678506,,,
imu,495.207644,-0.2703650656,-9.422102905600001,3.022466098400001,-0.16438455,4.32862088,-1.70940051,,,
imu,495.216121,-0.2823281216,-9.448421628800002,3.0164845704,0.09730729999999999,4.36600543,-1.67201596,,,
imu,495.224597,-0.2895059552,-9.4555994624,3.0164845704,-0.05970781,4.410866889999999,-1.71687742,,,
imu,495.233073,-0.3062542336,-9.4454308648,3.0063159728,-0.15690764,4.57535891,-1.90380017,,,
imu,495.241549,-0.3253951232,-9.4753385048,3.0069141256,-0.127,4.77723548,-2.11315365,,,
imu,495.250026,-0.3403489432000001,-9.483712644000002,3.0158864176,-0.18681528,4.94920441,-2.41223005,,,
imu,495.258502,-0.3134320672,-9.4944793944,3.002727056,-0.43355331,5.43520356,-2.50195297,,,
imu,495.266972,-0.320011748,-9.4974701584,3.0140919592,-0.5756146,5.853910519999999,-2.61410662,,,
imu,495.275442,-0.3062542336,-9.474740352000001,3.012895653600001,-0.7401066199999999,6.13055619,-2.748691,,,
imu,495.283912,-0.3074505392,-9.463973601600001,2.999736292,-0.9793677399999999,6.48197096,-2.72626027,,,
imu,495.292382,-0.2793373576,-9.448421628800002,3.0009325976,-1.31582869,6.6614168,-2.91318302,,,
imu,495.300852,-0.2769447464000001,-9.460384684800001,3.017680876,-1.45788998,6.773570449999999,-2.8982292,,,
imu,495.309321,-0.2578038568000001,-9.444234559200002,3.033831001600001,-1.51022835,6.78852427,-2.86832156,,,
imu,495.317791,-0.2506260232,-9.440645642400002,3.038018071200001,-1.71210492,6.94553938,-2.75616791,,,
imu,495.326261,-0.2296906752000001,-9.4280844336,3.0392143768,-1.63733582,7.07264685,-2.59167589,,,
imu,495.334731,-0.2105497856,-9.385017432000001,3.0398125296,-1.82425857,6.885724099999999,-2.57672207,,,
imu,495.343201,-0.1985867296,-9.3927934184,3.051775585600001,-1.80182784,6.72123208,-2.62906044,,,
imu,495.351671,-0.1806421456,-9.398774946400001,3.0577571136,-2.02613514,6.272617479999999,-2.68887572,,,
imu,495.360141,-0.1782495344,-9.404756474400001,3.061944183200001,-1.51022835,5.71184923,-2.60662971,,,
imu,494.031745,,,,,,,-87.7453644,188.6805564,109.5535312
imu,494.133307,,,,,,,-86.927482,188.9369076,109.6878104
imu,494.2349,,,,,,,-87.9773012,188.8514572,109.7976752
imu,494.336463,,,,,,,-87.30590520000001,188.6805564,109.6389816
imu,494.437995,,,,,,,-88.06275160000001,188.5218628,110.1150624
imu,494.539588,,,,,,,-87.781986,188.7049708,109.7976752
imu,494.64115,,,,,,,-85.706762,188.717178,109.5901528
imu,494.742713,,,,,,,-87.7453644,188.8148356,109.785468
imu,495.368611,-0.1872218264,-9.384419279200001,3.0529718912,-1.38312088,5.48754193,-2.5991528,,,
imu,495.377081,-0.2051664104,-9.367072848000001,3.020073487200001,-0.9793677399999999,5.00901969,-2.41223005,,,
imu,495.38555,-0.2255036056,-9.3413522776,3.0422051408,-0.84478336,4.739850929999999,-2.09819983,,,
imu,495.39402,-0.2386629672,-9.3694654592,3.0422051408,-0.5681376899999999,4.82209694,-1.60472377,,,
imu,495.40249,-0.2338777448,-9.3868118904,3.0398125296,-0.03727708,5.03892733,-1.08134007,,,
imu,495.41096,-0.233279592,-9.384419279200001,3.0422051408,0.08983038999999998,5.00901969,-1.03647861,,,
imu,495.41943,-0.2404574256,-9.3862137376,3.0254568624,0.3889067899999999,5.001542779999999,-1.11872462,,,
imu,495.4279,-0.2278962168,-9.3862137376,3.017680876,0.91229049,4.96415823,-1.12620153,,,
imu,495.43637,-0.2207183832,-9.405354627200001,3.010503042400001,1.05435178,5.03145042,-1.39537029,,,
imu,495.44484,-0.2135405496,-9.387410043200001,3.0099048896,1.15902852,4.99406587,-1.88136944,,,
imu,495.45331,-0.2069608688,-9.406550932800002,3.0009325976,1.09173633,4.95668132,-2.2253073,,,
imu,495.46178,-0.1776513816,-9.4496179344,3.011699348,1.09173633,4.85948149,-2.5991528,,,
imu,495.470241,-0.1710717008,-9.4591883792,3.0093067368,0.81509066,4.784712389999999,-2.91318302,,,
imu,495.478702,-0.1453511304,-9.477132963200003,3.015288264800001,0.55339881,4.77723548,-2.9729983,,,
imu,495.487163,-0.1327899216,-9.488497866400001,3.003325208800001,0.31413769,4.63517419,-2.93561375,,,
imu,495.495624,-0.11963056,-9.474740352000001,3.008708584,0.18703022,4.35105161,-2.748691,,,
imu,495.504085,-0.1178361016,-9.467562518400001,3.0051196672,-0.11952309,4.15665195,-2.60662971,,,
imu,495.512546,-0.1184342544,-9.477731116000001,3.011699348,-0.32139966,3.84262173,-2.61410662,,,
imu,495.521007,-0.128602852,-9.483712644000002,3.0188771816,-0.5756146,3.43139168,-2.56924516,,,
imu,495.529468,-0.1626975616,-9.456795768000001,3.022466098400001,-0.83730645,3.26689966,-2.56924516,,,
imu,495.537929,-0.176455076,-9.447823476,3.02067164,-0.8522602699999999,3.05006927,-2.50942988,,,
imu,495.54639,-0.191408896,-9.4454308648,3.029643932,-1.00179847,3.01268472,-2.53933752,,,
imu,495.554851,-0.200381188,-9.444234559200002,3.0302420848,-1.0242292,2.99025399,-2.58419898,,,
imu,495.563312,-0.2099516328,-9.419112141600001,3.0434014464,-1.09152139,3.19213056,-2.56924516,,,
imu,495.571773,-0.2129423968,-9.414925072,3.015288264800001,-0.81487572,3.21456129,-2.59167589,,,
imu,495.580234,-0.2171294664,-9.418513988800001,3.0230642512,-0.8522602699999999,3.2968073,-2.61410662,,,
imu,495.588695,-0.2141387024,-9.419112141600001,3.029045779200001,-0.5681376899999999,3.56597606,-2.57672207,,,
imu,495.597156,-0.221316536,-9.4460290176,3.03562546,-0.34383039,3.7454219,-2.5991528,,,
imu,495.605617,-0.212344244,-9.4669643656,3.0607478776,-0.53823005,3.81271409,-2.69635263,,,
imu,494.844245,,,,,,,-85.3283388,188.0946108,107.8567304
imu,494.94596,,,,,,,-87.3791484,188.350962,110.1028552
imu,495.04737,,,,,,,-85.26730280000001,187.679566,107.344028
imu,495.148963,,,,,,,-87.36694119999999,188.3143404,110.1028552
imu,495.250495,,,,,,,-87.24486920000001,188.6073132,110.1638912
imu,495.352118,,,,,,,-87.2814908,188.6683492,109.968576
imu,495.45365,,,,,,,-87.3181124,188.473034,109.8709184
imu,495.555182,,,,,,,-86.89086040000001,188.4364124,109.9197472
