Type,Timestamp,Data Accelerometer X,Data Accelerometer Y,Data Accelerometer Z,Data Gyroscope X,Data Gyroscope Y,Data Gyroscope Z,Data Magnetometer X,Data Magnetometer Y,Data Magnetometer Z
imu,495.807705,-0.6232752176,-9.6703363176,2.2532415976,0.5982602699999999,1.71917929,-3.59358183,,,
imu,495.816182,-0.6328456624000001,-9.669140012000002,2.2514471392,0.65807555,1.79394839,-3.52628964,,,
imu,495.824658,-0.6232752176,-9.6667474008,2.2508489864,0.68050628,1.8761944,-3.58610492,,,
imu,495.833134,-0.6352382736000001,-9.658971414400002,2.249054528,0.74779847,1.92853277,-3.69825857,,,
imu,495.84161,-0.6376308848000001,-9.655382497600002,2.2544379032,0.67302937,2.04068642,-3.81788913,,,
imu,495.850087,-0.6448087184,-9.6499991224,2.249054528,0.81509066,2.13040934,-3.77302767,,,
imu,495.858563,-0.631051204,-9.6535880392,2.2448674584,1.13659779,2.324809,-3.78050458,,,
imu,495.867039,-0.6250696760000001,-9.6703363176,2.2544379032,1.19641307,2.27994754,-3.82536604,,,
imu,495.875515,-0.6184899952000001,-9.672130776000001,2.2681954176,1.20388998,2.21265535,-3.87770441,,,
imu,495.883992,-0.6154992312,-9.671532623200001,2.2681954176,1.10669015,2.28742445,-3.84031986,,,
imu,495.892468,-0.6149010784000001,-9.685290137600001,2.2693917232,1.03192105,2.35471664,-3.81788913,,,
imu,495.900944,-0.6113121616,-9.690075360000002,2.249054528,1.02444414,2.24256299,-3.81041222,,,
imu,495.909421,-0.6119103144000001,-9.6775141512,2.2574286672,0.9571519499999999,2.07059406,-3.81788913,,,
imu,495.917897,-0.6274622872000001,-9.672130776000001,2.2711861816,0.88985976,2.05564024,-3.88518132,,,
imu,495.926373,-0.6292567456000001,-9.690075360000002,2.2747750984,0.77770611,2.03320951,-3.90761205,,,
imu,495.934849,-0.6220789120000001,-9.716992236000001,2.2771677096,0.67302937,2.00330187,-3.90761205,,,
imu,495.943326,-0.6125084672000001,-9.7217774584,2.2705880288,0.59078336,2.16031698,-3.82536604,,,
imu,495.951802,-0.6137047728000001,-9.703832874400002,2.2508489864,0.44872207,2.1752708,-3.60853565,,,
imu,495.960278,-0.6256678288,-9.667943706400001,2.243073,0.26179932,2.10797861,-3.56367419,,,
imu,495.968754,-0.6256678288,-9.646410205600002,2.2592231256,0.26927623,1.98834805,-3.59358183,,,
imu,495.977231,-0.5975546472000001,-9.6296619272,2.2556342088,0.4861066199999999,2.09302479,-3.59358183,,,
imu,495.985707,-0.6065269392000001,-9.6159044128,2.2424748472,0.44124516,1.90610204,-3.58610492,,,
imu,495.994183,-0.6322475096000001,-9.6051376624,2.249054528,0.56087572,1.61450255,-3.83284295,,,
imu,496.002657,-0.6519865520000001,-9.644017594400001,2.266999112000001,0.7702292,1.50982581,-4.079580979999999,,,
imu,496.011131,-0.62806044,-9.710412555200001,2.2747750984,1.00201341,1.4275798,-4.13191935,,,
imu,496.019604,-0.6244715232,-9.734936820000001,2.2825510848,1.01696723,1.42010289,-4.04967334,,,
imu,496.028078,-0.6549773160000001,-9.722973764,2.2855418488,0.8674290299999999,1.59207182,-3.66087402,,,
imu,496.036552,-0.6741182056000001,-9.699047652,2.2801584736,0.74779847,1.79394839,-3.2720747,,,
imu,496.045025,-0.6711274416,-9.681103068,2.2753732512,0.85995212,2.13040934,-2.89075229,,,
imu,496.053499,-0.6531828576,-9.7008421104,2.2801584736,1.04687487,2.41453192,-2.65896808,,,
imu,496.061973,-0.6388271904000001,-9.688280901600002,2.2783640152,1.22632071,2.50425484,-2.95056757,,,
imu,496.070447,-0.6262659816,-9.669140012000002,2.2717843344,1.01696723,2.55659321,-3.18235178,,,
imu,496.07892,-0.6166955368000001,-9.630260080000001,2.263410195200001,0.80013684,2.48930102,-3.51881273,,,
imu,496.087394,-0.6226770648,-9.599156134400001,2.2544379032,0.9048135799999999,2.42200883,-3.7954584,,,
imu,496.095868,-0.601143564,-9.596763523200002,2.2436711528,1.0693056,2.42200883,-3.85527368,,,
imu,496.104341,-0.6089195504,-9.595567217600001,2.2424748472,1.13659779,2.24256299,-4.04219643,,,
imu,496.112815,-0.5933675776,-9.591380148,2.2442693056,1.35342818,2.324809,-4.07210407,,,
imu,496.121289,-0.5945638832000001,-9.5949690648,2.2544379032,1.76465823,2.22013226,-3.95995042,,,
imu,496.129763,-0.5939657304000001,-9.626671163200001,2.261017584,1.91419643,2.10797861,-3.96742733,,,
imu,496.138236,-0.5897786608000001,-9.648802816800002,2.2717843344,1.95905789,1.98834805,-3.90761205,,,
imu,496.14671,-0.5855915912,-9.673925234400002,2.2771677096,1.95158098,1.70422547,-3.88518132,,,
imu,496.155184,-0.5945638832000001,-9.7163940832,2.264008348,1.83942733,1.39767216,-3.82536604,,,
imu,496.163657,-0.5975546472000001,-9.744507264800001,2.2646065008,1.71979677,1.28551851,-3.56367419,,,
imu,496.172131,-0.61310662,-9.730749750400001,2.2717843344,1.45810492,1.2032725,-3.59358183,,,
imu,496.180605,-0.6292567456000001,-9.711608860800002,2.2664009592,1.21136689,1.17336486,-3.53376655,,,
imu,496.189079,-0.6448087184,-9.7056273328,2.246063764000001,1.09173633,1.18831868,-3.48890509,,,
imu,496.197552,-0.6466031768,-9.70502918,2.2394840832,1.00201341,1.29299542,-3.48890509,,,
imu,496.206009,-0.6549773160000001,-9.6846919848,2.2394840832,0.9197674,1.41262598,-3.67582784,,,
imu,496.214467,-0.6705292888000001,-9.676317845600002,2.237091472,0.9571519499999999,1.50982581,-3.73564312,,,
imu,496.222924,-0.6651459136000001,-9.683495679200002,2.2442693056,1.07678251,1.60702564,-3.67582784,,,
imu,496.231381,-0.6609588440000002,-9.6918698184,2.252045292,0.9945364999999999,1.89862513,-3.58610492,,,
imu,496.239838,-0.6466031768,-9.685290137600001,2.249652680800001,1.19641307,2.06311715,-3.57862801,,,
imu,496.248295,-0.646005024,-9.667345553600002,2.2526434448,1.41324346,2.21265535,-3.38422835,,,
imu,496.256753,-0.6501920936000001,-9.636839760800001,2.2646065008,1.31604363,2.5491163,-3.38422835,,,
imu,496.26521,-0.6406216488000002,-9.658971414400002,2.2801584736,1.38333582,2.48182411,-3.36179762,,,
imu,496.273667,-0.6358364264000002,-9.706225485600001,2.2795603208,1.31604363,2.36219355,-3.54124346,,,
imu,496.282124,-0.6029380224,-9.7122070136,2.2837473904,1.23379762,2.29490136,-3.75059694,,,
imu,496.290581,-0.6017417168000001,-9.6912716656,2.281952932,1.12912088,2.2500399,-3.78798149,,,
imu,496.299038,-0.5921712720000001,-9.690075360000002,2.269989876,0.9870595899999999,2.36219355,-3.66087402,,,
imu,496.307496,-0.6005454112,-9.701440263200002,2.2658028064,0.83004448,2.324809,-3.42908981,,,
imu,496.315953,-0.6065269392000001,-9.686486443200002,2.2616157368,0.65059864,2.29490136,-3.21973633,,,
imu,496.32441,-0.5993491056000001,-9.668541859200001,2.2568305144,0.58330645,2.49677793,-3.09262886,,,
imu,496.332867,-0.5963583416000001,-9.644017594400001,2.252045292,0.3889067899999999,2.36967046,-3.11505959,,,
imu,496.341324,-0.5814045216000001,-9.636241608,2.249652680800001,0.51601426,2.30985518,-3.25712088,,,
imu,496.349782,-0.5778156048000002,-9.645213900000002,2.2562323616,0.63564482,2.24256299,-3.37675144,,,
imu,496.358239,-0.5837971328000001,-9.6296619272,2.255036056,0.9571519499999999,2.14536316,-3.47395127,,,
imu,496.366696,-0.5867878968000001,-9.609922884800001,2.2466619168,1.09921324,2.10797861,-3.48142818,,,
imu,496.375153,-0.5963583416000001,-9.602146898400001,2.2442693056,1.21136689,2.1005017,-3.72816621,,,
imu,496.38361,-0.6023398696000001,-9.606932120800002,2.2532415976,1.64502767,2.25751681,-3.66835093,,,
imu,496.392067,-0.5957601888000001,-9.627269316000001,2.2406803888,1.83195042,2.14536316,-3.6459202,,,
imu,496.400525,-0.6023398696000001,-9.661962178400001,2.2448674584,2.16093446,2.04816333,-3.7206893,,,
imu,496.408992,-0.5849934384000001,-9.709814402400001,2.2412785416,2.07868845,1.70422547,-3.95995042,,,
imu,496.417459,-0.5826008272000001,-9.742114653600002,2.2352970136,2.14598064,1.74161002,-3.8702275,,,
imu,496.425927,-0.5873860496000001,-9.749890640000002,2.234100708,1.88428879,1.56216418,-3.76555076,,,
imu,496.434394,-0.5999472584000001,-9.742114653600002,2.2263247216,1.60764312,1.38271834,-3.66087402,,,
imu,496.442861,-0.6160973840000001,-9.739722042400002,2.222735804800001,1.39828964,1.5023489,-3.52628964,,,
imu,496.451329,-0.6298548984000001,-9.728955292000002,2.2245302632,1.12912088,1.49487199,-3.36927453,,,
imu,496.459706,-0.6394253432000001,-9.7265626808,2.2215394992,1.02444414,1.48739508,-3.24964397,,,
imu,496.468173,-0.6406216488000002,-9.7193848472,2.2215394992,0.8973366700000001,1.5023489,-3.21973633,,,
imu,496.47664,-0.6364345792000001,-9.7128051664,2.232306249600001,0.67302937,1.78647148,-3.24216706,,,
imu,496.485108,-0.6376308848000001,-9.699047652,2.216156124,0.51601426,1.83133294,-3.25712088,,,
imu,496.493575,-0.6436124128,-9.673925234400002,2.210174596,0.59078336,2.06311715,-3.21225942,,,
imu,496.502042,-0.6531828576,-9.6535880392,2.2215394992,0.64312173,2.29490136,-3.2720747,,,
imu,496.51051,-0.6424161072,-9.654186192000001,2.2209413464,0.68798319,2.43696265,-3.35432071,,,
imu,496.518977,-0.6364345792000001,-9.658373261600001,2.231109944,0.71789083,2.42948574,-3.47395127,,,
imu,496.527444,-0.62806044,-9.667345553600002,2.2502508336,0.9646288599999999,2.51920866,-3.47395127,,,
imu,496.535912,-0.6119103144000001,-9.702636568800001,2.255036056,0.91229049,2.56407012,-3.65339711,,,
imu,496.544379,-0.5909749664,-9.7056273328,2.2556342088,0.77770611,2.57902394,-3.53376655,,,
imu,496.552846,-0.5784137576,-9.686486443200002,2.2562323616,0.58330645,2.6238854,-3.65339711,,,
imu,496.561314,-0.5772174520000001,-9.672728928800002,2.2388859304,0.6132140899999999,2.57902394,-3.63096638,,,
imu,496.569781,-0.5724322296000001,-9.675121540000001,2.2305117912,0.5010604399999999,2.41453192,-3.65339711,,,
imu,496.578248,-0.5514968816000001,-9.671532623200001,2.2352970136,0.59078336,2.40705501,-3.66835093,,,
imu,496.586716,-0.5491042704000001,-9.661364025600001,2.2382877776,0.59078336,2.25751681,-3.69078166,,,
imu,496.595183,-0.5491042704000001,-9.658373261600001,2.2448674584,0.58330645,2.04816333,-3.66835093,,,
imu,496.603651,-0.5550857984,-9.6667474008,2.2526434448,0.68050628,1.71917929,-3.63844329,,,
imu,496.612467,-0.5688433128,-9.684093832000002,2.2675972648,0.7253677399999999,1.45748744,-3.67582784,,,
imu,496.621284,-0.5778156048000002,-9.694860582400002,2.2675972648,0.58330645,1.30047233,-3.72816621,,,
imu,496.630101,-0.5814045216000001,-9.678710456800001,2.2705880288,0.7104139199999999,1.24813396,-3.6459202,,,
imu,496.638918,-0.61310662,-9.669738164800002,2.266999112000001,0.56087572,1.21074941,-3.66087402,,,
imu,496.647735,-0.6113121616,-9.6709344704,2.2568305144,0.4861066199999999,1.2032725,-3.65339711,,,
imu,496.656552,-0.6089195504,-9.6709344704,2.2544379032,0.56087572,1.39019525,-3.70573548,,,
imu,496.665369,-0.6071250920000001,-9.661962178400001,2.2544379032,0.60573718,1.29299542,-3.73564312,,,
imu,496.674186,-0.6166955368000001,-9.6667474008,2.249054528,0.55339881,1.27056469,-3.83284295,,,
imu,496.683003,-0.6190881480000001,-9.651793580800001,2.2532415976,0.7702292,1.2780416,-3.69078166,,,
imu,496.69182,-0.6172936896000001,-9.648204664000001,2.255036056,0.7702292,1.45001053,-3.70573548,,,
imu,496.700637,-0.6226770648,-9.651793580800001,2.263410195200001,0.8449983,1.70422547,-3.70573548,,,
imu,496.709454,-0.6244715232,-9.6470083584,2.2568305144,0.9945364999999999,1.88367131,-3.68330475,,,
imu,496.718271,-0.6202844536000002,-9.657176956,2.252045292,1.12164397,1.88367131,-3.60853565,,,
imu,496.727088,-0.6119103144000001,-9.669140012000002,2.2586249728,1.22632071,1.85376367,-3.58610492,,,
imu,496.735904,-0.6053306336000001,-9.683495679200002,2.2652046536,1.2936129,1.93600968,-3.62348947,,,
imu,496.744721,-0.6101158560000001,-9.685888290400001,2.2598212784,1.22632071,1.90610204,-3.67582784,,,
imu,496.753538,-0.6041343280000001,-9.694860582400002,2.2801584736,1.03192105,2.07059406,-3.83284295,,,
imu,496.762355,-0.5939657304000001,-9.704431027200002,2.2855418488,1.03939796,1.99582496,-3.90761205,,,
imu,496.771172,-0.580208216,-9.703234721600001,2.2681954176,0.8375213899999999,1.91357895,-3.91508896,,,
imu,496.779989,-0.5766192992000001,-9.6817012208,2.2568305144,0.68050628,2.00330187,-3.86275059,,,
imu,496.788806,-0.5826008272000001,-9.661364025600001,2.2448674584,0.67302937,1.90610204,-3.85527368,,,
imu,496.797623,-0.5891805080000001,-9.6284656216,2.2263247216,0.78518302,1.78647148,-3.85527368,,,
imu,496.80644,-0.5826008272000001,-9.599156134400001,2.2358951664,0.8674290299999999,1.76404075,-3.81788913,,,
imu,496.815003,-0.5778156048000002,-9.584800467200001,2.2299136384,0.9646288599999999,1.66684092,-3.95247351,,,
imu,496.823565,-0.6053306336000001,-9.593772759200002,2.2197450408,1.23379762,1.43505671,-4.13191935,,,
imu,496.832128,-0.6202844536000002,-9.631456385600002,2.2442693056,1.6674584,1.16588795,-4.22164227,,,
imu,496.840691,-0.6107140088,-9.703832874400002,2.2586249728,1.84690424,0.8817653699999997,-4.37118047,,,
imu,496.849253,-0.6077232448000001,-9.759461084800002,2.2705880288,1.75718132,0.8742884599999998,-4.244073,,,
imu,496.857816,-0.6292567456000001,-9.769629682400002,2.2681954176,1.61512003,0.9116730099999999,-3.90761205,,,
imu,496.866379,-0.6693329832000001,-9.758862932000001,2.2711861816,1.60016621,1.43505671,-3.33936689,,,
imu,496.874942,-0.6675385248000001,-9.7576666264,2.2675972648,1.33847436,1.80890221,-3.10010577,,,
imu,496.883504,-0.6388271904000001,-9.765442612800001,2.2562323616,1.17398234,2.10797861,-3.03281358,,,
imu,496.892067,-0.6304530512000001,-9.751685098400001,2.2448674584,0.79265993,2.22013226,-3.17487487,,,
imu,496.90063,-0.6268641344,-9.7086180968,2.2335025552,0.66555246,2.2500399,-3.40665908,,,
imu,496.909193,-0.6184899952000001,-9.6733270816,2.2269228744,0.3216146,2.22760917,-3.86275059,,,
imu,496.917755,-0.6083213976,-9.655382497600002,2.2382877776,0.3739529699999999,2.12293243,-4.034719519999999,,,
imu,496.926318,-0.5957601888000001,-9.651195428000001,2.2269228744,0.33656842,2.12293243,-4.28145755,,,
imu,496.934881,-0.5987509528,-9.6434194416,2.2329044024,0.26927623,2.04816333,-4.318842099999999,,,
imu,496.943443,-0.6160973840000001,-9.6494009696,2.2478582224,0.30666078,1.96591732,-4.34874974,,,
imu,496.952006,-0.6113121616,-9.6505972752,2.2364933192,0.29170696,1.89114822,-4.318842099999999,,,
imu,496.960569,-0.6184899952000001,-9.668541859200001,2.2502508336,0.20946095,1.91357895,-4.25902682,,,
imu,496.969132,-0.6178918424000002,-9.676317845600002,2.2454656112,0.30666078,1.93600968,-4.07210407,,,
imu,496.977694,-0.6268641344,-9.6775141512,2.2305117912,0.34404533,1.85376367,-4.20668845,,,
imu,496.986257,-0.6184899952000001,-9.708019944000002,2.2305117912,0.15712258,1.88367131,-4.169303899999999,,,
imu,496.99482,-0.5903768136,-9.715795930400002,2.2394840832,0.13469185,1.78647148,-4.11696553,,,
imu,497.003383,-0.6089195504,-9.716992236000001,2.2364933192,-0.01484635000000001,1.77899457,-4.146873169999999,,,
imu,495.884545,,,,,,,82.3497604,-28.61981080000002,115.3885728
imu,495.986108,,,,,,,82.3375532,-28.59539640000002,118.1351928
imu,496.08767,,,,,,,82.6671476,-28.79071160000002,117.6713192
imu,496.189324,,,,,,,82.6183188,-28.81512600000002,117.353932
imu,496.290826,,,,,,,83.13102119999999,-28.90057640000001,117.109788
imu,497.011945,-0.6083213976,-9.7128051664,2.232306249600001,-0.19429219,1.68179474,-4.19173463,,,
imu,497.020316,-0.6172936896000001,-9.7128051664,2.2532415976,-0.24663056,1.67431783,-4.29641137,,,
imu,497.028687,-0.6292567456000001,-9.708019944000002,2.2472600696,-0.41859949,1.68179474,-4.37118047,,,
imu,497.037057,-0.6424161072,-9.710412555200001,2.25802682,-0.52327623,1.69674856,-4.42351884,,,
imu,497.045428,-0.6382290376000002,-9.709216249600003,2.2777658624,-0.76253735,1.74908693,-4.55062631,,,
imu,497.053799,-0.6472013296000001,-9.716992236000001,2.2711861816,-0.82982954,1.92853277,-4.430995749999999,,,
imu,497.06217,-0.6352382736000001,-9.706225485600001,2.2705880288,-0.91207555,2.20517844,-4.37118047,,,
imu,497.07054,-0.6262659816,-9.684093832000002,2.2628120424,-1.00927538,2.2500399,-4.363703559999999,,,
imu,497.078911,-0.6149010784000001,-9.678112304,2.2646065008,-0.91207555,2.25751681,-4.244073,,,
imu,497.087282,-0.6316493568000001,-9.669738164800002,2.275971404,-1.09152139,2.22760917,-4.16182699,,,
imu,497.095652,-0.6190881480000001,-9.660765872800003,2.2957104464,-1.10647521,2.18274771,-4.29641137,,,
imu,497.104023,-0.6292567456000001,-9.696056888000001,2.3016919744,-1.01675229,2.06311715,-4.318842099999999,,,
imu,497.112394,-0.6017417168000001,-9.6942624296,2.3124587248,-1.21862886,1.88367131,-4.37118047,,,
imu,497.120765,-0.6017417168000001,-9.684093832000002,2.3226273224,-1.25601341,1.85376367,-4.363703559999999,,,
imu,497.129135,-0.6119103144000001,-9.6733270816,2.3160476416,-1.26349032,1.86124058,-4.15435008,,,
imu,497.137506,-0.6358364264000002,-9.66016772,2.3274125448,-1.37564397,1.8014253,-3.95995042,,,
imu,497.145877,-0.6256678288,-9.657176956,2.3429645176,-1.26349032,1.95844041,-3.60853565,,,
imu,497.154247,-0.6388271904000001,-9.6535880392,2.350740504,-1.00179847,2.08554788,-3.5711511,,,
imu,497.162618,-0.6298548984000001,-9.658373261600001,2.3549275736,-0.9494601,2.1005017,-3.62348947,,,
imu,497.170989,-0.6256678288,-9.665551095200001,2.362105407200001,-1.22610577,2.14536316,-3.74312003,,,
imu,497.17936,-0.6268641344,-9.6523917336,2.365694324000001,-1.14385976,2.00330187,-3.95995042,,,
imu,497.18773,-0.6190881480000001,-9.627269316000001,2.3603109488,-1.0989983,2.10797861,-4.0945348,,,
imu,497.196101,-0.6220789120000001,-9.604539509600002,2.3453571288,-1.20367504,2.03320951,-4.318842099999999,,,
imu,497.204472,-0.6202844536000002,-9.5949690648,2.3423663648,-1.03170611,1.96591732,-4.53567249,,,
imu,497.212842,-0.6196863008000001,-9.602745051200001,2.356722032,-0.83730645,1.98087114,-4.647826139999999,,,
imu,497.221311,-0.6095177032000001,-9.630858232800001,2.3680869352,-0.7550604399999999,1.91357895,-4.56558013,,,
imu,497.22978,-0.5915731192000001,-9.633250844,2.3519368096,-0.76253735,1.74908693,-4.65530305,,,
imu,497.238248,-0.5981528,-9.604539509600002,2.365694324000001,-0.71019898,1.73413311,-4.715118329999999,,,
imu,497.246717,-0.5987509528,-9.585398620000001,2.3429645176,-0.55318387,1.63693328,-4.70764142,,,
imu,497.255186,-0.6041343280000001,-9.592576453600001,2.3435626704,-0.18681528,1.56216418,-4.63287232,,,
imu,497.263654,-0.6119103144000001,-9.602745051200001,2.3531331152,0.07487657,1.41262598,-4.453426479999999,,,
imu,497.272123,-0.6125084672000001,-9.6159044128,2.350740504,0.1720764,0.9939190199999999,-4.56558013,,,
imu,497.280591,-0.6190881480000001,-9.605735815200001,2.3345903784,0.19450713,0.8817653699999997,-4.602964679999999,,,
imu,497.28906,-0.62806044,-9.6051376624,2.348347892800001,0.3216146,0.6499811599999998,-4.55810322,,,
imu,497.297529,-0.6477994824000001,-9.5949690648,2.344758976,0.77770611,0.6798887999999996,-4.27398064,,,
imu,497.305997,-0.6579680800000002,-9.609324732000001,2.344758976,0.9571519499999999,0.5153967799999997,-4.25902682,,,
imu,497.314466,-0.5981528,-9.654186192000001,2.4057705616,1.13659779,0.5677351499999999,-4.13191935,,,
imu,497.322935,-0.6047324808000001,-9.808509614400002,2.3351885312,1.02444414,0.5079198699999998,-3.7954584,,,
imu,497.331403,-0.6364345792000001,-9.70502918,2.3770592272,0.41881443,0.27613566,-3.43656672,,,
imu,497.339872,-0.7363260968000002,-9.713403319200001,2.512839912800001,-0.08213854000000001,0.08921290999999965,-3.8702275,,,
imu,497.34834,-0.7554669864000001,-9.881484256,2.3668906296,-0.5980453299999999,0.02192071999999978,-3.89265823,,,
imu,497.356809,-0.7698226536000001,-9.8049206976,2.5020731624,-1.42050543,0.4107200399999997,-4.21416536,,,
imu,497.365278,-0.885266144,-9.960440425600002,2.450632021600001,-2.32521154,0.6125966099999998,-4.5431494,,,
imu,497.373746,-0.4312681688,-9.663158484000002,2.3304033088,-3.24487147,1.2032725,-4.59548777,,,
imu,497.382215,-0.5263744640000001,-9.255816427200001,2.2675972648,-3.65610152,1.48739508,-4.21416536,,,
imu,497.390684,-0.8798827688,-9.167887965600002,2.216156124,-2.72148777,1.25561087,-3.40665908,,,
imu,497.399152,-0.8924439776000002,-9.4137287664,2.249652680800001,-1.00927538,1.00139593,-3.39170526,,,
imu,497.407621,-0.6908664840000001,-9.7606573904,2.3339922256,0.53844499,1.18084177,-3.5711511,,,
imu,497.41609,-0.6214807592000001,-9.828248656800001,2.409957631200001,0.8749059399999999,1.39767216,-3.67582784,,,
imu,497.424901,-0.6675385248000001,-9.710412555200001,2.409957631200001,0.20198404,1.59954873,-3.69078166,,,
imu,497.433713,-0.6938572480000001,-9.630858232800001,2.4308929792,-0.14195382,1.77151766,-3.57862801,,,
imu,497.442524,-0.7022313872,-9.701440263200002,2.431491132,-0.23915365,1.59954873,-3.54124346,,,
imu,497.451336,-0.6681366776000001,-9.7995373224,2.4290985208,-0.32139966,1.51730272,-3.63844329,,,
imu,497.460148,-0.6573699272000001,-9.803126239200001,2.4087613256,-0.85973718,1.41262598,-3.6459202,,,
imu,497.468959,-0.70282954,-9.743310959200002,2.37765738,-1.65976655,1.22570323,-3.74312003,,,
imu,497.477771,-0.7129981376000001,-9.655382497600002,2.365694324000001,-1.98127368,1.27056469,-3.50385891,,,
imu,497.486582,-0.7141944432000001,-9.668541859200001,2.3662924768,-2.25791935,1.40514907,-3.38422835,,,
imu,497.495394,-0.6836886504,-9.6494009696,2.389022283200001,-2.13828879,1.58459491,-3.28702852,,,
imu,497.504206,-0.6968480120000001,-9.641026830400001,2.395601964,-2.21305789,1.59207182,-3.21973633,,,
imu,497.513017,-0.7429057776,-9.672728928800002,2.4261077568,-2.45231901,1.63693328,-3.1973056,,,
imu,497.521829,-0.7399150136000001,-9.690075360000002,2.4350800488,-2.4448421,1.73413311,-3.11505959,,,
imu,497.530641,-0.7369242496000001,-9.682299373600001,2.4566135496,-2.54204193,1.92853277,-3.29450543,,,
imu,497.539452,-0.7291482632,-9.656578803200002,2.4608006192,-2.81121069,2.22013226,-3.50385891,,,
imu,497.548264,-0.7758041816000001,-9.686486443200002,2.4984842456,-2.8934567,2.45191647,-3.68330475,,,
imu,497.557003,-0.7841783208,-9.7510869456,2.497287940000001,-2.97570271,2.6986545,-3.75059694,,,
imu,497.565814,-0.7458965416000001,-9.7163940832,2.5110454544,-3.22991765,3.2220382,-3.97490424,,,
imu,497.574626,-0.8427972952,-9.70502918,2.562486595200001,-3.69348607,3.75289881,-4.23659609,,,
imu,497.583438,-0.9618297024000001,-9.801929933600002,2.6055535968,-4.12714685,4.32114397,-4.692687599999999,,,
imu,497.592249,-0.9851576616000001,-9.879689797600001,2.631872320000001,-4.777638019999999,5.18846553,-5.41794787,,,
imu,497.601061,-1.169388724,-10.0447799704,2.718604476,-6.003851259999999,6.54178624,-6.247884879999999,,,
imu,497.609872,-1.2304003096,-10.1967107816,2.743726893600001,-7.59643309,8.47830593,-7.317083009999999,,,
imu,497.618684,-1.3374696608,-10.2325999496,2.779616061600001,-9.48809132,11.02793224,-8.34141968,,,
imu,497.627173,-1.4110424552,-10.1016044864,2.7532973384,-11.77602578,13.87663495,-9.7769864,,,
imu,497.635662,-1.5115321256,-9.966421953600003,2.75150288,-13.61534564,17.24872136,-11.33218368,,,
imu,497.644151,-1.5456268352,-9.926345716,2.817897840800001,-15.20792747,20.9423149,-13.26870337,,,
imu,497.65264,-1.4971764584,-10.084856208,2.841225800000001,-16.75564784,24.52375479,-15.15288469,,,
imu,497.661129,-1.4092479968,-10.1165583064,2.812514465600001,-18.52767551,28.22482524,-16.98472764,,,
imu,497.669618,-1.4738484992,-9.907204826400001,2.778419756,-20.29970318,31.53709637,-19.13807772,,,
imu,497.678107,-1.5318693208,-9.7008421104,2.7347546016,-21.68293153,34.64749093,-21.37367381,,,
imu,497.686596,-1.531271168,-9.6637566368,2.7497084216,-22.36333034,37.56348583,-23.55693153,,,
imu,496.392388,,,,,,,83.13102119999999,-28.91278360000003,116.9022656
imu,496.49392,,,,,,,82.8624628,-28.63201800000002,116.8778512
imu,496.595696,,,,,,,85.194038,-29.51093640000002,116.7924008
imu,496.697045,,,,,,,82.94791319999999,-28.41228840000001,117.6102832
imu,496.798608,,,,,,,85.41376759999999,-29.40107160000001,114.9979424
imu,496.90014,,,,,,,82.386382,-28.88836920000002,117.1586168
imu,497.001733,,,,,,,82.691562,-29.7672876,115.5960952
imu,497.103326,,,,,,,82.5206612,-29.13251320000001,117.4882112
imu,497.695085,-1.423603664,-9.715795930400002,2.7867938952,-22.69231438,40.54677292,-25.29905156,,,
imu,497.703574,-1.25612088,-9.746899876,2.8448147168,-22.75960657,43.43286018,-26.35329587,,,
imu,497.712063,-1.2286058512,-9.768433376800001,2.8765168152,-23.27551336,45.86285592999999,-27.15332524,,,
imu,497.720552,-1.109573444,-9.552500216,2.819692299200001,-24.08301964,47.77694489,-27.70661658,,,
imu,497.729041,-1.1628090432,-9.374848834400002,2.8615629952,-24.4269575,49.42186509,-28.19261573,,,
imu,497.73753,-1.0754787344,-9.260003496800001,2.838235036,-23.94843526,50.61069378,-28.4692614,,,
imu,497.746019,-0.9725964528000002,-9.081155809600002,2.8436184112,-23.31289791,51.8219532,-28.98516819,,,
imu,497.754508,-1.0234394408,-9.020742376800001,2.901041080000001,-22.16145377,52.7939515,-29.16461403,,,
imu,497.762997,-0.8846679912000001,-8.999807028800001,2.883096496000001,-20.85299452,53.14536627,-29.56836717,,,
imu,497.771486,-0.8637326432000001,-9.072781670400001,2.999138139200001,-19.24545887,53.19022773,-29.71790537,,,
imu,497.779975,-0.7734115704000001,-9.128409880800001,3.007512278400001,-18.16878383,52.75656695,-29.85248975,,,
imu,497.788464,-0.6950535536000001,-9.1272135752,3.0493829744,-16.89023222,51.94906066999999,-29.83753593,,,
imu,497.796952,-0.6101158560000001,-9.024331293600001,3.0768980032,-15.59672679,50.64807833,-29.80015138,,,
imu,497.805441,-0.5437208952000001,-8.915467484,3.121759463200001,-14.16863698,49.09288105,-29.53845953,,,
imu,497.81393,-0.5413282840000001,-8.948964040800002,3.2156694528,-12.26202493,47.17879208999999,-28.81319926,,,
imu,497.822419,-0.4617739616000001,-9.058426003200001,3.2372029536,-10.27316687,44.92076527,-27.96083152,,,
imu,497.830906,-0.3553027632,-9.0715853648,3.2910367056,-8.845077060000001,42.51320025,-26.64489536,,,
imu,497.839392,-0.4210995712,-9.0644075312,3.375376250400001,-7.57400236,39.88880484,-25.03735971,,,
imu,497.847879,-0.4468201416000001,-9.0398832664,3.4250229328,-6.45994277,37.15225578,-23.5345008,,,
imu,497.856365,-0.490485296,-9.072183517600001,3.5177366168,-5.24120644,34.1764456,-22.05407262,,,
imu,497.864852,-0.5491042704000001,-9.160111979200002,3.600879856,-4.30659269,31.40251199,-20.60355208,,,
imu,497.873338,-0.5568802568000001,-9.157719368,3.6014780088,-3.75330135,29.04728534,-19.22780064,,,
imu,497.881824,-0.6591643856000001,-9.072781670400001,3.621815204,-3.28973293,27.00608891,-17.86700302,,,
imu,497.890311,-0.7608503616000001,-9.040481419200002,3.6092539952,-2.42988828,25.18919978,-16.67069742,,,
imu,497.898797,-0.7650374312,-9.076370587200001,3.6080576896,-1.48779762,23.13304953,-15.70617603,,,
imu,497.907284,-0.7877672376000001,-9.137980325600001,3.595496480800001,-0.61299915,21.12923765,-15.03325413,,,
imu,497.91577,-0.8475825176000001,-9.157121215200002,3.600879856,0.22441477,19.18524105,-14.46500897,,,
imu,497.924257,-0.8768920048000002,-9.134989561600001,3.623609662400001,0.80761375,17.36835192,-13.85937926,,,
imu,497.932743,-0.9241460760000001,-9.134391408800001,3.645741316000001,1.45810492,15.65613953,-13.42571848,,,
imu,497.941229,-0.9690075360000001,-9.1684861184,3.651722844000001,2.03382699,13.9887886,-12.90233478,,,
imu,497.949716,-0.9624278552000001,-9.1654953544,3.6421523992,2.407672489999999,12.67285244,-12.3191358,,,
imu,497.958202,-0.9899428840000002,-9.127811728000001,3.618226287200001,2.7889949,11.35691628,-11.89295193,,,
imu,497.966689,-1.0611230672,-9.073379823200002,3.614637370400001,3.29742478,10.15313377,-11.11535329,,,
imu,497.975175,-1.1340977088,-9.094913324,3.6325819544,3.89557758,9.4278735,-10.38261611,,,
imu,497.983662,-1.1430700008,-9.121232047200001,3.6295911904,4.29185381,8.88205907,-9.82932477,,,
imu,497.992148,-1.1652016544,-9.110465296800001,3.5996835504,4.55354566,8.4558752,-9.38818708,,,
imu,498.000634,-1.2345873792,-9.1266154224,3.570374063200001,4.9572988,8.06707588,-9.29098725,,,
imu,498.009121,-1.2274095456,-9.169682424000001,3.546447951200001,5.58535924,7.56612291,-9.246125789999999,,,
imu,498.017607,-1.2094649616,-9.1792528688,3.5177366168,5.98911238,7.16236977,-9.13397214,,,
imu,498.026094,-1.205277892,-9.138578478400001,3.4776603792,6.41529625,6.74366281,-9.00686467,,,
imu,498.034522,-1.193314836,-9.112857908,3.4417712112,6.9012954,6.205325289999999,-8.76760355,,,
imu,498.04295,-1.21125942,-9.160710132,3.4417712112,7.5742173,5.64455704,-8.48348097,,,
imu,498.051378,-1.1622108904,-9.247442288000002,3.448350892000001,8.20227774,4.979112049999999,-7.94514345,,,
imu,498.059805,-1.007887468,-9.460384684800001,3.6032724672,8.65836925,4.14169813,-7.34699065,,,
imu,498.068233,-1.0928251656,-10.111773084,3.4585194896,8.082647179999999,3.03511545,-6.292746339999999,,,
imu,498.076661,-1.2244187816,-9.718786694400002,3.7312771664,6.01154311,1.98087114,-5.47028624,,,
imu,498.085089,-1.2495411992,-9.052444475200002,3.198921174400001,3.89557758,1.03878048,-5.59739371,,,
imu,498.093517,-1.2453541296,-8.2437418896,3.115179782400001,4.54606875,1.00887284,-5.40299405,,,
imu,498.101945,-1.698753952,-8.345427865600001,3.188154424,7.67889404,0.8593346399999997,-4.8422258,,,
imu,498.110373,-1.6108254904,-9.184038091200001,3.228828814400001,11.30519539,0.86681155,-4.34874974,,,
imu,498.118801,-1.3356752024,-9.883876867200001,3.2850551776,13.11460761,1.11354958,-4.19921154,,,
imu,498.127229,-1.3386659664,-9.768433376800001,3.3969097512,12.08279403,1.577118,-4.30388828,,,
imu,498.135657,-1.5635714192,-9.4460290176,3.4680899344,10.52759675,1.90610204,-4.42351884,,,
imu,498.144085,-1.5438323768,-9.554294674400001,3.431004460800001,9.637844459999998,1.85376367,-4.80484125,,,
imu,498.152513,-1.3913034128,-9.775611210400001,3.3640113472,8.807907449999998,2.19022462,-4.98428709,,,
imu,498.160941,-1.3601994672,-9.689477207200001,3.2593346072,7.00597214,2.48182411,-5.1413022,,,
imu,498.169369,-1.3320862856,-9.311444637600001,3.159443089600001,5.6302207,2.81828506,-5.14877911,,,
imu,498.177797,-1.387714496,-9.190019619200001,3.1576486312,5.60778997,2.97530017,-4.49828794,,,
imu,498.186225,-1.4062572328,-9.440047489600001,3.137311436000001,6.25828114,2.98277708,-4.0197657,,,
imu,498.194652,-1.3015804928,-9.632054538400002,3.11039456,6.60969591,2.6986545,-3.85527368,,,
imu,498.20308,-1.3273010632,-9.591978300800001,3.1875562712,6.33305024,2.64631613,-3.69825857,,,
imu,498.211508,-1.3063657152,-9.5004609224,3.2246417448,5.68255907,2.41453192,-3.8702275,,,
imu,498.219936,-1.3458438,-9.5638651192,3.2246417448,5.36105194,2.07807097,-3.97490424,,,
imu,498.228364,-1.3458438,-9.6326526912,3.1935377992,4.72551459,1.88367131,-4.02724261,,,
imu,498.236829,-1.3021786456,-9.597959828800002,3.1301336024,4.12736179,1.97339423,-4.25154991,,,
imu,498.245294,-1.283037756,-9.385615584800002,3.112189018400001,3.67127028,2.01825569,-4.169303899999999,,,
imu,498.253759,-1.3913034128,-9.498666464000001,3.1397040472,3.46939371,1.7266562,-4.00481188,,,
imu,498.262223,-1.303973104,-9.6876827488,3.113385324,3.43200916,1.71170238,-3.9449966,,,
imu,498.270688,-1.2932063536,-9.596763523200002,3.1247502272,2.99087147,1.84628676,-3.80293531,,,
imu,498.279153,-1.3601994672,-9.444832712,3.1510689504,2.24318047,1.77899457,-3.6459202,,,
imu,498.287618,-1.3374696608,-9.5237888816,3.1684153816,1.91419643,1.86124058,-3.5711511,,,
imu,498.296083,-1.3225158408,-9.597959828800002,3.142694811200001,1.63007385,1.77151766,-3.43656672,,,
imu,498.304548,-1.3739569816,-9.477132963200003,3.1420966584,0.8823828499999999,1.76404075,-3.39170526,,,
imu,498.313012,-1.354816092,-9.3347725968,3.0972351984,0.5982602699999999,1.93600968,-3.3468438,,,
imu,498.321477,-1.327899216,-9.232488468000001,3.105609337600001,0.78518302,2.00330187,-3.35432071,,,
imu,498.329942,-1.37575144,-9.327594763200002,3.1062074904,1.26370526,2.1005017,-3.32441307,,,
imu,498.338407,-1.348834564,-9.423897364000002,3.1109927128,1.70484295,2.07807097,-3.4216129,,,
imu,498.346872,-1.2997860344,-9.372456223200002,3.1068056432,2.06373463,2.15284007,-3.63096638,,,
imu,498.355336,-1.3021786456,-9.190019619200001,3.121759463200001,2.43010322,2.324809,-3.73564312,,,
imu,498.363801,-1.3237121464,-9.249834899200001,3.164228312,3.02825602,2.13788625,-3.74312003,,,
imu,498.372266,-1.24116706,-9.415523224800001,3.1899488824,3.69370101,1.8761944,-3.78798149,,,
imu,498.380731,-1.3003841872,-9.543527924000001,3.247371551200001,3.731085559999999,1.65936401,-3.78798149,,,
imu,498.389196,-1.3177306184,-9.5148165896,3.282064413600001,3.46939371,1.49487199,-3.62348947,,,
imu,498.397661,-1.3374696608,-9.4412437952,3.238399259200001,2.998348379999999,1.29299542,-3.76555076,,,
imu,498.406125,-1.3572087032,-9.4908904776,3.2348103424,2.96844074,1.28551851,-4.0197657,,,
imu,498.41459,-1.31593616,-9.574631869600001,3.1809765904,2.90862546,1.32290306,-3.95247351,,,
imu,498.423055,-1.3207213824,-9.5566872856,3.163630159200001,2.33290339,1.45748744,-3.83284295,,,
imu,498.43152,-1.3590031616,-9.471749588000002,3.146881880800001,1.8917657,1.51730272,-3.63844329,,,
imu,498.440338,-1.3320862856,-9.3766432928,3.182172896,1.49548947,1.71917929,-3.60105874,,,
imu,498.449156,-1.3045712568,-9.416719530400002,3.195332257600001,1.368382,1.88367131,-3.63844329,,,
imu,498.457975,-1.2405689072,-9.48072188,3.1624338536,1.12912088,1.80890221,-3.53376655,,,
imu,498.466793,-1.2208298648,-9.4908904776,3.179182132,0.73284465,1.47991817,-3.27955161,,,
imu,498.475611,-1.2752617696,-9.5082369088,3.2192583696,0.25432241,0.9565344699999998,-3.38422835,,,
imu,498.484429,-1.2836359088,-9.487899713600001,3.2084916192,0.03001510999999998,0.6125966099999998,-3.27955161,,,
imu,498.493248,-1.3296936744,-9.454403156800002,3.1887525768,-0.13447691,0.4705353199999998,-3.03281358,,,
imu,498.502066,-1.3769477456,-9.4203084472,3.1857618128,-0.23915365,0.5976427899999996,-2.80102937,,,
imu,497.204927,,,,,,,82.4718324,-28.80291880000001,116.9999232
imu,497.306459,,,,,,,82.3985892,-29.04706280000002,117.0975808
imu,497.408052,,,,,,,82.7037692,-28.88836920000002,117.598076
imu,497.509584,,,,,,,82.3985892,-28.63201800000002,117.3417248
imu,497.611147,,,,,,,82.6793548,-28.79071160000002,116.4139776
imu,497.714693,,,,,,,84.7179572,-29.44990040000002,115.7792032
imu,497.814455,,,,,,,79.8350772,-28.10710840000002,115.2665008
imu,497.915895,,,,,,,79.62755480000001,-28.59539640000002,110.7254224
imu,498.510884,-1.3404604248,-9.3832229736,3.1887525768,-0.29896893,0.80699627,-2.54681443,,,
imu,498.519702,-1.3392641192,-9.395784182400002,3.2019119384,-0.11952309,1.03878048,-2.45709151,,,
imu,498.528521,-1.3201232296,-9.405354627200001,3.18516366,0.08235347999999998,1.15093413,-2.48699915,,,
imu,498.537339,-1.2854303672,-9.3802322096,3.1833692016,0.19450713,1.23318014,-2.46456842,,,
imu,498.546157,-1.2597097968,-9.335968902400001,3.1887525768,0.27675314,1.1285034,-2.5991528,,,
imu,498.554975,-1.25612088,-9.3210150824,3.188154424,0.32909151,0.86681155,-2.78607555,,,
imu,498.563794,-1.2585134912,-9.3455393472,3.1857618128,0.4711528,0.6499811599999998,-2.83841392,,,
imu,498.572612,-1.2453541296,-9.363483931200001,3.1618357008,0.59078336,0.41819695,-2.98047521,,,
imu,498.58143,-1.253130116,-9.368269153600002,3.176191368,0.5010604399999999,0.1265974599999997,-3.01785976,,,
imu,498.590248,-1.2597097968,-9.389204501600002,3.1743969096,0.70293701,-0.2023865800000002,-3.05524431,,,
imu,498.599067,-1.2794488392,-9.385017432000001,3.175593215200001,0.74779847,-0.5313706200000001,-3.13749032,,,
imu,498.607885,-1.2967952704,-9.4215047528,3.1827710488,0.71789083,-0.6883857300000003,-3.07767504,,,
imu,498.616703,-1.30098234,-9.405354627200001,3.198921174400001,0.56087572,-0.9650314,-3.09262886,,,
imu,498.625521,-1.277056228,-9.4071490856,3.179780284800001,0.44124516,-1.04727741,-3.18982869,,,
imu,498.63434,-1.2555227272,-9.394587876800001,3.177387673600001,0.55339881,-1.08466196,-3.10758268,,,
imu,498.642832,-1.2848322144,-9.385615584800002,3.1779858264,0.56835263,-1.3388769,-3.1225365,,,
imu,498.651381,-1.3015804928,-9.382026668000002,3.179780284800001,0.620691,-1.712722400000001,-3.15992105,,,
imu,498.659874,-1.3231139936,-9.408943544000001,3.186958118400001,0.70293701,-1.98189116,-3.20478251,,,
imu,498.668366,-1.3063657152,-9.4107380024,3.186958118400001,0.9272443100000001,-2.18376773,-3.23469015,,,
imu,498.676859,-1.324908452,-9.405952780000002,3.20011748,0.83004448,-2.2361061,-3.21225942,,,
imu,498.685352,-1.31593616,-9.398176793600001,3.186958118400001,0.7253677399999999,-2.51275177,-3.07767504,,,
imu,498.693845,-1.31593616,-9.398176793600001,3.1749950624,0.71789083,-2.47536722,-2.86084465,,,
imu,498.702338,-1.3320862856,-9.405354627200001,3.177387673600001,0.88985976,-2.59499778,-2.61410662,,,
imu,498.71083,-1.3081601736,-9.384419279200001,3.167817228800001,0.94967504,-2.66976688,-2.32998404,,,
imu,498.719323,-1.3422548832,-9.361689472800002,3.1923414936,0.9945364999999999,-2.7594898,-2.10567674,,,
imu,498.727816,-1.3434511888,-9.367671000800001,3.2084916192,1.24875144,-2.71462834,-1.72435433,,,
imu,498.736309,-1.3332825912,-9.4322715032,3.231221425600001,1.18893616,-3.03613547,-1.61967759,,,
imu,498.744801,-1.297991576,-9.450814240000001,3.2043045496,1.07678251,-3.26044277,-1.80660034,,,
imu,498.753294,-1.309954632,-9.378437751200002,3.2108842304,0.73284465,-3.46231934,-1.87389253,,,
imu,498.761787,-1.324908452,-9.3479319584,3.2025100912,0.7552753799999999,-3.76139574,-1.78416961,,,
imu,498.77028,-1.3021786456,-9.3479319584,3.170209840000001,0.66555246,-4.02308759,-1.86641562,,,
imu,498.778773,-1.2884211312,-9.327594763200002,3.158246784000001,0.9646288599999999,-4.28477944,-1.65706214,,,
imu,498.787265,-1.2674857832,-9.287518525600001,3.146881880800001,1.35342818,-4.3296409,-1.44770866,,,
imu,498.795758,-1.2555227272,-9.285724067200002,3.1367132832,1.68241222,-4.56890202,-1.15610917,,,
imu,498.804251,-1.244157824,-9.350324569600001,3.1588449368,2.16841137,-5.010039709999999,-0.8420789499999999,,,
imu,498.812744,-1.2238206288,-9.408943544000001,3.179182132,2.27308811,-5.421269759999999,-0.4831872699999999,,,
imu,498.821237,-1.1885296136,-9.4250936696,3.1857618128,2.39271867,-5.727823069999999,-0.1317724999999998,,,
imu,498.829729,-1.1795573216,-9.372456223200002,3.1588449368,2.17588828,-6.236252950000001,0.1523500800000002,,,
imu,498.838222,-1.1807536272,-9.312042790400001,3.1301336024,2.12354991,-6.602621539999999,0.4589033900000001,,,
imu,498.846681,-1.1699868768,-9.2917055952,3.1050111848,2.40019558,-7.26806653,0.6906876,,,
imu,498.855139,-1.1448644592,-9.319818776800002,3.09544074,2.90114855,-7.88865006,1.01967164,,,
imu,498.863598,-1.1161531248,-9.316229860000002,3.0882629064,3.24508641,-8.554095049999999,1.37108641,,,
imu,498.872056,-1.1071808328,-9.325202152000001,3.0852721424,3.60397809,-9.31673987,1.85708556,,,
imu,498.880514,-1.1041900688,-9.3586987088,3.0948425872,4.19465398,-9.92236958,2.32813089,,,
imu,498.888973,-1.0521507752,-9.475936657600002,3.1391058944,4.48625347,-10.85698333,2.88142223,,,
imu,498.897431,-1.0491600112,-9.617100718400001,3.181574743200001,4.44139201,-11.85888927,3.58425177,,,
imu,498.90589,-1.0425803304,-9.741516500800001,3.25993276,3.97034668,-12.84584139,4.10763547,,,
imu,498.914348,-1.064711984,-9.719983000000001,3.1277409912,2.90114855,-13.84027042,4.58615771,,,
imu,498.922807,-1.247148588,-9.5237888816,3.1863599656,1.80951969,-14.69263816,4.930095570000001,,,
imu,498.931265,-1.1526404456,-9.3975786408,3.0978333512,1.18145925,-15.43285225,4.623542260000001,,,
imu,498.939724,-1.1699868768,-9.3586987088,3.0302420848,1.28613599,-16.00857432,4.578680800000001,,,
imu,498.948182,-1.2423633656,-9.4244955168,3.1068056432,1.56278166,-16.41980437,4.930095570000001,,,
imu,498.956641,-0.9737927584000001,-9.3832229736,2.9327431784,1.75718132,-16.64411167,5.11701832,,,
imu,498.965099,-1.010878232,-9.172673188000001,2.933939484000001,2.05625772,-17.07029554,5.64040202,,,
imu,498.973557,-1.1442663064,-9.073379823200002,2.9363320952,3.08059439,-17.84041727,6.55258504,,,
imu,498.982016,-1.1652016544,-9.274957316800002,2.9949510696,4.41896128,-18.64792355,7.240460759999999,,,
imu,498.990474,-1.1257235696,-9.593174606400002,3.0589534192,5.37600576,-19.08906124,7.75636755,,,
imu,498.998933,-1.0509544696,-9.6709344704,3.1145816296,5.21899065,-19.46290674,8.27975125,,,
imu,499.007391,-1.1610145848,-9.6733270816,3.177387673600001,4.41148437,-19.82927533,8.60125838,,,
imu,499.01585,-1.2118575728,-9.675121540000001,3.1397040472,3.55163972,-20.16573628,8.72088894,,,
imu,499.024308,-1.2339892264,-9.612913648800001,3.0810850728,2.69179507,-20.2554592,8.49658164,,,
imu,499.032767,-1.2399707544,-9.469356976800002,3.0182790288,2.00391935,-20.00872117,8.15264378,,,
imu,499.041225,-1.2393726016,-9.332379985600001,2.9752120272,1.70484295,-19.8068446,7.77879828,,,
imu,499.049685,-1.277056228,-9.370661764800001,2.953678526400001,2.15345755,-19.56758348,7.17316857,,,
imu,499.058145,-1.2567190328,-9.450216087200001,2.968632346400001,2.60954906,-19.32084545,6.58249268,,,
imu,499.066604,-1.2878229784,-9.697851346400002,3.09544074,2.82637945,-19.06663051,6.02920134,,,
imu,499.075064,-1.21125942,-9.775611210400001,2.981791708,2.40019558,-18.95447686,5.4011409,,,
imu,499.083524,-1.3332825912,-9.3658765424,3.0248587096,1.78708896,-18.39370861,4.87028029,,,
imu,499.091983,-1.5623751136,-9.302472345600002,3.091851823200001,1.57025857,-17.46657177,4.488957879999999,,,
imu,499.100443,-1.5217007232,-9.593174606400002,3.0667294056,1.77213514,-16.22540471,3.62911323,,,
imu,499.108903,-1.411640608,-9.825257892800002,3.0248587096,1.2936129,-14.53562305,2.8589915,,,
imu,499.117363,-1.3972849408,-9.524387034400002,2.9835861664,0.35152224,-12.74864156,1.93185466,,,
imu,499.125822,-1.5444305296,-9.286920372800001,2.963248971200001,-0.07466163,-11.29064411,1.10939456,,,
imu,499.134282,-1.4553057624,-9.3545116392,2.9094152192,0.42629134,-10.13919997,-0.01214194000000002,,,
imu,499.142742,-1.3871163432,-9.441841948000002,2.908218913600001,0.94967504,-8.95784819,-1.08134007,,,
imu,499.151202,-1.3733588288,-9.4280844336,2.9297524144,1.15902852,-7.79892714,-1.81407725,,,
imu,499.159661,-1.3081601736,-9.340155972000002,2.9171912056,1.41324346,-6.954036309999999,-2.57672207,,,
imu,499.168121,-1.2866266728,-9.261199802400002,2.9165930528,1.82447351,-6.22877604,-3.21973633,,,
imu,499.176581,-1.3243102992,-9.339557819200001,2.9393228592,2.60207215,-5.58576178,-3.48142818,,,
imu,499.18504,-1.2627005608,-9.429878892000001,2.957865596,3.08059439,-4.91283988,-3.56367419,,,
imu,499.1935,-1.2286058512,-9.477731116000001,2.987773236,3.20022495,-4.1801027,-3.67582784,,,
imu,499.20196,-1.2519338104,-9.519601812000001,3.0158864176,3.04320984,-3.46231934,-3.48890509,,,
imu,499.21042,-1.2363818376,-9.571641105600001,3.0332328488,2.90862546,-3.10342766,-3.35432071,,,
imu,499.218879,-1.1675942656,-9.591380148,3.0230642512,2.4899185,-2.67724379,-3.20478251,,,
imu,499.227339,-1.1388829312,-9.533957479200001,3.0009325976,1.93662716,-2.24358301,-2.76364482,,,
imu,499.235799,-1.1466589176,-9.4382530312,2.948893304,1.75718132,-1.83235296,-2.27764567,,,
imu,499.244259,-1.0982085408,-9.404756474400001,2.9500896096,1.95158098,-1.62299948,-1.7766927,,,
imu,499.252713,-1.1047882216,-9.488497866400001,2.9327431784,2.23570356,-1.55570729,-1.16358608,,,
imu,499.261168,-1.1053863744,-9.520798117600002,2.945304387200001,2.42262631,-1.57813802,-0.5280487299999999,,,
imu,499.269622,-1.0982085408,-9.4669643656,2.936930248,2.37028794,-1.48093819,-0.31869525,,,
imu,499.278077,-1.1580238208,-9.429878892000001,2.9470988456,2.47496468,-1.62299948,-0.3112183399999999,,,
imu,499.286532,-1.1556312096,-9.4938812416,2.9500896096,2.52730305,-1.76506077,-0.4308489,,,
imu,499.294986,-1.1478552232,-9.616502565600001,2.9512859152,2.66936434,-1.73515313,-0.6102947399999998,,,
imu,499.303441,-1.1496496816,-9.6218859408,2.938126553600001,2.5646876,-1.69029167,-0.7224483899999998,,,
imu,499.311896,-1.1825480856,-9.553098368800002,2.9465006928,2.22822665,-1.51832274,-0.8944173199999998,,,
imu,499.32035,-1.1789591688,-9.5172092008,2.949491456800001,2.14598064,-1.20429252,-0.9617095099999999,,,
imu,498.017397,,,,,,,75.672422,-28.20476600000001,112.287944
imu,498.118959,,,,,,,74.53715240000001,-28.98602680000002,112.3123584
imu,498.220552,,,,,,,74.32963,-29.38886440000001,112.3978088
imu,498.322115,,,,,,,74.6470172,-29.303414,112.776232
imu,498.423677,,,,,,,74.69584600000002,-29.15692760000002,112.7640248
imu,498.527498,,,,,,,74.76908920000001,-29.36445000000001,112.7884392
imu,498.626802,,,,,,,74.8423324,-29.37665720000002,112.8860968
imu,498.728365,,,,,,,77.5401236,-29.69404440000001,112.3123584
imu,499.328805,-1.1526404456,-9.547116840800001,2.941117317600001,2.27308811,-0.59866281,-0.88694041,,,
imu,499.33726,-1.1568275152,-9.571042952800001,2.922574580800001,2.16841137,-0.2173404000000003,-0.85703277,,,
imu,499.345714,-1.1598182792,-9.5638651192,2.9321450256,2.16093446,0.2611818399999999,-0.8196482199999999,,,
imu,499.354169,-1.1657998072,-9.504647992000002,2.9345376368,1.91419643,0.4481045899999998,-1.18601681,,,
imu,499.362623,-1.0970122352,-9.422102905600001,2.9028355384,1.82447351,0.56025824,-1.52247776,,,
imu,499.371078,-1.013868996,-9.3832229736,2.856777772800001,2.116073,0.72475026,-1.87389253,,,
imu,499.379533,-0.9570444800000002,-9.419112141600001,2.8298608968,2.4151494,0.66493498,-1.90380017,,,
imu,499.387987,-0.9408943544,-9.444234559200002,2.8286645912,2.6394567,0.1565051,-1.73930815,,,
imu,499.396442,-0.9851576616000001,-9.4801237272,2.8555814672,2.96844074,-0.3668786000000002,-1.51500085,,,
imu,499.404897,-1.0031022456,-9.5602762024,2.8908724824,3.17031731,-0.9575544899999997,-1.39537029,,,
imu,499.413351,-1.0031022456,-9.593772759200002,2.8866854128,3.13293276,-1.32392308,-1.29817046,,,
imu,499.421806,-1.0455710944,-9.572837411200002,2.8866854128,2.79647181,-1.39121527,-1.34303192,,,
imu,499.430261,-1.0694972064,-9.5327611736,2.8723297456,2.33290339,-1.62299948,-1.58976995,,,
imu,499.438715,-1.0539452336,-9.524387034400002,2.8609648424,2.13850373,-1.62299948,-1.73183124,,,
imu,499.44717,-1.0431784832,-9.532163020800002,2.8693389816,1.89924261,-1.47346128,-2.18044584,,,
imu,499.455989,-1.0431784832,-9.526181492800001,2.8507962448,1.68241222,-1.51832274,-2.48699915,,,
imu,499.464809,-1.064711984,-9.4962738528,2.8328516608,1.49548947,-1.34635381,-2.50195297,,,
imu,499.473629,-1.1107697496,-9.4591883792,2.8424221056,1.55530475,-1.39869218,-2.68139881,,,
imu,499.482448,-1.1323032504,-9.450216087200001,2.829262744000001,1.73475059,-1.39869218,-2.89075229,,,
imu,499.491268,-1.1257235696,-9.468160671200001,2.8490017864,1.85438115,-1.24915398,-3.17487487,,,
imu,499.500087,-1.2028852808,-9.547714993600001,2.859170384,1.98896553,-1.1893387,-3.33188998,,,
imu,499.508907,-1.2148483368,-9.5566872856,2.8675445232,1.84690424,-1.00989286,-3.54124346,,,
imu,499.517727,-1.2309984624,-9.5423316184,2.9004429272,1.71231986,-0.7332471900000002,-3.86275059,,,
imu,499.526546,-1.2250169344,-9.5800152448,2.917789358400001,1.65250458,-0.2995864100000003,-3.87770441,,,
imu,499.535366,-1.2196335592,-9.5812115504,2.922574580800001,1.64502767,0.2237972899999998,-3.77302767,,,
imu,499.544185,-1.2369799904,-9.538742701600002,2.9255653448,1.26370526,0.8219500899999996,-3.50385891,,,
imu,499.553005,-1.2465504352,-9.528574104,2.9213782752,1.09921324,1.61450255,-3.23469015,,,
imu,499.561824,-1.2453541296,-9.562070660800002,2.9136022888,1.13659779,2.33228591,-3.0477674,,,
imu,499.570644,-1.2178391008,-9.585996772800002,2.9064244552,1.00949032,2.81828506,-3.07767504,,,
imu,499.579464,-1.2016889752,-9.547116840800001,2.896854010400001,0.97958268,3.37905331,-3.1225365,,,
imu,499.588283,-1.1741739464,-9.489096019200002,2.8603666896,0.7702292,3.83514482,-3.01785976,,,
imu,499.597103,-1.1239291112,-9.401167557600001,2.85617962,0.8823828499999999,4.27628251,-2.80102937,,,
imu,499.605922,-1.1640053488,-9.416719530400002,2.845412869600001,1.09173633,4.523020539999999,-2.69635263,,,
imu,499.614742,-1.1071808328,-9.513022131200001,2.8615629952,1.47305874,4.74732784,-2.26269185,,,
imu,499.623561,-1.0712916648,-9.559678049600002,2.87113344,1.62259694,5.0164966,-1.89632326,,,
imu,499.632381,-1.070693512,-9.495675700000001,2.877114968,1.63755076,5.19594244,-1.58976995,,,
imu,499.641201,-1.0300191216,-9.4980683112,2.9094152192,1.54782784,5.27071154,-1.43275484,,,
imu,499.65002,-0.9612315496000001,-9.554892827200002,2.898050316,1.36090509,5.1660348,-1.42527793,,,
imu,499.658509,-0.9385017432000002,-9.533359326400001,2.8807038848,0.9197674,4.91929677,-1.65706214,,,
imu,499.666998,-0.9612315496000001,-9.479525574400002,2.8543851616,0.7253677399999999,4.59031273,-1.71687742,,,
imu,499.675487,-0.9456795768000001,-9.4454308648,2.8507962448,0.80013684,4.2688056,-1.97856927,,,
imu,499.683976,-0.9444832712000001,-9.4526086984,2.8418239528,0.97210577,3.98468302,-2.31503022,,,
imu,499.692465,-0.9672130776000001,-9.486703408,2.8813020376,1.03939796,3.820191,-2.53186061,,,
imu,499.700954,-0.9773816752000002,-9.556089132800002,2.8938632464,1.08425942,3.797760269999999,-2.81598319,,,
imu,499.709443,-0.9390998960000001,-9.611119190400002,2.8902743296,1.05435178,3.73046808,-3.09262886,,,
imu,499.717932,-0.9438851184000001,-9.591380148,2.8962558576,0.65807555,3.63326825,-3.31693616,,,
imu,499.726421,-0.963026008,-9.527377798400002,2.877114968,0.45619898,3.83514482,-3.53376655,,,
imu,499.73491,-0.9941299536000001,-9.532163020800002,2.8789094264,0.30666078,3.97720611,-3.68330475,,,
imu,499.743319,-0.9827650504000001,-9.555490980000002,2.8543851616,0.3963837,4.3435747,-3.93751969,,,
imu,499.751808,-0.9696056888000001,-9.5489112992,2.8537870088,0.5010604399999999,4.48563599,-4.32631901,,,
imu,499.760297,-0.9797742864000001,-9.528574104,2.8370387304,0.65807555,4.56040509,-4.73007215,,,
imu,499.768786,-0.9450814240000001,-9.487899713600001,2.845412869600001,0.73284465,4.65012801,-5.07401001,,,
imu,499.777275,-0.9606333968,-9.4938812416,2.8585722312,0.70293701,4.46320526,-5.17120984,,,
imu,499.785764,-0.9588389384,-9.520199964800002,2.866348217600001,0.80761375,4.31366706,-5.27588658,,,
imu,499.794253,-0.9414925072000001,-9.554294674400001,2.8789094264,1.00949032,4.29871324,-5.27588658,,,
imu,499.802742,-0.9426888128,-9.535153784800002,2.8842928016,0.8375213899999999,4.149175039999999,-5.20111748,,,
imu,499.811231,-0.9570444800000002,-9.4974701584,2.887283565600001,0.80761375,4.194036499999999,-4.98428709,,,
imu,499.81972,-0.9390998960000001,-9.519601812000001,2.8986484688,0.65807555,4.05197521,-4.78988743,,,
imu,499.828209,-0.9271368400000001,-9.571641105600001,2.9004429272,0.56835263,3.93982156,-4.6179185,,,
imu,499.836698,-0.9181645480000001,-9.575230022400001,2.931546872800001,0.47862971,3.71551426,-4.244073,,,
imu,499.845187,-0.9199590064000001,-9.5698466472,2.935733942400001,0.11973803,3.47625314,-3.88518132,,,
imu,499.853676,-0.9390998960000001,-9.576426328,2.924369039200001,-0.127,3.19960747,-3.59358183,,,
imu,499.862125,-0.9528574104000002,-9.537546396000002,2.9028355384,-0.29149202,3.03511545,-3.48890509,,,
imu,499.870575,-1.0001114816,-9.502255380800001,2.9112096776,-0.41112258,2.87810034,-3.47395127,,,
imu,499.879024,-0.9983170232,-9.4663662128,2.88608726,-0.59056842,2.86314652,-3.54872037,,,
imu,499.887474,-1.0150653016,-9.436458572800001,2.889078024,-0.47093786,2.8481927,-3.54124346,,,
imu,499.895924,-0.9941299536000001,-9.398176793600001,2.88608726,-0.04475399000000001,2.78837742,-3.36927453,,,
imu,499.904373,-1.0216449824,-9.437056725600002,2.895059552,0.38142988,2.94539253,-3.32441307,,,
imu,499.912823,-0.9863539672000001,-9.4729458936,2.9046299968,0.6281679099999999,3.04259236,-3.4216129,,,
imu,499.921272,-0.9779798280000002,-9.468758824,2.918985664,0.8973366700000001,3.15474601,-3.53376655,,,
imu,499.929722,-0.980970592,-9.4454308648,2.9213782752,1.01696723,3.13231528,-3.7206893,,,
imu,499.938171,-0.9773816752000002,-9.471749588000002,2.9153967472,1.30856672,2.95286944,-3.87770441,,,
imu,499.946621,-0.9504647992000002,-9.504647992000002,2.9076207608,1.38333582,2.79585433,-3.98238115,,,
imu,499.95507,-0.9396980488000001,-9.499862769600002,2.9142004416,1.30856672,2.64631613,-4.22911918,,,
imu,499.96352,-0.9373054376000002,-9.496872005600002,2.918985664,1.21136689,2.57154703,-4.25154991,,,
imu,499.97197,-0.9534555632000001,-9.5184055064,2.910013372,1.368382,2.35471664,-4.21416536,,,
imu,499.980419,-0.9618297024000001,-9.510031367200002,2.9046299968,1.01696723,2.29490136,-4.23659609,,,
imu,499.988869,-0.9779798280000002,-9.481320032800001,2.901041080000001,0.97210577,2.07807097,-4.318842099999999,,,
imu,499.997318,-0.9624278552000001,-9.507638756,2.8998447744,1.18893616,1.97339423,-4.31136519,,,
imu,500.005768,-0.9528574104000002,-9.551303910400001,2.9159949,1.27865908,1.77151766,-4.244073,,,
imu,500.014217,-0.9672130776000001,-9.559678049600002,2.910611524800001,1.07678251,1.49487199,-4.26650373,,,
imu,500.022667,-0.9893447312000001,-9.523190728800001,2.9058263024,0.74779847,1.30047233,-4.408565019999999,,,
imu,500.031116,-1.0144671488,-9.471151435200001,2.8902743296,0.76275229,1.15841104,-4.31136519,,,
imu,500.039566,-1.0192523712,-9.435860420000001,2.887283565600001,0.81509066,1.09111885,-4.29641137,,,
imu,500.048016,-1.049758164,-9.499264616800001,2.9058263024,0.9197674,0.9939190199999999,-4.17678081,,,
imu,500.056465,-1.034804344,-9.5381445488,2.896854010400001,1.07678251,0.9415806499999997,-4.10948862,,,
imu,500.064935,-1.03181358,-9.4944793944,2.877713120800001,1.02444414,1.08364194,-4.02724261,,,
imu,500.073405,-1.055739692,-9.4286825864,2.8687408288,0.91229049,1.36028761,-3.7954584,,,
imu,500.081875,-1.0509544696,-9.431075197600002,2.8669463704,1.2936129,1.53225654,-3.54124346,,,
imu,500.090345,-1.0395895664,-9.482516338400002,2.8783112736,1.34595127,1.46496435,-3.65339711,,,
imu,500.098815,-1.0533470808,-9.498666464000001,2.8789094264,1.27865908,1.45748744,-3.84779677,,,
imu,500.107284,-1.0772731928,-9.513022131200001,2.88608726,1.17398234,1.25561087,-3.96742733,,,
imu,500.115754,-1.043776636,-9.522592576000001,2.8866854128,1.0693056,1.12102649,-4.34874974,,,
imu,500.124224,-1.0342061912,-9.5357519376,2.8848909544,0.9571519499999999,0.92662683,-4.47585721,,,
imu,500.132694,-1.0563378448,-9.569248494400002,2.9016392328,1.03192105,0.8219500899999996,-4.17678081,,,
imu,500.141164,-1.0952177768,-9.639232372,2.9028355384,1.09921324,1.00887284,-3.57862801,,,
imu,498.829801,,,,,,,74.89116119999998,-29.04706280000002,113.0936192
imu,498.931394,,,,,,,78.27255559999999,-30.41426920000001,110.7132152
imu,499.033109,,,,,,,77.2471508,-29.40107160000001,114.2777176
imu,499.134489,,,,,,,79.4810684,-29.90156680000002,112.2024936
imu,499.236112,,,,,,,78.0894476,-29.26679240000001,115.0833928
imu,499.337614,,,,,,,78.9561588,-28.81512600000002,116.2064552
imu,499.439207,,,,,,,79.02940199999999,-29.08368440000002,115.461816
imu,499.540739,,,,,,,79.3467892,-28.80291880000001,115.7303744
imu,500.149634,-1.0868436376,-9.632054538400002,2.9088170664,0.8674290299999999,1.46496435,-3.17487487,,,
imu,500.158104,-1.0904325544,-9.583006008800002,2.9016392328,0.8375213899999999,2.05564024,-2.66644499,,,
imu,500.166574,-1.0611230672,-9.554294674400001,2.904031844000001,0.73284465,2.36219355,-2.4496146,,,
imu,500.175044,-1.037795108,-9.5740337168,2.891470635200001,0.64312173,2.54163939,-2.46456842,,,
imu,500.183514,-0.9863539672000001,-9.558481744000002,2.8902743296,0.73284465,2.80333124,-2.38979932,,,
imu,500.191983,-0.9953262592000002,-9.5184055064,2.8998447744,0.43376825,2.73603905,-2.60662971,,,
imu,500.200453,-0.9731946056000002,-9.508835061600001,2.907022608,0.23189168,2.48930102,-2.8234601,,,
imu,500.208923,-0.9325202152000002,-9.4938812416,2.896854010400001,0.04496892999999999,2.42948574,-2.98047521,,,
imu,500.217393,-0.9079959504000001,-9.481918185600001,2.9088170664,-0.07466163,2.33976282,-2.9729983,,,
imu,500.225863,-0.9175663952000002,-9.4801237272,2.9034336912,-0.10456927,2.05564024,-2.89075229,,,
imu,500.234333,-0.9175663952000002,-9.462777296000002,2.875918662400001,-0.31392275,1.70422547,-2.87579847,,,
imu,500.242803,-0.9265386872000001,-9.419710294400002,2.854983314400001,-0.08961545,1.50982581,-2.90570611,,,
imu,500.251273,-0.9295294512000001,-9.418513988800001,2.877114968,0.18703022,1.29299542,-2.99542903,,,
imu,500.259743,-0.9157719368000001,-9.468160671200001,2.875918662400001,0.44872207,1.33785688,-2.98047521,,,
imu,500.268201,-0.9361091320000001,-9.5213962704,2.88608726,0.76275229,1.09859576,-2.98047521,,,
imu,500.27666,-0.9546518688000002,-9.520798117600002,2.892068788,0.77770611,0.9640113799999996,-3.11505959,,,
imu,500.285118,-0.9755872168000002,-9.486105255200002,2.895657704800001,0.82256757,0.9341037399999998,-3.15244414,,,
imu,500.293576,-0.9773816752000002,-9.48072188,2.9112096776,0.9197674,0.8967191899999998,-3.33936689,,,
imu,500.302035,-0.9749890640000002,-9.499264616800001,2.908218913600001,0.77770611,0.92662683,-3.52628964,,,
imu,500.310493,-0.9815687448000001,-9.517807353600002,2.917789358400001,0.8674290299999999,0.84438082,-3.66087402,,,
imu,500.318952,-0.9995133288000001,-9.514218436800002,2.922574580800001,0.7403215599999999,0.7696117199999999,-3.8702275,,,
imu,500.32741,-1.0180560656,-9.520199964800002,2.9183875112,0.7253677399999999,0.94905756,-3.93751969,,,
imu,500.335869,-1.0060930096,-9.5291722568,2.9118078304,0.79265993,0.94905756,-4.102011709999999,,,
imu,500.344327,-1.0126726904,-9.5213962704,2.905228149600001,0.7104139199999999,0.9116730099999999,-4.057150249999999,,,
imu,500.352786,-1.0413840248,-9.519003659200001,2.9016392328,0.66555246,1.06868812,-4.08705789,,,
imu,500.361244,-1.0575341504,-9.5237888816,2.9088170664,0.80013684,1.24813396,-4.02724261,,,
imu,500.369703,-1.0563378448,-9.522592576000001,2.9195838168,0.78518302,1.24813396,-4.19173463,,,
imu,500.378161,-1.0623193728,-9.520199964800002,2.917789358400001,0.65059864,1.09859576,-4.58801086,,,
imu,500.386619,-1.0718898176,-9.558481744000002,2.9112096776,0.63564482,1.00139593,-4.65530305,,,
imu,500.395078,-1.073684276,-9.576426328,2.928556108800001,0.56835263,0.8593346399999997,-4.85717962,,,
imu,500.403536,-1.0724879704,-9.554294674400001,2.9393228592,0.32909151,0.8593346399999997,-4.931948719999999,,,
imu,500.411995,-1.0904325544,-9.508835061600001,2.921976428000001,-0.02980017,1.03130357,-4.70764142,,,
imu,500.420453,-1.1215365,-9.457992073600002,2.9183875112,-0.06718472,1.3528107,-4.42351884,,,
imu,500.428912,-1.13649032,-9.477731116000001,2.9255653448,0.08983038999999998,1.8761944,-3.93751969,,,
imu,500.43737,-1.103591916,-9.481918185600001,2.917789358400001,0.06739966,2.26499372,-3.74312003,,,
imu,500.445829,-1.1077789856,-9.4496179344,2.9195838168,0.09730729999999999,2.50425484,-3.65339711,,,
imu,500.454287,-1.09162886,-9.4203084472,2.920181969600001,0.25432241,2.75846978,-3.52628964,,,
imu,500.462746,-1.0653101368,-9.4244955168,2.9064244552,0.46367589,2.79585433,-3.69078166,,,
imu,500.471567,-1.0467674,-9.4346641144,2.922574580800001,0.70293701,3.02016163,-3.69825857,,,
imu,500.480387,-1.0581323032,-9.417915836,2.9195838168,0.78518302,3.00520781,-3.69078166,,,
imu,500.489208,-1.0503563168,-9.422102905600001,2.9142004416,1.12912088,3.11736146,-3.63096638,,,
imu,500.498029,-1.0431784832,-9.458590226400002,2.9118078304,1.20388998,2.96782326,-3.7206893,,,
imu,500.50685,-1.0360006496,-9.489694172,2.913004136000001,1.35342818,2.9229618,-3.75059694,,,
imu,500.515671,-1.0491600112,-9.5004609224,2.895059552,1.37585891,2.82576197,-3.78050458,,,
imu,500.524492,-1.0282246632,-9.5010590752,2.905228149600001,1.25622835,2.83323888,-3.7954584,,,
imu,500.533313,-1.0324117328,-9.5393408544,2.917789358400001,1.43567419,2.72108523,-3.54872037,,,
imu,500.542134,-1.0180560656,-9.5865949256,2.9094152192,1.45062801,2.58650085,-3.25712088,,,
imu,500.550955,-1.025832052,-9.575828175200002,2.9064244552,1.06182869,2.70613141,-3.1973056,,,
imu,500.559776,-1.0491600112,-9.565061424800001,2.9142004416,0.9197674,2.96034635,-3.11505959,,,
imu,500.568596,-1.040785872,-9.591978300800001,2.905228149600001,0.85995212,3.08745382,-2.93561375,,,
imu,500.577417,-1.0503563168,-9.575828175200002,2.9273598032,0.53096808,3.19213056,-3.0477674,,,
imu,500.586238,-1.052748928,-9.5148165896,2.936930248,0.3889067899999999,3.31923803,-3.17487487,,,
imu,500.595059,-1.0246357464,-9.5219944232,2.924967192,0.30666078,3.65569898,-3.21225942,,,
imu,500.60388,-0.9923354952000002,-9.5429297712,2.924967192,0.3216146,3.8949601,-3.2720747,,,
imu,500.612701,-0.9905410368000002,-9.507638756,2.9136022888,0.18703022,3.99963684,-3.3468438,,,
imu,500.621522,-0.9773816752000002,-9.4382530312,2.922574580800001,0.2468455,4.08188285,-3.496382,,,
imu,500.630343,-0.9815687448000001,-9.4729458936,2.943509928800001,0.41881443,4.07440594,-3.54124346,,,
imu,500.639164,-0.9486703408000001,-9.533957479200001,2.9207801224,0.6954601,4.16412886,-3.58610492,,,
imu,500.647985,-0.9492684936000001,-9.522592576000001,2.9237708864,0.68050628,4.149175039999999,-3.78050458,,,
imu,500.656806,-0.9654186192,-9.491488630400001,2.9303505672,0.52349117,4.13422122,-3.9449966,,,
imu,500.665626,-0.9863539672000001,-9.526779645600001,2.93094872,0.51601426,4.01459066,-4.26650373,,,
imu,500.674122,-0.9995133288000001,-9.6075302736,2.949491456800001,0.44872207,3.83514482,-4.49081103,,,
imu,500.682617,-1.0413840248,-9.635643455200002,2.962052665600001,0.04496892999999999,3.95477538,-4.78241052,,,
imu,500.691112,-1.1681924184,-9.672130776000001,2.9722212632,-0.36626112,4.20899032,-5.10391765,,,
imu,500.699608,-1.2327929208,-9.644615747200001,2.9614545128,-1.10647521,4.72489711,-5.612347529999999,,,
imu,500.708103,-1.3177306184,-9.5907819952,2.952482220800001,-1.87659694,5.73427996,-6.352561619999999,,,
imu,500.716598,-1.3153380072,-9.530966715200002,2.9034336912,-2.13828879,7.341815609999999,-6.681545659999999,,,
imu,500.725094,-1.354816092,-9.499264616800001,2.9034336912,-2.34016536,9.08393564,-7.249790819999999,,,
imu,500.733589,-1.3661809952,-9.5118258256,2.9261634976,-2.34764227,10.64660983,-7.76569761,,,
imu,500.742084,-1.3542179392,-9.568052188800001,2.951884068,-2.32521154,12.22423784,-8.304035129999999,,,
imu,500.75058,-1.4032664688,-9.642223136000002,3.0009325976,-2.61681103,13.64485074,-8.86480338,,,
imu,500.759075,-1.402668316,-9.676915998400002,3.0410088352,-3.05047181,15.37949386,-9.39566399,,,
imu,500.76757,-1.477437416,-9.66016772,3.0410088352,-3.81311663,17.14404462,-9.99381679,,,
imu,500.776066,-1.5199062648,-9.574631869600001,3.0081104312,-4.605669089999999,19.21514869,-10.42000066,,,
imu,500.784561,-1.5246914872,-9.490292324800002,2.996745528,-5.07671442,21.77225191,-10.92843054,,,
imu,500.793056,-1.5109339728,-9.459786532,2.972819416000001,-5.23372953,24.09757092,-11.71350609,,,
imu,500.801552,-1.429585192,-9.4286825864,2.9704268048,-5.173914249999999,26.29578246,-12.34156653,,,
imu,499.642332,,,,,,,79.85949160000001,-29.20575640000001,115.40078
imu,499.743894,,,,,,,79.16368119999998,-28.60760360000001,115.4496088
imu,499.845457,,,,,,,81.470842,-28.96161240000001,114.9246992
imu,499.947019,,,,,,,79.27354600000001,-29.0104412,115.7425816
imu,500.048582,,,,,,,81.3609772,-29.65742280000001,112.9837544
imu,500.150144,,,,,,,79.0538164,-29.20575640000001,115.8036176
imu,500.251859,,,,,,,81.4464276,-29.303414,113.3499704
imu,500.353239,,,,,,,79.02940199999999,-28.76629720000001,115.8158248
imu,500.454836,,,,,,,79.16368119999998,-28.59539640000002,115.8646536
imu,500.55646,,,,,,,79.0171948,-28.86395480000001,115.1078072
imu,500.657992,,,,,,,78.90733,-28.16814440000002,115.3885728
imu,500.759524,,,,,,,79.10264520000001,-28.6808468,115.278708
