Type,Timestamp,Data Accelerometer X,Data Accelerometer Y,Data Accelerometer Z,Data Gyroscope X,Data Gyroscope Y,Data Gyroscope Z,Data Magnetometer X,Data Magnetometer Y,Data Magnetometer Z
imu,457.685719,-0.7752060288000001,-9.572239258400002,2.873526051200001,1.23379762,1.30047233,-3.06272122,,,
imu,457.694553,-0.7704208064000001,-9.575828175200002,2.8848909544,1.1440747,1.21822632,-3.02533667,,,
imu,457.703386,-0.7793930984000002,-9.567454036,2.898050316,0.9945364999999999,1.08364194,-3.10010577,,,
imu,457.71222,-0.7847764736,-9.5590798968,2.8998447744,0.73284465,0.9341037399999998,-3.06272122,,,
imu,457.721053,-0.7853746264000001,-9.548313146400002,2.895657704800001,0.71789083,0.8967191899999998,-2.99542903,,,
imu,457.729887,-0.7925524600000001,-9.530368562400001,2.891470635200001,0.45619898,0.9939190199999999,-3.03281358,,,
imu,457.738721,-0.7799912512000001,-9.520798117600002,2.889078024,0.44872207,1.09859576,-2.98795212,,,
imu,457.747554,-0.7787949456000002,-9.506442450400002,2.895059552,0.44872207,1.21074941,-2.80850628,,,
imu,457.756388,-0.7793930984000002,-9.4831144912,2.8813020376,0.43376825,1.28551851,-2.79355246,,,
imu,457.765221,-0.7823838624,-9.4669643656,2.8926669408,0.53096808,1.2780416,-2.80102937,,,
imu,457.774055,-0.7746078760000001,-9.460982837600001,2.895059552,0.3889067899999999,1.39767216,-2.96552139,,,
imu,457.782888,-0.76264482,-9.477731116000001,2.8926669408,0.40386061,1.33785688,-3.11505959,,,
imu,457.791722,-0.7662337368000001,-9.4621791432,2.883096496000001,0.50853735,1.3528107,-3.13749032,,,
imu,457.799814,-0.7770004872000001,-9.475936657600002,2.88608726,0.70293701,1.5023489,-3.36927453,,,
imu,457.807906,-0.7698226536000001,-9.486703408,2.891470635200001,0.80013684,1.36776452,-3.68330475,,,
imu,457.815999,-0.7817857096,-9.513022131200001,2.889676176800001,1.10669015,1.30047233,-3.68330475,,,
imu,457.824091,-0.7847764736,-9.512423978400001,2.883096496000001,1.33847436,1.36028761,-3.69078166,,,
imu,457.832183,-0.7943469184000002,-9.5004609224,2.8729278984,1.2188438,1.36028761,-3.71321239,,,
imu,457.840275,-0.7925524600000001,-9.493283088800002,2.877713120800001,1.45810492,1.4275798,-3.69825857,,,
imu,457.848368,-0.8075062800000001,-9.499264616800001,2.875918662400001,1.42072037,1.37524143,-3.93751969,,,
imu,457.85646,-0.8098988912000001,-9.517807353600002,2.877713120800001,1.54782784,1.46496435,-4.04967334,,,
imu,457.864552,-0.8296379336000002,-9.528574104,2.8878817184,1.32352054,1.45748744,-4.19921154,,,
imu,457.872644,-0.8290397808000001,-9.533957479200001,2.9058263024,1.23379762,1.47991817,-4.19921154,,,
imu,457.880737,-0.8230582528,-9.555490980000002,2.8944613992,1.11416706,1.7266562,-4.06462716,,,
imu,457.888829,-0.8242545584000001,-9.556089132800002,2.889078024,1.07678251,1.92105586,-3.88518132,,,
imu,457.896921,-0.8320305448000002,-9.5566872856,2.880105732000001,1.12164397,2.07059406,-3.77302767,,,
imu,457.905013,-0.8236564056000001,-9.5566872856,2.873526051200001,1.03939796,2.1005017,-3.74312003,,,
imu,457.913106,-0.8015247520000001,-9.516611048000001,2.8585722312,0.94219813,2.13040934,-3.75807385,,,
imu,457.921198,-0.8272453224,-9.463973601600001,2.8513943976,0.9571519499999999,2.1752708,-3.80293531,,,
imu,457.92929,-0.8380120728000001,-9.481918185600001,2.843020258400001,1.13659779,1.96591732,-4.00481188,,,
imu,457.937382,-0.8200674888,-9.554294674400001,2.8669463704,1.15902852,1.80890221,-4.28145755,,,
imu,457.945475,-0.8075062800000001,-9.585996772800002,2.874124204,1.17398234,1.59207182,-4.363703559999999,,,
imu,457.953567,-0.8266471696000001,-9.560874355200001,2.863955606400001,1.11416706,1.49487199,-4.169303899999999,,,
imu,457.961659,-0.8577511152000001,-9.554892827200002,2.859170384,1.11416706,1.54721036,-3.81041222,,,
imu,457.969751,-0.8667234072000001,-9.571042952800001,2.875918662400001,1.07678251,1.84628676,-3.20478251,,,
imu,457.977844,-0.8607418792,-9.584800467200001,2.870535287200001,1.16650543,2.15284007,-2.83093701,,,
imu,457.985936,-0.8517695872000001,-9.557285438400001,2.868142676,1.13659779,2.31733209,-2.68887572,,,
imu,457.994753,-0.8469843648000001,-9.528574104,2.8795075792,1.04687487,2.36967046,-2.86084465,,,
imu,458.00357,-0.8374139200000001,-9.512423978400001,2.8693389816,0.97958268,2.50425484,-3.11505959,,,
imu,458.012387,-0.8296379336000002,-9.495675700000001,2.8609648424,0.9646288599999999,2.63883922,-3.30198234,,,
imu,458.021204,-0.8248527112,-9.471749588000002,2.8603666896,0.9347212199999999,2.70613141,-3.36927453,,,
imu,458.030021,-0.8182730304000002,-9.474142199200001,2.8507962448,0.9347212199999999,2.81828506,-3.51881273,,,
imu,458.038837,-0.7991321408000002,-9.471749588000002,2.859170384,1.06182869,2.82576197,-3.59358183,,,
imu,458.047654,-0.7997302936000001,-9.468160671200001,2.8424221056,1.09921324,2.89305416,-3.73564312,,,
imu,458.056471,-0.7841783208,-9.478329268800001,2.843020258400001,1.40576655,2.95286944,-3.63844329,,,
imu,458.065288,-0.7692245008,-9.5004609224,2.852590703200001,1.4431511,2.90053107,-3.54124346,,,
imu,458.074105,-0.7542706808000001,-9.5219944232,2.85617962,1.63007385,2.7734236,-3.35432071,,,
imu,458.082922,-0.7614485144,-9.533359326400001,2.8603666896,1.65250458,2.54163939,-3.24216706,,,
imu,458.091739,-0.7590559032000002,-9.5501076048,2.8615629952,1.68241222,2.36219355,-3.05524431,,,
imu,458.100556,-0.7668318896,-9.557285438400001,2.8609648424,1.61512003,2.22760917,-2.98795212,,,
imu,458.109373,-0.7865709320000001,-9.558481744000002,2.8573759256,1.368382,2.04068642,-2.92065993,,,
imu,458.11819,-0.7949450712000001,-9.565061424800001,2.862161148000001,1.12164397,1.89114822,-3.10758268,,,
imu,458.127007,-0.8063099744000001,-9.571042952800001,2.865151912,1.09921324,1.88367131,-3.11505959,,,
imu,458.135824,-0.8134878080000001,-9.5800152448,2.874124204,0.9048135799999999,2.01077878,-3.01785976,,,
imu,458.144641,-0.8314323920000001,-9.5949690648,2.8807038848,0.5982602699999999,2.01077878,-3.14496723,,,
imu,458.153457,-0.8260490168000001,-9.589585689600002,2.873526051200001,0.45619898,2.20517844,-3.1225365,,,
imu,458.162274,-0.8374139200000001,-9.5907819952,2.8747223568,0.4861066199999999,2.53416248,-3.01785976,,,
imu,458.171091,-0.8206656416,-9.578220786400001,2.873526051200001,0.3216146,2.80333124,-2.90570611,,,
imu,458.179908,-0.8140859608000002,-9.5704448,2.87113344,0.22441477,3.07997691,-2.95056757,,,
imu,458.188725,-0.8009265992000001,-9.5381445488,2.87113344,0.26179932,3.41643786,-2.83093701,,,
imu,458.197242,-0.7698226536000001,-9.516012895200001,2.8866854128,0.25432241,3.71551426,-2.95056757,,,
imu,458.205759,-0.7602522088000001,-9.520798117600002,2.8944613992,0.21693786,3.820191,-3.18235178,,,
imu,458.214276,-0.7297464160000001,-9.5213962704,2.8902743296,0.26927623,3.75289881,-3.30198234,,,
imu,458.222691,-0.7070166096,-9.491488630400001,2.899246621600001,0.26179932,3.54354533,-3.44404363,,,
imu,458.231208,-0.7040258456,-9.458590226400002,2.889078024,0.25432241,3.43886859,-3.59358183,,,
imu,458.239725,-0.7004369288000002,-9.4938812416,2.883096496000001,0.38142988,3.28933039,-3.57862801,,,
imu,458.248242,-0.6926609424000001,-9.51062952,2.8986484688,0.56835263,3.24446893,-3.15244414,,,
imu,458.256759,-0.6998387760000001,-9.491488630400001,2.8998447744,0.77770611,3.16222292,-3.00290594,,,
imu,458.265276,-0.6980443176000002,-9.486703408,2.8962558576,0.8449983,3.1472691,-2.77859864,,,
imu,458.273793,-0.6812960392000001,-9.5172092008,2.901041080000001,0.9571519499999999,2.93043871,-2.75616791,,,
imu,458.28231,-0.6777071224000001,-9.5213962704,2.9034336912,0.80013684,2.49677793,-3.00290594,,,
imu,458.290827,-0.6842868032,-9.507638756,2.9076207608,0.9272443100000001,2.4743472,-3.03281358,,,
imu,458.299344,-0.6962498592000002,-9.5040498392,2.8962558576,0.91229049,2.38462428,-3.01785976,,,
imu,458.307861,-0.6992406232000001,-9.488497866400001,2.8908724824,0.9945364999999999,2.2500399,-3.10758268,,,
imu,458.316378,-0.6974461648000001,-9.4801237272,2.887283565600001,1.13659779,2.12293243,-3.33188998,,,
imu,458.324895,-0.6998387760000001,-9.471749588000002,2.8884798712,1.39081273,2.11545552,-3.51133582,,,
imu,458.333412,-0.6998387760000001,-9.481320032800001,2.8747223568,1.5179202,2.21265535,-3.61601256,,,
imu,458.341929,-0.6902683312000001,-9.496872005600002,2.8842928016,1.57773548,2.07059406,-3.73564312,,,
imu,458.350445,-0.7022313872,-9.516611048000001,2.883096496000001,1.6674584,2.04068642,-3.81788913,,,
imu,458.358962,-0.6938572480000001,-9.534555632000002,2.8824983432,1.74970441,1.98087114,-3.83284295,,,
imu,458.367479,-0.6992406232000001,-9.548313146400002,2.8795075792,1.83942733,1.88367131,-3.81041222,,,
imu,458.375996,-0.7118018320000001,-9.558481744000002,2.8824983432,1.65998149,1.77899457,-3.84031986,,,
imu,458.384513,-0.7135962904,-9.566257730400002,2.8675445232,1.60016621,1.68179474,-3.73564312,,,
imu,458.39303,-0.7135962904,-9.575828175200002,2.866348217600001,1.51044329,1.79394839,-3.54872037,,,
imu,458.40147,-0.7213722768,-9.571042952800001,2.8627593008,1.35342818,1.74908693,-3.46647436,,,
imu,458.409909,-0.7177833600000001,-9.578818939200001,2.862161148000001,1.2936129,1.6518871,-3.42908981,,,
imu,458.418348,-0.7213722768,-9.571042952800001,2.8555814672,1.00201341,1.7266562,-3.45152054,,,
imu,458.426788,-0.7339334856000002,-9.5638651192,2.853188856,0.94967504,1.64441019,-3.37675144,,,
imu,458.435227,-0.7297464160000001,-9.561472508000001,2.8669463704,0.79265993,1.5023489,-3.41413599,,,
imu,458.443667,-0.7357279440000001,-9.548313146400002,2.8609648424,0.68050628,1.55468727,-3.55619728,,,
imu,458.452106,-0.741709472,-9.5423316184,2.863955606400001,0.8674290299999999,1.74908693,-3.496382,,,
imu,458.460545,-0.741709472,-9.527975951200002,2.866348217600001,0.85995212,1.71170238,-3.60853565,,,
imu,458.468985,-0.7452983888000001,-9.522592576000001,2.864553759200001,0.71789083,1.71170238,-3.71321239,,,
imu,458.477424,-0.7488873056,-9.516012895200001,2.8699371344,0.8375213899999999,1.82385603,-3.75059694,,,
imu,458.485863,-0.7369242496000001,-9.516012895200001,2.863955606400001,0.9347212199999999,1.98087114,-3.84779677,,,
imu,458.494303,-0.7429057776,-9.5010590752,2.883096496000001,0.80761375,1.86124058,-3.93004278,,,
imu,458.502742,-0.7470928472,-9.501657228000001,2.8723297456,0.8823828499999999,1.82385603,-4.04967334,,,
imu,458.511182,-0.7494854584000001,-9.51062952,2.877713120800001,1.02444414,1.92105586,-4.04967334,,,
imu,458.519621,-0.7464946944,-9.516012895200001,2.8753205096,0.91229049,1.89862513,-4.102011709999999,,,
imu,458.52806,-0.7405131664000002,-9.536948243200001,2.8693389816,1.0693056,1.83880985,-3.98985806,,,
imu,458.5365,-0.7482891528000001,-9.553098368800002,2.8819001904,1.09173633,1.67431783,-3.95247351,,,
imu,458.544939,-0.7441020832,-9.554294674400001,2.874124204,0.9870595899999999,1.68927165,-3.90013514,,,
imu,458.553378,-0.7512799168000001,-9.556089132800002,2.865151912,0.7702292,1.49487199,-3.89265823,,,
imu,458.561818,-0.7620466672,-9.5590798968,2.8729278984,0.68798319,1.45748744,-3.75807385,,,
imu,458.570257,-0.7638411256000001,-9.557285438400001,2.8633574536,0.70293701,1.33785688,-3.63096638,,,
imu,458.578697,-0.7680281952000001,-9.567454036,2.8687408288,0.46367589,1.30047233,-3.67582784,,,
imu,458.587136,-0.7770004872000001,-9.562070660800002,2.8687408288,0.35152224,1.37524143,-3.63844329,,,
imu,458.595575,-0.7847764736,-9.545322382400002,2.8615629952,0.25432241,1.41262598,-3.48890509,,,
imu,458.604025,-0.7931506128000001,-9.535153784800002,2.8633574536,0.25432241,1.45748744,-3.48142818,,,
imu,458.612475,-0.7949450712000001,-9.537546396000002,2.8585722312,0.33656842,1.64441019,-3.43656672,,,
imu,458.620924,-0.7949450712000001,-9.526181492800001,2.856777772800001,0.46367589,1.73413311,-3.42908981,,,
imu,458.629374,-0.7865709320000001,-9.510031367200002,2.8609648424,0.41133752,1.96591732,-3.5711511,,,
imu,458.637823,-0.7847764736,-9.502853533600002,2.8609648424,0.3963837,2.04816333,-3.72816621,,,
imu,458.646273,-0.7770004872000001,-9.507040603200002,2.8753205096,0.56087572,2.22760917,-3.74312003,,,
imu,458.654722,-0.7847764736,-9.5010590752,2.8902743296,0.78518302,2.25751681,-3.78798149,,,
imu,458.663172,-0.780589404,-9.519601812000001,2.895059552,0.68798319,2.30237827,-3.84031986,,,
imu,458.671621,-0.7470928472,-9.552500216,2.8962558576,0.7104139199999999,2.35471664,-3.93004278,,,
imu,458.680071,-0.7429057776,-9.547714993600001,2.889078024,0.76275229,2.35471664,-3.85527368,,,
imu,458.68852,-0.7458965416000001,-9.498666464000001,2.8747223568,0.6954601,2.48930102,-3.67582784,,,
imu,458.69697,-0.7554669864000001,-9.491488630400001,2.8795075792,0.78518302,2.55659321,-3.45899745,,,
imu,458.70542,-0.7435039304000001,-9.516012895200001,2.896854010400001,0.71789083,2.45939338,-3.39170526,,,
imu,458.713869,-0.723764888,-9.516012895200001,2.892068788,0.65807555,2.4743472,-3.36179762,,,
imu,458.722319,-0.7171852072000001,-9.485507102400002,2.8848909544,0.6281679099999999,2.52668557,-3.52628964,,,
imu,458.730768,-0.7572614448000001,-9.503451686400002,2.8944613992,0.3963837,2.09302479,-3.78050458,,,
imu,458.739218,-0.7405131664000002,-9.583604161600002,2.9297524144,0.44872207,1.84628676,-4.04967334,,,
imu,458.747667,-0.7321390272000001,-9.633250844,2.947696998400001,0.4711528,1.83880985,-4.04219643,,,
imu,458.756117,-0.7566632920000002,-9.587193078400002,2.938126553600001,0.33656842,1.94348659,-3.67582784,,,
imu,457.775097,,,,,,,80.2989508,-27.60661320000002,115.9012752
imu,457.876629,,,,,,,83.11881400000001,-28.98602680000002,113.7894296
imu,457.97813,,,,,,,79.98156359999999,-27.70427080000002,116.5848784
imu,458.764566,-0.7764023344000002,-9.523190728800001,2.908218913600001,0.05992275,2.11545552,-3.39918217,,,
imu,458.773016,-0.7901598488000001,-9.526181492800001,2.905228149600001,0.03001510999999998,2.27247063,-3.08515195,,,
imu,458.781466,-0.7817857096,-9.553098368800002,2.907022608,0.45619898,2.56407012,-2.74121409,,,
imu,458.789915,-0.7698226536000001,-9.552500216,2.9124059832,0.63564482,2.80333124,-2.70382954,,,
imu,458.798365,-0.7536725280000001,-9.528574104,2.9076207608,0.58330645,2.94539253,-2.89075229,,,
imu,458.806884,-0.7333353328000001,-9.513620284000002,2.913004136000001,0.64312173,3.04259236,-3.33936689,,,
imu,458.815404,-0.7141944432000001,-9.498666464000001,2.9022373856,0.5982602699999999,2.84071579,-3.75807385,,,
imu,458.823923,-0.7058203040000001,-9.4873015608,2.8932650936,0.67302937,2.78090051,-4.04219643,,,
imu,458.832443,-0.7070166096,-9.4729458936,2.8807038848,0.78518302,2.79585433,-4.102011709999999,,,
imu,458.840962,-0.6962498592000002,-9.469356976800002,2.8866854128,0.85995212,2.72108523,-4.08705789,,,
imu,458.849482,-0.7034276928000001,-9.477132963200003,2.895657704800001,0.8449983,2.44443956,-4.08705789,,,
imu,458.858001,-0.70282954,-9.478329268800001,2.895657704800001,1.00949032,2.46687029,-4.012288789999999,,,
imu,458.866521,-0.7118018320000001,-9.486703408,2.8962558576,0.8823828499999999,2.35471664,-3.90761205,,,
imu,458.87504,-0.6986424704000002,-9.4843107968,2.9046299968,0.80013684,2.30237827,-3.81788913,,,
imu,458.88356,-0.7207741240000002,-9.4974701584,2.907022608,0.8674290299999999,2.15284007,-3.78050458,,,
imu,458.892079,-0.7297464160000001,-9.4980683112,2.9028355384,0.78518302,2.0257326,-3.81041222,,,
imu,458.900599,-0.7351297912000001,-9.512423978400001,2.9112096776,0.68050628,1.90610204,-3.83284295,,,
imu,458.909118,-0.7680281952000001,-9.513022131200001,2.9159949,0.7104139199999999,1.93600968,-4.04967334,,,
imu,458.917638,-0.7889635432000001,-9.519601812000001,2.9255653448,0.78518302,1.94348659,-4.169303899999999,,,
imu,458.926157,-0.7835801680000001,-9.543527924000001,2.9291542616,0.8674290299999999,2.08554788,-4.318842099999999,,,
imu,458.934677,-0.7734115704000001,-9.5602762024,2.935733942400001,0.83004448,2.21265535,-4.41604193,,,
imu,458.943196,-0.7817857096,-9.556089132800002,2.9351357896,0.70293701,2.57902394,-4.318842099999999,,,
imu,458.951716,-0.7758041816000001,-9.5602762024,2.936930248,0.76275229,2.61640849,-4.17678081,,,
imu,458.960235,-0.7764023344000002,-9.5602762024,2.9303505672,0.74779847,2.84071579,-4.00481188,,,
imu,458.968755,-0.7632429728000001,-9.555490980000002,2.9159949,0.73284465,2.96034635,-3.86275059,,,
imu,458.977274,-0.7458965416000001,-9.519601812000001,2.9058263024,0.7104139199999999,2.87062343,-3.7954584,,,
imu,458.985793,-0.7674300424000001,-9.474142199200001,2.918985664,0.7702292,2.95286944,-3.67582784,,,
imu,458.994313,-0.7793930984000002,-9.4980683112,2.9207801224,0.9347212199999999,2.8481927,-3.70573548,,,
imu,459.002832,-0.7560651392000002,-9.526181492800001,2.921976428000001,1.02444414,2.78837742,-3.77302767,,,
imu,459.011596,-0.7429057776,-9.516012895200001,2.922574580800001,1.06182869,2.84071579,-3.83284295,,,
imu,459.02036,-0.7692245008,-9.4801237272,2.917789358400001,0.9870595899999999,2.78837742,-3.90761205,,,
imu,459.029124,-0.7662337368000001,-9.4843107968,2.9237708864,0.97210577,2.81828506,-3.61601256,,,
imu,459.037888,-0.7614485144,-9.491488630400001,2.914798594400001,0.9945364999999999,3.00520781,-3.30945925,,,
imu,459.046652,-0.7512799168000001,-9.492684936000002,2.9136022888,1.1440747,3.08745382,-3.14496723,,,
imu,459.055416,-0.7381205552000002,-9.511227672800002,2.9183875112,1.2188438,3.28185348,-2.93561375,,,
imu,459.064179,-0.7333353328000001,-9.5327611736,2.931546872800001,1.13659779,3.33419185,-2.81598319,,,
imu,459.072943,-0.7207741240000002,-9.543527924000001,2.924967192,1.00201341,3.20708438,-3.09262886,,,
imu,459.081707,-0.726755652,-9.5501076048,2.9112096776,0.9048135799999999,3.06502309,-3.48890509,,,
imu,459.090471,-0.7159889016000002,-9.554294674400001,2.9267616504,0.78518302,2.80333124,-3.81788913,,,
imu,459.099235,-0.7141944432000001,-9.541733465600002,2.9112096776,0.7104139199999999,2.69117759,-3.90013514,,,
imu,459.107999,-0.7225685824,-9.516611048000001,2.913004136000001,0.52349117,2.64631613,-3.98238115,,,
imu,459.116763,-0.7195778184000001,-9.496872005600002,2.8938632464,0.44872207,2.60893158,-3.98238115,,,
imu,459.125526,-0.7141944432000001,-9.477731116000001,2.8938632464,0.5982602699999999,2.57902394,-3.8702275,,,
imu,459.13429,-0.6980443176000002,-9.4753385048,2.8813020376,0.77770611,2.43696265,-3.68330475,,,
imu,459.143054,-0.6926609424000001,-9.457393920800001,2.8866854128,0.9197674,2.33228591,-3.67582784,,,
imu,459.151818,-0.684884956,-9.4669643656,2.895059552,1.09173633,2.18274771,-3.496382,,,
imu,459.160582,-0.7010350816000002,-9.4765348104,2.891470635200001,1.16650543,1.98834805,-3.36179762,,,
imu,459.169346,-0.7094092208000001,-9.493283088800002,2.896854010400001,1.368382,1.83880985,-3.2720747,,,
imu,459.17811,-0.7112036792,-9.5040498392,2.8932650936,1.67493531,1.75656384,-3.15992105,,,
imu,459.186873,-0.7135962904,-9.5237888816,2.9016392328,1.78708896,1.68179474,-3.11505959,,,
imu,459.195637,-0.7177833600000001,-9.5501076048,2.895059552,1.74970441,1.59954873,-3.21225942,,,
imu,459.204401,-0.7261574992000001,-9.569248494400002,2.896854010400001,1.63007385,1.6518871,-3.18982869,,,
imu,459.212882,-0.7231667352000001,-9.5907819952,2.892068788,1.38333582,1.54721036,-3.3468438,,,
imu,459.221364,-0.7363260968000002,-9.6051376624,2.8974521632,1.27118217,1.58459491,-3.35432071,,,
imu,459.229845,-0.7435039304000001,-9.609922884800001,2.8938632464,0.97958268,1.61450255,-3.36927453,,,
imu,459.238326,-0.7572614448000001,-9.593174606400002,2.8944613992,0.88985976,2.0257326,-3.26459779,,,
imu,459.246808,-0.7512799168000001,-9.578818939200001,2.895657704800001,0.52349117,2.16031698,-3.22721324,,,
imu,459.255289,-0.7423076248,-9.581809703200001,2.904031844000001,0.38142988,2.39210119,-3.36179762,,,
imu,459.26377,-0.7375224024000001,-9.559678049600002,2.9022373856,0.26179932,2.61640849,-3.39170526,,,
imu,459.272252,-0.7303445688000001,-9.528574104,2.9034336912,0.1720764,2.75099287,-3.48890509,,,
imu,459.280733,-0.7159889016000002,-9.503451686400002,2.904031844000001,0.11973803,2.89305416,-3.63096638,,,
imu,459.289215,-0.7141944432000001,-9.4873015608,2.8986484688,0.08235347999999998,2.95286944,-3.59358183,,,
imu,459.297696,-0.6920627896000001,-9.48072188,2.9058263024,0.23936859,2.86314652,-3.71321239,,,
imu,459.306177,-0.6824923448,-9.471151435200001,2.908218913600001,0.35152224,2.72856214,-3.73564312,,,
imu,459.314731,-0.6806978864000002,-9.4735440464,2.898050316,0.68050628,2.55659321,-3.78798149,,,
imu,459.323212,-0.6717255944000001,-9.46576806,2.8998447744,0.80761375,2.40705501,-3.92256587,,,
imu,459.331694,-0.6693329832000001,-9.468758824,2.9237708864,0.9646288599999999,2.22013226,-3.93751969,,,
imu,459.340175,-0.666940372,-9.486105255200002,2.9351357896,0.97958268,1.89114822,-3.99733497,,,
imu,459.348656,-0.6759126640000002,-9.514218436800002,2.9273598032,1.12164397,1.67431783,-3.87770441,,,
imu,459.357138,-0.6980443176000002,-9.524387034400002,2.928556108800001,1.05435178,1.40514907,-3.75059694,,,
imu,459.365619,-0.6986424704000002,-9.538742701600002,2.9363320952,0.8674290299999999,1.33785688,-3.69078166,,,
imu,459.3741,-0.7207741240000002,-9.5489112992,2.9255653448,0.68798319,1.21074941,-3.55619728,,,
imu,459.382582,-0.7219704296,-9.553696521600001,2.9237708864,0.55339881,1.15093413,-3.44404363,,,
imu,459.391063,-0.7345316384000001,-9.5566872856,2.9076207608,0.5982602699999999,1.06121121,-3.47395127,,,
imu,459.399544,-0.7458965416000001,-9.555490980000002,2.9118078304,0.620691,1.06121121,-3.53376655,,,
imu,459.408026,-0.76264482,-9.553696521600001,2.9159949,0.3889067899999999,1.15841104,-3.52628964,,,
imu,459.416491,-0.7722152648000001,-9.543527924000001,2.9088170664,0.45619898,1.26308778,-3.56367419,,,
imu,459.424955,-0.7692245008,-9.522592576000001,2.898050316,0.50853735,1.39767216,-3.55619728,,,
imu,459.43342,-0.7650374312,-9.520199964800002,2.9046299968,0.53844499,1.55468727,-3.61601256,,,
imu,459.441885,-0.7686263480000001,-9.5154147424,2.901041080000001,0.44124516,1.64441019,-3.89265823,,,
imu,459.45035,-0.7668318896,-9.502255380800001,2.9142004416,0.50853735,1.85376367,-3.85527368,,,
imu,459.458815,-0.7530743752000001,-9.526181492800001,2.93094872,0.34404533,1.97339423,-3.90013514,,,
imu,459.467279,-0.7285501104000001,-9.548313146400002,2.93094872,0.30666078,2.22013226,-3.80293531,,,
imu,459.475744,-0.7129981376000001,-9.5237888816,2.928556108800001,0.44872207,2.45191647,-3.77302767,,,
imu,459.484209,-0.7309427216000001,-9.505844297600001,2.914798594400001,0.44124516,2.50425484,-3.81041222,,,
imu,459.492674,-0.7118018320000001,-9.502255380800001,2.9171912056,0.52349117,2.45939338,-3.74312003,,,
imu,459.501139,-0.6980443176000002,-9.503451686400002,2.9183875112,0.42629134,2.44443956,-3.63096638,,,
imu,459.509604,-0.6896701784000001,-9.4699551296,2.9046299968,0.41133752,2.324809,-3.7954584,,,
imu,459.518068,-0.6878757200000001,-9.425691822400001,2.898050316,0.44124516,2.22013226,-3.7206893,,,
imu,459.526533,-0.708811068,-9.465169907200002,2.9112096776,0.68798319,2.00330187,-3.84031986,,,
imu,459.534998,-0.7040258456,-9.5501076048,2.924967192,0.8375213899999999,1.79394839,-4.18425772,,,
imu,459.543463,-0.6836886504,-9.585996772800002,2.9375284008,0.80761375,1.5023489,-4.47585721,,,
imu,459.551928,-0.7213722768,-9.550705757600001,2.9417154704,0.53844499,1.25561087,-4.44594957,,,
imu,459.560392,-0.7488873056,-9.519003659200001,2.939921012000001,0.49358353,1.33785688,-4.04967334,,,
imu,459.568857,-0.7572614448000001,-9.555490980000002,2.9387247064,0.58330645,1.56964109,-3.55619728,,,
imu,459.577322,-0.7500836112000001,-9.584800467200001,2.9500896096,0.44124516,1.68927165,-3.40665908,,,
imu,458.07977,,,,,,,80.5308876,-28.3512524,116.3529416
imu,458.181302,,,,,,,80.54309479999999,-28.18035160000001,115.7425816
imu,458.282895,,,,,,,80.5308876,-27.91179320000001,115.7181672
imu,458.38461,,,,,,,80.8238604,-28.18035160000001,115.339744
imu,458.485989,,,,,,,80.44543719999999,-27.85075720000001,115.3885728
imu,458.587552,,,,,,,80.83606759999999,-28.00945080000001,114.9613208
imu,458.689145,,,,,,,80.4820588,-28.04607240000001,115.6937528
imu,458.790677,,,,,,,82.0079588,-28.48553160000002,112.9227184
imu,459.585787,-0.7506817640000001,-9.577024480800002,2.9423136232,0.28423005,1.83880985,-3.17487487,,,
imu,459.594252,-0.7458965416000001,-9.541135312800002,2.9231727336,0.26927623,2.0257326,-3.14496723,,,
imu,459.602716,-0.7399150136000001,-9.5172092008,2.9118078304,0.26179932,2.0257326,-3.37675144,,,
imu,459.611181,-0.7309427216000001,-9.502853533600002,2.9153967472,0.3739529699999999,1.99582496,-3.60105874,,,
imu,459.619638,-0.7231667352000001,-9.4843107968,2.901041080000001,0.30666078,1.8761944,-3.86275059,,,
imu,459.628096,-0.7273538048000001,-9.4753385048,2.899246621600001,0.47862971,1.86124058,-4.13939626,,,
imu,459.636553,-0.7225685824,-9.474142199200001,2.9022373856,0.35899915,1.79394839,-4.29641137,,,
imu,459.64501,-0.7153907488000001,-9.463973601600001,2.9076207608,0.32909151,1.91357895,-4.22911918,,,
imu,459.653467,-0.7112036792,-9.478927421600002,2.9159949,0.41133752,1.88367131,-4.20668845,,,
imu,459.661924,-0.7016332344,-9.4938812416,2.9183875112,0.5459219,1.91357895,-4.079580979999999,,,
imu,459.670382,-0.70282954,-9.5172092008,2.9261634976,0.68050628,1.61450255,-4.08705789,,,
imu,459.678839,-0.7141944432000001,-9.519003659200001,2.936930248,0.66555246,1.61450255,-4.02724261,,,
imu,459.687296,-0.7147925960000001,-9.5219944232,2.938126553600001,0.5982602699999999,1.46496435,-3.87770441,,,
imu,459.695753,-0.7195778184000001,-9.534555632000002,2.949491456800001,0.56835263,1.30047233,-3.87770441,,,
imu,459.70421,-0.7261574992000001,-9.5357519376,2.9482951512,0.29918387,1.24813396,-3.98238115,,,
imu,459.712667,-0.7435039304000001,-9.519601812000001,2.9417154704,0.13469185,1.14345722,-3.99733497,,,
imu,459.721125,-0.7500836112000001,-9.507638756,2.941117317600001,0.16459949,1.00887284,-3.99733497,,,
imu,459.729582,-0.7632429728000001,-9.4938812416,2.952482220800001,0.1720764,1.03130357,-3.92256587,,,
imu,459.738039,-0.7710189592000001,-9.488497866400001,2.9465006928,0.1720764,1.00887284,-3.83284295,,,
imu,459.746496,-0.7787949456000002,-9.489096019200002,2.962052665600001,0.08983038999999998,1.12102649,-3.88518132,,,
imu,459.754953,-0.7829820152,-9.4938812416,2.9626508184,0.28423005,1.24065705,-3.85527368,,,
imu,459.763411,-0.7859727792000001,-9.4980683112,2.9656415824,0.32909151,1.46496435,-3.77302767,,,
imu,459.771868,-0.7853746264000001,-9.514218436800002,2.963248971200001,0.4711528,1.54721036,-3.75807385,,,
imu,459.780325,-0.7799912512000001,-9.4944793944,2.9722212632,0.70293701,1.74908693,-3.81041222,,,
imu,459.788782,-0.7847764736,-9.4938812416,2.991960305600001,0.74779847,2.04816333,-3.78050458,,,
imu,459.797239,-0.7835801680000001,-9.544126076800001,2.9853806248,0.8749059399999999,2.11545552,-3.97490424,,,
imu,459.805696,-0.7566632920000002,-9.5698466472,2.9853806248,0.8524752099999999,2.08554788,-4.13939626,,,
imu,459.814154,-0.7542706808000001,-9.531564868,2.987773236,0.55339881,2.05564024,-4.25902682,,,
imu,459.822696,-0.7638411256000001,-9.512423978400001,2.9716231104,0.41133752,2.14536316,-4.16182699,,,
imu,459.831238,-0.7590559032000002,-9.522592576000001,2.9644452768,0.29918387,2.20517844,-3.9449966,,,
imu,459.839781,-0.7530743752000001,-9.530368562400001,2.9650434296,0.3216146,2.36967046,-3.5711511,,,
imu,459.848323,-0.7452983888000001,-9.4980683112,2.9740157216,0.18703022,2.42948574,-3.28702852,,,
imu,459.856866,-0.7441020832,-9.4873015608,2.9644452768,0.14964567,2.38462428,-3.36927453,,,
imu,459.865408,-0.723764888,-9.481918185600001,2.966239735200001,0.1720764,2.28742445,-3.4216129,,,
imu,459.87395,-0.7207741240000002,-9.478927421600002,2.9722212632,0.29918387,2.15284007,-3.48142818,,,
imu,459.882493,-0.7243630408,-9.48072188,2.959061901600001,0.3739529699999999,1.96591732,-3.69078166,,,
imu,459.891035,-0.7129981376000001,-9.457992073600002,2.969828652,0.53096808,2.01077878,-3.81041222,,,
imu,459.899577,-0.723764888,-9.4424401008,2.9746138744,0.6954601,1.89114822,-3.85527368,,,
imu,459.90812,-0.7022313872,-9.440047489600001,2.9793990968,0.66555246,1.80890221,-3.97490424,,,
imu,459.916662,-0.708811068,-9.456795768000001,2.9746138744,0.9571519499999999,1.6518871,-3.88518132,,,
imu,459.925205,-0.7034276928000001,-9.4944793944,2.9716231104,0.9197674,1.29299542,-3.98238115,,,
imu,459.933747,-0.7106055264000001,-9.514218436800002,2.9770064856,0.9945364999999999,1.03878048,-3.96742733,,,
imu,459.942289,-0.7369242496000001,-9.504647992000002,2.9614545128,0.9347212199999999,0.9341037399999998,-3.81788913,,,
imu,459.950832,-0.7554669864000001,-9.5040498392,2.969828652,0.9347212199999999,1.10607267,-3.62348947,,,
imu,459.959374,-0.7548688336000001,-9.536948243200001,2.952482220800001,0.8973366700000001,1.00139593,-3.71321239,,,
imu,459.967916,-0.7572614448000001,-9.541733465600002,2.9447062344,0.9272443100000001,0.9041961000000001,-3.65339711,,,
imu,459.976459,-0.7734115704000001,-9.535153784800002,2.9614545128,0.97210577,0.8892422799999999,-3.63844329,,,
imu,459.985001,-0.7931506128000001,-9.548313146400002,2.959061901600001,0.7702292,0.8518577299999999,-3.69825857,,,
imu,459.993544,-0.7853746264000001,-9.545322382400002,2.9614545128,0.7253677399999999,0.94905756,-3.61601256,,,
imu,460.002086,-0.7985339880000002,-9.5249851872,2.9566692904,0.67302937,1.15841104,-3.496382,,,
imu,460.010628,-0.8057118216000001,-9.519601812000001,2.9542766792,0.6281679099999999,1.30047233,-3.40665908,,,
imu,460.019171,-0.7877672376000001,-9.5213962704,2.9560711376,0.6132140899999999,1.69674856,-3.35432071,,,
imu,460.027905,-0.7740097232000002,-9.499264616800001,2.954874832000001,0.6132140899999999,1.92105586,-3.47395127,,,
imu,460.03664,-0.7692245008,-9.489694172,2.9506877624,0.58330645,1.96591732,-3.56367419,,,
imu,460.045375,-0.7488873056,-9.483712644000002,2.943509928800001,0.56835263,2.00330187,-3.66087402,,,
imu,460.054109,-0.7578595976000001,-9.481320032800001,2.957267443200001,0.71789083,1.90610204,-3.72816621,,,
imu,460.062844,-0.7536725280000001,-9.479525574400002,2.9602582072,0.68798319,1.98834805,-3.81041222,,,
imu,460.071579,-0.7560651392000002,-9.4974701584,2.9734175688,0.83004448,1.9509635,-3.75807385,,,
imu,460.080313,-0.7458965416000001,-9.5148165896,2.975810180000001,0.79265993,2.00330187,-3.81041222,,,
imu,460.089048,-0.7482891528000001,-9.502853533600002,2.978800944,0.6954601,1.95844041,-3.87770441,,,
imu,460.097783,-0.7435039304000001,-9.510031367200002,2.9776046384,0.53096808,2.18274771,-3.74312003,,,
imu,460.106517,-0.7435039304000001,-9.4980683112,2.982389860800001,0.4711528,2.19770153,-3.69825857,,,
imu,460.115252,-0.7321390272000001,-9.496872005600002,2.9740157216,0.53096808,2.1752708,-3.7206893,,,
imu,460.123987,-0.7309427216000001,-9.4944793944,2.9746138744,0.5010604399999999,2.14536316,-3.76555076,,,
imu,460.132721,-0.7189796656000002,-9.4962738528,2.9734175688,0.56835263,2.04816333,-3.71321239,,,
imu,460.141456,-0.7189796656000002,-9.486703408,2.9865769304,0.67302937,1.9509635,-3.67582784,,,
imu,460.150191,-0.7387187080000002,-9.4843107968,3.001530750400001,0.7104139199999999,1.92853277,-3.7206893,,,
imu,460.158925,-0.7333353328000001,-9.486703408,2.997941833600001,0.65059864,1.79394839,-3.52628964,,,
imu,460.16766,-0.7429057776,-9.477731116000001,2.9925584584,0.8973366700000001,1.74161002,-3.45899745,,,
imu,460.176395,-0.741709472,-9.475936657600002,2.982389860800001,0.9272443100000001,1.68927165,-3.43656672,,,
imu,460.185129,-0.7405131664000002,-9.463973601600001,2.981791708,1.06182869,1.83133294,-3.61601256,,,
imu,460.193864,-0.7482891528000001,-9.471749588000002,2.9829880136,1.25622835,1.7266562,-3.50385891,,,
imu,460.202599,-0.7524762224000001,-9.4801237272,2.9793990968,1.49548947,1.64441019,-3.51133582,,,
imu,460.211333,-0.7608503616000001,-9.478927421600002,2.984782472,1.50296638,1.69674856,-3.52628964,,,
imu,460.220068,-0.7602522088000001,-9.492684936000002,2.981791708,1.50296638,1.71917929,-3.54124346,,,
imu,460.228715,-0.7686263480000001,-9.496872005600002,2.9835861664,1.39081273,1.67431783,-3.63096638,,,
imu,460.237361,-0.7722152648000001,-9.516611048000001,2.996745528,1.56278166,1.84628676,-3.69825857,,,
imu,460.246008,-0.7722152648000001,-9.532163020800002,2.9925584584,1.31604363,1.97339423,-3.81788913,,,
imu,460.254655,-0.7698226536000001,-9.5381445488,2.9889695416,1.21136689,2.20517844,-3.75059694,,,
imu,460.263301,-0.7746078760000001,-9.532163020800002,2.9859787776,1.07678251,2.22013226,-3.72816621,,,
imu,460.271948,-0.7710189592000001,-9.5447242296,2.9859787776,0.80013684,2.22013226,-3.84031986,,,
imu,460.280595,-0.7698226536000001,-9.5501076048,2.991960305600001,0.60573718,2.43696265,-3.88518132,,,
imu,460.289241,-0.7399150136000001,-9.555490980000002,2.9853806248,0.33656842,2.53416248,-3.93004278,,,
imu,460.297888,-0.7255593464000001,-9.5213962704,2.963248971200001,0.3216146,2.57154703,-3.84031986,,,
imu,460.306534,-0.7315408744,-9.481320032800001,2.9692304992,0.26927623,2.50425484,-3.74312003,,,
imu,460.315181,-0.7201759712000001,-9.475936657600002,2.969828652,0.35899915,2.45191647,-3.7954584,,,
imu,460.323828,-0.7058203040000001,-9.477731116000001,2.9650434296,0.4711528,2.26499372,-3.81041222,,,
imu,460.332474,-0.6896701784000001,-9.426888128000002,2.952482220800001,0.56835263,2.16031698,-3.86275059,,,
imu,460.341121,-0.7159889016000002,-9.382026668000002,2.9500896096,0.79265993,1.8761944,-3.75059694,,,
imu,460.349768,-0.7423076248,-9.438851184,2.952482220800001,1.18145925,1.62197946,-3.87770441,,,
imu,460.358414,-0.7195778184000001,-9.530966715200002,2.971024957600001,1.56278166,1.28551851,-4.06462716,,,
imu,460.367061,-0.7201759712000001,-9.5740337168,2.982389860800001,1.54035093,1.16588795,-4.04967334,,,
imu,460.375708,-0.7554669864000001,-9.548313146400002,2.9764083328,1.41324346,1.01634975,-3.89265823,,,
imu,460.384354,-0.7943469184000002,-9.554294674400001,2.968632346400001,1.28613599,1.18831868,-3.26459779,,,
imu,460.393001,-0.7865709320000001,-9.588389384000001,2.981791708,1.39081273,1.65936401,-2.70382954,,,
imu,460.401648,-0.7775986400000001,-9.6159044128,2.9740157216,1.18145925,2.05564024,-2.38232241,,,
imu,458.892301,,,,,,,80.25012199999999,-28.03386520000002,115.156636
imu,458.995145,,,,,,,82.6671476,-28.69305400000002,112.3123584
imu,459.095395,,,,,,,80.31115799999999,-27.85075720000001,115.5350592
imu,459.196957,,,,,,,80.26232920000001,-27.89958600000002,115.1322216
imu,459.29852,,,,,,,80.5797164,-27.98503640000001,115.3031224
imu,459.400235,,,,,,,80.5919236,-28.3512524,115.3031224
imu,459.501614,,,,,,,80.97034679999999,-27.75309960000001,115.766996
imu,459.60336,,,,,,,80.4576444,-28.22918040000002,115.8036176
imu,460.410189,-0.7638411256000001,-9.597361676,2.9674360408,0.8823828499999999,2.33228591,-2.3748455,,,
imu,460.418835,-0.7596540560000001,-9.554892827200002,2.979997249600001,0.79265993,2.51173175,-2.62158353,,,
imu,460.427482,-0.7464946944,-9.527975951200002,2.9644452768,0.5982602699999999,2.59397776,-3.05524431,,,
imu,460.435794,-0.7351297912000001,-9.495675700000001,2.957267443200001,0.44124516,2.46687029,-3.63844329,,,
imu,460.444106,-0.7225685824,-9.477731116000001,2.9500896096,0.36647606,2.53416248,-3.97490424,,,
imu,460.452419,-0.7255593464000001,-9.440047489600001,2.947696998400001,0.35899915,2.60145467,-4.13939626,,,
imu,460.460731,-0.7291482632,-9.432869656000001,2.9554729848,0.44124516,2.58650085,-4.17678081,,,
imu,460.469043,-0.7112036792,-9.4454308648,2.9716231104,0.55339881,2.50425484,-4.341272829999999,,,
imu,460.477355,-0.6884738728,-9.455001309600002,2.9776046384,0.6281679099999999,2.42200883,-4.21416536,,,
imu,460.485667,-0.6800997336000001,-9.447225323200001,2.978202791200001,0.7253677399999999,2.34723973,-4.17678081,,,
imu,460.49398,-0.681894192,-9.453206851200001,2.9889695416,0.76275229,2.15284007,-4.057150249999999,,,
imu,460.502292,-0.6950535536000001,-9.471749588000002,2.982389860800001,0.8375213899999999,1.89862513,-3.98238115,,,
imu,460.510604,-0.7070166096,-9.479525574400002,2.9931566112,0.9945364999999999,1.54721036,-3.93751969,,,
imu,460.518916,-0.7279519576000001,-9.48072188,2.996745528,1.07678251,1.26308778,-3.92256587,,,
imu,460.527229,-0.7399150136000001,-9.481918185600001,2.9901658472,1.03192105,1.14345722,-3.81041222,,,
imu,460.535541,-0.7548688336000001,-9.4831144912,2.997941833600001,1.17398234,0.9939190199999999,-3.87770441,,,
imu,460.543853,-0.7668318896,-9.488497866400001,2.9949510696,1.15902852,1.01634975,-3.7954584,,,
imu,460.552165,-0.771617112,-9.4801237272,2.9883713888,1.21136689,0.9789651999999998,-3.90013514,,,
imu,460.560477,-0.7865709320000001,-9.483712644000002,2.9859787776,1.30108981,1.13598031,-3.82536604,,,
imu,460.56879,-0.7913561544000001,-9.488497866400001,2.993754764000001,1.39081273,1.15841104,-3.71321239,,,
imu,460.577102,-0.7967395296000002,-9.496872005600002,2.9925584584,1.63007385,1.40514907,-3.61601256,,,
imu,460.585414,-0.7991321408000002,-9.5154147424,3.0081104312,1.77961205,1.6518871,-3.63844329,,,
imu,460.593726,-0.7770004872000001,-9.5219944232,2.984782472,1.92915025,1.65936401,-3.69825857,,,
imu,460.602039,-0.7877672376000001,-9.502853533600002,2.9883713888,1.91419643,1.76404075,-3.78798149,,,
imu,460.610351,-0.7979358352000001,-9.4801237272,2.9973436808,1.84690424,2.03320951,-3.78050458,,,
imu,460.618663,-0.7787949456000002,-9.514218436800002,2.999138139200001,1.89924261,2.19022462,-3.83284295,,,
imu,460.626975,-0.76264482,-9.544126076800001,2.990764,1.98896553,2.0257326,-4.012288789999999,,,
imu,460.635422,-0.7590559032000002,-9.506442450400002,2.9943529168,1.7422275,2.03320951,-3.99733497,,,
imu,460.643869,-0.7758041816000001,-9.4735440464,2.980595402400001,1.63007385,2.12293243,-3.78050458,,,
imu,460.652316,-0.7758041816000001,-9.516611048000001,2.9734175688,1.47305874,2.14536316,-3.52628964,,,
imu,460.660763,-0.7614485144,-9.5249851872,2.9602582072,1.43567419,2.324809,-3.24216706,,,
imu,460.66921,-0.7722152648000001,-9.508835061600001,2.9512859152,1.33847436,2.37714737,-3.05524431,,,
imu,460.677657,-0.7728134176000001,-9.4962738528,2.9465006928,1.45062801,2.44443956,-2.86832156,,,
imu,460.686104,-0.7554669864000001,-9.5154147424,2.9542766792,1.42072037,2.51920866,-2.91318302,,,
imu,460.694551,-0.7435039304000001,-9.516012895200001,2.9482951512,1.39081273,2.59397776,-2.99542903,,,
imu,460.702998,-0.7482891528000001,-9.5082369088,2.9584637488,1.39828964,2.53416248,-3.09262886,,,
imu,460.711445,-0.7494854584000001,-9.501657228000001,2.953678526400001,1.39081273,2.65379304,-3.09262886,,,
imu,460.719892,-0.7393168608000001,-9.493283088800002,2.9393228592,1.33099745,2.71360832,-3.27955161,,,
imu,460.728339,-0.7333353328000001,-9.4765348104,2.9327431784,1.34595127,2.71360832,-3.45152054,,,
imu,460.736786,-0.7345316384000001,-9.465169907200002,2.9351357896,1.33099745,2.73603905,-3.5711511,,,
imu,460.745233,-0.7189796656000002,-9.488497866400001,2.924369039200001,1.60016621,2.75099287,-3.65339711,,,
imu,460.75368,-0.7141944432000001,-9.519003659200001,2.924967192,1.69736604,2.6238854,-3.71321239,,,
imu,460.762127,-0.7082129152000001,-9.534555632000002,2.927957956,1.70484295,2.44443956,-3.81788913,,,
imu,460.770574,-0.7118018320000001,-9.5393408544,2.918985664,1.48801256,2.36967046,-3.90761205,,,
imu,460.779021,-0.7195778184000001,-9.547116840800001,2.921976428000001,1.47305874,2.30237827,-3.81041222,,,
imu,460.787468,-0.7225685824,-9.558481744000002,2.9327431784,1.368382,2.15284007,-3.66835093,,,
imu,460.795915,-0.7273538048000001,-9.576426328,2.921976428000001,1.37585891,2.13788625,-3.54124346,,,
imu,460.804362,-0.7207741240000002,-9.588987536800001,2.928556108800001,1.18893616,1.92105586,-3.51881273,,,
imu,460.812809,-0.7261574992000001,-9.572239258400002,2.924967192,0.9048135799999999,1.95844041,-3.5711511,,,
imu,460.821257,-0.7357279440000001,-9.564463272000001,2.9153967472,0.63564482,2.00330187,-3.496382,,,
imu,460.829704,-0.7435039304000001,-9.5566872856,2.9195838168,0.45619898,1.95844041,-3.496382,,,
imu,460.838162,-0.7452983888000001,-9.554294674400001,2.9231727336,0.3889067899999999,1.98834805,-3.48142818,,,
imu,460.84662,-0.7506817640000001,-9.541135312800002,2.936930248,0.29918387,2.19022462,-3.496382,,,
imu,460.855079,-0.7482891528000001,-9.5381445488,2.9297524144,0.23936859,2.16031698,-3.63096638,,,
imu,460.863537,-0.744700236,-9.531564868,2.948893304,0.04496892999999999,2.19770153,-3.77302767,,,
imu,460.871996,-0.7464946944,-9.511227672800002,2.947696998400001,0.04496892999999999,2.324809,-3.86275059,,,
imu,460.880454,-0.7423076248,-9.5219944232,2.945304387200001,0.0001074699999999984,2.3995781,-3.83284295,,,
imu,460.888913,-0.7381205552000002,-9.523190728800001,2.9530803736,-0.08961545,2.45939338,-3.80293531,,,
imu,460.897371,-0.7225685824,-9.5148165896,2.9560711376,-0.09709236,2.59397776,-3.78050458,,,
imu,460.90583,-0.7177833600000001,-9.513620284000002,2.966239735200001,-0.14195382,2.45191647,-3.71321239,,,
imu,460.914288,-0.7195778184000001,-9.4908904776,2.952482220800001,-0.05970781,2.42948574,-3.51133582,,,
imu,460.922747,-0.7207741240000002,-9.478329268800001,2.94590254,-0.04475399000000001,2.48930102,-3.50385891,,,
imu,460.931205,-0.7135962904,-9.4801237272,2.96085636,0.06739966,2.33228591,-3.51133582,,,
imu,460.939663,-0.7147925960000001,-9.4801237272,2.9692304992,0.28423005,2.22013226,-3.45152054,,,
imu,460.948122,-0.726755652,-9.479525574400002,2.9752120272,0.45619898,2.23508608,-3.41413599,,,
imu,460.95658,-0.7315408744,-9.4801237272,2.980595402400001,0.49358353,2.1005017,-3.60105874,,,
imu,460.965039,-0.7303445688000001,-9.491488630400001,2.981791708,0.53844499,2.05564024,-3.52628964,,,
imu,460.973497,-0.7351297912000001,-9.489694172,2.9883713888,0.53096808,2.05564024,-3.51881273,,,
imu,460.981956,-0.7399150136000001,-9.481918185600001,2.991960305600001,0.51601426,2.18274771,-3.52628964,,,
imu,460.990414,-0.7405131664000002,-9.4938812416,2.9973436808,0.50853735,2.09302479,-3.50385891,,,
imu,460.998873,-0.7494854584000001,-9.486703408,2.9943529168,0.58330645,2.23508608,-3.56367419,,,
imu,461.007331,-0.7411113192000001,-9.489096019200002,2.991960305600001,0.50853735,2.26499372,-3.59358183,,,
imu,461.01579,-0.7357279440000001,-9.498666464000001,2.990764,0.58330645,2.18274771,-3.57862801,,,
imu,461.024248,-0.7357279440000001,-9.51062952,2.9949510696,0.7552753799999999,2.28742445,-3.55619728,,,
imu,461.032706,-0.726755652,-9.516611048000001,2.9883713888,0.6281679099999999,2.28742445,-3.53376655,,,
imu,461.041529,-0.7315408744,-9.502853533600002,2.982389860800001,0.51601426,2.16779389,-3.50385891,,,
imu,461.050351,-0.7279519576000001,-9.512423978400001,2.9716231104,0.71789083,2.18274771,-3.39170526,,,
imu,461.059173,-0.7309427216000001,-9.5154147424,2.9644452768,0.76275229,2.19022462,-3.22721324,,,
imu,461.067995,-0.7303445688000001,-9.5213962704,2.9626508184,0.74779847,2.1752708,-3.27955161,,,
imu,461.076818,-0.7273538048000001,-9.534555632000002,2.9614545128,0.7253677399999999,2.21265535,-3.22721324,,,
imu,461.08564,-0.7369242496000001,-9.5501076048,2.966239735200001,0.57582954,2.05564024,-3.30198234,,,
imu,461.094462,-0.7279519576000001,-9.5776226336,2.9865769304,0.4711528,1.9509635,-3.30198234,,,
imu,461.103284,-0.7147925960000001,-9.574631869600001,2.9722212632,0.1720764,1.94348659,-3.24964397,,,
imu,461.112107,-0.7219704296,-9.533957479200001,2.963248971200001,0.22441477,2.20517844,-3.02533667,,,
imu,461.120929,-0.7225685824,-9.4843107968,2.952482220800001,0.0001074699999999984,2.23508608,-2.92065993,,,
imu,461.129751,-0.7165870544000001,-9.478927421600002,2.9596600544,-0.23915365,2.22013226,-2.98795212,,,
imu,461.138573,-0.6896701784000001,-9.446627170400001,2.949491456800001,-0.13447691,2.18274771,-2.95056757,,,
imu,461.147395,-0.6920627896000001,-9.388606348800002,2.9465006928,0.06739966,2.09302479,-3.17487487,,,
imu,461.156218,-0.7345316384000001,-9.3628857784,2.9596600544,0.40386061,2.06311715,-3.41413599,,,
imu,461.16504,-0.7608503616000001,-9.435860420000001,2.991960305600001,0.57582954,1.89114822,-3.69078166,,,
imu,461.173862,-0.7321390272000001,-9.5447242296,3.024260556800001,0.8449983,1.8014253,-4.08705789,,,
imu,461.182684,-0.7345316384000001,-9.5590798968,3.0302420848,0.88985976,1.82385603,-4.28893446,,,
imu,461.191507,-0.7692245008,-9.5213962704,3.02067164,0.77770611,1.89114822,-4.04219643,,,
imu,461.200329,-0.7758041816000001,-9.541733465600002,3.024260556800001,0.620691,2.2500399,-3.59358183,,,
imu,461.209151,-0.7536725280000001,-9.5590798968,3.0218679456,0.53844499,2.6986545,-3.07019813,,,
imu,461.217973,-0.7375224024000001,-9.572239258400002,3.0039233616,0.46367589,3.12483837,-2.58419898,,,
imu,459.70461,,,,,,,80.6895812,-28.1559372,114.9002848
imu,459.806203,,,,,,,80.6285452,-27.99724360000002,116.3651488
imu,459.915547,,,,,,,82.88687720000001,-28.80291880000001,112.8738896
imu,460.011281,,,,,,,80.03039240000001,-28.10710840000002,115.6327168
imu,460.11086,,,,,,,82.8014268,-29.12030600000002,113.1912768
imu,460.212422,,,,,,,79.99377080000001,-27.93620760000002,115.766996
imu,460.314015,,,,,,,80.49426600000001,-27.89958600000002,114.4486184
imu,460.415547,,,,,,,80.15246439999999,-28.09490120000002,115.3641584
imu,461.226796,-0.7195778184000001,-9.544126076800001,2.979997249600001,0.3889067899999999,3.41643786,-2.44213769,,,
imu,461.235618,-0.6926609424000001,-9.519601812000001,2.979997249600001,0.38142988,3.35662258,-2.71878336,,,
imu,461.244122,-0.6723237472000001,-9.510031367200002,2.978202791200001,0.30666078,3.18465365,-3.04029049,,,
imu,461.252626,-0.6579680800000002,-9.4974701584,2.9716231104,0.35152224,3.02763854,-3.41413599,,,
imu,461.261131,-0.6591643856000001,-9.467562518400001,2.9704268048,0.31413769,2.81080815,-3.60105874,,,
imu,461.269635,-0.6627533024,-9.4591883792,2.9716231104,0.26179932,2.55659321,-3.81041222,,,
imu,461.278139,-0.6591643856000001,-9.4621791432,2.972819416000001,0.44872207,2.4743472,-3.93751969,,,
imu,461.286643,-0.6579680800000002,-9.474142199200001,2.978202791200001,0.59078336,2.30985518,-3.92256587,,,
imu,461.295147,-0.6591643856000001,-9.48072188,2.9943529168,0.55339881,2.09302479,-3.8702275,,,
imu,461.303652,-0.6603606912000002,-9.489694172,2.999736292,0.53844499,1.94348659,-3.78050458,,,
imu,461.312156,-0.6681366776000001,-9.5004609224,3.012895653600001,0.56087572,1.80890221,-3.74312003,,,
imu,461.32066,-0.6717255944000001,-9.5004609224,3.021269792800001,0.55339881,1.53973345,-3.61601256,,,
imu,461.329164,-0.6890720256,-9.501657228000001,3.026653168000001,0.45619898,1.46496435,-3.51133582,,,
imu,461.337669,-0.7004369288000002,-9.478927421600002,3.0134938064,0.42629134,1.46496435,-3.40665908,,,
imu,461.346173,-0.7082129152000001,-9.460982837600001,3.0140919592,0.3889067899999999,1.36028761,-3.51133582,,,
imu,461.354677,-0.7159889016000002,-9.4621791432,3.017680876,0.4711528,1.39019525,-3.52628964,,,
imu,461.363181,-0.7207741240000002,-9.458590226400002,3.0302420848,0.51601426,1.36028761,-3.62348947,,,
imu,461.371686,-0.7357279440000001,-9.465169907200002,3.029045779200001,0.7403215599999999,1.42010289,-3.63844329,,,
imu,461.38019,-0.7435039304000001,-9.460982837600001,3.041606988,0.91229049,1.36028761,-3.70573548,,,
imu,461.388694,-0.7369242496000001,-9.462777296000002,3.0350273072,1.00949032,1.59954873,-3.57862801,,,
imu,461.397198,-0.741709472,-9.470553282400001,3.0272513208,1.13659779,1.68179474,-3.63844329,,,
imu,461.405702,-0.7494854584000001,-9.459786532,3.0428032936,1.2936129,1.83133294,-3.74312003,,,
imu,461.414207,-0.7369242496000001,-9.4765348104,3.036223612800001,1.4431511,2.01077878,-3.59358183,,,
imu,461.422711,-0.7375224024000001,-9.467562518400001,3.0463922104,1.45810492,2.25751681,-3.69078166,,,
imu,461.431215,-0.7470928472,-9.486703408,3.0643367944,1.49548947,2.28742445,-3.74312003,,,
imu,461.439719,-0.7375224024000001,-9.549509452,3.0607478776,1.38333582,2.27247063,-3.88518132,,,
imu,461.44816,-0.7135962904,-9.556089132800002,3.0523737384,1.2188438,2.324809,-3.98238115,,,
imu,461.456601,-0.7261574992000001,-9.506442450400002,3.051775585600001,0.94967504,2.30237827,-4.146873169999999,,,
imu,461.465041,-0.7500836112000001,-9.506442450400002,3.0320365432,0.68050628,2.30237827,-3.95995042,,,
imu,461.473482,-0.7327371800000001,-9.526181492800001,3.0278494736,0.5982602699999999,2.45191647,-3.67582784,,,
imu,461.481923,-0.7345316384000001,-9.507638756,3.023662404,0.42629134,2.70613141,-3.32441307,,,
imu,461.490363,-0.7279519576000001,-9.481918185600001,3.017082723200001,0.6132140899999999,2.98277708,-2.93561375,,,
imu,461.498768,-0.70282954,-9.4801237272,3.0111011952,0.67302937,3.20708438,-2.89075229,,,
imu,461.507209,-0.6860812616,-9.478329268800001,3.0093067368,0.7552753799999999,3.11736146,-3.03281358,,,
imu,461.515649,-0.6765108168000001,-9.4669643656,3.0111011952,0.73284465,2.9977309,-3.15992105,,,
imu,461.52409,-0.6657440664000001,-9.453206851200001,3.0164845704,0.9197674,2.93043871,-3.30945925,,,
imu,461.532531,-0.6591643856000001,-9.4412437952,3.029045779200001,1.03939796,2.81828506,-3.48890509,,,
imu,461.540971,-0.6466031768,-9.453206851200001,3.0158864176,1.23379762,2.66126995,-3.55619728,,,
imu,461.549412,-0.6328456624000001,-9.4424401008,3.010503042400001,1.42072037,2.51173175,-3.75807385,,,
imu,461.557853,-0.6346401208000001,-9.437056725600002,3.008708584,1.45062801,2.27247063,-3.81788913,,,
imu,461.566293,-0.6472013296000001,-9.440645642400002,3.0063159728,1.69736604,2.15284007,-3.77302767,,,
imu,461.574734,-0.6394253432000001,-9.471749588000002,3.0069141256,1.88428879,1.81637912,-3.91508896,,,
imu,461.583175,-0.648995788,-9.5148165896,3.0093067368,1.8917657,1.61450255,-3.93004278,,,
imu,461.591615,-0.663949608,-9.5327611736,3.0045215144,1.88428879,1.37524143,-3.81041222,,,
imu,461.600056,-0.6812960392000001,-9.536948243200001,3.002727056,1.74970441,1.2032725,-3.7206893,,,
imu,461.608497,-0.6890720256,-9.548313146400002,3.0003344448,1.56278166,1.09111885,-3.61601256,,,
imu,461.616937,-0.6998387760000001,-9.5638651192,3.0021289032,1.31604363,1.25561087,-3.496382,,,
imu,461.625378,-0.7231667352000001,-9.549509452,2.9770064856,1.22632071,1.24813396,-3.22721324,,,
imu,461.633819,-0.7225685824,-9.533359326400001,2.978800944,1.00949032,1.38271834,-3.15992105,,,
imu,461.642259,-0.7213722768,-9.529770409600001,2.9752120272,0.80761375,1.63693328,-3.10010577,,,
imu,461.650776,-0.7315408744,-9.516012895200001,2.9680341936,0.7403215599999999,1.80890221,-3.24216706,,,
imu,461.659293,-0.7213722768,-9.504647992000002,2.9602582072,0.76275229,1.99582496,-3.2720747,,,
imu,461.66781,-0.7123999848000001,-9.499862769600002,2.966239735200001,0.9646288599999999,2.16031698,-3.45899745,,,
imu,461.676327,-0.7118018320000001,-9.498666464000001,2.9752120272,1.10669015,2.30237827,-3.53376655,,,
imu,461.684844,-0.6902683312000001,-9.51062952,2.9841843192,1.10669015,2.43696265,-3.60853565,,,
imu,461.693361,-0.6800997336000001,-9.4974701584,2.9841843192,0.8749059399999999,2.31733209,-3.77302767,,,
imu,461.701878,-0.6747163584000001,-9.4938812416,2.996745528,0.8973366700000001,2.34723973,-3.82536604,,,
imu,461.710395,-0.6663422192,-9.503451686400002,3.001530750400001,1.00201341,2.41453192,-3.87770441,,,
imu,461.718912,-0.6597625384000001,-9.498666464000001,3.002727056,1.09173633,2.33228591,-3.78050458,,,
imu,461.727429,-0.6645477608,-9.5040498392,3.010503042400001,1.07678251,2.23508608,-3.7206893,,,
imu,461.735946,-0.6585662328000002,-9.5118258256,3.0164845704,1.00949032,2.19022462,-3.72816621,,,
imu,461.744463,-0.6448087184,-9.522592576000001,3.0188771816,1.15902852,2.07059406,-3.60105874,,,
imu,461.752979,-0.646005024,-9.519601812000001,3.003325208800001,0.97210577,1.8014253,-3.50385891,,,
imu,461.761496,-0.6615569968000001,-9.5154147424,3.0039233616,0.83004448,1.70422547,-3.41413599,,,
imu,461.770013,-0.6651459136000001,-9.512423978400001,3.012895653600001,0.74779847,1.53225654,-3.44404363,,,
imu,461.77853,-0.6675385248000001,-9.513022131200001,3.0099048896,0.77770611,1.50982581,-3.37675144,,,
imu,461.787047,-0.6920627896000001,-9.495077547200001,2.9973436808,0.65807555,1.33785688,-3.41413599,,,
imu,461.795564,-0.6920627896000001,-9.475936657600002,2.997941833600001,0.59078336,1.27056469,-3.48890509,,,
imu,461.804081,-0.7034276928000001,-9.479525574400002,3.0122975008,0.68798319,1.3528107,-3.59358183,,,
imu,461.812598,-0.708811068,-9.475936657600002,3.0188771816,0.6954601,1.27056469,-3.67582784,,,
imu,461.821115,-0.7201759712000001,-9.467562518400001,3.011699348,0.81509066,1.47991817,-3.71321239,,,
imu,461.829632,-0.7285501104000001,-9.4621791432,3.0063159728,0.9347212199999999,1.54721036,-3.74312003,,,
imu,461.838149,-0.7243630408,-9.468758824,3.017082723200001,1.00201341,1.70422547,-3.74312003,,,
imu,461.846666,-0.7219704296,-9.484908949600001,3.0188771816,0.9272443100000001,1.79394839,-3.90013514,,,
imu,461.855072,-0.7106055264000001,-9.5004609224,3.0140919592,1.10669015,1.91357895,-4.0197657,,,
imu,461.863479,-0.708811068,-9.4980683112,2.993754764000001,1.18893616,1.97339423,-3.90013514,,,
imu,461.871885,-0.7040258456,-9.505246144800001,3.0099048896,1.26370526,2.13040934,-3.80293531,,,
imu,461.880291,-0.7058203040000001,-9.529770409600001,3.0140919592,1.17398234,2.09302479,-3.81041222,,,
imu,461.888698,-0.7082129152000001,-9.554892827200002,3.0182790288,1.00201341,2.01825569,-3.82536604,,,
imu,461.897104,-0.6878757200000001,-9.581809703200001,3.012895653600001,1.01696723,2.1005017,-3.7954584,,,
imu,461.90551,-0.6777071224000001,-9.562070660800002,3.015288264800001,0.9048135799999999,2.10797861,-3.57862801,,,
imu,461.913916,-0.6902683312000001,-9.501657228000001,3.0003344448,0.67302937,2.19022462,-3.54124346,,,
imu,461.922323,-0.6902683312000001,-9.46576806,2.989567694400001,0.41881443,2.21265535,-3.28702852,,,
imu,461.930729,-0.6806978864000002,-9.478329268800001,2.9955492224,0.50853735,2.13788625,-3.21225942,,,
imu,461.939135,-0.6759126640000002,-9.479525574400002,2.9925584584,0.49358353,2.10797861,-3.39170526,,,
imu,461.947542,-0.6699311360000001,-9.443038253600001,2.993754764000001,0.3963837,2.12293243,-3.53376655,,,
imu,461.955948,-0.6866794144,-9.4454308648,2.9913621528,0.50853735,1.91357895,-3.78050458,,,
imu,461.964354,-0.7016332344,-9.526779645600001,3.0021289032,0.42629134,1.64441019,-4.102011709999999,,,
imu,461.972761,-0.6932590952000001,-9.6248767048,3.0368217656,0.3739529699999999,1.41262598,-4.28893446,,,
imu,461.981167,-0.6986424704000002,-9.630260080000001,3.026653168000001,0.17955331,1.39019525,-4.0945348,,,
imu,461.989573,-0.7207741240000002,-9.554294674400001,2.9949510696,-0.28401511,1.56964109,-3.73564312,,,
imu,461.99798,-0.7584577504000002,-9.5148165896,2.972819416000001,-0.5008455,1.73413311,-3.30945925,,,
imu,462.006386,-0.7560651392000002,-9.516012895200001,2.9859787776,-0.32139966,1.96591732,-2.89075229,,,
imu,462.014792,-0.7357279440000001,-9.5213962704,2.9913621528,-0.09709236,2.40705501,-2.59167589,,,
imu,462.023199,-0.7297464160000001,-9.514218436800002,2.993754764000001,0.08235347999999998,2.78090051,-2.51690679,,,
imu,462.031605,-0.7189796656000002,-9.486703408,2.993754764000001,0.25432241,2.87810034,-2.80102937,,,
imu,460.51711,,,,,,,79.84728439999999,-27.75309960000001,116.0477616
imu,460.618703,,,,,,,80.5797164,-27.83855000000002,115.5472664
imu,460.720235,,,,,,,80.189086,-27.94841480000001,114.5340688
imu,460.821889,,,,,,,80.1158428,-27.81413560000001,115.1810504
imu,460.92339,,,,,,,82.691562,-28.09490120000002,114.4119968
imu,461.024922,,,,,,,79.92052759999999,-27.26481160000001,115.6815456
imu,461.126515,,,,,,,82.77701239999999,-28.48553160000002,112.5442952
imu,461.228047,,,,,,,80.05480680000001,-27.4601268,115.339744
imu,462.040011,-0.7016332344,-9.477731116000001,2.9973436808,0.25432241,2.80333124,-3.21225942,,,
imu,462.048418,-0.6902683312000001,-9.457992073600002,3.0045215144,0.15712258,2.74351596,-3.62348947,,,
imu,462.057232,-0.6896701784000001,-9.435262267200002,3.0021289032,0.18703022,2.84071579,-3.82536604,,,
imu,462.066046,-0.6771089696000001,-9.431075197600002,3.0099048896,0.57582954,2.94539253,-3.98985806,,,
imu,462.07486,-0.6472013296000001,-9.436458572800001,3.0188771816,0.68798319,2.95286944,-4.00481188,,,
imu,462.083675,-0.6358364264000002,-9.4424401008,3.0188771816,0.65059864,2.84071579,-4.06462716,,,
imu,462.092489,-0.6220789120000001,-9.451412392800002,3.029643932,0.66555246,2.50425484,-4.079580979999999,,,
imu,462.101303,-0.6166955368000001,-9.469356976800002,3.033831001600001,0.68050628,2.22013226,-3.98985806,,,
imu,462.110118,-0.6178918424000002,-9.48072188,3.0344291544,0.53844499,2.0257326,-3.98238115,,,
imu,462.118932,-0.6292567456000001,-9.4944793944,3.026653168000001,0.4861066199999999,1.83133294,-3.71321239,,,
imu,462.127746,-0.6412198016000001,-9.505844297600001,3.0260550152,0.3889067899999999,1.39767216,-3.69078166,,,
imu,462.13656,-0.6651459136000001,-9.495077547200001,3.0398125296,0.34404533,1.12102649,-3.57862801,,,
imu,462.145375,-0.6914646368,-9.490292324800002,3.044597752,0.29918387,0.8144731799999998,-3.51133582,,,
imu,462.154189,-0.7165870544000001,-9.510031367200002,3.0392143768,0.4861066199999999,0.7546578999999998,-3.42908981,,,
imu,462.163003,-0.7219704296,-9.510031367200002,3.051775585600001,0.45619898,0.66493498,-3.36927453,,,
imu,462.171817,-0.7452983888000001,-9.492684936000002,3.0673275584,0.44872207,0.7546578999999998,-3.48142818,,,
imu,462.180632,-0.7644392784,-9.4831144912,3.062542336,0.45619898,1.13598031,-3.46647436,,,
imu,462.189446,-0.7662337368000001,-9.499862769600002,3.0739072392,0.35899915,1.41262598,-3.57862801,,,
imu,462.19826,-0.7560651392000002,-9.505246144800001,3.0721127808,0.65059864,1.78647148,-3.43656672,,,
imu,462.207075,-0.7494854584000001,-9.4831144912,3.0840758368,0.620691,2.19770153,-3.54124346,,,
imu,462.215889,-0.76264482,-9.444234559200002,3.0900573648,0.64312173,2.6986545,-3.60853565,,,
imu,462.224703,-0.7327371800000001,-9.472347740800002,3.0930481288,0.47862971,2.78837742,-3.9449966,,,
imu,462.233517,-0.6920627896000001,-9.519601812000001,3.088861059200001,0.70293701,3.02763854,-4.04219643,,,
imu,462.242332,-0.6747163584000001,-9.486105255200002,3.096038892800001,0.63564482,3.06502309,-4.25902682,,,
imu,462.251146,-0.6711274416,-9.4454308648,3.091851823200001,0.49358353,2.90800798,-4.430995749999999,,,
imu,462.259623,-0.6531828576,-9.477132963200003,3.063738641600001,0.53844499,3.01268472,-4.146873169999999,,,
imu,462.268101,-0.6328456624000001,-9.4765348104,3.0493829744,0.70293701,2.88557725,-3.90761205,,,
imu,462.276578,-0.6430142600000001,-9.443636406400001,3.047588516000001,0.8375213899999999,2.76594669,-3.60105874,,,
imu,462.285056,-0.648995788,-9.440645642400002,3.047588516000001,0.94967504,2.55659321,-3.33936689,,,
imu,462.293534,-0.6358364264000002,-9.479525574400002,3.05057928,0.9646288599999999,2.43696265,-3.21973633,,,
imu,462.302011,-0.6238733704,-9.492086783200001,3.0547663496,0.8749059399999999,2.31733209,-3.11505959,,,
imu,462.310489,-0.6513883992,-9.468758824,3.0487848216,0.83004448,2.05564024,-3.17487487,,,
imu,462.318966,-0.6621551496,-9.444832712,3.0577571136,0.7552753799999999,1.91357895,-3.2720747,,,
imu,462.327444,-0.6777071224000001,-9.4424401008,3.0493829744,0.94967504,1.79394839,-3.2720747,,,
imu,462.335921,-0.6777071224000001,-9.4454308648,3.0410088352,1.00201341,1.70422547,-3.51881273,,,
imu,462.344399,-0.6890720256,-9.439449336800001,3.036223612800001,0.94967504,1.67431783,-3.80293531,,,
imu,462.352876,-0.6926609424000001,-9.435262267200002,3.040410682400001,1.03939796,1.7266562,-3.92256587,,,
imu,462.361354,-0.6872775672000001,-9.441841948000002,3.0278494736,1.21136689,1.83133294,-3.82536604,,,
imu,462.369831,-0.6932590952000001,-9.4633754488,3.029643932,1.42072037,1.83880985,-3.93004278,,,
imu,462.378309,-0.6854831088000001,-9.481918185600001,3.029045779200001,1.5926893,2.03320951,-3.93751969,,,
imu,462.386786,-0.6956517064000001,-9.4974701584,3.0218679456,1.78708896,1.94348659,-3.74312003,,,
imu,462.395264,-0.6926609424000001,-9.5184055064,3.0302420848,1.72727368,1.89862513,-3.78798149,,,
imu,462.403741,-0.6836886504,-9.5237888816,3.030840237600001,1.5926893,1.92853277,-3.69825857,,,
imu,462.412219,-0.6890720256,-9.530368562400001,3.0254568624,1.49548947,1.94348659,-3.55619728,,,
imu,462.420696,-0.6812960392000001,-9.5423316184,3.0188771816,1.35342818,1.92853277,-3.57862801,,,
imu,462.429174,-0.6866794144,-9.5381445488,3.007512278400001,1.36090509,1.92853277,-3.50385891,,,
imu,462.437652,-0.6866794144,-9.5393408544,3.010503042400001,1.17398234,1.88367131,-3.5711511,,,
imu,462.446129,-0.6932590952000001,-9.529770409600001,3.0134938064,1.07678251,1.83880985,-3.6459202,,,
imu,462.454607,-0.6950535536000001,-9.519601812000001,3.017680876,0.9347212199999999,1.89862513,-3.63096638,,,
imu,462.46308,-0.6944554008000001,-9.519003659200001,3.0158864176,0.7552753799999999,1.91357895,-3.72816621,,,
imu,462.471554,-0.6944554008000001,-9.517807353600002,3.0278494736,0.56835263,1.89114822,-3.91508896,,,
imu,462.480028,-0.70282954,-9.519601812000001,3.030840237600001,0.53844499,1.95844041,-3.78050458,,,
imu,462.488501,-0.6974461648000001,-9.5118258256,3.0218679456,0.59078336,2.11545552,-3.78050458,,,
imu,462.496975,-0.6896701784000001,-9.502255380800001,3.0344291544,0.53844499,2.18274771,-3.83284295,,,
imu,462.505449,-0.6938572480000001,-9.481918185600001,3.0284476264,0.5010604399999999,2.20517844,-3.75059694,,,
imu,462.513923,-0.6902683312000001,-9.481918185600001,3.0302420848,0.55339881,2.25751681,-3.78798149,,,
imu,462.522396,-0.6789034280000001,-9.478329268800001,3.0218679456,0.43376825,2.1752708,-3.90013514,,,
imu,462.53087,-0.6812960392000001,-9.471151435200001,3.017680876,0.2468455,1.88367131,-3.96742733,,,
imu,462.539344,-0.6896701784000001,-9.46576806,3.0230642512,0.40386061,1.93600968,-3.90013514,,,
imu,462.547817,-0.6830904976000001,-9.477731116000001,3.038616224000001,0.64312173,1.97339423,-3.93751969,,,
imu,462.556291,-0.6872775672000001,-9.477132963200003,3.047588516000001,0.66555246,1.79394839,-3.93004278,,,
imu,462.564765,-0.6878757200000001,-9.475936657600002,3.0487848216,0.65059864,1.77899457,-3.87770441,,,
imu,462.573239,-0.6908664840000001,-9.482516338400002,3.05057928,0.60573718,1.67431783,-3.8702275,,,
imu,462.581712,-0.6944554008000001,-9.4962738528,3.063738641600001,0.58330645,1.67431783,-3.7954584,,,
imu,462.590154,-0.6926609424000001,-9.487899713600001,3.068523864000001,0.52349117,1.8014253,-3.66835093,,,
imu,462.598628,-0.6974461648000001,-9.477731116000001,3.0601497248,0.51601426,1.71170238,-3.66087402,,,
imu,462.607102,-0.6914646368,-9.488497866400001,3.0523737384,0.68798319,1.83880985,-3.62348947,,,
imu,462.615576,-0.6902683312000001,-9.493283088800002,3.0457940576,0.52349117,1.8761944,-3.58610492,,,
imu,462.624049,-0.6914646368,-9.501657228000001,3.059551572000001,0.4711528,1.79394839,-3.66835093,,,
imu,462.632523,-0.7004369288000002,-9.499264616800001,3.047588516000001,0.46367589,1.74161002,-3.72816621,,,
imu,462.640997,-0.6914646368,-9.510031367200002,3.049981127200001,0.41881443,1.70422547,-3.74312003,,,
imu,462.64947,-0.7010350816000002,-9.499862769600002,3.0523737384,0.52349117,1.65936401,-3.58610492,,,
imu,462.657944,-0.7058203040000001,-9.486105255200002,3.047588516000001,0.36647606,1.74161002,-3.70573548,,,
imu,462.666395,-0.7141944432000001,-9.465169907200002,3.0583552664,0.34404533,1.89114822,-3.69078166,,,
imu,462.674846,-0.7058203040000001,-9.454403156800002,3.061346030400001,0.36647606,1.9509635,-3.69825857,,,
imu,461.329645,,,,,,,80.15246439999999,-27.52116280000001,113.0692048
imu,461.431329,,,,,,,80.25012199999999,-27.43571240000002,114.5951048
imu,461.532678,,,,,,,80.54309479999999,-27.3990908,115.40078
imu,461.634424,,,,,,,80.55530200000001,-27.35026200000001,114.7171768
imu,461.735803,,,,,,,80.3355724,-26.9718388,114.9369064
imu,461.837366,,,,,,,80.67737399999999,-27.70427080000002,114.912492
imu,461.938928,,,,,,,80.189086,-27.22819000000001,115.156636
imu,462.040613,,,,,,,82.20327400000001,-28.47332440000001,113.0447904
imu,462.14303,,,,,,,80.49426600000001,-27.33805480000002,115.034564
imu,462.243616,,,,,,,82.65494040000002,-28.10710840000002,112.2513224
imu,462.345209,,,,,,,79.98156359999999,-27.8263428,115.217672
imu,462.446771,,,,,,,79.944942,-27.85075720000001,112.471052
imu,462.548303,,,,,,,80.3355724,-27.08170360000002,114.6195192
imu,462.649927,,,,,,,80.1646716,-27.09391080000001,115.034564
