Type,Timestamp,Data Accelerometer X,Data Accelerometer Y,Data Accelerometer Z,Data Gyroscope X,Data Gyroscope Y,Data Gyroscope Z,Data Magnetometer X,Data Magnetometer Y,Data Magnetometer Z
imu,155.529372,0.05861897440000001,-8.7108992264,4.717032980800001,1.53287402,2.97530017,-2.73373718,,,
imu,155.537831,0.03588916800000001,-8.722264129600001,4.717631133600001,1.51044329,2.61640849,-2.8982292,,,
imu,155.546289,0.0275150288,-8.750975464000001,4.7206218976,1.68241222,2.34723973,-2.95804448,,,
imu,155.554747,0.04964668240000001,-8.7760978816,4.722416356,1.80951969,2.07807097,-2.99542903,,,
imu,155.563206,0.0592171272,-8.7760978816,4.726005272800001,1.46558183,1.64441019,-3.05524431,,,
imu,155.571664,0.0101685976,-8.796435076800002,4.717032980800001,1.33847436,1.21822632,-3.07019813,,,
imu,155.580123,-0.0233279592,-8.807201827200002,4.724210814400001,1.40576655,0.98644211,-2.83093701,,,
imu,155.588581,-0.0352910152,-8.798827688000001,4.740959092800001,1.04687487,0.8518577299999999,-2.77112173,,,
imu,155.59704,-0.0783580168,-8.80779998,4.7415572456,0.57582954,0.7546578999999998,-2.77859864,,,
imu,155.605498,-0.110658268,-8.789855396000002,4.727201578400001,0.2468455,0.8219500899999996,-2.71878336,,,
imu,155.613957,-0.1112564208,-8.7563588392,4.720023744800001,-0.17186146,1.00887284,-2.60662971,,,
imu,155.622415,-0.1232194768,-8.752171769600002,4.7212200504,-0.44850713,1.38271834,-2.40475314,,,
imu,155.630874,-0.1232194768,-8.7766960344,4.7331831064,-0.36626112,1.76404075,-2.32250713,,,
imu,155.639332,-0.1082656568,-8.7970332296,4.7331831064,-0.63542988,1.86124058,-2.50942988,,,
imu,155.64779,-0.0903210728,-8.7593496032,4.7056680776,-0.5681376899999999,2.14536316,-2.53933752,,,
imu,155.656249,-0.08733030880000002,-8.691160184000001,4.698490244,-0.3513073,2.48930102,-2.58419898,,,
imu,155.664707,-0.07656355840000001,-8.722862282400001,4.7331831064,-0.54570696,2.54163939,-2.60662971,,,
imu,155.673166,-0.062806044,-8.8042110632,4.7295941896,-0.48589168,2.67622377,-2.66644499,,,
imu,155.681624,-0.0693857248,-8.7384142552,4.696695785600001,-0.60552224,2.51920866,-2.9729983,,,
imu,155.690083,-0.09211553120000002,-8.6768045168,4.736173870400001,-0.55318387,2.41453192,-3.39170526,,,
imu,155.698541,-0.08733030880000002,-8.750975464000001,4.732584953600001,-0.5307531400000001,2.44443956,-3.69825857,,,
imu,155.707,-0.0933118368,-8.762340367200002,4.706266230400001,-0.63542988,2.4743472,-3.59358183,,,
imu,155.715778,-0.08792846160000001,-8.7174789072,4.710453300000001,-0.60552224,2.58650085,-3.20478251,,,
imu,155.724557,-0.1010878232,-8.7144881432,4.692508716000001,-0.63542988,2.63883922,-2.95056757,,,
imu,155.733335,-0.1010878232,-8.7282456576,4.6937050216,-0.60552224,2.59397776,-2.94309066,,,
imu,155.742113,-0.09570444800000001,-8.733030880000001,4.689517952000001,-0.23167674,2.5491163,-2.8234601,,,
imu,155.750892,-0.110658268,-8.736619796800001,4.6949013272,-0.22419983,2.3995781,-2.87579847,,,
imu,155.75967,-0.1333880744,-8.756956992000001,4.6931068688,0.04496892999999999,2.35471664,-2.77112173,,,
imu,155.768449,-0.1339862272,-8.753966228000001,4.6877234936,0.12721494,2.51920866,-2.53933752,,,
imu,155.777227,-0.1303973104,-8.739012408,4.678751201600001,0.23189168,2.73603905,-2.29259949,,,
imu,155.786006,-0.122621324,-8.731236421600002,4.695499480000001,0.08235347999999998,3.02763854,-2.09819983,,,
imu,155.794784,-0.08493769760000001,-8.739012408,4.687125340800001,-0.11204618,3.30428421,-1.79912343,,,
imu,155.803563,-0.0526374464,-8.768920048000002,4.7110514528,-0.29896893,3.49868387,-1.70940051,,,
imu,155.812341,-0.0305057928,-8.759947756,4.7122477584,-0.5008455,3.46129932,-1.91127708,,,
imu,155.821119,-0.0257205704,-8.750975464000001,4.708060688800001,-0.92702937,3.33419185,-2.3000764,,,
imu,155.829898,-0.04246884880000001,-8.753368075200001,4.717032980800001,-0.91955246,3.31923803,-2.63653735,,,
imu,155.838676,-0.05562821040000001,-8.754564380800002,4.711649605600001,-0.92702937,3.22951511,-2.86084465,,,
imu,155.847455,-0.0634041968,-8.757555144800001,4.710453300000001,-1.04665993,3.27437657,-3.21973633,,,
imu,155.856233,-0.06101158560000001,-8.7384142552,4.721818203200001,-1.13638285,3.39400713,-3.3468438,,,
imu,155.865012,-0.04545961280000001,-8.731236421600002,4.720023744800001,-0.93450628,3.33419185,-3.41413599,,,
imu,155.87379,-0.04785222400000001,-8.760545908800001,4.7206218976,-0.9494601,3.26689966,-3.5711511,,,
imu,155.882569,-0.05203929360000001,-8.759947756,4.7277997312,-0.91207555,3.26689966,-3.45899745,,,
imu,155.891347,-0.06579680800000001,-8.754564380800002,4.742753551200001,-0.77001426,3.31176112,-3.38422835,,,
imu,155.900125,-0.06998387760000001,-8.7426013248,4.757109218400001,-0.8522602699999999,3.46877623,-3.33936689,,,
imu,155.908904,-0.06041343280000001,-8.758751450400002,4.7577073712,-0.8522602699999999,3.34914567,-3.32441307,,,
imu,155.917388,-0.0502448352,-8.761742214400002,4.761296288,-1.15881358,3.28185348,-3.28702852,,,
imu,155.925872,-0.06519865520000001,-8.7384142552,4.761296288,-1.49527453,3.23699202,-3.40665908,,,
imu,155.934356,-0.07775986400000001,-8.712095532000001,4.754716607200001,-1.68219728,3.12483837,-3.24216706,,,
imu,155.94284,-0.08433954480000001,-8.7282456576,4.7487350792,-1.67472037,3.13979219,-2.98795212,,,
imu,155.951323,-0.07118018320000001,-8.7108992264,4.737968328800001,-1.63733582,3.10988455,-2.79355246,,,
imu,155.959807,-0.05443190480000001,-8.6839823504,4.7349775648,-1.3980747,2.97530017,-2.70382954,,,
imu,155.968291,-0.0514411408,-8.673813752800001,4.7110514528,-1.21115195,2.81828506,-2.83841392,,,
imu,155.976775,-0.07656355840000001,-8.667234072000001,4.702677313600001,-0.79244499,2.68370068,-2.96552139,,,
imu,155.985259,-0.1040785872,-8.6630470024,4.709855147200001,-0.3513073,2.63883922,-2.89075229,,,
imu,155.993743,-0.122621324,-8.7007306288,4.7140422168,-0.34383039,2.54163939,-2.9729983,,,
imu,156.002227,-0.1429585192,-8.719871518400002,4.7158366752,-0.18681528,2.6986545,-2.92813684,,,
imu,156.010711,-0.1507345056,-8.722264129600001,4.730790495200001,-0.03727708,3.0725,-2.77112173,,,
imu,156.019194,-0.1579123392,-8.727049352000002,4.7140422168,0.0001074699999999984,3.34166876,-2.48699915,,,
imu,156.027678,-0.1399677552,-8.7384142552,4.715238522400001,0.05992275,3.58840679,-2.20287657,,,
imu,156.036162,-0.1070693512,-8.733629032800001,4.702677313600001,-0.2017691,3.81271409,-2.19539966,,,
imu,156.044646,-0.08852661440000001,-8.7276475048,4.691312410400001,-0.17186146,3.93234465,-2.24773803,,,
imu,156.05313,-0.08433954480000001,-8.739012408,4.6877234936,-0.13447691,3.93982156,-2.40475314,,,
imu,156.061614,-0.07895616960000001,-8.7635366728,4.697293938400001,-0.23167674,3.85757555,-2.59167589,,,
imu,156.070098,-0.0723764888,-8.7910517016,4.7020791608,-0.2765382,3.88000628,-2.78607555,,,
imu,156.078582,-0.06699311360000001,-8.792846160000002,4.7002847024,-0.38121494,3.92486774,-2.68887572,,,
imu,156.087066,-0.04007623760000001,-8.792846160000002,4.7092569944,-0.2765382,3.90991392,-2.62158353,,,
imu,156.095549,-0.03349655680000001,-8.794042465600002,4.7002847024,-0.38121494,3.76785263,-2.62158353,,,
imu,156.103969,-0.04845037680000001,-8.7982295352,4.695499480000001,-0.5307531400000001,3.6706528,-2.72626027,,,
imu,156.112453,-0.05981528000000001,-8.789855396000002,4.7038736192,-0.78496808,3.55102224,-2.87579847,,,
imu,156.120911,-0.0346928624,-8.780883104,4.7122477584,-1.04665993,3.54354533,-2.89075229,,,
imu,156.12937,-0.05981528000000001,-8.787462784800002,4.705069924800001,-1.26349032,3.50616078,-2.77112173,,,
imu,156.137828,-0.0693857248,-8.7701163536,4.713444064000001,-1.36816706,3.61831443,-2.65149117,,,
imu,156.146287,-0.0681894192,-8.761742214400002,4.706266230400001,-1.66724346,3.6706528,-2.66644499,,,
imu,156.154745,-0.0550300576,-8.7527699224,4.713444064000001,-1.86912003,3.60336061,-2.77859864,,,
imu,156.163204,-0.0430670016,-8.768321895200001,4.715238522400001,-1.74948947,3.62579134,-2.9729983,,,
imu,156.171662,-0.03588916800000001,-8.768920048000002,4.683536424000001,-1.68967419,3.73794499,-3.0477674,,,
imu,156.18012,-0.0215335008,-8.713291837600002,4.6829382712,-1.72705874,3.70056044,-3.15244414,,,
imu,156.188579,-0.0317020984,-8.700132476,4.717032980800001,-1.63733582,3.64074516,-2.96552139,,,
imu,156.197037,-0.0293094872,-8.788060937600001,4.739164634400001,-1.6971511,3.3715764,-2.98795212,,,
imu,156.205496,-0.0281131816,-8.7766960344,4.721818203200001,-1.77939711,3.22951511,-3.15244414,,,
imu,156.213954,-0.04187069600000001,-8.734825338400002,4.739164634400001,-1.62985891,3.02763854,-3.45152054,,,
imu,156.222413,-0.06519865520000001,-8.783873868,4.747538773600001,-1.62985891,2.88557725,-3.76555076,,,
imu,156.230871,-0.08374139200000001,-8.7802849512,4.7248089672,-1.66724346,2.78090051,-3.53376655,,,
imu,156.23933,-0.1028822816,-8.733030880000001,4.696695785600001,-1.77939711,2.99025399,-3.21973633,,,
imu,156.247788,-0.09690075360000001,-8.6935527952,4.692508716000001,-1.54013599,3.12483837,-3.14496723,,,
imu,156.256247,-0.06998387760000001,-8.6726174472,4.6793493544,-1.3233056,2.99025399,-3.40665908,,,
imu,156.264705,-0.0855358504,-8.676206364,4.697293938400001,-0.9943215599999999,2.91548489,-3.70573548,,,
imu,156.273163,-0.131593616,-8.7043195456,4.705069924800001,-0.60552224,2.69117759,-3.97490424,,,
imu,156.281622,-0.1579123392,-8.687571267200001,4.7122477584,-0.50832241,2.81080815,-3.85527368,,,
imu,156.29008,-0.173464312,-8.7114973792,4.733781259200001,-0.44103022,3.15474601,-3.51881273,,,
imu,156.298539,-0.1620994088,-8.720469671200002,4.743351704,-0.69524516,3.43886859,-3.17487487,,,
imu,156.306997,-0.1333880744,-8.698338017600001,4.74036094,-0.97189083,3.65569898,-2.87579847,,,
imu,156.315456,-0.092713684,-8.6756082112,4.7331831064,-1.19619813,3.83514482,-2.78607555,,,
imu,156.323928,-0.05443190480000001,-8.677402669600001,4.745744315200001,-1.07656757,3.77532954,-2.68887572,,,
imu,156.332401,-0.004187069600000001,-8.6797952808,4.749333232000001,-1.09152139,3.77532954,-2.73373718,,,
imu,156.340873,0.0251224176,-8.652878404800001,4.7295941896,-0.88964482,3.39400713,-2.80102937,,,
imu,156.349346,0.03648732080000001,-8.637924584800002,4.737370176000001,-0.7251528,2.97530017,-2.9729983,,,
imu,156.357818,0.0346928624,-8.619381848000002,4.7559129128,-0.2765382,2.57154703,-3.07019813,,,
imu,156.36629,0.011963056,-8.660654391200001,4.773259344,0.0001074699999999984,2.10797861,-3.06272122,,,
imu,156.374763,-0.020935348,-8.6797952808,4.784026094400001,0.11226112,1.62197946,-3.08515195,,,
imu,156.383235,-0.0442633072,-8.6899638784,4.789409469600001,0.35152224,1.14345722,-3.10758268,,,
imu,156.391708,-0.0562263632,-8.712693684800001,4.807354053600001,0.56835263,1.00887284,-2.98795212,,,
imu,156.40018,-0.09211553120000002,-8.702525087200002,4.798381761600001,0.44872207,0.8518577299999999,-2.748691,,,
imu,156.408653,-0.09869521200000002,-8.672019294400002,4.808550359200001,0.47862971,0.8369039099999998,-2.60662971,,,
imu,156.417125,-0.1178361016,-8.712095532000001,4.8318783184,0.42629134,0.8294269999999999,-2.3748455,,,
imu,156.425598,-0.1471455888,-8.7485828528,4.8408506104,0.15712258,0.92662683,-2.36736859,,,
imu,156.43407,-0.1429585192,-8.768321895200001,4.8647767224,-0.01484635000000001,1.19579559,-2.58419898,,,
imu,156.442542,-0.1303973104,-8.7593496032,4.860589652800001,-0.30644584,1.36776452,-2.47952224,,,
imu,156.451015,-0.1190324072,-8.7174789072,4.828289401600001,-0.54570696,1.53973345,-2.57672207,,,
imu,156.459487,-0.1321917688,-8.6869731144,4.804961442400001,-0.39616876,1.75656384,-2.58419898,,,
imu,156.46796,-0.1214250184,-8.676206364,4.777446413600001,-0.3513073,1.86124058,-2.5991528,,,
imu,156.476432,-0.125612088,-8.653476557600001,4.7606981352,-0.05970781,1.99582496,-2.73373718,,,
imu,156.484905,-0.11963056,-8.643307960000001,4.7415572456,0.25432241,2.13040934,-2.98795212,,,
imu,156.493377,-0.1262102408,-8.663645155200001,4.726005272800001,0.6132140899999999,2.08554788,-3.26459779,,,
imu,156.50185,-0.1513326584,-8.6869731144,4.715238522400001,0.82256757,2.19770153,-3.45152054,,,
imu,156.510322,-0.1597067976,-8.691160184000001,4.702677313600001,1.15155161,2.27247063,-3.43656672,,,
imu,156.518794,-0.1908107432,-8.694749100800001,4.688919799200001,1.46558183,2.27247063,-3.42908981,,,
imu,156.527247,-0.1740624648,-8.701328781600001,4.676956743200001,1.57773548,2.28742445,-3.28702852,,,
imu,156.535699,-0.176455076,-8.724656740800002,4.668582604000001,1.62259694,2.44443956,-3.09262886,,,
imu,156.544151,-0.200381188,-8.752171769600002,4.6781530488,1.62259694,2.69117759,-2.86084465,,,
imu,156.552603,-0.1722680064,-8.741405019200002,4.671573368000001,1.52539711,2.76594669,-2.70382954,,,
imu,156.561055,-0.1591086448,-8.734825338400002,4.6691807568,1.37585891,2.78090051,-2.68887572,,,
imu,156.569507,-0.1985867296,-8.7671255896,4.656619548000001,1.30108981,2.79585433,-2.78607555,,,
imu,156.577959,-0.2057645632,-8.764732978400001,4.644058339200001,1.49548947,2.93043871,-2.78607555,,,
imu,156.586411,-0.2177276192,-8.7527699224,4.638674964000001,1.4431511,3.17717674,-2.72626027,,,
imu,156.594863,-0.2207183832,-8.786266479200002,4.637478658400001,1.57773548,3.45382241,-2.64401426,,,
imu,156.603315,-0.221316536,-8.810790744000002,4.651236172800001,1.77961205,3.73046808,-2.68139881,,,
imu,156.611767,-0.2057645632,-8.8155759664,4.636880505600001,1.76465823,4.05945212,-2.68139881,,,
imu,156.62022,-0.1776513816,-8.816772272000001,4.633291588800001,1.6674584,4.32114397,-2.65149117,,,
imu,156.628672,-0.1501363528,-8.810790744000002,4.637478658400001,1.58521239,4.61274346,-2.73373718,,,
imu,156.637124,-0.1393696024,-8.821557494400002,4.642263880800001,1.6674584,4.72489711,-2.77112173,,,
imu,155.596434,,,,,,,-96.3758548,168.2823252,120.0273088
imu,155.698576,,,,,,,-96.76648519999999,168.1114244,120.0273088
imu,155.807402,,,,,,,-96.6199988,168.270118,118.9286608
imu,155.901183,,,,,,,-96.8641428,168.3555684,120.0028944
imu,156.645576,-0.1172379488,-8.824548258400002,4.6452546448,1.27118217,4.79966621,-2.75616791,,,
imu,156.654028,-0.0747691,-8.824548258400002,4.642862033600001,0.82256757,4.82209694,-2.90570611,,,
imu,156.66248,-0.0562263632,-8.807201827200002,4.635684200000001,0.3216146,4.7921893,-3.03281358,,,
imu,156.670932,-0.03947808480000001,-8.8012202992,4.644058339200001,0.31413769,4.717420199999999,-2.99542903,,,
imu,156.679384,-0.0215335008,-8.829931633600001,4.671573368000001,0.41133752,4.47068217,-3.21225942,,,
imu,156.687836,-0.017944584,-8.850866981600001,4.6518343256,0.13469185,4.18655959,-3.55619728,,,
imu,156.696288,-0.0197390424,-8.786864632,4.644656492,0.13469185,4.05197521,-3.60105874,,,
imu,156.704741,-0.0370854736,-8.7701163536,4.6691807568,-0.06718472,4.02206757,-3.29450543,,,
imu,156.713193,-0.0352910152,-8.8185667304,4.689517952000001,-0.25410747,3.91739083,-3.01785976,,,
imu,156.721645,-0.0352910152,-8.8329223976,4.6727696736,-0.66533752,3.64822207,-3.13749032,,,
imu,156.730464,-0.03349655680000001,-8.807201827200002,4.661404770400001,-0.74758353,3.2220382,-3.72816621,,,
imu,156.739284,-0.05981528000000001,-8.819164883200001,4.674564132,-0.70272207,2.7734236,-4.04967334,,,
imu,156.748103,-0.092713684,-8.831726092,4.636282352800001,-0.5681376899999999,2.63883922,-4.00481188,,,
imu,156.756923,-0.1220231712,-8.7982295352,4.612356240800001,-0.33635348,2.79585433,-3.59358183,,,
imu,156.765743,-0.1232194768,-8.7342271856,4.578859684,-0.0522309,2.74351596,-3.38422835,,,
imu,156.774562,-0.1262102408,-8.7007306288,4.557326183200001,0.16459949,2.51920866,-3.50385891,,,
imu,156.783382,-0.1399677552,-8.718675212800001,4.561513252800001,0.4861066199999999,2.29490136,-3.81041222,,,
imu,156.792201,-0.1597067976,-8.756956992000001,4.578859684,0.79265993,2.06311715,-3.84779677,,,
imu,156.801021,-0.191408896,-8.789855396000002,4.5980005736,0.8823828499999999,2.23508608,-3.58610492,,,
imu,156.809841,-0.2021756464,-8.806005521600001,4.6105617824,0.70293701,2.27994754,-3.28702852,,,
imu,156.81866,-0.2081571744,-8.808996285600001,4.619534074400001,0.25432241,2.39210119,-2.91318302,,,
imu,156.82748,-0.2099516328,-8.8293334808,4.6243192968,0.05244583999999999,2.57154703,-2.3748455,,,
imu,156.836299,-0.2045682576000001,-8.8484743704,4.633889741600001,-0.40364567,2.89305416,-2.17296893,,,
imu,156.845119,-0.20935348,-8.8430909952,4.6255156024,-0.89712173,2.9229618,-2.09072292,,,
imu,156.853938,-0.2051664104,-8.831127939200002,4.635684200000001,-1.12890594,3.02763854,-2.02343073,,,
imu,156.862758,-0.203371952,-8.847278064800001,4.647049103200001,-1.56256672,3.25194584,-2.12063056,,,
imu,156.871578,-0.2057645632,-8.8430909952,4.638674964000001,-1.76444329,3.58840679,-2.13558438,,,
imu,156.880397,-0.2021756464,-8.819164883200001,4.647647256000001,-1.9214584,3.69308353,-2.25521494,,,
imu,156.889217,-0.1776513816,-8.816174119200001,4.6572177008,-1.98875059,3.91739083,-2.24773803,,,
imu,156.898036,-0.1501363528,-8.8179685776,4.675162284800001,-1.89155076,4.15665195,-2.42718387,,,
imu,156.906856,-0.125612088,-8.807201827200002,4.6727696736,-1.83173548,4.31366706,-2.5991528,,,
imu,156.915676,-0.1010878232,-8.792248007200001,4.682340118400001,-1.79435093,4.32862088,-2.76364482,,,
imu,156.924495,-0.07058203040000001,-8.781481256800001,4.677554896000001,-1.61490509,4.35852852,-2.79355246,,,
imu,156.932969,-0.05203929360000001,-8.754564380800002,4.689517952000001,-1.81678166,4.23142105,-2.87579847,,,
imu,156.941443,-0.0514411408,-8.7760978816,4.728996036800001,-1.89155076,4.05945212,-2.98795212,,,
imu,156.949916,-0.04187069600000001,-8.829931633600001,4.736173870400001,-2.10838115,3.68560662,-3.06272122,,,
imu,156.95839,-0.0514411408,-8.826342716800001,4.739762787200001,-2.35511918,3.36409949,-3.09262886,,,
imu,156.966864,-0.05981528000000001,-8.7832757152,4.734379412,-2.58690339,3.18465365,-3.17487487,,,
imu,156.975337,-0.0903210728,-8.729441963200001,4.727201578400001,-2.97570271,3.08745382,-3.09262886,,,
imu,156.983811,-0.08972292000000001,-8.715684448800001,4.721818203200001,-3.117764,2.9977309,-2.748691,,,
imu,156.992285,-0.0855358504,-8.716880754400002,4.714640369600001,-2.8934567,2.89305416,-2.43466078,,,
imu,157.000759,-0.08433954480000001,-8.672019294400002,4.6781530488,-2.54951884,2.66126995,-2.36736859,,,
imu,157.009232,-0.09091922560000001,-8.619980000800002,4.670377062400001,-2.30278081,2.48182411,-2.53186061,,,
imu,157.017706,-0.1178361016,-8.613400320000002,4.6727696736,-1.74201256,2.30985518,-2.57672207,,,
imu,157.02618,-0.1429585192,-8.642709807200001,4.6919105632,-1.3980747,2.37714737,-2.56176825,,,
imu,157.034653,-0.1363788384,-8.663645155200001,4.689517952000001,-0.77749117,2.36219355,-2.35241477,,,
imu,157.043127,-0.1387714496,-8.660654391200001,4.6901161048,-0.46346095,2.3995781,-2.19539966,,,
imu,157.051601,-0.173464312,-8.676206364,4.691312410400001,-0.43355331,2.53416248,-2.18044584,,,
imu,157.060075,-0.1597067976,-8.691758336800001,4.697293938400001,-0.11204618,2.71360832,-2.21783039,,,
imu,157.068548,-0.1662864784,-8.710301073600002,4.692508716000001,-0.01484635000000001,2.8481927,-2.21783039,,,
imu,157.077022,-0.1507345056,-8.712095532000001,4.688919799200001,-0.23915365,2.93043871,-2.44213769,,,
imu,157.085496,-0.1441548248,-8.7144881432,4.696097632800001,-0.11204618,3.11736146,-2.63653735,,,
imu,157.093969,-0.1429585192,-8.741405019200002,4.704471772000001,0.007584380000000002,3.24446893,-2.65149117,,,
imu,157.102443,-0.1208268656,-8.745592088800002,4.6949013272,0.01506129,3.38653022,-2.65149117,,,
imu,157.110917,-0.1124527264,-8.7557606864,4.696097632800001,-0.007369440000000005,3.30428421,-2.8982292,,,
imu,157.119391,-0.1058730456,-8.768321895200001,4.700882855200001,-0.20924601,3.34166876,-3.10758268,,,
imu,157.127864,-0.09630260080000001,-8.770714506400001,4.697892091200001,-0.14195382,3.32671494,-3.13749032,,,
imu,157.13633,-0.08194693360000001,-8.784472020800001,4.704471772000001,0.0001074699999999984,3.34166876,-2.9729983,,,
imu,157.144796,-0.07955432240000002,-8.796435076800002,4.698490244,0.19450713,3.26689966,-3.01038285,,,
imu,157.153262,-0.080750628,-8.7910517016,4.692508716000001,-0.11204618,3.11736146,-3.24216706,,,
imu,157.161729,-0.08733030880000002,-8.765929284,4.682340118400001,-0.17186146,2.95286944,-3.3468438,,,
imu,157.170195,-0.110658268,-8.759947756,4.679947507200001,-0.08961545,2.84071579,-3.25712088,,,
imu,157.178661,-0.1184342544,-8.7318345744,4.6763585904,-0.26158438,2.65379304,-3.30945925,,,
imu,157.187127,-0.1244157824,-8.715086296,4.664993687200001,-0.08961545,2.56407012,-3.1973056,,,
imu,157.195527,-0.13458438,-8.71807706,4.675760437600001,-0.14195382,2.57154703,-3.23469015,,,
imu,157.203993,-0.13458438,-8.743797630400001,4.6919105632,-0.04475399000000001,2.59397776,-3.08515195,,,
imu,157.21246,-0.1292010048,-8.7802849512,4.7056680776,-0.02232326000000001,2.28742445,-3.11505959,,,
imu,157.220926,-0.1202287128,-8.774303423200001,4.679947507200001,0.03001510999999998,2.36219355,-3.31693616,,,
imu,157.229392,-0.1214250184,-8.737217949600002,4.6883216464,-0.07466163,2.27247063,-3.10758268,,,
imu,157.237858,-0.1214250184,-8.765929284,4.6996865496,-0.14195382,2.34723973,-2.79355246,,,
imu,157.246324,-0.1238176296,-8.7910517016,4.6996865496,-0.02980017,2.23508608,-2.70382954,,,
imu,157.25479,-0.1184342544,-8.7426013248,4.6883216464,-0.20924601,1.95844041,-2.95056757,,,
imu,157.263256,-0.1297991576,-8.733030880000001,4.697892091200001,-0.05970781,1.59954873,-3.46647436,,,
imu,157.271722,-0.1710717008,-8.7497791584,4.6919105632,0.03749201999999999,1.52477963,-3.75807385,,,
imu,157.280188,-0.2231109944,-8.750975464000001,4.6608066176,0.10478421,1.62197946,-3.53376655,,,
imu,157.288654,-0.2446444952,-8.707310309600002,4.6279082136,0.44872207,1.8761944,-3.1225365,,,
imu,157.29712,-0.2338777448,-8.670224836000001,4.587831976,0.81509066,2.12293243,-2.90570611,,,
imu,157.305586,-0.23926112,-8.670822988800001,4.580055989600001,1.06182869,2.16031698,-3.09262886,,,
imu,157.314053,-0.2404574256,-8.689365725600002,4.580654142400001,1.58521239,2.24256299,-3.29450543,,,
imu,157.322519,-0.2261017584,-8.743797630400001,4.586635670400001,2.01139626,2.37714737,-3.21225942,,,
imu,157.330985,-0.2207183832,-8.762340367200002,4.5896264344,2.28804193,2.58650085,-3.14496723,,,
imu,157.339448,-0.2165313136,-8.764134825600001,4.599196879200001,2.44505704,2.6986545,-2.95804448,,,
imu,157.347912,-0.1902125904,-8.7695182008,4.599196879200001,2.65441052,2.95286944,-2.61410662,,,
imu,157.356375,-0.188418132,-8.812585202400001,4.601589490400001,2.81890254,3.07997691,-2.31503022,,,
imu,157.364839,-0.1698753952,-8.823351952800001,4.5914208928,2.75161035,3.24446893,-2.2253073,,,
imu,157.373302,-0.1638938672,-8.821557494400002,4.598598726400001,2.29551884,3.3715764,-2.41223005,,,
imu,157.381766,-0.1632957144,-8.837707620000002,4.605776560000001,2.116073,3.43139168,-2.45709151,,,
imu,157.39023,-0.1429585192,-8.861035579200001,4.608169171200001,1.95905789,3.33419185,-2.47204533,,,
imu,157.398693,-0.1250139352,-8.8550540512,4.612954393600001,1.90671952,3.45382241,-2.44213769,,,
imu,157.407157,-0.13458438,-8.836511314400001,4.603982101600001,1.53287402,3.36409949,-2.50942988,,,
imu,157.41562,-0.131593616,-8.830529786400001,4.6135525464,1.25622835,3.23699202,-2.71130645,,,
imu,157.424084,-0.1154434904,-8.826342716800001,4.5926171984,1.2936129,3.23699202,-2.71130645,,,
imu,157.432547,-0.08433954480000001,-8.80779998,4.5854393648,1.15902852,3.19213056,-2.68887572,,,
imu,157.441011,-0.08194693360000001,-8.781481256800001,4.600393184800001,1.18145925,3.05754618,-2.66644499,,,
imu,157.449474,-0.08792846160000001,-8.789855396000002,4.5860375176,1.368382,2.96034635,-2.58419898,,,
imu,157.457938,-0.08733030880000002,-8.7832757152,4.599196879200001,1.49548947,2.7734236,-2.50942988,,,
imu,156.002668,,,,,,,-95.2527924,168.1968748,119.3559128
imu,156.1042,,,,,,,-96.47351239999999,167.964938,119.734336
imu,156.205762,,,,,,,-93.8977932,167.8062444,116.8900584
imu,156.307356,,,,,,,-96.4002692,168.636334,120.6132544
imu,156.408918,,,,,,,-94.67905400000001,167.7574156,117.6713192
imu,156.51045,,,,,,,-96.0340532,168.2212892,120.7597408
imu,156.612135,,,,,,,-95.88756680000002,168.0625956,120.6864976
imu,156.713544,,,,,,,-96.11950360000002,168.148046,120.3569032
imu,157.466401,-0.08015247520000002,-8.770714506400001,4.607571018400001,1.42072037,2.63883922,-2.77859864,,,
imu,157.474865,-0.09510629520000001,-8.777892340000001,4.607571018400001,1.54782784,2.46687029,-2.98795212,,,
imu,157.483328,-0.09510629520000001,-8.8042110632,4.612954393600001,1.49548947,2.21265535,-3.31693616,,,
imu,157.491792,-0.107667504,-8.805407368800001,4.6033839488,1.41324346,1.95844041,-3.67582784,,,
imu,157.500256,-0.116639796,-8.780883104,4.612954393600001,1.4431511,1.8014253,-3.74312003,,,
imu,157.508719,-0.1178361016,-8.767723742400001,4.5836449064,1.56278166,1.83880985,-3.73564312,,,
imu,157.517183,-0.1178361016,-8.756956992000001,4.5776633784,1.54782784,1.95844041,-3.61601256,,,
imu,157.525646,-0.09989151760000002,-8.7563588392,4.576467072800001,1.83942733,1.86871749,-3.45899745,,,
imu,157.53411,-0.080750628,-8.724058588,4.562111405600001,1.85438115,1.64441019,-3.35432071,,,
imu,157.542575,-0.05981528000000001,-8.722862282400001,4.541774210400001,2.1908421,1.33037997,-3.45152054,,,
imu,157.551039,-0.068787572,-8.746788394400001,4.5507465024,2.61702597,0.94905756,-3.48890509,,,
imu,157.559504,-0.06998387760000001,-8.753368075200001,4.539979752000001,2.81890254,0.66493498,-3.45152054,,,
imu,157.567969,-0.08733030880000002,-8.7551625336,4.526222237600001,3.17031731,0.3284740299999998,-3.15992105,,,
imu,157.576434,-0.1034804344,-8.770714506400001,4.5118665704,3.43200916,0.04435144999999974,-2.9729983,,,
imu,157.584899,-0.1148453376,-8.788060937600001,4.499903514400001,3.82080848,-0.06780220000000003,-2.95056757,,,
imu,157.593363,-0.113649032,-8.76293852,4.489136764,3.947915950000001,-0.1650020300000001,-2.91318302,,,
imu,157.601828,-0.1190324072,-8.8155759664,4.5028942784,4.16474634,-0.3668786000000002,-3.11505959,,,
imu,157.610293,-0.1190324072,-8.847876217600001,4.498707208800001,4.35166909,-0.5238937100000003,-3.28702852,,,
imu,157.618758,-0.1399677552,-8.8502688288,4.4885386112,4.47877656,-0.8454008399999999,-3.47395127,,,
imu,157.627223,-0.131593616,-8.845483606400002,4.475977402400001,4.42643819,-1.01736977,-3.6459202,,,
imu,157.635687,-0.152528964,-8.862231884800002,4.4747810968,4.44886892,-1.144477240000001,-3.84031986,,,
imu,157.644152,-0.158510492,-8.8604374264,4.450256832000001,4.44886892,-1.286538530000001,-3.88518132,,,
imu,157.652617,-0.1830347568,-8.8628300376,4.444275304,4.53111493,-1.34635381,-3.84031986,,,
imu,157.661082,-0.1920070488,-8.881970927200001,4.424536261600001,4.52363802,-1.45103055,-3.93004278,,,
imu,157.669547,-0.203371952,-8.887354302400002,4.4071898304,4.62831476,-1.50336892,-3.92256587,,,
imu,157.678012,-0.242251884,-8.903504428000002,4.398217538400001,4.76289914,-1.5631842,-3.78050458,,,
imu,157.686476,-0.2637853848,-8.902906275200001,4.366515440000001,4.964775710000001,-1.34635381,-3.73564312,,,
imu,157.694941,-0.2835244272,-8.904102580800002,4.370104356800001,5.09188318,-1.17438488,-3.60853565,,,
imu,157.703406,-0.2984782472,-8.914869331200002,4.349767161600001,5.14422155,-1.00241595,-3.63096638,,,
imu,157.711871,-0.3194135952000001,-8.920850859200002,4.3449819392,5.24142138,-0.8977392100000001,-3.4216129,,,
imu,157.720336,-0.3373581792000001,-8.9322157624,4.339598564,5.09188318,-0.5238937100000003,-3.48890509,,,
imu,157.7288,-0.3553027632,-8.940589901600001,4.3192613688,4.89000661,-0.2173404000000003,-3.36927453,,,
imu,157.737265,-0.3570972216000001,-8.973488305600002,4.3330188832,4.822714420000001,-0.02294074000000013,-3.25712088,,,
imu,157.746082,-0.3505175408000001,-8.996816264800001,4.334215188800001,4.5834533,0.2387511099999999,-3.20478251,,,
imu,157.754899,-0.3660695136000001,-9.030910974400001,4.3282336608,4.41896128,0.5153967799999997,-3.29450543,,,
imu,157.763716,-0.3852104032000001,-9.023134988,4.315074299200001,4.02268505,0.8593346399999997,-3.28702852,,,
imu,157.772533,-0.3559009160000001,-9.032705432800002,4.328831813600001,3.55163972,1.16588795,-3.18982869,,,
imu,157.78135,-0.367863972,-9.068594600800001,4.318065063200001,3.12545585,1.45748744,-3.17487487,,,
imu,157.790167,-0.3846122504,-9.0087793208,4.257651630400001,2.74413344,1.71170238,-3.30198234,,,
imu,157.798984,-0.3792288752000001,-8.930421304000001,4.2636331584,2.32542648,1.8014253,-3.5711511,,,
imu,157.807801,-0.3935845424,-8.9746846112,4.273801756000001,2.29551884,1.99582496,-3.73564312,,,
imu,157.816618,-0.4145198904,-9.0189479184,4.245688574400001,2.22074974,2.35471664,-3.72816621,,,
imu,157.825435,-0.4151180432000001,-8.985451361600001,4.234921824000001,2.13850373,2.63883922,-3.53376655,,,
imu,157.834251,-0.3852104032000001,-8.9818624448,4.2187716984,1.9665348,2.96782326,-3.30945925,,,
imu,157.843068,-0.3714528888,-8.965712319200001,4.207406795200001,1.85438115,3.24446893,-3.32441307,,,
imu,157.851885,-0.3547046104000001,-8.981264292,4.212192017600001,1.63007385,3.31176112,-3.32441307,,,
imu,157.860702,-0.3397507904000001,-8.9980125704,4.2223606152,1.6674584,3.43139168,-3.13749032,,,
imu,157.869519,-0.3301803456000001,-9.023134988,4.2187716984,1.74970441,3.45382241,-3.0477674,,,
imu,157.878336,-0.3385544848000001,-9.0267239048,4.225949532,1.71979677,3.27437657,-3.00290594,,,
imu,157.887153,-0.34393786,-9.019546071200002,4.2235569208,1.60764312,3.23699202,-2.86084465,,,
imu,157.89597,-0.3517138464,-9.021938682400002,4.227145837600001,1.30856672,3.3715764,-2.62906044,,,
imu,157.904787,-0.3541064576,-9.030910974400001,4.233725518400001,0.79265993,3.47625314,-2.51690679,,,
imu,157.913604,-0.3606861384,-9.0506500168,4.239108893600001,0.56835263,3.55849915,-2.23278421,,,
imu,157.922421,-0.3517138464,-9.0542389336,4.246286727200001,0.05244583999999999,3.64822207,-2.2253073,,,
imu,157.931238,-0.340947096,-9.050051864,4.2654276168,-0.47841477,3.7454219,-2.35989168,,,
imu,157.940055,-0.3481249296000001,-9.0638093784,4.261240547200001,-0.94198319,3.80523718,-2.35241477,,,
imu,157.948531,-0.3367600264,-9.0542389336,4.2702128392,-1.38312088,3.99963684,-2.56176825,,,
imu,157.957007,-0.3355637208,-9.0159571544,4.270810992,-1.82425857,4.06692903,-2.5991528,,,
imu,157.965483,-0.3343674152,-9.006984862400001,4.270810992,-2.19062716,4.16412886,-2.71130645,,,
imu,157.97396,-0.3433397072,-9.003994098400002,4.2690165336,-2.2205348,4.36600543,-2.62906044,,,
imu,157.982436,-0.3301803456000001,-8.969301236000002,4.2755962144,-2.40745755,4.694989469999999,-2.56924516,,,
imu,157.990912,-0.3236006648,-8.968703083200001,4.2779888256,-2.34764227,4.88191222,-2.59167589,,,
imu,157.999388,-0.311039456,-8.969301236000002,4.2845685064,-2.31773463,4.95668132,-2.56924516,,,
imu,158.007865,-0.2966837888,-8.9531511104,4.2935407984,-2.46727283,5.10621952,-2.75616791,,,
imu,158.016341,-0.2966837888,-8.948365888000001,4.315672452000001,-2.49718047,5.21837317,-2.93561375,,,
imu,158.024817,-0.2984782472,-8.978871680800001,4.331822577600001,-2.49718047,5.25575772,-3.01785976,,,
imu,158.033293,-0.2942911776,-8.978871680800001,4.349767161600001,-2.6691494,5.24828081,-3.10010577,,,
imu,158.04177,-0.2799355104,-8.965114166400001,4.3521597728,-3.01308726,5.22585008,-3.15244414,,,
imu,158.050246,-0.2930948720000001,-8.965114166400001,4.354552384000001,-3.21496383,5.34548064,-2.95804448,,,
imu,158.058722,-0.2895059552,-8.935804679200002,4.3521597728,-3.618716969999999,5.40529592,-2.65896808,,,
imu,158.067198,-0.2679724544000001,-8.887354302400002,4.3312244248,-3.67853225,5.30061918,-2.36736859,,,
imu,158.075675,-0.23926112,-8.871802329600001,4.320457674400001,-3.58133242,5.03892733,-2.30755331,,,
imu,158.084151,-0.2350740504,-8.851465134400001,4.3108872296,-3.65610152,4.85948149,-2.30755331,,,
imu,158.092627,-0.233279592,-8.8119870496,4.2911481872,-3.27477911,4.739850929999999,-2.18044584,,,
imu,158.101103,-0.242251884,-8.816174119200001,4.303709396,-2.81121069,4.56040509,-2.05333837,,,
imu,158.10958,-0.2619909264,-8.8418946896,4.3138779936,-2.38502682,4.433297619999999,-1.99352309,,,
imu,158.118056,-0.2781410520000001,-8.843689148000001,4.325242896800001,-1.90650458,4.4931129,-1.79912343,,,
imu,158.126532,-0.2865151912,-8.862231884800002,4.3419911752,-1.40555161,4.523020539999999,-1.81407725,,,
imu,158.135008,-0.290104108,-8.881970927200001,4.3587394536,-1.12142903,4.62022037,-1.80660034,,,
imu,158.143485,-0.2942911776,-8.886756149600002,4.362926523200001,-1.27844414,4.65012801,-1.73930815,,,
imu,158.151971,-0.3080486920000001,-8.886756149600002,4.3653191344,-1.12890594,4.85200458,-1.68696978,,,
imu,158.160458,-0.2913004136,-8.889148760800001,4.361730217600001,-1.08404448,4.94920441,-1.82155416,,,
imu,158.168944,-0.2805336632,-8.868811565600002,4.3587394536,-1.15881358,4.9417275,-1.97856927,,,
imu,158.17743,-0.272159524,-8.883167232800002,4.3766840376,-1.26349032,5.068834969999999,-2.10567674,,,
imu,158.185917,-0.2679724544000001,-8.902906275200001,4.370702509600001,-1.21115195,5.12117334,-2.24773803,,,
imu,158.194403,-0.2476352592,-8.895728441600001,4.368908051200001,-1.22610577,5.19594244,-2.34493786,,,
imu,158.20289,-0.2195220776,-8.899317358400001,4.366515440000001,-0.9793677399999999,5.330526819999999,-2.34493786,,,
imu,158.211376,-0.1961941184,-8.915467484,4.371898815200001,-0.874691,5.27071154,-2.11315365,,,
imu,158.219863,-0.1896144376,-8.911878567200002,4.360533912,-0.9644139199999999,5.315573,-2.20287657,,,
imu,158.228349,-0.1842310624,-8.906495192000001,4.350963467200001,-0.8672140899999999,5.21089626,-2.24026112,,,
imu,158.236835,-0.1728661592,-8.909485956000001,4.3467763976,-0.53823005,5.08378879,-2.20287657,,,
imu,158.245322,-0.1776513816,-8.917261942400001,4.344383786400001,-0.52327623,4.90434295,-2.3000764,,,
imu,158.253808,-0.1788476872,-8.917261942400001,4.340794869600001,-0.5307531400000001,4.739850929999999,-2.43466078,,,
imu,158.262295,-0.161501256,-8.918458248000002,4.339000411200001,-0.44850713,4.70246638,-2.57672207,,,
imu,158.270781,-0.1698753952,-8.9190564008,4.3378041056,-0.3513073,4.63517419,-2.56924516,,,
imu,158.279268,-0.1788476872,-8.9429825128,4.3401967168,-0.5008455,4.38095925,-2.73373718,,,
imu,156.815137,,,,,,,-96.26599,168.0748028,120.3691104
imu,156.9167,,,,,,,-95.89977400000001,168.4654332,120.2714528
imu,157.018324,,,,,,,-95.8753596,168.6485412,120.344696
imu,157.119825,,,,,,,-93.8123428,167.5010644,119.0873544
imu,157.221387,,,,,,,-96.35144040000002,167.4522356,120.7963624
imu,157.322981,,,,,,,-93.3728836,167.3667852,117.8544272
imu,157.424543,,,,,,,-95.9241884,167.598722,121.077128
imu,157.526106,,,,,,,-96.2904044,167.3423708,118.2816792
imu,158.287754,-0.1818384512,-8.9878439728,4.368908051200001,-0.47841477,4.23142105,-2.75616791,,,
imu,158.29624,-0.1866236736,-8.990236584000002,4.370104356800001,-0.71019898,4.03702139,-2.8234601,,,
imu,158.304726,-0.2039701048,-8.9639178608,4.356944995200001,-1.06909066,3.87252937,-2.72626027,,,
imu,158.313213,-0.206362716,-8.978871680800001,4.3748895792,-1.30835178,3.90243701,-2.44213769,,,
imu,158.321699,-0.1932033544,-9.015359001600002,4.384460024000001,-1.57004363,3.84262173,-2.49447606,,,
imu,158.330186,-0.2099516328,-8.9435806656,4.3324207304,-1.86912003,3.60336061,-2.66644499,,,
imu,158.338672,-0.2261017584,-8.8502688288,4.320457674400001,-1.98875059,3.49868387,-2.86084465,,,
imu,158.347159,-0.2590001624000001,-8.8981210528,4.341393022400001,-1.89902767,3.43886859,-2.9729983,,,
imu,158.355648,-0.2847207328,-8.934608373600001,4.3240465912,-1.72705874,3.49120696,-2.8982292,,,
imu,158.364137,-0.3092449976000001,-8.889746913600002,4.298924173600001,-1.44293616,3.67812971,-2.62906044,,,
imu,158.372625,-0.2924967192,-8.86761526,4.297129715200001,-1.2485365,3.92486774,-2.33746095,,,
imu,158.381114,-0.2829262744000001,-8.875391246400001,4.298924173600001,-0.84478336,4.20151341,-2.36736859,,,
imu,158.389603,-0.272159524,-8.8879524552,4.2965315624,-0.76253735,4.40338998,-2.36736859,,,
imu,158.398092,-0.2548130928,-8.886756149600002,4.3138779936,-0.55318387,4.35852852,-2.38232241,,,
imu,158.406581,-0.2458408008,-8.914869331200002,4.319859521600001,-0.54570696,4.22394414,-2.36736859,,,
imu,158.41507,-0.2500278704,-8.952552957600002,4.333617036000001,-0.39616876,4.31366706,-2.36736859,,,
imu,158.423559,-0.2566075512,-8.963319708000002,4.3348133416,-0.44103022,4.388436159999999,-2.12810747,,,
imu,158.432048,-0.2464389536,-8.938197290400002,4.322252132800001,-0.60552224,4.33609779,-1.9262309,,,
imu,158.440537,-0.2141387024,-8.9088878032,4.3228502856,-0.68776825,4.455728349999999,-1.79912343,,,
imu,158.449026,-0.200381188,-8.9112804144,4.322252132800001,-0.9793677399999999,4.552928179999999,-1.79912343,,,
imu,158.457515,-0.1872218264,-8.9088878032,4.3330188832,-1.18124431,4.552928179999999,-1.7019236,,,
imu,158.466004,-0.1848292152,-8.918458248000002,4.3401967168,-1.14385976,4.6426511,-1.73183124,,,
imu,158.474493,-0.1692772424,-8.936402832,4.3419911752,-1.22610577,4.70246638,-1.94866163,,,
imu,158.482982,-0.1752587704,-8.929224998400002,4.3593376064,-1.2485365,4.62769728,-2.17296893,,,
imu,158.491471,-0.1812402984,-8.928028692800002,4.352757925600001,-1.26349032,4.65012801,-2.35989168,,,
imu,158.49996,-0.1890162848,-8.9387954432,4.3677117456,-1.43545925,4.65012801,-2.62158353,,,
imu,158.508449,-0.1722680064,-8.937000984800001,4.369506204,-1.4728438,4.68751256,-2.77859864,,,
imu,158.516938,-0.1489400472,-8.934608373600001,4.368908051200001,-1.51770526,4.694989469999999,-2.91318302,,,
imu,158.525427,-0.1333880744,-8.944776971200001,4.3796748016,-1.76444329,4.68751256,-2.92065993,,,
imu,158.533916,-0.116639796,-8.944776971200001,4.394628621600001,-1.93641222,4.57535891,-2.87579847,,,
imu,158.542405,-0.107667504,-8.934010220800001,4.403600913600001,-1.76444329,4.46320526,-2.73373718,,,
imu,158.550894,-0.1010878232,-8.9507584992,4.418554733600001,-1.94388913,4.35105161,-2.68139881,,,
imu,158.559312,-0.09091922560000001,-8.9704975416,4.430517789600001,-2.25791935,3.99963684,-2.77859864,,,
imu,158.567729,-0.09869521200000002,-8.9435806656,4.419152886400001,-2.50465738,3.75289881,-2.74121409,,,
imu,158.576147,-0.110658268,-8.911878567200002,4.4113769,-2.69905704,3.61831443,-2.65896808,,,
imu,158.584565,-0.1250139352,-8.899317358400001,4.405395372000001,-2.8934567,3.3715764,-2.62158353,,,
imu,158.592983,-0.1339862272,-8.8741949408,4.3940304688,-2.87102597,3.2968073,-2.42718387,,,
imu,158.601401,-0.1393696024,-8.8604374264,4.380871107200001,-2.64671867,3.26689966,-2.31503022,,,
imu,158.609818,-0.1351825328,-8.849072523200002,4.383263718400001,-2.58690339,3.09493073,-2.50195297,,,
imu,158.618236,-0.1429585192,-8.8353150088,4.363524676000001,-2.40745755,2.93043871,-2.58419898,,,
imu,158.626654,-0.1662864784,-8.826940869600001,4.366515440000001,-2.07847351,2.81828506,-2.76364482,,,
imu,158.635072,-0.1782495344,-8.828735328,4.380871107200001,-1.80182784,2.72108523,-2.90570611,,,
imu,158.643489,-0.1985867296,-8.840698384000001,4.3862544824,-1.44293616,2.80333124,-2.86084465,,,
imu,158.651907,-0.2147368552,-8.8628300376,4.387450788000001,-1.03918302,2.88557725,-2.80850628,,,
imu,158.660325,-0.2189239248,-8.874793093600001,4.4006101496,-1.09152139,3.07997691,-2.81598319,,,
imu,158.668743,-0.2266999112,-8.893933983200002,4.396423080000001,-1.00179847,3.21456129,-2.73373718,,,
imu,158.67716,-0.2266999112,-8.889148760800001,4.394628621600001,-0.81487572,3.36409949,-2.55429134,,,
imu,158.685578,-0.2320832864,-8.870007871200002,4.3868526352,-0.95693701,3.46877623,-2.50195297,,,
imu,158.693996,-0.233279592,-8.8694097184,4.383263718400001,-0.85973718,3.6706528,-2.39727623,,,
imu,158.702414,-0.2416537312,-8.8807746216,4.383861871200001,-0.7550604399999999,3.86505246,-2.40475314,,,
imu,158.710831,-0.2320832864,-8.8759893992,4.3742914264,-0.65786061,4.00711375,-2.3748455,,,
imu,158.719249,-0.233279592,-8.8807746216,4.377282190400001,-0.56066078,4.06692903,-2.43466078,,,
imu,158.727667,-0.2231109944,-8.905897039200001,4.384460024000001,-0.56066078,4.104313579999999,-2.46456842,,,
imu,158.736085,-0.2021756464,-8.933412068,4.3880489408,-0.38869185,4.171605769999999,-2.44213769,,,
imu,158.744503,-0.1979885768,-8.934010220800001,4.3862544824,-0.51579932,4.104313579999999,-2.47952224,,,
imu,158.75292,-0.1890162848,-8.929224998400002,4.389843399200001,-0.64290679,3.93234465,-2.53186061,,,
imu,158.761745,-0.1782495344,-8.926832387200001,4.3880489408,-0.55318387,3.76785263,-2.41970696,,,
imu,158.77057,-0.17944584,-8.945973276800002,4.3916378576,-0.5980453299999999,3.76037572,-2.34493786,,,
imu,158.779395,-0.1955959656,-8.948365888000001,4.404797219200001,-0.91955246,3.55102224,-2.29259949,,,
imu,158.78822,-0.1961941184,-8.931019456800001,4.410180594400001,-1.0989983,3.48373005,-1.97109236,,,
imu,158.797045,-0.1842310624,-8.923243470400001,4.403600913600001,-1.26349032,3.40148404,-1.74678506,,,
imu,158.80587,-0.1878199792,-8.906495192000001,4.4006101496,-1.77939711,3.34914567,-1.69444669,,,
imu,158.814694,-0.1908107432,-8.886157996800002,4.3886470936,-1.89155076,3.35662258,-1.48509321,,,
imu,158.823519,-0.1955959656,-8.8843635384,4.406591677600001,-2.05604278,3.33419185,-1.48509321,,,
imu,158.832344,-0.185427368,-8.908289650400002,4.4197510392,-1.96631986,3.22951511,-1.50004703,,,
imu,158.841169,-0.1686790896,-8.8981210528,4.4059935248,-1.77939711,3.25194584,-1.59724686,,,
imu,158.849994,-0.1531271168,-8.866418954400002,4.4113769,-1.76444329,3.30428421,-1.67949287,,,
imu,158.858819,-0.152528964,-8.8771857048,4.438293776000001,-1.94388913,3.23699202,-1.75426197,,,
imu,158.867644,-0.1411640608,-8.920850859200002,4.435901164800001,-1.8466893,3.10988455,-1.97109236,,,
imu,158.876469,-0.1519308112,-8.865222648800001,4.411975052800001,-1.74201256,2.99025399,-2.32998404,,,
imu,158.885294,-0.1656883256,-8.791649854400001,4.4161621224,-1.87659694,2.64631613,-2.62906044,,,
imu,158.894118,-0.1848292152,-8.840698384000001,4.4275270256,-1.59247436,2.63136231,-2.91318302,,,
imu,158.902943,-0.2171294664,-8.887354302400002,4.423339956,-1.2485365,2.63136231,-2.98047521,,,
imu,158.911768,-0.2284943696,-8.86761526,4.4095824416,-1.10647521,2.74351596,-2.5991528,,,
imu,158.920593,-0.2284943696,-8.8502688288,4.410778747200001,-1.01675229,2.75846978,-2.31503022,,,
imu,158.929418,-0.2081571744,-8.862231884800002,4.417358428000001,-1.00927538,2.65379304,-2.25521494,,,
imu,158.938243,-0.1932033544,-8.861035579200001,4.429321484000001,-0.94198319,2.74351596,-2.18044584,,,
imu,158.947068,-0.2105497856,-8.879578316000002,4.444873456800001,-0.91207555,2.73603905,-2.08324601,,,
imu,158.955893,-0.2099516328,-8.9052988864,4.452051290400001,-1.14385976,2.75099287,-1.93370781,,,
imu,158.964361,-0.2105497856,-8.9088878032,4.4598272768,-1.30087487,2.90053107,-1.49257012,,,
imu,158.97283,-0.206362716,-8.889148760800001,4.450256832000001,-1.46536689,3.12483837,-1.11872462,,,
imu,158.981299,-0.1812402984,-8.866418954400002,4.4299196368,-1.45788998,3.40148404,-0.7523560299999998,,,
imu,158.989767,-0.1603049504,-8.844287300800001,4.424536261600001,-1.41302852,3.56597606,-0.5953409199999999,,,
imu,158.998236,-0.137575144,-8.828735328,4.4209473448,-1.37564397,3.7454219,-0.5579563699999999,,,
imu,159.006704,-0.1178361016,-8.837109467200001,4.4251344144,-1.21115195,3.98468302,-0.62524856,,,
imu,159.015173,-0.1052748928,-8.844885453600002,4.437695623200001,-0.98684465,3.99215993,-0.8495558599999999,,,
imu,159.023642,-0.0933118368,-8.8532595928,4.444873456800001,-1.12890594,3.90991392,-1.32060119,,,
imu,159.03211,-0.09570444800000001,-8.861035579200001,4.459229124000001,-1.06161375,3.99215993,-1.64958523,,,
imu,159.040579,-0.1154434904,-8.85266144,4.4484623736,-1.00927538,3.97720611,-2.001,,,
imu,159.049048,-0.122621324,-8.8323242448,4.443078998400001,-1.00179847,3.97720611,-2.30755331,,,
imu,159.057516,-0.1100601152,-8.843689148000001,4.4424808456,-1.19619813,3.97720611,-2.5991528,,,
imu,159.065985,-0.1118545736,-8.837109467200001,4.446069762400001,-0.9494601,4.17908268,-2.75616791,,,
imu,159.074453,-0.107667504,-8.8329223976,4.4347048592,-0.89712173,4.33609779,-2.90570611,,,
imu,159.082922,-0.1028822816,-8.828137175200002,4.437695623200001,-0.51579932,4.40338998,-2.79355246,,,
imu,159.091391,-0.08254508640000002,-8.849670676,4.4508549848,-0.26158438,4.32862088,-2.81598319,,,
imu,159.099859,-0.08015247520000002,-8.8837653856,4.464612499200001,-0.11952309,4.28375942,-2.69635263,,,
imu,157.627626,,,,,,,-95.71666599999999,166.9029116,120.955056
imu,157.729189,,,,,,,-95.8753596,166.3413804,120.89402
imu,157.830843,,,,,,,-95.3870716,165.6943988,121.6020376
imu,157.932344,,,,,,,-95.00864840000001,165.3892188,121.0038848
imu,158.033907,,,,,,,-95.04527,164.8276876,121.1137496
imu,158.135469,,,,,,,-92.99446040000001,164.6934084,118.1840216
imu,158.237032,,,,,,,-95.48472919999999,165.6821916,120.3569032
imu,158.339143,,,,,,,-93.1409468,165.1939036,118.269472
imu,159.108328,-0.0747691,-8.9160656368,4.4753792496,0.007584380000000002,4.03702139,-2.8234601,,,
imu,159.116797,-0.08314323920000001,-8.9226453176,4.477771860800001,-0.14195382,3.95477538,-2.98047521,,,
imu,159.125265,-0.07177833600000001,-8.910682261600002,4.478968166400001,-0.37373803,3.87252937,-2.86084465,,,
imu,159.133734,-0.06699311360000001,-8.91247672,4.482557083200001,-0.58309151,3.820191,-2.66644499,,,
imu,159.142202,-0.07058203040000001,-8.902906275200001,4.4699958744,-0.80739881,3.73794499,-2.5243837,,,
imu,159.150671,-0.06519865520000001,-8.906495192000001,4.465808804800001,-1.11395212,3.49868387,-2.53186061,,,
imu,159.15914,-0.0592171272,-8.8670171072,4.4400882344,-1.35321324,3.38653022,-2.44213769,,,
imu,159.167602,-0.06699311360000001,-8.8341187032,4.4269288728,-1.15881358,3.2968073,-2.54681443,,,
imu,159.176064,-0.0753672528,-8.825744564,4.422741803200001,-1.06161375,3.2220382,-2.68887572,,,
imu,159.184527,-0.0903210728,-8.829931633600001,4.4089842888,-0.74758353,3.10240764,-2.77112173,,,
imu,159.192989,-0.1004896704,-8.836511314400001,4.4137695112,-0.5008455,3.0725,-2.8982292,,,
imu,159.201451,-0.113649032,-8.861035579200001,4.4006101496,-0.23167674,3.0725,-2.92813684,,,
imu,159.209913,-0.1232194768,-8.875391246400001,4.403002760800001,-0.15690764,3.19960747,-3.0477674,,,
imu,159.218376,-0.09929336480000002,-8.878382010400001,4.401208302400001,-0.32887657,3.1472691,-3.15992105,,,
imu,159.226838,-0.0933118368,-8.8813727744,4.4077879832,-0.21672292,3.31923803,-3.10010577,,,
imu,159.2353,-0.0855358504,-8.8741949408,4.401208302400001,-0.09709236,3.43139168,-3.08515195,,,
imu,159.243762,-0.0783580168,-8.882569080000001,4.4095824416,-0.2017691,3.31176112,-3.14496723,,,
imu,159.252225,-0.0855358504,-8.899915511200001,4.4006101496,-0.44103022,3.2220382,-3.1225365,,,
imu,159.260687,-0.09091922560000001,-8.892737677600001,4.406591677600001,-0.44850713,3.19960747,-3.02533667,,,
imu,159.269149,-0.08673215600000002,-8.891541372,4.416760275200001,-0.67281443,3.23699202,-3.10010577,,,
imu,159.277612,-0.08792846160000001,-8.920850859200002,4.42633072,-0.82235263,3.07997691,-3.09262886,,,
imu,159.286074,-0.0753672528,-8.926832387200001,4.435303012,-0.874691,3.03511545,-3.22721324,,,
imu,159.294536,-0.08374139200000001,-8.9298231512,4.4424808456,-0.89712173,3.03511545,-3.07767504,,,
imu,159.302998,-0.101685976,-8.924439776000002,4.4269288728,-1.04665993,2.86314652,-3.13001341,,,
imu,159.311461,-0.113649032,-8.915467484,4.434106706400001,-1.18872122,2.88557725,-3.2720747,,,
imu,159.319923,-0.1130508792,-8.9047007336,4.437695623200001,-1.22610577,2.9229618,-3.36927453,,,
imu,159.328385,-0.116639796,-8.9011118168,4.428723331200001,-1.34573633,2.72856214,-3.39918217,,,
imu,159.336847,-0.1220231712,-8.891541372,4.439490081600001,-1.30087487,2.81080815,-3.37675144,,,
imu,159.34531,-0.137575144,-8.868811565600002,4.42633072,-1.27096723,2.86314652,-3.46647436,,,
imu,159.353772,-0.1351825328,-8.844885453600002,4.4113769,-1.30835178,2.87062343,-3.48890509,,,
imu,159.362234,-0.1327899216,-8.8598392736,4.4269288728,-1.13638285,2.9229618,-3.39170526,,,
imu,159.370778,-0.1399677552,-8.868811565600002,4.4299196368,-1.20367504,2.9977309,-3.45899745,,,
imu,159.379245,-0.1333880744,-8.889746913600002,4.455042054400001,-1.27844414,2.90800798,-3.54872037,,,
imu,159.387789,-0.1280046992,-8.91247672,4.4598272768,-1.19619813,2.88557725,-3.62348947,,,
imu,159.396333,-0.1208268656,-8.8771857048,4.443677151200001,-1.31582869,2.81828506,-3.65339711,,,
imu,159.404876,-0.1297991576,-8.8640263432,4.468201416,-1.38312088,2.75099287,-3.57862801,,,
imu,159.41342,-0.1244157824,-8.9328139152,4.4819589304,-1.45041307,2.63883922,-3.50385891,,,
imu,159.421964,-0.1268083936,-8.9399917488,4.4628180408,-1.42798234,2.40705501,-3.60853565,,,
imu,159.430507,-0.1609031032,-8.821557494400002,4.432312248000001,-1.67472037,2.18274771,-3.98238115,,,
imu,159.439051,-0.173464312,-8.807201827200002,4.459229124000001,-1.59247436,2.06311715,-4.19921154,,,
imu,159.447595,-0.20935348,-8.889148760800001,4.4490605264,-1.48032071,1.90610204,-4.341272829999999,,,
imu,159.456138,-0.2320832864,-8.871802329600001,4.4335085536,-1.41302852,2.05564024,-4.15435008,,,
imu,159.464682,-0.2326814392,-8.85266144,4.42633072,-1.27096723,2.16031698,-3.75807385,,,
imu,159.473226,-0.221316536,-8.847278064800001,4.420349192000001,-1.20367504,2.22013226,-3.6459202,,,
imu,159.481769,-0.2225128416,-8.834716856000002,4.406591677600001,-1.0989983,2.16779389,-3.76555076,,,
imu,159.490313,-0.2219146888,-8.840100231200001,4.4125732056,-0.85973718,2.15284007,-3.81788913,,,
imu,159.498856,-0.2368685088,-8.888550608000001,4.420349192000001,-0.67281443,2.19770153,-3.78050458,,,
imu,159.5074,-0.251224176,-8.899317358400001,4.422143650400001,-0.46346095,2.10797861,-3.70573548,,,
imu,159.515944,-0.2667761488000001,-8.887354302400002,4.422741803200001,-0.44850713,2.13040934,-3.50385891,,,
imu,159.524487,-0.2781410520000001,-8.889746913600002,4.4089842888,-0.55318387,2.33228591,-3.30945925,,,
imu,159.533031,-0.275150288,-8.893335830400002,4.4137695112,-0.61299915,2.71360832,-3.06272122,,,
imu,159.541575,-0.2685706072,-8.8843635384,4.4137695112,-0.8522602699999999,2.89305416,-2.79355246,,,
imu,159.550118,-0.2416537312,-8.8837653856,4.435303012,-0.9943215599999999,3.19960747,-2.63653735,,,
imu,159.558662,-0.2135405496,-8.899915511200001,4.4406863872,-1.14385976,3.31176112,-2.62158353,,,
imu,159.567206,-0.215335008,-8.9017099696,4.4526494432,-1.30835178,3.36409949,-2.86832156,,,
imu,159.575627,-0.2087553272,-8.889746913600002,4.4484623736,-1.4728438,3.48373005,-3.1973056,,,
imu,159.584049,-0.2278962168,-8.894532136,4.447864220800001,-1.68219728,3.51363769,-3.43656672,,,
imu,159.59247,-0.2278962168,-8.889148760800001,4.446069762400001,-1.53265908,3.65569898,-3.59358183,,,
imu,159.600892,-0.2105497856,-8.8813727744,4.443677151200001,-1.53265908,3.76785263,-3.69825857,,,
imu,159.609314,-0.2057645632,-8.892139524800001,4.453247596000001,-1.56256672,3.79028336,-3.87770441,,,
imu,159.617735,-0.203371952,-8.905897039200001,4.4598272768,-1.41302852,3.88000628,-3.84779677,,,
imu,159.626157,-0.2015774936,-8.882569080000001,4.446667915200001,-1.48779762,3.94729847,-3.75807385,,,
imu,159.634578,-0.2027737992,-8.8837653856,4.4735847912,-1.41302852,4.05945212,-3.61601256,,,
imu,159.643,-0.2069608688,-8.9076914976,4.50109982,-1.62985891,4.05197521,-3.54872037,,,
imu,159.651421,-0.1890162848,-8.942384360000002,4.5022961256,-1.92893531,3.90991392,-3.50385891,,,
imu,159.659843,-0.1967922712,-8.910084108800001,4.501697972800001,-2.39250373,3.797760269999999,-3.37675144,,,
imu,159.668265,-0.2027737992,-8.903504428000002,4.5046887368,-2.8186876,3.77532954,-3.30945925,,,
imu,159.676686,-0.1991848824,-8.885559844000001,4.507679500800001,-2.98317962,3.71551426,-3.0477674,,,
imu,159.685108,-0.2039701048,-8.872998635200002,4.487940458400001,-3.17010237,3.64822207,-2.80850628,,,
imu,159.693529,-0.185427368,-8.837707620000002,4.4765755552,-3.33459439,3.5958837,-2.72626027,,,
imu,159.701951,-0.1620994088,-8.8251464112,4.480762624800001,-3.20748692,3.46877623,-2.73373718,,,
imu,159.710373,-0.1776513816,-8.7904535488,4.465808804800001,-2.81121069,3.32671494,-2.86084465,,,
imu,159.718794,-0.2105497856,-8.767723742400001,4.470594027200001,-2.57942648,3.22951511,-3.07767504,,,
imu,159.727216,-0.2201202304,-8.7766960344,4.4837533888,-2.06351969,3.2968073,-3.04029049,,,
imu,159.735637,-0.2350740504,-8.808996285600001,4.4903330696,-1.98875059,3.19960747,-3.09262886,,,
imu,159.744059,-0.236270356,-8.7934443128,4.480762624800001,-1.51770526,3.43139168,-2.94309066,,,
imu,159.75248,-0.2368685088,-8.787462784800002,4.5022961256,-1.43545925,3.56597606,-2.80850628,,,
imu,159.760902,-0.2320832864,-8.802416604800001,4.505286889600001,-1.35321324,3.80523718,-2.68887572,,,
imu,159.769324,-0.2189239248,-8.8293334808,4.519044404000001,-1.20367504,3.88748319,-2.35989168,,,
imu,159.778106,-0.1932033544,-8.843689148000001,4.517848098400001,-1.35321324,3.97720611,-2.18792275,,,
imu,159.786888,-0.1830347568,-8.841296536800002,4.519642556800001,-1.60742818,4.05945212,-2.13558438,,,
imu,159.795671,-0.1597067976,-8.844287300800001,4.517848098400001,-1.66724346,4.09683667,-2.18792275,,,
imu,159.804453,-0.167482784,-8.8460817592,4.519044404000001,-1.66724346,4.06692903,-2.42718387,,,
imu,159.813236,-0.1806421456,-8.8598392736,4.528016696000001,-1.59995127,3.9697292,-2.5991528,,,
imu,159.822018,-0.1812402984,-8.866418954400002,4.5322037656,-1.61490509,4.09683667,-2.87579847,,,
imu,159.830801,-0.188418132,-8.8759893992,4.545363127200001,-1.80182784,4.02954448,-3.05524431,,,
imu,159.839583,-0.1890162848,-8.8694097184,4.536988988,-1.79435093,4.1192674,-3.1225365,,,
imu,159.848365,-0.1890162848,-8.858642968000002,4.520240709600001,-1.83921239,4.20899032,-3.25712088,,,
imu,159.857148,-0.1722680064,-8.836511314400001,4.5184462512,-1.95884295,4.20151341,-3.55619728,,,
imu,159.86593,-0.1662864784,-8.8155759664,4.526222237600001,-1.72705874,4.15665195,-3.58610492,,,
imu,159.874713,-0.155519728,-8.808996285600001,4.513062876000001,-1.77939711,4.149175039999999,-3.66835093,,,
imu,159.883495,-0.1459492832,-8.80779998,4.521437015200001,-1.77939711,4.14169813,-3.60853565,,,
imu,159.892278,-0.1327899216,-8.829931633600001,4.5375871408,-1.91398149,4.16412886,-3.39918217,,,
imu,159.90106,-0.1238176296,-8.8143796608,4.535194529600001,-2.10838115,3.9697292,-3.18235178,,,
imu,159.909842,-0.1292010048,-8.7946406184,4.534596376800001,-2.31773463,3.79028336,-2.90570611,,,
imu,159.918625,-0.1280046992,-8.806005521600001,4.5531391136,-2.48222665,3.38653022,-2.92813684,,,
imu,158.444582,,,,,,,-95.5091436,165.9629572,120.4301464
imu,158.54175,,,,,,,-95.00864840000001,166.4024164,120.5766328
imu,158.643282,,,,,,,-95.472522,165.8652996,120.2104168
imu,158.744814,,,,,,,-95.6312156,166.2437228,120.4301464
imu,158.846407,,,,,,,-95.3382428,166.2315156,120.7353264
imu,158.948091,,,,,,,-95.48472919999999,166.4268308,120.7841552
imu,159.049654,,,,,,,-93.2996404,166.1460652,119.856408
imu,159.151094,,,,,,,-95.8143236,166.744218,120.1860024
imu,159.927407,-0.1357806856,-8.8460817592,4.572878156000001,-2.39250373,3.19960747,-2.83841392,,,
imu,159.93619,-0.1549215752,-8.8879524552,4.559120641600001,-2.40745755,2.84071579,-2.86084465,,,
imu,159.944972,-0.1609031032,-8.835913161600002,4.554933572,-2.34016536,2.69117759,-2.85336774,,,
imu,159.953755,-0.1920070488,-8.786266479200002,4.562111405600001,-2.43736519,2.65379304,-2.65896808,,,
imu,159.962537,-0.206362716,-8.8275390224,4.581252295200001,-2.56447266,2.83323888,-2.5243837,,,
imu,159.971319,-0.2165313136,-8.849072523200002,4.579457836800001,-2.5196112,2.73603905,-2.60662971,,,
imu,159.979792,-0.2147368552,-8.7934443128,4.574672614400001,-2.42988828,2.69117759,-2.99542903,,,
imu,159.988264,-0.2398592728,-8.791649854400001,4.590224587200001,-2.370073,2.59397776,-3.60853565,,,
imu,159.996737,-0.2613927736,-8.8670171072,4.5896264344,-2.37754991,2.75846978,-3.77302767,,,
imu,160.005209,-0.2619909264,-8.853857745600001,4.5854393648,-2.23548862,3.07997691,-3.51881273,,,
imu,160.013682,-0.2769447464000001,-8.803612910400002,4.552540960800001,-2.01865823,3.24446893,-3.21225942,,,
imu,160.022154,-0.2368685088,-8.757555144800001,4.531007460000001,-1.61490509,3.32671494,-3.08515195,,,
imu,160.030627,-0.2195220776,-8.741405019200002,4.521437015200001,-1.39059779,3.27437657,-3.09262886,,,
imu,160.039099,-0.212344244,-8.743797630400001,4.517848098400001,-0.9644139199999999,3.26689966,-3.31693616,,,
imu,160.047571,-0.2201202304,-8.7832757152,4.526820390400001,-0.70272207,3.18465365,-3.3468438,,,
imu,160.056044,-0.230288828,-8.801818452000001,4.5447649744,-0.5756146,3.18465365,-3.15244414,,,
imu,160.064516,-0.236270356,-8.7970332296,4.5495501968,-0.46346095,3.24446893,-2.80850628,,,
imu,160.072989,-0.2284943696,-8.7982295352,4.5531391136,-0.71767589,3.34914567,-2.56924516,,,
imu,160.081461,-0.2129423968,-8.7910517016,4.562709558400001,-0.91207555,3.43886859,-2.15801511,,,
imu,160.089934,-0.2051664104,-8.7976313824,4.5561298776,-1.26349032,3.56597606,-2.10567674,,,
imu,160.098406,-0.185427368,-8.7946406184,4.559120641600001,-1.39059779,3.47625314,-2.18044584,,,
imu,160.106879,-0.1710717008,-8.795238771200001,4.560915100000001,-1.59995127,3.43886859,-2.33746095,,,
imu,160.115351,-0.1890162848,-8.814977813600002,4.5603169472,-1.622382,3.28933039,-2.61410662,,,
imu,160.123823,-0.191408896,-8.819164883200001,4.5633077112,-1.62985891,3.02763854,-2.96552139,,,
imu,160.132296,-0.212344244,-8.8143796608,4.5704855448,-1.51770526,2.93043871,-3.20478251,,,
imu,160.140768,-0.2201202304,-8.854455898400001,4.590224587200001,-1.50275144,2.96034635,-3.35432071,,,
imu,160.149241,-0.2027737992,-8.870606024,4.608767324,-1.49527453,2.96782326,-3.16739796,,,
imu,160.157713,-0.1967922712,-8.86761526,4.612954393600001,-1.51770526,3.10240764,-3.15244414,,,
imu,160.166186,-0.173464312,-8.8592411208,4.605776560000001,-1.57004363,3.16222292,-2.99542903,,,
imu,160.174658,-0.1549215752,-8.828137175200002,4.6189359216,-1.80182784,3.19960747,-2.91318302,,,
imu,160.18316,-0.1381732968,-8.8532595928,4.640469422400001,-1.98875059,3.05754618,-3.01785976,,,
imu,160.191661,-0.1357806856,-8.8759893992,4.656619548000001,-2.2205348,2.98277708,-3.38422835,,,
imu,160.200163,-0.1369769912,-8.862231884800002,4.652432478400001,-2.54204193,2.81828506,-3.58610492,,,
imu,160.208665,-0.1453511304,-8.831127939200002,4.6482454088,-3.03551799,2.66874686,-3.75059694,,,
imu,160.217166,-0.1459492832,-8.796435076800002,4.6452546448,-3.1925331,2.50425484,-3.73564312,,,
imu,160.225668,-0.1770532288,-8.794042465600002,4.632693436,-3.35702512,2.55659321,-3.51881273,,,
imu,160.23417,-0.1860255208,-8.781481256800001,4.6243192968,-3.37197894,2.48930102,-3.24216706,,,
imu,160.242672,-0.1890162848,-8.7515736168,4.6189359216,-3.1925331,2.55659321,-3.17487487,,,
imu,160.251173,-0.1866236736,-8.737217949600002,4.608767324,-3.05794872,2.35471664,-3.02533667,,,
imu,160.259675,-0.16449202,-8.703721392800002,4.6051784072,-2.84859524,2.22760917,-3.11505959,,,
imu,160.268177,-0.2027737992,-8.716880754400002,4.614748852000001,-2.57942648,2.04816333,-2.95804448,,,
imu,160.276678,-0.2261017584,-8.716880754400002,4.616543310400001,-2.10838115,2.04816333,-2.80850628,,,
imu,160.28518,-0.2278962168,-8.7079084624,4.615945157600001,-1.65976655,1.89862513,-2.65896808,,,
imu,160.293682,-0.2613927736,-8.701328781600001,4.597402420800001,-1.39059779,1.95844041,-2.5243837,,,
imu,160.302183,-0.2853188856,-8.712095532000001,4.609365476800001,-1.33825942,2.12293243,-2.51690679,,,
imu,160.310685,-0.2739539824000001,-8.725853046400001,4.626711908000001,-1.06909066,2.1752708,-2.40475314,,,
imu,160.319187,-0.2757484408,-8.7551625336,4.641665728,-0.85973718,2.28742445,-2.27016876,,,
imu,160.327688,-0.2847207328,-8.768321895200001,4.633291588800001,-0.7401066199999999,2.51173175,-2.21783039,,,
imu,160.33619,-0.2733558296,-8.778490492800001,4.638674964000001,-0.88964482,2.75846978,-2.21783039,,,
imu,160.344692,-0.275150288,-8.785668326400002,4.629104519200001,-1.09152139,2.87062343,-2.31503022,,,
imu,160.353194,-0.272159524,-8.7737052704,4.636282352800001,-1.18124431,3.16222292,-2.3748455,,,
imu,160.361695,-0.2578038568000001,-8.775499728800002,4.6255156024,-1.21862886,3.23699202,-2.53933752,,,
imu,160.370197,-0.2554112456,-8.7760978816,4.630300824800001,-1.0989983,3.27437657,-2.65149117,,,
imu,160.378699,-0.2386629672,-8.7904535488,4.619534074400001,-1.01675229,3.16222292,-2.76364482,,,
imu,160.387128,-0.2380648144,-8.796435076800002,4.632693436,-0.79244499,3.18465365,-2.75616791,,,
imu,160.395557,-0.2476352592,-8.802416604800001,4.6344878944,-0.62047606,3.2220382,-2.72626027,,,
imu,160.403986,-0.2607946208,-8.808996285600001,4.626711908000001,-0.46346095,3.10988455,-2.6739219,,,
imu,160.412415,-0.2793373576,-8.803612910400002,4.6320952832,-0.60552224,3.12483837,-2.57672207,,,
imu,160.420845,-0.2799355104,-8.7976313824,4.6255156024,-0.7999219,3.33419185,-2.43466078,,,
imu,160.429274,-0.2769447464000001,-8.807201827200002,4.6279082136,-0.84478336,3.40148404,-2.27764567,,,
imu,160.437703,-0.281131816,-8.7946406184,4.6308989776,-1.00927538,3.38653022,-2.15801511,,,
imu,160.446132,-0.2859170384,-8.775499728800002,4.62073038,-1.18124431,3.43886859,-2.13558438,,,
imu,160.454561,-0.2763465936,-8.765929284,4.6243192968,-1.21862886,3.52859151,-2.3000764,,,
imu,160.462991,-0.2691687600000001,-8.795238771200001,4.633291588800001,-1.25601341,3.57345297,-2.38979932,,,
imu,160.471392,-0.2715613712,-8.810192591200002,4.641665728,-1.30087487,3.53606842,-2.68139881,,,
imu,160.479821,-0.2637853848,-8.823950105600002,4.623122991200001,-1.04665993,3.70056044,-2.83841392,,,
imu,160.48825,-0.2649816904,-8.777892340000001,4.602187643200001,-1.14385976,3.69308353,-2.77112173,,,
imu,160.496679,-0.2679724544000001,-8.734825338400002,4.596804268000001,-0.8672140899999999,3.96225229,-2.46456842,,,
imu,160.505109,-0.2775428992,-8.760545908800001,4.623122991200001,-0.82982954,3.98468302,-2.23278421,,,
imu,160.513538,-0.2739539824000001,-8.820361188800002,4.6380768112,-0.80739881,3.82766791,-2.33746095,,,
imu,160.521967,-0.2727576768,-8.828137175200002,4.6308989776,-0.93450628,3.55102224,-2.87579847,,,
imu,159.252583,,,,,,,-93.3606764,165.9629572,118.3183008
imu,159.354145,,,,,,,-95.9241884,166.0850292,120.5522184
imu,159.456044,,,,,,,-94.9476124,165.4502548,117.2440672
imu,159.559101,,,,,,,-95.55797240000001,166.1216508,120.6742904
imu,159.658833,,,,,,,-95.19175639999999,166.6343532,120.527804
imu,159.760395,,,,,,,-95.6068012,166.7808396,120.6132544
imu,159.861988,,,,,,,-95.6068012,166.8296684,120.5400112
imu,159.963704,,,,,,,-95.9363956,167.232506,120.0028944
imu,160.065083,,,,,,,-95.6312156,167.049398,120.771948
imu,160.166645,,,,,,,-93.12873960000002,166.1216508,119.551228
imu,160.268422,,,,,,,-96.1683324,167.0860196,120.771948
imu,160.370777,,,,,,,-93.3606764,166.8296684,118.3427152
imu,160.471424,,,,,,,-95.7532876,167.1226412,120.6620832
