Type,Timestamp,Data Accelerometer X,Data Accelerometer Y,Data Accelerometer Z,Data Gyroscope X,Data Gyroscope Y,Data Gyroscope Z,Data Magnetometer X,Data Magnetometer Y,Data Magnetometer Z
imu,108.608457,-0.2027737992,-9.13678402,3.8915821168,0.7403215599999999,2.98277708,-2.0757691,,,
imu,108.61657,-0.2255036056,-9.077566892800002,3.862870782400001,0.20198404,3.22951511,-2.01595382,,,
imu,108.624682,-0.233279592,-9.075772434400001,3.8802172136,0.19450713,3.21456129,-2.08324601,,,
imu,108.632795,-0.230288828,-9.1062782272,3.8784227552,0.44124516,3.2968073,-2.12063056,,,
imu,108.640907,-0.2051664104,-9.1014930048,3.858085560000001,0.63564482,3.40896095,-2.34493786,,,
imu,108.64902,-0.2009793408,-9.067996448000002,3.831168684000001,0.67302937,3.43886859,-2.64401426,,,
imu,108.657133,-0.1908107432,-9.024331293600001,3.8108314888,1.04687487,3.57345297,-2.50195297,,,
imu,108.665245,-0.1872218264,-9.068594600800001,3.887395047200001,1.06182869,3.49868387,-2.42718387,,,
imu,108.673358,-0.167482784,-9.2157401896,3.9286675904,1.09921324,3.35662258,-2.76364482,,,
imu,108.68147,-0.1692772424,-9.267181330400001,3.927471284800001,1.0693056,2.99025399,-3.21225942,,,
imu,108.689583,-0.1770532288,-9.271368400000002,3.941228799200001,0.97210577,2.93791562,-3.46647436,,,
imu,108.697696,-0.1991848824,-9.262994260800001,3.929863896000001,0.7403215599999999,3.11736146,-3.13749032,,,
imu,108.705808,-0.2075590216,-9.263592413600001,3.904741478400001,0.52349117,3.36409949,-2.46456842,,,
imu,108.713921,-0.173464312,-9.230694009600002,3.8897876584,0.18703022,3.38653022,-2.27764567,,,
imu,108.722033,-0.1441548248,-9.1894214664,3.8844042832,0.0001074699999999984,3.30428421,-2.47952224,,,
imu,108.730146,-0.1519308112,-9.169682424000001,3.886198741600001,-0.29149202,3.31176112,-2.68139881,,,
imu,108.738259,-0.1495382,-9.160111979200002,3.888591352800001,-0.49336859,3.4463455,-2.71878336,,,
imu,108.74672,-0.143556672,-9.1750657992,3.896965492000001,-0.79244499,3.42391477,-2.70382954,,,
imu,108.755181,-0.1280046992,-9.186430702400001,3.893974728,-1.28592105,3.3715764,-2.77112173,,,
imu,108.763642,-0.11963056,-9.1924122304,3.915508228800001,-1.86164312,3.31176112,-2.77112173,,,
imu,108.772103,-0.1028822816,-9.1918140776,3.897563644800001,-2.42988828,3.16969983,-2.84589083,,,
imu,108.780564,-0.08493769760000001,-9.156523062400002,3.8951710336,-2.8934567,2.93791562,-2.94309066,,,
imu,108.789025,-0.092713684,-9.1272135752,3.9077322424,-3.58133242,2.75846978,-2.85336774,,,
imu,108.797486,-0.1010878232,-9.1852343968,3.9322565072,-3.87293191,2.74351596,-2.65896808,,,
imu,108.805947,-0.1154434904,-9.251629357600002,3.941228799200001,-4.22434668,2.45191647,-2.47204533,,,
imu,108.814408,-0.1262102408,-9.221123564800001,3.944219563200001,-4.73277656,2.37714737,-2.34493786,,,
imu,108.822869,-0.1477437416,-9.159513826400001,3.966351216800001,-5.2112988,2.29490136,-2.45709151,,,
imu,108.83133,-0.1429585192,-9.2169364952,4.015399746400001,-5.652436489999999,2.33228591,-2.46456842,,,
imu,108.839791,-0.200381188,-9.24146076,4.023773885600001,-6.30292766,2.40705501,-2.35989168,,,
imu,108.848252,-0.1985867296,-9.219927259200002,4.0447092336,-6.998280289999999,2.28742445,-2.38232241,,,
imu,108.856712,-0.1806421456,-9.219927259200002,4.0752150264,-7.78335584,2.49677793,-2.35241477,,,
imu,108.865173,-0.1920070488,-9.190019619200001,4.0865799296,-8.650677400000001,2.72856214,-2.10567674,,,
imu,108.873634,-0.1890162848,-9.145756312000001,4.1057208192,-9.3983684,3.04259236,-2.18792275,,,
imu,108.882095,-0.167482784,-9.123026505600002,4.127852472800001,-10.16849013,3.35662258,-2.23278421,,,
imu,108.890556,-0.1244157824,-9.1122597552,4.144002598400001,-10.61710473,3.58092988,-2.44213769,,,
imu,108.899017,-0.1268083936,-9.069192753600001,4.151778584800001,-11.14048843,3.3715764,-2.95056757,,,
imu,108.907478,-0.1501363528,-8.9914328896,4.1446007512,-11.16291916,3.3715764,-3.23469015,,,
imu,108.915939,-0.1668846312,-8.938197290400002,4.120674639200001,-11.08067315,3.60336061,-3.04029049,,,
imu,108.9244,-0.1698753952,-8.896326594400001,4.120674639200001,-10.60215091,3.88748319,-2.68139881,,,
imu,108.932861,-0.1477437416,-8.8951302888,4.143404445600001,-10.08624412,4.07440594,-2.60662971,,,
imu,108.941322,-0.1519308112,-8.8759893992,4.141609987200001,-9.36846076,4.15665195,-2.72626027,,,
imu,108.949839,-0.1806421456,-8.8502688288,4.1446007512,-8.59086212,4.16412886,-2.94309066,,,
imu,108.958356,-0.2117460912,-8.8119870496,4.160152724,-8.09738606,4.194036499999999,-3.1225365,,,
imu,108.966873,-0.2308869808,-8.823950105600002,4.1816862248,-7.349695059999999,4.35105161,-3.13001341,,,
imu,108.97539,-0.2243073,-8.823950105600002,4.212790170400001,-6.9309881,4.63517419,-3.10758268,,,
imu,108.983907,-0.2177276192,-8.831127939200002,4.237912588,-6.44498895,4.95668132,-2.98795212,,,
imu,108.992424,-0.191408896,-8.835913161600002,4.268418380800001,-6.385173669999999,5.18098862,-2.9729983,,,
imu,109.000941,-0.155519728,-8.85266144,4.274998061600001,-6.1832971,5.50997266,-2.75616791,,,
imu,109.009458,-0.107667504,-8.8185667304,4.2690165336,-6.190774009999999,5.79409524,-2.8234601,,,
imu,109.017975,-0.1232194768,-8.795238771200001,4.2630350056,-5.936559069999999,6.010925629999999,-2.87579847,,,
imu,109.026492,-0.1244157824,-8.802416604800001,4.2444922688,-5.99637435,6.07074091,-2.92065993,,,
imu,109.035009,-0.11963056,-8.796435076800002,4.224753226400001,-5.56271357,6.31000203,-2.93561375,,,
imu,109.043526,-0.09690075360000001,-8.7976313824,4.210995712000001,-4.93465313,6.45954023,-3.0477674,,,
imu,109.052043,-0.09510629520000001,-8.8293334808,4.217575392800001,-4.26173123,6.511878599999999,-3.29450543,,,
imu,109.06056,-0.110658268,-8.910084108800001,4.2516701024,-3.83554736,6.63150916,-3.44404363,,,
imu,109.069077,-0.101685976,-9.000405181600001,4.2911481872,-3.32711748,6.71375517,-3.62348947,,,
imu,109.077594,-0.101685976,-9.081155809600002,4.3120835352,-3.35702512,6.706278259999999,-4.04219643,,,
imu,109.086111,-0.1118545736,-9.0961096296,4.2983260208,-3.72339371,6.601601519999999,-4.27398064,,,
imu,109.094628,-0.1357806856,-9.103885616000001,4.3437856336,-4.1645314,6.71375517,-4.15435008,,,
imu,109.103144,-0.1268083936,-9.204375286400001,4.405395372000001,-5.009422229999999,6.45954023,-4.35622665,,,
imu,109.111661,-0.1483418944,-9.242058912800001,4.4161621224,-6.05618963,6.31000203,-4.7674567,,,
imu,109.120505,-0.1776513816,-9.178056563200002,4.415563969600001,-7.252495229999999,5.98101799,-5.20859439,,,
imu,109.129022,-0.1997830352,-9.148747076000001,4.430517789600001,-8.351601,5.74175687,-5.45533242,,,
imu,109.137539,-0.2350740504,-9.134391408800001,4.414367664,-9.09181509,5.82400288,-4.98428709,,,
imu,109.146056,-0.2338777448,-9.1014930048,4.408386136000001,-9.80212154,5.876341249999999,-4.363703559999999,,,
imu,109.154819,-0.2057645632,-9.040481419200002,4.383263718400001,-10.51242799,5.86886434,-4.22164227,,,
imu,109.163583,-0.2368685088,-8.978273528,4.369506204,-10.99095023,5.876341249999999,-4.15435008,,,
imu,109.172347,-0.2578038568000001,-8.903504428000002,4.349767161600001,-11.57414921,5.98101799,-3.98985806,,,
imu,109.181111,-0.248233412,-8.834716856000002,4.348570856,-11.63396449,6.272617479999999,-3.42908981,,,
imu,109.189875,-0.260196468,-8.8341187032,4.3713006624,-11.85827179,6.60907843,-3.21973633,,,
imu,109.198639,-0.2554112456,-8.830529786400001,4.382665565600001,-12.09753291,6.98292393,-3.14496723,,,
imu,109.207403,-0.2757484408,-8.823351952800001,4.4000119968,-12.47137841,7.3343387,-3.25712088,,,
imu,109.216166,-0.257205704,-8.8209593416,4.425732567200001,-12.78540863,7.506307629999999,-3.37675144,,,
imu,109.22493,-0.2129423968,-8.8185667304,4.452051290400001,-13.21906941,7.82781476,-3.55619728,,,
imu,109.233694,-0.176455076,-8.826342716800001,4.468799568800001,-13.39103834,7.93996841,-3.62348947,,,
imu,109.242458,-0.11963056,-8.800622146400002,4.489136764,-13.55553036,7.745568749999999,-3.67582784,,,
imu,109.251222,-0.09570444800000001,-8.8221556472,4.522633320800001,-13.51814581,7.52126145,-3.67582784,,,
imu,109.259986,-0.08972292000000001,-8.7790886456,4.5286148488,-13.09196194,7.27452342,-3.39918217,,,
imu,109.26875,-0.0813487808,-8.745592088800002,4.538783446400001,-12.6882088,7.09507758,-2.94309066,,,
imu,109.277513,-0.0693857248,-8.747386547200001,4.578261531200001,-12.04519454,6.91563174,-2.51690679,,,
imu,109.286277,-0.05443190480000001,-8.768321895200001,4.599196879200001,-11.67882595,6.773570449999999,-2.16549202,,,
imu,109.295041,-0.05562821040000001,-8.756956992000001,4.619534074400001,-11.13301152,6.54178624,-1.85893871,,,
imu,109.303805,-0.0735727944,-8.761144061600001,4.636282352800001,-10.66196619,6.28009439,-1.56733922,,,
imu,109.312569,-0.0663949608,-8.739012408,4.6518343256,-10.46756653,6.15298692,-1.58229304,,,
imu,109.321333,-0.05562821040000001,-8.743199477600001,4.649441714400001,-10.34045906,6.11560237,-1.54490849,,,
imu,109.330097,-0.05981528000000001,-8.7067121568,4.6518343256,-10.12362867,5.988494899999999,-1.82155416,,,
imu,109.33886,-0.08972292000000001,-8.710301073600002,4.679947507200001,-10.13858249,5.5398803,-2.69635263,,,
imu,109.347624,-0.1148453376,-8.716880754400002,4.700882855200001,-10.06381339,5.263234629999999,-3.6459202,,,
imu,109.356109,-0.110658268,-8.710301073600002,4.701481008000001,-9.92922901,5.18098862,-4.21416536,,,
imu,109.364595,-0.1543234224,-8.6439061128,4.7092569944,-9.86193682,5.09874261,-4.58801086,,,
imu,109.37308,-0.2314851336,-8.660056238400001,4.734379412,-9.7722139,5.3903421,-4.715118329999999,,,
imu,109.381565,-0.2518223288000001,-8.6457005712,4.744548009600001,-9.592768060000001,5.921202709999999,-4.647826139999999,,,
imu,109.39005,-0.2368685088,-8.6666359192,4.777446413600001,-9.01704599,6.41467877,-4.78241052,,,
imu,109.398535,-0.23926112,-8.660654391200001,4.7750538024,-8.822646330000001,6.95301629,-5.02914855,,,
imu,109.40702,-0.2105497856,-8.636130126400001,4.7953909976,-8.433847010000001,7.61846128,-5.23102512,,,
imu,109.415506,-0.2105497856,-8.6439061128,4.808550359200001,-8.08243224,8.044645150000001,-5.4403786,,,
imu,109.423991,-0.1991848824,-8.680991586400001,4.829485707200001,-7.66372528,8.59045958,-5.545055339999999,,,
imu,109.432476,-0.1603049504,-8.687571267200001,4.822307873600001,-7.48427944,9.11384328,-5.83665483,,,
imu,109.440961,-0.137575144,-8.6068206392,4.815130040000001,-7.4543718,9.554980969999999,-5.84413174,,,
imu,109.449446,-0.0980970592,-8.5721277768,4.8247004848,-7.536617809999999,9.83910355,-5.73197809,,,
imu,109.457931,-0.08972292000000001,-8.557173956800002,4.8366635408,-7.259972139999999,9.95873411,-5.44785551,,,
imu,109.466416,-0.03887993200000001,-8.5583702624,4.8701600976,-7.23754141,10.11574922,-5.27588658,,,
imu,109.474902,0.0317020984,-8.5272663168,4.855804430400001,-7.35717197,10.07836467,-5.22354821,,,
imu,109.483387,0.0753672528,-8.502742052000002,4.867169333600001,-7.162772309999999,9.94378029,-5.021671639999999,,,
imu,109.491872,0.0382817792,-8.460871356000002,4.8737490144,-6.975849559999999,9.93630338,-4.82727198,,,
imu,109.500357,0.02871133440000001,-8.452497216800001,4.889899140000001,-6.76649608,9.622273159999999,-5.02914855,,,
imu,109.508842,-0.0125612088,-8.494966065600002,4.90485296,-6.04123581,9.5026426,-5.10391765,,,
imu,109.517327,-0.04605776560000001,-8.484797468000002,4.9084418768,-5.787020869999999,9.233473839999998,-5.32074804,,,
imu,109.525813,-0.06579680800000001,-8.5260700112,4.939545822400001,-5.00194532,9.13627401,-5.896470109999999,,,
imu,108.628798,,,,,,,-94.3250452,166.0362004,119.6244712
imu,108.73033,,,,,,,-92.29865,165.8652996,117.4515896
imu,109.534298,-0.0980970592,-8.508125427200001,4.9491162672,-4.34397724,8.986735809999999,-6.44976145,,,
imu,109.542783,-0.1178361016,-8.575118540800002,4.991585116,-3.82807045,8.85962834,-6.83108386,,,
imu,109.551268,-0.16449202,-8.650485793600001,5.0280724368,-3.55890169,8.94935126,-6.950714420000001,,,
imu,109.559724,-0.17944584,-8.640317196000002,4.992183268800001,-3.40188658,9.076458729999999,-7.100252619999999,,,
imu,109.56818,-0.1638938672,-8.5482016648,4.997566644000001,-3.21496383,9.28581221,-7.19745245,,,
imu,109.576636,-0.167482784,-8.515303260800001,4.9999592552,-2.86354906,9.59236552,-7.04043734,,,
imu,109.585092,-0.1202287128,-8.522481094400002,4.945527350400001,-2.42988828,10.05593394,-6.65163802,,,
imu,109.593548,-0.1250139352,-8.508723580000002,4.9634719344,-1.94388913,10.34005652,-6.068439039999999,,,
imu,109.602004,-0.1339862272,-8.528462622400001,4.969453462400001,-1.51022835,10.82605567,-5.49271697,,,
imu,109.610459,-0.1573141864,-8.518892177600002,4.967060851200001,-1.15133667,11.02793224,-5.05905619,,,
imu,109.618915,-0.1872218264,-8.571529624000002,4.9844072824,-0.67281443,11.27467027,-4.96933327,,,
imu,109.627371,-0.2667761488000001,-8.545809053600001,4.9533033368,-0.5008455,11.52888521,-5.14877911,,,
imu,109.635827,-0.3325729568,-8.5033402048,4.934760600000001,-0.39616876,12.22423784,-5.43290169,,,
imu,109.644283,-0.4282774048000001,-8.481806704000002,4.931171683200001,-0.02232326000000001,13.30838979,-5.91142393,,,
imu,109.652739,-0.5263744640000001,-8.530257080800002,4.931171683200001,0.25432241,14.60937213,-6.19554651,,,
imu,109.661195,-0.5359449088000001,-8.570931471200002,4.9239938496,0.38142988,16.16456941,-6.67406875,,,
imu,109.669651,-0.5514968816000001,-8.569735165600001,4.9239938496,0.26179932,17.98145854,-7.33203683,,,
imu,109.678107,-0.5592728680000001,-8.5757166936,4.9239938496,0.13469185,19.67871711,-8.16945075,,,
imu,109.686563,-0.4982612824000001,-8.640317196000002,4.937153211200001,-0.05970781,21.45822169,-8.78255737,,,
imu,109.695019,-0.3983697648000001,-8.672019294400002,4.9443310448,-0.46346095,22.8863115,-9.29846416,,,
imu,109.703474,-0.3355637208,-8.6839823504,4.976631296000001,-1.14385976,24.11252474,-9.9265246,,,
imu,109.71193,-0.331974804,-8.713889990400002,4.961677476,-1.43545925,25.10695377,-10.225601,,,
imu,109.720386,-0.3020671640000001,-8.709104768000001,4.933564294400001,-1.68967419,26.07895207,-10.17326263,,,
imu,109.728842,-0.2643835376,-8.640317196000002,4.912030793600001,-2.04856587,26.82664307,-10.26298555,,,
imu,109.737298,-0.1860255208,-8.606222486400002,4.895880668000001,-2.30278081,27.30516531,-10.38261611,,,
imu,109.745754,-0.09091922560000001,-8.5930631248,4.888104681600001,-2.36259609,27.70144154,-10.47233903,,,
imu,109.75421,0.0,-8.597848347200001,4.8773379312,-2.26539626,27.73134918,-10.61440032,,,
imu,109.762698,0.1148453376,-8.549996123200001,4.833672776800001,-2.18315025,27.39488823,-10.60692341,,,
imu,109.771185,0.2117460912,-8.487190079200001,4.847430291200001,-1.8466893,26.59485886,-10.4499083,,,
imu,109.779673,0.3014690112,-8.4303655632,4.862384111200001,-1.52518217,25.63781438,-10.42000066,,,
imu,109.788161,0.3092449976000001,-8.4447212304,4.886310223200001,-0.76253735,24.50880097,-9.97886297,,,
imu,109.796648,0.3086468448,-8.532649692000001,4.925788308,-0.40364567,23.13304953,-9.747078759999999,,,
imu,109.805136,0.320011748,-8.6229707648,4.973042379200001,-0.23915365,21.86945174,-9.507817639999999,,,
imu,109.813624,0.3433397072,-8.636130126400001,4.985005435200001,-0.40364567,20.7927767,-9.26107961,,,
imu,109.822112,0.352910152,-8.630148598400002,4.976631296000001,-0.77001426,19.71610166,-8.97695703,,,
imu,109.830599,0.3559009160000001,-8.6349338208,4.990388810400001,-0.9793677399999999,18.65438044,-8.76760355,,,
imu,109.839087,0.3648732080000001,-8.639120890400001,4.996370338400001,-1.27096723,17.34592119,-8.52834243,,,
imu,109.847575,0.3887993200000001,-8.650485793600001,4.986799893600001,-1.59247436,16.29915379,-8.40871187,,,
imu,109.856062,0.3995660704000001,-8.634335668000002,4.985603588000001,-1.83921239,14.9607869,-8.19935839,,,
imu,109.86455,0.4222958768,-8.632541209600001,4.983210976800001,-1.95884295,13.57008164,-8.03486637,,,
imu,109.873038,0.4240903352000001,-8.601437264000001,4.971846073600001,-2.00370441,12.26162239,-7.780651429999999,,,
imu,109.881525,0.3780325696000001,-8.578109304800002,4.964070087200001,-1.82425857,11.03540915,-7.1600679,,,
imu,109.890013,0.320011748,-8.549996123200001,4.958686712,-1.76444329,9.794242090000001,-6.532007459999999,,,
imu,109.898501,0.2865151912,-8.518294024800001,4.9443310448,-1.8466893,8.83719761,-5.73197809,,,
imu,109.906989,0.2560093984,-8.5105180384,4.961079323200001,-1.49527453,8.05959897,-5.05157928,,,
imu,109.915476,0.2075590216,-8.533247844800002,4.9550977952,-1.06909066,7.28947724,-4.715118329999999,,,
imu,109.923964,0.1417622136,-8.539827525600002,4.962873781600001,-0.874691,6.885724099999999,-4.61044159,,,
imu,109.932452,0.1268083936,-8.535042303200001,4.964668240000001,-0.8522602699999999,6.489447869999999,-4.65530305,,,
imu,109.940939,0.1250139352,-8.536836761600002,4.961677476,-0.62047606,6.250186749999999,-4.83474889,,,
imu,109.949427,0.107667504,-8.536238608800002,4.9539014896,-0.4260764,5.93615653,-4.81979507,,,
imu,109.957915,0.143556672,-8.5613610264,4.959284864800001,-0.17933837,5.7641876,-4.81231816,,,
imu,109.966705,0.1818384512,-8.538631220000001,4.9539014896,0.03001510999999998,5.47258811,-4.49828794,,,
imu,109.975496,0.2057645632,-8.535640456000001,4.952705184000001,0.2468455,5.091265699999999,-4.02724261,,,
imu,109.984286,0.1985867296,-8.5661462488,4.9604811704,0.57582954,4.72489711,-3.33936689,,,
imu,109.993076,0.1860255208,-8.585287138400002,4.9814165184,0.65059864,4.20899032,-2.77112173,,,
imu,110.001867,0.1836329096,-8.6624488496,5.009529700000001,0.6954601,3.79028336,-2.25521494,,,
imu,110.010657,0.1800439928,-8.637326432,4.9700516152,0.4861066199999999,3.10988455,-2.08324601,,,
imu,110.019448,0.176455076,-8.5757166936,4.967060851200001,0.21693786,2.48930102,-2.19539966,,,
imu,110.028238,0.131593616,-8.567342554400001,4.947919961600001,0.08235347999999998,2.03320951,-2.2253073,,,
imu,110.037028,0.07895616960000001,-8.594857583200001,4.934760600000001,-0.02980017,1.67431783,-2.30755331,,,
imu,110.045819,0.03349655680000001,-8.592464972000002,4.932966141600001,0.03001510999999998,1.69674856,-2.06829219,,,
imu,110.054609,0.03887993200000001,-8.5966520416,4.916816016,-0.10456927,1.89114822,-1.90380017,,,
imu,110.063399,0.07118018320000001,-8.5930631248,4.912030793600001,0.11226112,2.00330187,-1.67949287,,,
imu,110.07219,0.07118018320000001,-8.592464972000002,4.904254807200001,0.34404533,2.16031698,-1.67949287,,,
imu,110.08098,0.09989151760000002,-8.5679407072,4.9030585016,0.5010604399999999,2.25751681,-1.83650798,,,
imu,110.089771,0.1010878232,-8.582894527200002,4.907843724000001,0.85995212,2.19022462,-1.83650798,,,
imu,110.098561,0.07656355840000001,-8.581100068800001,4.895282515200001,1.12912088,2.20517844,-2.01595382,,,
imu,110.107351,0.06160973840000001,-8.562557332,4.900067737600001,1.21136689,2.22013226,-2.16549202,,,
imu,110.116142,0.05861897440000001,-8.5727259296,4.9024603488,1.65250458,2.45939338,-2.09819983,,,
imu,110.124932,0.05981528000000001,-8.6271578344,4.9102363352,1.75718132,2.56407012,-2.06081528,,,
imu,110.133723,0.0490485296,-8.667832224800001,4.918012321600001,1.6674584,2.64631613,-2.26269185,,,
imu,110.142513,0.06460050240000001,-8.661252544000002,4.9102363352,1.39828964,2.69117759,-2.50195297,,,
imu,110.151303,0.06160973840000001,-8.673813752800001,4.91980678,1.32352054,2.66126995,-2.70382954,,,
imu,110.160094,0.0675912664,-8.685178656000001,4.904254807200001,1.17398234,2.6238854,-2.94309066,,,
imu,110.168578,0.0735727944,-8.6558691688,4.8976751264,0.91229049,2.6986545,-3.08515195,,,
imu,110.177062,0.0741709472,-8.652878404800001,4.889899140000001,0.620691,2.58650085,-3.26459779,,,
imu,110.185545,0.07895616960000001,-8.6558691688,4.882123153600001,0.65059864,2.53416248,-3.45152054,,,
imu,110.194029,0.08254508640000002,-8.6247652232,4.8647767224,0.70293701,2.48182411,-3.51881273,,,
imu,110.202513,0.0550300576,-8.6020354168,4.8665711808,0.76275229,2.3995781,-3.67582784,,,
imu,110.210997,0.0155519728,-8.6205781536,4.846233985600001,1.01696723,2.36967046,-3.68330475,,,
imu,110.219746,-0.0251224176,-8.6307467512,4.848626596800001,1.27865908,2.34723973,-3.68330475,,,
imu,110.228229,-0.0514411408,-8.643307960000001,4.847430291200001,1.45062801,2.3995781,-3.60105874,,,
imu,110.236713,-0.05981528000000001,-8.657663627200002,4.848626596800001,1.38333582,2.67622377,-3.60105874,,,
imu,110.245197,-0.0693857248,-8.6833841976,4.851019208,1.48053565,3.03511545,-3.44404363,,,
imu,110.253681,-0.0167482784,-8.6839823504,4.863580416800001,1.04687487,3.36409949,-3.21225942,,,
imu,110.262165,-0.007775986400000001,-8.695347253600001,4.854009972000001,0.60573718,3.62579134,-2.96552139,,,
imu,110.270649,0.004187069600000001,-8.700132476,4.853411819200001,0.5459219,3.85009864,-2.56924516,,,
imu,110.279133,0.03110394560000001,-8.7114973792,4.855804430400001,0.43376825,3.820191,-2.11315365,,,
imu,110.287617,0.04007623760000001,-8.708506615200001,4.8456358328,0.28423005,3.81271409,-1.91875399,,,
imu,110.296101,0.0442633072,-8.676206364,4.827691248800001,-0.07466163,3.76037572,-1.84398489,,,
imu,110.304584,0.0783580168,-8.6421116544,4.807354053600001,-0.21672292,3.71551426,-1.86641562,,,
imu,110.313068,0.10467674,-8.615194778400001,4.797783608800001,0.02253820000000001,3.53606842,-1.83650798,,,
imu,110.321552,0.1082656568,-8.6277559872,4.809148512,0.18703022,3.23699202,-1.59724686,,,
imu,110.330036,0.10467674,-8.637326432,4.812737428800001,0.53096808,3.00520781,-1.54490849,,,
imu,110.33852,0.1172379488,-8.6439061128,4.818718956800001,0.80013684,2.78837742,-1.46266248,,,
imu,110.347004,0.1118545736,-8.6451024184,4.8229060264,0.7403215599999999,2.51173175,-1.35798574,,,
imu,108.832219,,,,,,,-94.2884236,166.5855244,119.6366784
imu,108.933782,,,,,,,-92.37189320000002,166.4146236,116.9999232
imu,109.035314,,,,,,,-95.30162120000001,166.8174612,119.917444
imu,109.136907,,,,,,,-95.26499960000001,167.232506,118.818796
imu,109.246221,,,,,,,-95.7410804,167.4644428,120.0028944
imu,109.340001,,,,,,,-96.41247640000002,168.270118,119.8808224
imu,109.441686,,,,,,,-96.54675560000001,168.7461988,119.3803272
imu,109.543157,,,,,,,-97.4378812,168.7217844,118.5502376
imu,110.355488,0.1058730456,-8.661252544000002,4.840252457600001,0.8973366700000001,2.19770153,-1.13367844,,,
imu,110.363972,0.0753672528,-8.716880754400002,4.868365639200001,0.9347212199999999,1.90610204,-0.96918642,,,
imu,110.372428,0.05383375200000001,-8.7354234912,4.863580416800001,0.70293701,1.86124058,-0.91684805,,,
imu,110.380883,0.0550300576,-8.716282601600001,4.872552708800001,0.33656842,1.93600968,-1.07386316,,,
imu,110.389339,0.0855358504,-8.6977398648,4.867169333600001,-0.0522309,2.19022462,-1.3280781,,,
imu,110.397795,0.113649032,-8.6977398648,4.858795194400001,-0.33635348,2.27994754,-1.44023175,,,
imu,110.406251,0.1650901728,-8.672019294400002,4.841448763200001,-0.7550604399999999,2.16779389,-1.56733922,,,
imu,110.414707,0.2231109944,-8.636130126400001,4.847430291200001,-0.8821679099999999,2.11545552,-1.58229304,,,
imu,110.423163,0.2649816904,-8.615792931200001,4.841448763200001,-0.44850713,1.93600968,-1.60472377,,,
imu,110.431619,0.3074505392,-8.5727259296,4.8366635408,-0.15690764,1.49487199,-1.51500085,,,
imu,110.440075,0.3253951232,-8.536836761600002,4.83008386,0.09730729999999999,0.9191499199999997,-1.24583209,,,
imu,110.448531,0.3822196392,-8.581100068800001,4.8893009872,0.44872207,0.19388965,-0.8719865899999999,,,
imu,110.456987,0.4683536424000001,-8.642709807200001,4.9006658904,0.79265993,-0.7855855599999999,-0.76730985,,,
imu,110.465443,0.5969564944000001,-8.573324082400001,4.849822902400001,0.8823828499999999,-2.26601374,-0.8196482199999999,,,
imu,110.473898,0.6406216488000002,-8.438739702400001,4.847430291200001,1.11416706,-4.09785669,-0.5579563699999999,,,
imu,110.482354,0.6866794144,-8.463263967200001,4.855804430400001,1.77213514,-6.18391458,0.0177657,,,
imu,110.49081,0.6531828576,-8.529060775200001,4.8444395272,2.3403803,-8.531664319999999,0.8028412500000002,,,
imu,110.499266,0.6053306336000001,-8.5105180384,4.834270929600001,3.0133022,-10.80464496,1.84213174,,,
imu,110.507722,0.5736285352000001,-8.505732816000002,4.813335581600001,3.47687062,-12.9280874,2.56739201,,,
imu,110.516178,0.5359449088000001,-8.5021438992,4.822307873600001,4.04511578,-14.84217636,3.22536009,,,
imu,110.524634,0.4551942808000001,-8.521882941600001,4.815130040000001,4.71803768,-16.73383459,3.73378997,,,
imu,110.53309,0.3995660704000001,-8.5440145952,4.818120804,5.17412919,-18.1619244,4.1300662,,,
imu,110.541546,0.3194135952000001,-8.544612748,4.813933734400001,5.69751289,-19.35075309,4.61606535,,,
imu,110.550002,0.2464389536,-8.5511924288,4.798381761600001,6.28818878,-20.36013594,5.09458759,,,
imu,110.558458,0.1698753952,-8.542220136800001,4.780437177600001,6.6769881,-21.16016531,5.37871017,,,
imu,110.566914,0.07656355840000001,-8.557772109600002,4.764287052,7.41720219,-21.73588738,5.7749864,,,
imu,110.575416,-0.007177833600000002,-8.582894527200002,4.7469406208,7.955539709999999,-21.91533322,5.954432239999999,,,
imu,110.583919,-0.0783580168,-8.581698221600002,4.732584953600001,8.56864633,-21.93776395,6.02920134,,,
imu,110.592422,-0.1202287128,-8.6098114032,4.732584953600001,9.062122389999999,-21.72841047,5.909570779999999,,,
imu,110.600925,-0.16449202,-8.640317196000002,4.7230145088,9.33876806,-21.34708806,5.72264803,,,
imu,110.609428,-0.1902125904,-8.65826178,4.715238522400001,9.809813389999999,-20.82370436,5.475910000000001,,,
imu,110.617931,-0.2225128416,-8.681589739200001,4.705069924800001,10.08645906,-20.39752049,5.16187978,,,
imu,110.626434,-0.2554112456,-8.710301073600002,4.7158366752,10.28085872,-19.88909061,4.974957030000001,,,
imu,110.634937,-0.275150288,-8.745592088800002,4.7020791608,10.15375125,-19.22364562,4.728218999999999,,,
imu,110.64344,-0.2536167872,-8.753368075200001,4.6709752152,10.13132052,-18.47595462,4.690834450000001,,,
imu,110.651943,-0.2398592728,-8.7557606864,4.653628784,10.13879743,-17.83294036,4.59363462,,,
imu,110.660446,-0.2428500368,-8.7802849512,4.6344878944,10.28085872,-17.28712593,4.56372698,,,
imu,110.668949,-0.2536167872,-8.807201827200002,4.614748852000001,10.16122816,-16.68897313,4.668403720000001,,,
imu,110.677452,-0.272159524,-8.826940869600001,4.5854393648,10.19861271,-16.07586651,4.67588063,,,
imu,110.685955,-0.2859170384,-8.8275390224,4.5603169472,10.07150524,-15.3954677,4.578680800000001,,,
imu,110.694458,-0.3104413032000001,-8.829931633600001,4.539979752000001,10.07150524,-14.75245344,4.57120389,,,
imu,110.702961,-0.3313766512,-8.851465134400001,4.5184462512,9.854674849999999,-13.98980862,4.5039117,,,
imu,110.711464,-0.3463304712,-8.86761526,4.5166517928,9.84719794,-13.27950217,4.354373499999999,,,
imu,110.719967,-0.340947096,-8.865820801600002,4.500501667200001,9.60045991,-12.38227297,3.980528,,,
imu,110.72847,-0.323002512,-8.8813727744,4.498109056000001,9.136891489999998,-11.51495141,3.55434413,,,
imu,110.736973,-0.320011748,-8.9047007336,4.472986638400001,8.957445649999999,-10.6102453,3.24031391,,,
imu,110.745476,-0.3038616224,-8.906495192000001,4.45623836,8.546215599999998,-9.74292374,2.84403768,,,
imu,110.753979,-0.2613927736,-8.908289650400002,4.438293776000001,8.06769336,-9.04757111,2.61973038,,,
imu,110.762482,-0.2308869808,-8.9076914976,4.419152886400001,7.77609387,-8.32231084,2.27579252,,,
imu,110.770985,-0.2237091472,-8.886756149600002,4.4006101496,7.68637095,-7.6942504,2.11877741,,,
imu,110.779409,-0.1997830352,-8.8771857048,4.3766840376,7.64150949,-7.133482150000001,2.04400831,,,
imu,110.787833,-0.173464312,-8.899915511200001,4.3653191344,7.50692511,-6.66243682,2.07391595,,,
imu,110.796257,-0.152528964,-8.91247672,4.335411494400001,7.37234073,-6.318498959999999,2.25336179,,,
imu,110.804681,-0.1232194768,-8.9076914976,4.324644744,7.46206365,-6.11662239,2.35803853,,,
imu,110.813105,-0.1130508792,-8.923841623200001,4.308494618400001,7.52187893,-5.907268909999999,2.38046926,,,
imu,110.821529,-0.09151737840000002,-8.960328944,4.301914937600001,7.6489864,-5.862407449999999,2.43280763,,,
imu,110.829953,-0.09091922560000001,-8.981264292,4.297129715200001,7.45458674,-5.78763835,2.45523836,,,
imu,110.838378,-0.107667504,-9.0045922512,4.282175895200001,7.32747927,-5.66053088,2.42533072,,,
imu,110.846802,-0.1262102408,-9.0225368352,4.2552590192,7.23027944,-5.54090032,2.22345415,,,
imu,110.855226,-0.1268083936,-9.028518363200002,4.2397070464,7.05831051,-5.35397757,2.04400831,,,
imu,110.86365,-0.1238176296,-9.054837086400001,4.237912588,6.78914175,-5.08480881,1.84213174,,,
imu,110.872074,-0.1351825328,-9.0805576568,4.231332907200001,6.28071187,-4.75582477,1.5131477,,,
imu,110.880498,-0.1327899216,-9.087735490400002,4.214584628800001,5.98163547,-4.30721017,1.48324006,,,
imu,110.888922,-0.1190324072,-9.068594600800001,4.203817878400001,5.57788233,-3.79878029,1.34865568,,,
imu,110.897346,-0.1028822816,-9.1122597552,4.2187716984,5.01711408,-3.29035041,1.33370186,,,
imu,110.905771,-0.1034804344,-9.1672898128,4.2205661568,4.55354566,-2.93893564,1.04957928,,,
imu,110.914195,-0.07656355840000001,-9.1302043392,4.182882530400001,3.85819303,-2.74453598,0.64582614,,,
imu,110.922619,-0.05443190480000001,-9.0368925024,4.154171196,3.63388573,-2.67724379,0.1747808100000001,,,
imu,110.931043,-0.07775986400000001,-9.034499891200001,4.143404445600001,3.20022495,-2.72958216,-0.6551562,,,
imu,110.939467,-0.1172379488,-9.073977976,4.12725432,2.82637945,-2.60247469,-1.01404788,,,
imu,110.947891,-0.155519728,-9.060220461600002,4.1099078888,2.69927198,-2.40059812,-1.26826282,,,
imu,110.956315,-0.1620994088,-9.072183517600001,4.110506041600001,2.4151494,-1.98936807,-1.41780102,,,
imu,110.964739,-0.1519308112,-9.104483768800002,4.113496805600001,2.34785721,-1.46598437,-1.53743158,,,
imu,110.973164,-0.1567160336,-9.103885616000001,4.1284506256,1.7422275,-1.04727741,-1.79912343,,,
imu,110.981694,-0.167482784,-9.100296699200001,4.123067250400001,1.37585891,-0.65847809,-2.10567674,,,
imu,110.990225,-0.1632957144,-9.0961096296,4.1200764864,1.01696723,-0.2472480400000001,-2.28512258,,,
imu,110.998756,-0.1561178808,-9.082950268000001,4.110506041600001,0.52349117,0.2088434699999997,-2.38979932,,,
imu,111.007287,-0.1728661592,-9.0644075312,4.122469097600001,0.17955331,0.58268897,-2.39727623,,,
imu,111.015818,-0.1668846312,-9.069192753600001,4.124263556000001,-0.02232326000000001,1.09111885,-2.36736859,,,
imu,111.024349,-0.1561178808,-9.079361351200001,4.1236654032,-0.2765382,1.51730272,-2.18044584,,,
imu,111.03288,-0.1483418944,-9.075772434400001,4.124861708800001,-0.59056842,1.81637912,-1.91875399,,,
imu,111.041411,-0.1591086448,-9.076968740000002,4.123067250400001,-0.89712173,2.08554788,-1.78416961,,,
imu,111.049942,-0.1483418944,-9.065603836800001,4.1254598616,-1.27844414,2.36219355,-1.81407725,,,
imu,111.058473,-0.1501363528,-9.0823521152,4.122469097600001,-1.45788998,2.71360832,-1.87389253,,,
imu,111.067004,-0.1489400472,-9.097904088000002,4.1356284592,-1.60742818,3.03511545,-1.88136944,,,
imu,111.075535,-0.1280046992,-9.095511476800002,4.1266561672,-1.82425857,3.21456129,-1.96361545,,,
imu,111.084066,-0.09570444800000001,-9.09192256,4.127852472800001,-2.16819643,3.43139168,-2.17296893,,,
imu,111.092597,-0.07058203040000001,-9.082950268000001,4.14220814,-2.43736519,3.5958837,-2.09072292,,,
imu,111.101128,-0.0376836264,-9.089529948800001,4.149984126400001,-2.56447266,3.52859151,-2.06081528,,,
imu,111.109658,-0.008374139200000002,-9.0614167672,4.1428062928,-2.8186876,3.61831443,-2.06829219,,,
imu,111.118189,0.0023926112,-9.0303128216,4.157760112800001,-3.32711748,3.27437657,-2.11315365,,,
imu,111.12672,0.0,-9.045864794400002,4.1888640584,-3.63367079,2.99025399,-2.20287657,,,
imu,111.135251,-0.002990764,-9.0578278504,4.200827114400001,-3.7906859,2.72108523,-2.21035348,,,
imu,111.143782,-0.0233279592,-9.056631544800002,4.2205661568,-4.2393005,2.48182411,-2.36736859,,,
imu,111.152313,-0.04785222400000001,-9.044070336,4.2301366016,-4.680438189999999,2.39210119,-2.39727623,,,
imu,111.160844,-0.08972292000000001,-9.003994098400002,4.214584628800001,-4.964560769999999,2.30237827,-2.30755331,,,
imu,109.64475,,,,,,,-96.2293684,168.7828204,117.53704
imu,109.746251,,,,,,,-98.69522280000001,168.9293068,118.4037512
imu,109.847814,,,,,,,-97.3768452,168.0625956,113.7650152
imu,109.949407,,,,,,,-100.0136004,169.0513788,116.0843832
imu,110.050969,,,,,,,-99.684006,168.2212892,113.5941144
imu,110.152501,,,,,,,-100.050222,168.941514,115.644924
imu,110.254094,,,,,,,-99.7816636,168.3067396,115.6815456
imu,110.355626,,,,,,,-99.8915284,168.2579108,115.1444288
imu,111.169375,-0.1058730456,-8.9884421256,4.219369851200001,-5.360837,2.42948574,-2.28512258,,,
imu,111.177906,-0.09869521200000002,-8.9836569032,4.2205661568,-5.40569846,2.72108523,-2.18792275,,,
imu,111.186654,-0.08254508640000002,-8.956740027200002,4.222958768000001,-5.47299065,2.86314652,-2.17296893,,,
imu,111.195402,-0.08493769760000001,-8.9399917488,4.213986476000001,-5.56271357,2.88557725,-2.26269185,,,
imu,111.20415,-0.0681894192,-8.911878567200002,4.2014252672,-5.45055992,2.98277708,-2.32250713,,,
imu,111.212898,-0.04366515440000001,-8.907093344800002,4.2163790872,-5.248683349999999,3.02016163,-2.34493786,,,
imu,111.221646,-0.04366515440000001,-8.9220471648,4.2415015048,-4.800068749999999,3.0725,-2.29259949,,,
imu,111.230394,-0.0323002512,-8.933412068,4.258847936,-4.77016111,2.89305416,-2.35989168,,,
imu,111.239141,-0.03887993200000001,-8.9190564008,4.2755962144,-4.59071527,2.8481927,-2.27764567,,,
imu,111.247889,-0.08314323920000001,-8.9322157624,4.2845685064,-4.515946169999999,2.96782326,-2.17296893,,,
imu,111.256637,-0.1118545736,-8.9286268456,4.295933409600001,-4.47108471,3.18465365,-2.02343073,,,
imu,111.265385,-0.07895616960000001,-8.925037928800002,4.318663216,-4.8374533,3.34166876,-2.24773803,,,
imu,111.274133,-0.08792846160000001,-8.9322157624,4.325242896800001,-4.78511493,3.56597606,-2.33746095,,,
imu,111.282881,-0.122621324,-8.9399917488,4.320457674400001,-4.79259184,3.82766791,-2.58419898,,,
imu,111.291629,-0.107667504,-8.917261942400001,4.316270604800001,-4.919699309999999,3.9697292,-2.83093701,,,
imu,111.300377,-0.0783580168,-8.899915511200001,4.328831813600001,-5.031852959999999,4.25385178,-3.09262886,,,
imu,111.30905,-0.062806044,-8.866418954400002,4.335411494400001,-5.00194532,4.59031273,-3.30198234,,,
imu,111.317798,-0.0317020984,-8.874793093600001,4.344383786400001,-5.061760599999999,4.717420199999999,-3.43656672,,,
imu,111.326546,-0.0113649032,-8.8903450664,4.3766840376,-4.97951459,4.89686604,-3.69078166,,,
imu,111.335294,0.0113649032,-8.914271178400002,4.396423080000001,-5.031852959999999,4.9417275,-3.7954584,,,
imu,111.344042,0.0340947096,-8.9160656368,4.3922360104,-5.151483519999999,4.8669584,-3.69825857,,,
imu,111.352789,0.0352910152,-8.886756149600002,4.408386136000001,-5.44308301,4.95668132,-3.63844329,,,
imu,111.361537,0.02990764000000001,-8.945973276800002,4.464612499200001,-5.49542138,4.85200458,-3.56367419,,,
imu,111.370285,0.04366515440000001,-9.0045922512,4.444873456800001,-5.63748267,4.77723548,-3.60105874,,,
imu,111.379033,0.0430670016,-8.902906275200001,4.439490081600001,-6.08609727,4.68003565,-3.84779677,,,
imu,111.387511,0.0442633072,-8.847876217600001,4.455042054400001,-6.32535839,4.433297619999999,-4.341272829999999,,,
imu,111.395988,0.04007623760000001,-8.868213412800001,4.4370974704,-6.0337589,4.18655959,-4.55062631,,,
imu,111.404466,0.0173464312,-8.845483606400002,4.418554733600001,-6.0337589,3.98468302,-4.625395409999999,,,
imu,111.412943,0.005981528000000001,-8.814977813600002,4.4269288728,-6.05618963,3.93234465,-4.48333412,,,
imu,111.421421,0.0173464312,-8.8209593416,4.422741803200001,-5.861789969999999,3.79028336,-4.386134289999999,,,
imu,111.429898,0.0293094872,-8.8323242448,4.4418826928,-5.63000576,3.58092988,-4.35622665,,,
imu,111.438376,0.0382817792,-8.826342716800001,4.443677151200001,-5.46551374,3.39400713,-4.46090339,,,
imu,111.446853,0.007775986400000001,-8.803014757600002,4.439490081600001,-5.151483519999999,3.03511545,-4.41604193,,,
imu,111.455331,-0.0107667504,-8.784472020800001,4.4490605264,-4.59071527,2.78090051,-4.25154991,,,
imu,111.463809,-0.0275150288,-8.7760978816,4.4484623736,-4.373884879999999,2.66126995,-3.98238115,,,
imu,111.472286,-0.03588916800000001,-8.767723742400001,4.460425429600001,-4.28416196,2.52668557,-3.66835093,,,
imu,111.480764,-0.04007623760000001,-8.7790886456,4.478968166400001,-4.08228539,2.35471664,-3.2720747,,,
imu,111.489241,-0.0430670016,-8.789257243200002,4.498707208800001,-4.373884879999999,2.33976282,-3.0477674,,,
imu,111.497719,-0.0532355992,-8.830529786400001,4.519044404000001,-4.254254319999999,2.31733209,-2.70382954,,,
imu,111.506196,-0.06400234960000001,-8.845483606400002,4.533998224000001,-4.48603853,2.28742445,-2.65149117,,,
imu,111.514674,-0.07118018320000001,-8.826342716800001,4.535194529600001,-4.702868919999999,2.39210119,-2.73373718,,,
imu,111.523151,-0.09570444800000001,-8.8179685776,4.534596376800001,-4.62062291,2.63883922,-2.86084465,,,
imu,111.531629,-0.1028822816,-8.803612910400002,4.539979752000001,-4.493515439999999,2.91548489,-3.10010577,,,
imu,111.540106,-0.0903210728,-8.794042465600002,4.547755738400001,-4.59071527,2.96034635,-3.31693616,,,
imu,111.548584,-0.07058203040000001,-8.7725089648,4.54596128,-4.43370016,3.08745382,-3.52628964,,,
imu,111.557061,-0.0514411408,-8.766527436800002,4.554335419200001,-4.299115779999999,3.40896095,-3.66835093,,,
imu,111.565539,-0.0323002512,-8.757555144800001,4.57586892,-4.22434668,3.51363769,-3.78050458,,,
imu,111.574016,-0.007775986400000001,-8.750975464000001,4.587831976,-4.0149932,3.52859151,-3.78050458,,,
imu,111.582494,-0.005981528000000001,-8.768321895200001,4.62073038,-4.03742393,3.45382241,-3.92256587,,,
imu,111.590956,0.0011963056,-8.8066036744,4.654226936800001,-3.865455,3.28933039,-3.95247351,,,
imu,111.599419,0.0017944584,-8.819164883200001,4.647647256000001,-4.14957758,3.0725,-4.04967334,,,
imu,111.607881,-0.01495382,-8.819763036000001,4.663797381600001,-4.493515439999999,2.73603905,-4.06462716,,,
imu,111.616343,-0.0406743904,-8.804809216,4.671573368000001,-4.55333072,2.54163939,-3.86275059,,,
imu,111.624805,-0.06400234960000001,-8.7802849512,4.656021395200001,-4.87483785,2.53416248,-3.74312003,,,
imu,111.633268,-0.0753672528,-8.765331131200002,4.668582604000001,-5.031852959999999,2.56407012,-3.54124346,,,
imu,111.64173,-0.05682451600000001,-8.739610560800001,4.650039867200001,-4.97951459,2.51920866,-3.37675144,,,
imu,111.650192,-0.0442633072,-8.674411905600001,4.623122991200001,-4.844930209999999,2.49677793,-3.59358183,,,
imu,111.658654,-0.05443190480000001,-8.633139362400001,4.633291588800001,-4.35893106,2.46687029,-3.78798149,,,
imu,111.667117,-0.06101158560000001,-8.639719043200001,4.6344878944,-3.97013174,2.33228591,-3.95247351,,,
imu,111.675579,-0.05802082160000001,-8.639120890400001,4.6398712696,-3.24487147,2.22013226,-4.07210407,,,
imu,111.684041,-0.07297464160000001,-8.656467321600001,4.652432478400001,-2.71401086,2.12293243,-4.13939626,,,
imu,111.692503,-0.08433954480000001,-8.660654391200001,4.651236172800001,-2.42241137,2.04068642,-4.07210407,,,
imu,111.700966,-0.08912476720000001,-8.6660377664,4.6464509504,-1.93641222,1.93600968,-3.98238115,,,
imu,111.709428,-0.101685976,-8.655271016,4.664993687200001,-1.68967419,1.92105586,-3.9449966,,,
imu,111.71789,-0.110658268,-8.6594580856,4.6590121592,-1.45041307,1.93600968,-3.93751969,,,
imu,111.726353,-0.1232194768,-8.689365725600002,4.673367826400001,-1.26349032,1.90610204,-3.9449966,,,
imu,111.734815,-0.1321917688,-8.7067121568,4.664993687200001,-1.01675229,1.96591732,-3.95995042,,,
imu,111.743277,-0.155519728,-8.708506615200001,4.656021395200001,-0.9943215599999999,2.04068642,-3.82536604,,,
imu,111.751739,-0.1597067976,-8.7067121568,4.6691807568,-0.91955246,2.1752708,-3.87770441,,,
imu,111.760202,-0.1626975616,-8.712095532000001,4.6518343256,-0.52327623,2.4743472,-3.89265823,,,
imu,111.768664,-0.1758569232,-8.6965435592,4.636282352800001,-0.37373803,2.65379304,-3.66087402,,,
imu,111.777126,-0.1938015072,-8.691160184000001,4.6380768112,-0.23915365,2.90053107,-3.57862801,,,
imu,111.785588,-0.185427368,-8.7527699224,4.6709752152,0.26927623,3.0725,-3.58610492,,,
imu,111.794055,-0.1716698536,-8.813183355200001,4.649441714400001,0.36647606,3.17717674,-3.7954584,,,
imu,111.802521,-0.1591086448,-8.7557606864,4.633291588800001,0.31413769,3.40896095,-3.86275059,,,
imu,111.810987,-0.1603049504,-8.7318345744,4.6554232424,0.2468455,3.80523718,-3.80293531,,,
imu,111.819453,-0.1537252696,-8.8293334808,4.675760437600001,0.3216146,3.97720611,-3.7206893,,,
imu,111.827919,-0.1381732968,-8.8389039256,4.652432478400001,-0.05970781,3.77532954,-3.91508896,,,
imu,111.836385,-0.1321917688,-8.7910517016,4.663797381600001,-0.44850713,3.54354533,-4.55810322,,,
imu,111.844851,-0.1417622136,-8.8353150088,4.656021395200001,-0.5980453299999999,3.32671494,-5.12634838,,,
imu,111.853317,-0.1812402984,-8.852063287200002,4.6380768112,-0.78496808,3.20708438,-5.283363489999999,,,
imu,111.861783,-0.206362716,-8.833520550400001,4.6033839488,-1.00179847,3.31176112,-4.92447181,,,
imu,111.870249,-0.1842310624,-8.782677562400002,4.5740744616,-0.93450628,3.37905331,-4.430995749999999,,,
imu,111.878715,-0.155519728,-8.744993936,4.554335419200001,-0.6503837,3.28185348,-4.169303899999999,,,
imu,111.887181,-0.1573141864,-8.7461902416,4.562111405600001,-0.13447691,3.25942275,-4.13939626,,,
imu,111.895648,-0.1668846312,-8.7485828528,4.5411760576,0.29918387,3.09493073,-4.0197657,,,
imu,111.904114,-0.1932033544,-8.750377311200001,4.54596128,0.60573718,3.03511545,-3.57862801,,,
imu,111.91258,-0.1842310624,-8.766527436800002,4.5776633784,0.66555246,2.9229618,-3.36179762,,,
imu,111.921046,-0.1949978128,-8.7832757152,4.588430128800001,0.620691,2.96782326,-3.11505959,,,
imu,111.929512,-0.2225128416,-8.792248007200001,4.594411656800001,0.71789083,3.20708438,-2.72626027,,,
imu,111.937978,-0.2069608688,-8.828137175200002,4.626711908000001,0.14964567,3.43139168,-2.50195297,,,
imu,111.946444,-0.1740624648,-8.843689148000001,4.632693436,-0.51579932,3.38653022,-2.48699915,,,
imu,111.95491,-0.1680809368,-8.826940869600001,4.624917449600001,-0.7999219,3.33419185,-2.50942988,,,
imu,111.963376,-0.176455076,-8.792846160000002,4.617739616000001,-1.28592105,3.23699202,-2.5991528,,,
imu,111.971842,-0.1758569232,-8.789257243200002,4.6033839488,-1.33825942,3.21456129,-2.50942988,,,
imu,111.980308,-0.185427368,-8.782677562400002,4.5836449064,-1.21862886,3.19960747,-2.53933752,,,
imu,110.457145,,,,,,,-100.2089156,168.148046,115.3031224
imu,110.558677,,,,,,,-99.3544116,168.148046,115.4496088
imu,110.660423,,,,,,,-98.68301560000002,167.2080916,116.8900584
imu,110.761802,,,,,,,-94.83774760000001,166.3657948,116.5238424
imu,110.863395,,,,,,,-96.6688276,165.6821916,118.2816792
imu,110.964958,,,,,,,-93.22639720000001,164.6567868,116.3651488
imu,111.06652,,,,,,,-94.95981959999999,165.1694892,118.4281656
imu,111.1697,,,,,,,-94.66684679999999,165.3159756,117.53704
imu,111.988774,-0.1938015072,-8.740208713600001,4.568092933600001,-1.03170611,3.16222292,-2.5243837,,,
imu,111.997634,-0.1812402984,-8.7497791584,4.584841212000001,-0.6279529699999999,3.12483837,-2.43466078,,,
imu,112.006493,-0.167482784,-8.764732978400001,4.581850448000001,-0.18681528,3.17717674,-2.3000764,,,
imu,112.015353,-0.1650901728,-8.7760978816,4.5776633784,0.13469185,3.17717674,-2.28512258,,,
imu,112.024212,-0.1638938672,-8.7581532976,4.581850448000001,0.30666078,3.01268472,-2.35989168,,,
imu,112.033071,-0.170473548,-8.7946406184,4.611159935200001,0.35152224,2.8481927,-2.45709151,,,
imu,112.041931,-0.1680809368,-8.865222648800001,4.629104519200001,0.23936859,2.78837742,-2.75616791,,,
imu,112.05079,-0.1710717008,-8.896326594400001,4.637478658400001,0.05992275,2.59397776,-2.98047521,,,
imu,112.05965,-0.1740624648,-8.879578316000002,4.6392731168,-0.44850713,2.57154703,-3.04029049,,,
imu,112.068509,-0.1890162848,-8.879578316000002,4.633889741600001,-0.89712173,2.48182411,-2.80102937,,,
imu,112.077368,-0.203371952,-8.870606024,4.648843561600001,-1.26349032,2.44443956,-2.27764567,,,
imu,112.086228,-0.1842310624,-8.8694097184,4.6434601864,-1.83173548,2.46687029,-2.10567674,,,
imu,112.095087,-0.16449202,-8.8460817592,4.635684200000001,-2.25044244,2.54163939,-1.91875399,,,
imu,112.103946,-0.1483418944,-8.8083981328,4.619534074400001,-2.43736519,2.56407012,-1.74678506,,,
imu,112.112806,-0.173464312,-8.7904535488,4.5926171984,-2.54951884,2.48182411,-1.88136944,,,
imu,112.121665,-0.1926052016,-8.761144061600001,4.595607962400001,-2.36259609,2.45191647,-1.91127708,,,
imu,112.130525,-0.2021756464,-8.7174789072,4.581252295200001,-2.19810407,2.56407012,-1.91127708,,,
imu,112.139384,-0.2069608688,-8.6899638784,4.561513252800001,-1.83173548,2.66874686,-1.90380017,,,
imu,112.148243,-0.2386629672,-8.6624488496,4.548353891200001,-1.5476129,2.8481927,-1.91875399,,,
imu,112.157103,-0.218325772,-8.678000822400001,4.5633077112,-1.04665993,2.94539253,-1.94118472,,,
imu,112.165962,-0.2069608688,-8.7007306288,4.578859684,-0.62047606,3.16969983,-1.99352309,,,
imu,112.174822,-0.1979885768,-8.712693684800001,4.5962061152,-0.47093786,3.2968073,-2.26269185,,,
imu,112.183681,-0.1932033544,-8.743797630400001,4.614150699200001,-0.32887657,3.46877623,-2.36736859,,,
imu,112.19254,-0.1806421456,-8.7581532976,4.6069728656,-0.40364567,3.52859151,-2.58419898,,,
imu,112.200977,-0.1752587704,-8.7635366728,4.62073038,-0.37373803,3.5958837,-2.41970696,,,
imu,112.209414,-0.17944584,-8.788659090400001,4.631497130400001,-0.44850713,3.84262173,-2.34493786,,,
imu,112.217851,-0.182436604,-8.7982295352,4.628506366400001,-0.64290679,3.9697292,-2.47952224,,,
imu,112.226288,-0.1752587704,-8.7976313824,4.642862033600001,-0.93450628,4.23889796,-2.42718387,,,
imu,112.234725,-0.1698753952,-8.8066036744,4.6464509504,-1.14385976,4.500589809999999,-2.31503022,,,
imu,112.243161,-0.1543234224,-8.8293334808,4.650638020000001,-0.97189083,4.814620029999999,-2.31503022,,,
imu,112.251598,-0.140565908,-8.829931633600001,4.651236172800001,-0.9644139199999999,5.023973509999999,-2.50195297,,,
imu,112.260035,-0.1202287128,-8.810192591200002,4.629702672000001,-0.92702937,5.001542779999999,-2.8234601,,,
imu,112.268472,-0.110658268,-8.7461902416,4.6380768112,-1.13638285,5.315573,-2.90570611,,,
imu,112.276909,-0.092713684,-8.7910517016,4.689517952000001,-1.25601341,5.36791137,-2.77859864,,,
imu,112.285346,-0.06041343280000001,-8.868213412800001,4.692508716000001,-1.28592105,5.36791137,-2.86084465,,,
imu,112.293782,-0.0490485296,-8.8119870496,4.6727696736,-1.36816706,5.22585008,-3.20478251,,,
imu,112.302219,-0.03648732080000001,-8.768321895200001,4.6949013272,-1.59995127,4.814620029999999,-3.78798149,,,
imu,112.310656,-0.04187069600000001,-8.795238771200001,4.671573368000001,-1.52518217,4.65012801,-4.034719519999999,,,
imu,112.319093,-0.0723764888,-8.780883104,4.650638020000001,-1.52518217,4.63517419,-3.54124346,,,
imu,112.32753,-0.0592171272,-8.737816102400002,4.6255156024,-1.51022835,4.59778964,-3.01038285,,,
imu,112.335967,-0.0305057928,-8.712693684800001,4.602785796000001,-1.22610577,4.23889796,-2.78607555,,,
imu,112.344403,-0.0203371952,-8.698338017600001,4.6033839488,-0.85973718,4.00711375,-3.01038285,,,
imu,112.35284,-0.0293094872,-8.713291837600002,4.589028281600001,-0.47093786,3.60336061,-3.17487487,,,
imu,112.361277,-0.07118018320000001,-8.7108992264,4.5842430592,-0.18681528,3.19213056,-3.23469015,,,
imu,112.369714,-0.1088638096,-8.699534323200002,4.589028281600001,-0.19429219,3.16969983,-3.1973056,,,
imu,112.378151,-0.1202287128,-8.7114973792,4.602785796000001,-0.007369440000000005,3.09493073,-2.92813684,,,
imu,112.386588,-0.1220231712,-8.729441963200001,4.612356240800001,0.04496892999999999,3.16222292,-2.5991528,,,
imu,112.395024,-0.1082656568,-8.737816102400002,4.617739616000001,-0.18681528,3.16222292,-2.32250713,,,
imu,112.403678,-0.09929336480000002,-8.747386547200001,4.621328532800001,-0.13447691,3.07997691,-2.17296893,,,
imu,112.412241,-0.09869521200000002,-8.7527699224,4.6255156024,-0.34383039,3.12483837,-2.23278421,,,
imu,112.420803,-0.09151737840000002,-8.753966228000001,4.633291588800001,-0.37373803,2.95286944,-2.24026112,,,
imu,112.429366,-0.09690075360000001,-8.765331131200002,4.6392731168,-0.45598404,2.87810034,-2.3748455,,,
imu,112.437929,-0.1244157824,-8.7832757152,4.641067575200001,-0.25410747,2.99025399,-2.50195297,,,
imu,112.446491,-0.1327899216,-8.791649854400001,4.663199228800001,-0.39616876,3.01268472,-2.51690679,,,
imu,112.455054,-0.1172379488,-8.788659090400001,4.6590121592,-0.34383039,3.10240764,-2.46456842,,,
imu,112.463617,-0.1052748928,-8.762340367200002,4.656619548000001,-0.24663056,3.16969983,-2.57672207,,,
imu,112.47218,-0.1274065464,-8.7737052704,4.664993687200001,-0.21672292,3.34166876,-2.70382954,,,
imu,112.480742,-0.1507345056,-8.76293852,4.656021395200001,-0.26906129,3.45382241,-2.77112173,,,
imu,112.489305,-0.1513326584,-8.7144881432,4.6763585904,-0.23167674,3.68560662,-2.84589083,,,
imu,112.497868,-0.1357806856,-8.7174789072,4.7092569944,-0.24663056,3.70056044,-3.09262886,,,
imu,112.506431,-0.1088638096,-8.7557606864,4.710453300000001,-0.21672292,3.82766791,-3.60105874,,,
imu,112.514993,-0.07656355840000001,-8.7318345744,4.695499480000001,-0.02232326000000001,3.62579134,-3.98985806,,,
imu,112.523556,-0.0855358504,-8.710301073600002,4.690714257600001,0.01506129,3.4463455,-4.146873169999999,,,
imu,112.532119,-0.101685976,-8.6869731144,4.674564132,0.15712258,3.31176112,-4.102011709999999,,,
imu,112.540681,-0.0933118368,-8.660056238400001,4.651236172800001,0.5982602699999999,3.20708438,-3.70573548,,,
imu,112.549244,-0.1178361016,-8.640915348800002,4.636282352800001,1.11416706,3.34914567,-3.13749032,,,
imu,112.557807,-0.1381732968,-8.6385227376,4.629702672000001,1.7422275,3.18465365,-2.9729983,,,
imu,112.56637,-0.1321917688,-8.630148598400002,4.6135525464,2.37028794,3.08745382,-2.86832156,,,
imu,112.574932,-0.1519308112,-8.623568917600002,4.5980005736,2.89367164,2.99025399,-2.78607555,,,
imu,112.583495,-0.1758569232,-8.636130126400001,4.611758088,3.33480933,2.79585433,-2.87579847,,,
imu,112.592058,-0.1776513816,-8.6558691688,4.5896264344,3.97782359,2.89305416,-2.73373718,,,
imu,112.60062,-0.1752587704,-8.646896876800001,4.584841212000001,4.29185381,2.90800798,-2.57672207,,,
imu,112.608985,-0.1758569232,-8.678598975200002,4.587233823200001,4.56849948,3.03511545,-2.3748455,,,
imu,112.617349,-0.1632957144,-8.706114004000002,4.581850448000001,4.9572988,2.9977309,-2.18044584,,,
imu,112.625714,-0.1543234224,-8.7497791584,4.575270767200001,5.24142138,3.06502309,-2.18792275,,,
imu,112.634078,-0.1537252696,-8.758751450400002,4.553737266400001,5.21899065,3.04259236,-2.27764567,,,
imu,112.642442,-0.1459492832,-8.771312659200001,4.553737266400001,5.27132902,3.13231528,-2.26269185,,,
imu,112.650807,-0.1471455888,-8.801818452000001,4.5393815992,5.30123666,3.13231528,-2.35989168,,,
imu,112.659171,-0.1268083936,-8.8083981328,4.521437015200001,5.53302087,3.05006927,-2.25521494,,,
imu,112.667535,-0.0783580168,-8.791649854400001,4.507081348000001,5.47320559,3.16222292,-2.27016876,,,
imu,111.269676,,,,,,,-95.289414,165.3892188,119.3437056
imu,111.371177,,,,,,,-95.2161708,166.316966,119.6977144
imu,111.472801,,,,,,,-95.411486,166.5244884,119.1361832
imu,111.574333,,,,,,,-95.411486,166.4146236,118.8065888
imu,111.675865,,,,,,,-95.289414,167.415614,120.527804
imu,111.777427,,,,,,,-92.95783879999999,166.0850292,117.3783464
imu,111.879112,,,,,,,-95.289414,166.9761548,120.222624
imu,111.980552,,,,,,,-92.76252360000001,166.3047588,118.0131208
imu,112.6759,-0.0693857248,-8.807201827200002,4.484949694400001,5.854528,3.06502309,-2.28512258,,,
imu,112.684264,-0.06519865520000001,-8.824548258400002,4.477173708,5.9292971,2.75099287,-2.3000764,,,
imu,112.692628,-0.07895616960000001,-8.842492842400002,4.480762624800001,6.0040662,2.51920866,-2.17296893,,,
imu,112.700993,-0.09989151760000002,-8.8777838576,4.477771860800001,6.25828114,2.48182411,-2.06829219,,,
imu,112.709357,-0.0861340032,-8.913673025600001,4.472986638400001,6.48258844,2.50425484,-2.00847691,,,
imu,112.717722,-0.1010878232,-8.931617609600002,4.4508549848,6.23585041,2.324809,-2.03090764,,,
imu,112.726086,-0.1214250184,-8.941188054400001,4.4556402072,5.80966654,2.24256299,-2.1505382,,,
imu,112.73445,-0.09869521200000002,-8.9806661392,4.486744152800001,5.65265143,2.21265535,-2.27016876,,,
imu,112.742815,-0.09151737840000002,-9.042874030400002,4.459229124000001,5.09936009,2.11545552,-2.32250713,,,
imu,112.751179,-0.1274065464,-8.982460597600001,4.42633072,4.67317622,1.99582496,-2.46456842,,,
imu,112.759543,-0.1507345056,-8.968703083200001,4.434106706400001,4.06754651,1.84628676,-2.83093701,,,
imu,112.767908,-0.1567160336,-9.011770084800002,4.4089842888,3.56659354,1.96591732,-3.0477674,,,
imu,112.776272,-0.1662864784,-8.958534485600001,4.3778803432,3.00582529,2.05564024,-2.92065993,,,
imu,112.784636,-0.170473548,-8.937599137600001,4.368908051200001,2.46001086,2.22760917,-2.86084465,,,
imu,112.793001,-0.1650901728,-8.945375124000002,4.344383786400001,2.10111918,2.36219355,-2.80850628,,,
imu,112.801365,-0.143556672,-8.917261942400001,4.337205952800001,2.03382699,2.42200883,-2.80850628,,,
imu,112.809826,-0.1411640608,-8.926832387200001,4.330626272000001,2.01887317,2.42948574,-2.79355246,,,
imu,112.818287,-0.1698753952,-8.914869331200002,4.309690924000001,2.116073,2.36219355,-2.86084465,,,
imu,112.826748,-0.1591086448,-8.914869331200002,4.301316784800001,1.97401171,2.42200883,-2.83093701,,,
imu,112.835209,-0.1740624648,-8.945375124000002,4.307896465600001,2.01887317,2.45939338,-2.53933752,,,
imu,112.84367,-0.1710717008,-8.9495621936,4.318065063200001,1.83942733,2.48182411,-2.21035348,,,
imu,112.852131,-0.1746606176,-8.9507584992,4.301316784800001,1.71231986,2.57902394,-1.9262309,,,
imu,112.860592,-0.1668846312,-8.9435806656,4.3114853824,1.60016621,2.60145467,-1.73930815,,,
imu,112.869053,-0.1609031032,-8.960328944,4.315074299200001,1.53287402,2.74351596,-1.58976995,,,
imu,112.877514,-0.1573141864,-8.948365888000001,4.303709396,1.16650543,2.78090051,-1.71687742,,,
imu,112.885975,-0.161501256,-8.941786207200002,4.3001204792,0.8823828499999999,2.95286944,-1.80660034,,,
imu,112.894436,-0.1531271168,-8.9387954432,4.3055038544,1.0693056,3.05006927,-1.7766927,,,
imu,112.902897,-0.146547436,-8.947767735200001,4.2965315624,1.01696723,3.19213056,-1.78416961,,,
imu,112.911358,-0.1453511304,-8.917261942400001,4.300718632000001,1.19641307,3.24446893,-1.82155416,,,
imu,112.919819,-0.1429585192,-8.91247672,4.295335256800001,1.18893616,3.37905331,-2.03090764,,,
imu,112.92828,-0.1214250184,-8.940589901600001,4.297727868,1.24127453,3.5211146,-2.17296893,,,
imu,112.936741,-0.09630260080000001,-8.941786207200002,4.288755576000001,1.24127453,3.65569898,-2.06829219,,,
imu,112.945202,-0.08733030880000002,-8.931019456800001,4.280979589600001,1.07678251,3.73046808,-2.06829219,,,
imu,112.953663,-0.05861897440000001,-8.9465714296,4.300718632000001,0.8674290299999999,3.49868387,-2.11315365,,,
imu,112.962124,-0.05383375200000001,-8.989638431200001,4.308494618400001,0.8823828499999999,3.39400713,-2.21783039,,,
imu,112.970585,-0.05383375200000001,-9.019546071200002,4.318663216,0.74779847,3.06502309,-2.50195297,,,
imu,112.979046,-0.07297464160000001,-8.989638431200001,4.325242896800001,0.47862971,2.75846978,-2.64401426,,,
imu,112.987507,-0.1148453376,-9.0045922512,4.321653980000001,0.10478421,2.52668557,-2.70382954,,,
imu,112.995968,-0.140565908,-8.973488305600002,4.315672452000001,0.007584380000000002,2.60145467,-2.33746095,,,
imu,113.004429,-0.1722680064,-8.937599137600001,4.2881574232,-0.11952309,2.68370068,-2.09819983,,,
imu,113.013249,-0.1920070488,-8.937599137600001,4.2881574232,-0.32887657,2.76594669,-1.97109236,,,
imu,113.022068,-0.1740624648,-8.926832387200001,4.274998061600001,-0.41859949,2.96782326,-2.02343073,,,
imu,113.030888,-0.1776513816,-8.918458248000002,4.274998061600001,-0.26158438,3.27437657,-2.06829219,,,
imu,113.039707,-0.1788476872,-8.9088878032,4.261240547200001,-0.007369440000000005,3.46129932,-2.13558438,,,
imu,113.048527,-0.1686790896,-8.907093344800002,4.2636331584,0.06739966,3.58840679,-2.20287657,,,
imu,113.057347,-0.1501363528,-8.9088878032,4.269614686400001,0.01506129,3.87252937,-2.35241477,,,
imu,113.066166,-0.1351825328,-8.9399917488,4.260044241600001,0.11226112,4.05945212,-2.44213769,,,
imu,113.074986,-0.1214250184,-8.935804679200002,4.2630350056,0.29170696,4.26132869,-2.35241477,,,
imu,113.083805,-0.1064711984,-8.9435806656,4.2606423944,0.14964567,4.40338998,-2.28512258,,,
imu,113.092625,-0.08912476720000001,-8.965712319200001,4.2606423944,0.14216876,4.46320526,-2.33746095,,,
imu,113.101444,-0.08912476720000001,-8.993825500800002,4.271409144800001,-0.05970781,4.51554363,-2.47204533,,,
imu,113.110264,-0.09989151760000002,-9.020144224000001,4.2845685064,-0.18681528,4.4931129,-2.59167589,,,
imu,113.119084,-0.1064711984,-9.032705432800002,4.285764812000001,-0.41859949,4.523020539999999,-2.76364482,,,
imu,113.127903,-0.1088638096,-9.0362943496,4.270810992,-0.50832241,4.63517419,-2.83093701,,,
imu,113.136723,-0.1160416432,-9.000405181600001,4.2761943672,-0.77001426,4.79966621,-3.02533667,,,
imu,113.145542,-0.0903210728,-8.975282764000001,4.252866408000001,-0.93450628,4.87443531,-2.98047521,,,
imu,113.154362,-0.07895616960000001,-8.9627215552,4.2480811856,-0.97189083,4.979112049999999,-3.0477674,,,
imu,113.163182,-0.06579680800000001,-8.972292000000001,4.2654276168,-1.20367504,4.87443531,-3.1225365,,,
imu,113.172001,-0.05084298800000001,-8.980067986400002,4.278586978400001,-1.26349032,4.76975857,-3.10758268,,,
imu,113.180821,-0.0430670016,-8.9950218064,4.282175895200001,-1.1737674,4.85948149,-3.0477674,,,
imu,113.18964,-0.0245242648,-9.0165553072,4.2726054504,-1.21115195,4.62022037,-3.00290594,,,
imu,113.19846,-0.0293094872,-8.9848532088,4.2791851312,-1.59247436,4.455728349999999,-3.01038285,,,
imu,113.207279,-0.04246884880000001,-9.03210728,4.3192613688,-1.94388913,4.388436159999999,-2.88327538,,,
imu,113.21576,-0.05203929360000001,-9.09192256,4.298924173600001,-1.92893531,4.20899032,-2.79355246,,,
imu,113.22424,-0.068787572,-8.963319708000002,4.255857172000001,-2.2953039,3.99215993,-3.07019813,,,
imu,113.23272,-0.0813487808,-8.8813727744,4.278586978400001,-2.71401086,3.797760269999999,-3.27955161,,,
imu,113.2412,-0.09151737840000002,-8.948964040800002,4.261240547200001,-2.60933412,3.58092988,-3.36179762,,,
imu,113.24968,-0.1357806856,-8.9770772224,4.2534645608,-2.78130305,3.58840679,-3.27955161,,,
imu,113.25816,-0.1309954632,-8.940589901600001,4.252268255200001,-2.86354906,3.7454219,-2.95056757,,,
imu,113.26664,-0.07955432240000002,-8.939393596000002,4.259446088800001,-2.92336434,3.75289881,-2.68887572,,,
imu,113.27512,-0.09690075360000001,-8.9495621936,4.267222075200001,-3.00561035,3.67812971,-2.45709151,,,
imu,113.2836,-0.1118545736,-8.968104930400001,4.266025769600001,-3.0429949,3.71551426,-2.41970696,,,
imu,113.29208,-0.107667504,-8.971693847200001,4.2773906728,-3.0429949,3.65569898,-2.3000764,,,
imu,113.30056,-0.1028822816,-8.9627215552,4.2726054504,-3.20001001,3.65569898,-2.34493786,,,
imu,113.30904,-0.1262102408,-8.95733818,4.2743999088,-3.28973293,3.75289881,-2.27764567,,,
imu,113.31752,-0.116639796,-8.942384360000002,4.2755962144,-3.3420713,3.77532954,-2.29259949,,,
imu,113.326,-0.1052748928,-8.9190564008,4.2779888256,-3.23739456,3.8949601,-2.27016876,,,
imu,113.334481,-0.1004896704,-8.911878567200002,4.3072983128,-3.23739456,4.02954448,-2.29259949,,,
imu,113.342961,-0.1160416432,-8.909485956000001,4.306700160000001,-3.08785636,4.17908268,-2.34493786,,,
imu,113.351441,-0.116639796,-8.9190564008,4.335411494400001,-3.0429949,4.05945212,-2.4496146,,,
imu,113.359921,-0.1250139352,-8.913074872800001,4.347374550400001,-3.117764,4.32862088,-2.58419898,,,
imu,113.368401,-0.1232194768,-8.9178600952,4.364720981600001,-3.43927113,4.567882,-2.83093701,,,
imu,113.376881,-0.1148453376,-8.931019456800001,4.373693273600001,-3.62619388,4.672558739999999,-3.20478251,,,
imu,113.385361,-0.0933118368,-8.926832387200001,4.371898815200001,-3.64862461,4.73237402,-3.4216129,,,
imu,113.393841,-0.05383375200000001,-8.876587552000002,4.376085884800001,-3.7159168,4.85948149,-3.53376655,,,
imu,113.402321,-0.0257205704,-8.844287300800001,4.383861871200001,-3.87293191,4.87443531,-3.68330475,,,
imu,113.410801,-0.0221316536,-8.8592411208,4.3916378576,-3.7159168,4.60526655,-3.60853565,,,
imu,113.41926,-0.0340947096,-8.8628300376,4.410180594400001,-3.51404023,4.35852852,-3.50385891,,,
imu,113.427718,-0.04127254320000001,-8.870606024,4.4406863872,-3.57385551,4.17908268,-3.39170526,,,
imu,113.436177,-0.05443190480000001,-8.8777838576,4.446069762400001,-3.57385551,3.9697292,-3.35432071,,,
imu,113.444635,-0.0675912664,-8.8837653856,4.459229124000001,-3.618716969999999,3.81271409,-3.37675144,,,
imu,113.453093,-0.08015247520000002,-8.8837653856,4.4753792496,-3.82807045,3.7454219,-3.32441307,,,
imu,113.461552,-0.09570444800000001,-8.889746913600002,4.483155236000001,-3.74582444,3.61083752,-3.25712088,,,
imu,113.47001,-0.1082656568,-8.878980163200001,4.499903514400001,-4.157054489999999,3.61831443,-3.15992105,,,
imu,113.478469,-0.1124527264,-8.862231884800002,4.4885386112,-4.41126943,3.67812971,-3.02533667,,,
imu,113.486927,-0.08314323920000001,-8.826342716800001,4.479566319200001,-4.493515439999999,3.68560662,-2.93561375,,,
imu,112.0821,,,,,,,-95.71666599999999,167.3911996,119.8808224
imu,112.183663,,,,,,,-95.96081000000001,166.9761548,120.527804
imu,112.285317,,,,,,,-95.9119812,167.2691276,120.4911824
imu,112.386818,,,,,,,-95.65563000000002,167.2569204,120.3080744
imu,112.488411,,,,,,,-95.71666599999999,167.2080916,120.0273088
imu,112.591408,,,,,,,-96.3026116,167.0982268,120.2958672
imu,112.691475,,,,,,,-93.54378439999999,166.3657948,119.6733
imu,112.793038,,,,,,,-95.43590040000001,166.5489028,120.1249664
imu,113.495365,-0.080750628,-8.794042465600002,4.475977402400001,-4.33650033,3.7454219,-2.79355246,,,
imu,113.503823,-0.08493769760000001,-8.777892340000001,4.4664069576,-4.14957758,3.73046808,-2.76364482,,,
imu,113.512282,-0.08493769760000001,-8.7695182008,4.455042054400001,-4.07480848,3.5211146,-2.83841392,,,
imu,113.52074,-0.09630260080000001,-8.7772941872,4.465210652000001,-3.64862461,3.49868387,-2.87579847,,,
imu,113.529199,-0.1082656568,-8.781481256800001,4.464014346400001,-3.30468675,3.58840679,-2.88327538,,,
imu,113.537657,-0.09450814240000002,-8.791649854400001,4.4598272768,-2.99813344,3.57345297,-2.77859864,,,
imu,113.546116,-0.09929336480000002,-8.792846160000002,4.4616217352,-2.68410322,3.67812971,-2.58419898,,,
imu,113.554574,-0.09510629520000001,-8.8066036744,4.45623836,-2.42241137,3.75289881,-2.47952224,,,
imu,113.563033,-0.09690075360000001,-8.810790744000002,4.4598272768,-2.4448421,3.80523718,-2.38232241,,,
imu,113.571491,-0.1004896704,-8.8430909952,4.4735847912,-2.42988828,3.76037572,-2.53933752,,,
imu,113.57995,-0.1184342544,-8.855652204000002,4.482557083200001,-2.28035008,3.75289881,-2.59167589,,,
imu,113.588408,-0.1100601152,-8.858642968000002,4.4837533888,-2.5196112,3.75289881,-2.71878336,,,
imu,113.596866,-0.1220231712,-8.8598392736,4.4945201392,-2.69905704,3.87252937,-2.748691,,,
imu,112.8946,,,,,,,-92.72590199999999,164.974174,117.6469048
imu,112.996163,,,,,,,-94.77671160000001,165.9751644,120.0517232
imu,113.097847,,,,,,,-94.91099080000001,165.584534,117.903256
imu,113.199318,,,,,,,-94.6424324,165.9263356,119.9296512
imu,113.30085,,,,,,,-94.99644119999999,165.706606,120.3202816
imu,113.402535,,,,,,,-95.49693640000001,166.0972364,120.0761376
imu,113.504006,,,,,,,-95.0940988,165.767642,119.8442008
