Type,Timestamp,Data Accelerometer X,Data Accelerometer Y,Data Accelerometer Z,Data Gyroscope X,Data Gyroscope Y,Data Gyroscope Z,Data Magnetometer X,Data Magnetometer Y,Data Magnetometer Z
imu,331.593673,-0.03648732080000001,-9.2067678976,3.9406306464,-2.39998064,3.93982156,-2.76364482,,,
imu,331.602149,-0.03110394560000001,-9.1965993,3.931658354400001,-2.80373378,4.02954448,-2.79355246,,,
imu,331.610625,-0.0227298064,-9.1684861184,3.9322565072,-3.10281018,4.20151341,-2.75616791,,,
imu,331.619102,-0.009570444800000001,-9.1272135752,3.920891604000001,-3.31216366,4.39591307,-2.65149117,,,
imu,331.627578,0.0005981528000000001,-9.095511476800002,3.906535936800001,-3.27477911,4.37348234,-2.57672207,,,
imu,331.636054,0.0191408896,-9.070987212,3.893974728,-3.08037945,4.44077453,-2.44213769,,,
imu,331.64453,0.03947808480000001,-9.066201989600001,3.8915821168,-2.64671867,4.530497449999999,-2.3748455,,,
imu,331.653007,0.04007623760000001,-9.041079572000001,3.896965492000001,-2.370073,4.36600543,-2.41970696,,,
imu,331.661483,0.03648732080000001,-9.055435239200001,3.907134089600001,-2.19062716,4.16412886,-2.57672207,,,
imu,331.669959,0.0442633072,-9.087735490400002,3.9214897568,-2.03361205,4.00711375,-2.65896808,,,
imu,331.678435,0.04007623760000001,-9.090128101600001,3.941826952000001,-1.70462801,3.75289881,-2.86832156,,,
imu,331.686912,0.0293094872,-9.069192753600001,3.9310602016,-1.80182784,3.56597606,-3.05524431,,,
imu,331.695388,0.0185427368,-9.049453711200002,3.930462048800001,-1.49527453,3.43886859,-2.83841392,,,
imu,331.703864,0.004187069600000001,-9.059024156000001,3.922087909600001,-1.43545925,3.39400713,-2.73373718,,,
imu,331.71234,0.008374139200000002,-9.0572296976,3.916106381600001,-1.25601341,3.34914567,-2.65896808,,,
imu,331.72086,0.0017944584,-9.027322057600001,3.909526700800001,-0.82235263,3.28185348,-2.43466078,,,
imu,331.729379,-0.0005981528000000001,-9.020742376800001,3.902348867200001,-0.5980453299999999,3.21456129,-2.49447606,,,
imu,331.737899,-0.007775986400000001,-9.0386869608,3.897563644800001,-0.14195382,3.02763854,-2.55429134,,,
imu,331.746418,-0.0215335008,-9.0506500168,3.911321159200001,-0.08961545,2.93791562,-2.66644499,,,
imu,331.754938,-0.03648732080000001,-9.0596223088,3.902348867200001,0.15712258,3.06502309,-2.76364482,,,
imu,331.763457,-0.04007623760000001,-9.0638093784,3.898759950400001,0.5010604399999999,3.10240764,-2.8234601,,,
imu,331.771977,-0.0723764888,-9.090128101600001,3.9011525616,0.7403215599999999,3.21456129,-2.8234601,,,
imu,331.780496,-0.07955432240000002,-9.124222811200001,3.9053396312,0.83004448,3.22951511,-2.90570611,,,
imu,331.789016,-0.0550300576,-9.1272135752,3.9131156176,0.78518302,3.5211146,-2.8982292,,,
imu,331.797535,-0.04964668240000001,-9.1164468248,3.9035451728,0.74779847,3.68560662,-2.98047521,,,
imu,331.806055,-0.04785222400000001,-9.134391408800001,3.908928548,0.73284465,3.68560662,-3.02533667,,,
imu,331.814574,-0.0185427368,-9.1331951032,3.9053396312,0.70293701,3.84262173,-3.02533667,,,
imu,331.823094,-0.0131593616,-9.156523062400002,3.893974728,0.68798319,3.90991392,-3.11505959,,,
imu,331.831613,-0.003588916800000001,-9.157719368,3.896965492000001,0.76275229,4.01459066,-3.08515195,,,
imu,331.840133,-0.003588916800000001,-9.163102743200001,3.8921802696,0.68050628,3.8949601,-3.20478251,,,
imu,331.848652,-0.0011963056,-9.1672898128,3.8867968944,0.41133752,3.78280645,-3.32441307,,,
imu,331.857172,0.004785222400000001,-9.161308284800002,3.8856005888,0.35899915,3.65569898,-3.16739796,,,
imu,331.865691,0.004785222400000001,-9.175663952,3.882011672,0.26927623,3.60336061,-3.21225942,,,
imu,331.874211,-0.0011963056,-9.173271340800001,3.862870782400001,0.3216146,3.47625314,-3.11505959,,,
imu,331.88273,0.007177833600000002,-9.176860257600001,3.8826098248,0.19450713,3.37905331,-3.24216706,,,
imu,331.89125,0.0107667504,-9.1792528688,3.871843074400001,0.17955331,3.17717674,-3.33188998,,,
imu,331.899769,0.0,-9.173271340800001,3.872441227200001,-0.16438455,2.9977309,-3.44404363,,,
imu,331.908289,-0.0005981528000000001,-9.155326756800001,3.8664596992,-0.19429219,2.83323888,-3.36927453,,,
imu,331.916808,-0.0131593616,-9.145158159200001,3.8646652408,-0.34383039,2.61640849,-3.18235178,,,
imu,331.925222,-0.0065796808,-9.1331951032,3.852104032,-0.25410747,2.53416248,-3.02533667,,,
imu,331.933636,-0.0113649032,-9.123026505600002,3.840140976,-0.40364567,2.43696265,-2.83093701,,,
imu,331.94205,-0.03110394560000001,-9.118839436000002,3.837150212000001,-0.32887657,2.29490136,-2.73373718,,,
imu,331.950464,-0.05562821040000001,-9.129606186400002,3.828177920000001,-0.14195382,2.19022462,-2.71130645,,,
imu,331.958878,-0.0663949608,-9.142167395200001,3.836552059200001,-0.24663056,2.2500399,-2.748691,,,
imu,331.967292,-0.06998387760000001,-9.131400644800001,3.8335612952,-0.17186146,2.28742445,-2.86832156,,,
imu,331.975706,-0.0933118368,-9.155924909600001,3.8359539064,-0.11952309,2.48930102,-2.6739219,,,
imu,331.98412,-0.09390998960000001,-9.187627008000002,3.851505879200001,-0.14943073,2.43696265,-2.62158353,,,
imu,331.992534,-0.08733030880000002,-9.1924122304,3.846122504000001,-0.13447691,2.60145467,-2.70382954,,,
imu,332.000948,-0.09151737840000002,-9.176262104800001,3.831168684000001,-0.32887657,2.71360832,-2.748691,,,
imu,332.009244,-0.1022841288,-9.146952617600002,3.8204019336,-0.5008455,2.68370068,-3.07019813,,,
imu,332.017658,-0.107667504,-9.169084271200001,3.846122504000001,-0.5307531400000001,2.81828506,-3.43656672,,,
imu,332.026071,-0.1202287128,-9.203777133600001,3.846720656800001,-0.4260764,3.11736146,-3.43656672,,,
imu,332.034485,-0.1100601152,-9.210954967200001,3.837150212000001,-0.6503837,3.32671494,-3.28702852,,,
imu,332.042899,-0.08972292000000001,-9.184636244000002,3.853300337600001,-0.77001426,3.42391477,-3.07019813,,,
imu,332.051313,-0.062806044,-9.173271340800001,3.8497114208,-0.9943215599999999,3.57345297,-2.69635263,,,
imu,332.059727,-0.0592171272,-9.170280576800002,3.8353557536,-0.9494601,3.71551426,-2.47204533,,,
imu,332.068141,-0.07775986400000001,-9.1619064376,3.841935434400001,-0.98684465,3.67812971,-2.49447606,,,
imu,332.076555,-0.05443190480000001,-9.152934145600002,3.848515115200001,-1.10647521,3.68560662,-2.50195297,,,
imu,332.084969,-0.0502448352,-9.152335992800001,3.852104032,-1.29339796,3.65569898,-2.33746095,,,
imu,332.093383,-0.05802082160000001,-9.157719368,3.8527021848,-1.34573633,3.69308353,-2.26269185,,,
imu,332.101797,-0.05742266880000001,-9.146354464800002,3.8562911016,-1.25601341,3.73794499,-2.24026112,,,
imu,332.110211,-0.0406743904,-9.127811728000001,3.861076324,-1.28592105,3.75289881,-2.18792275,,,
imu,332.118625,-0.04187069600000001,-9.106876380000001,3.8592818656,-1.30087487,3.77532954,-2.13558438,,,
imu,332.127085,-0.0352910152,-9.1224283528,3.8646652408,-1.27096723,3.7454219,-2.24026112,,,
imu,332.135544,-0.03289840400000001,-9.127811728000001,3.8682541576,-1.36069015,3.70056044,-2.46456842,,,
imu,332.144004,-0.0257205704,-9.124222811200001,3.8879932,-1.45041307,3.60336061,-2.58419898,,,
imu,332.152464,-0.03110394560000001,-9.1266154224,3.9005544088,-1.5476129,3.5958837,-2.84589083,,,
imu,332.160924,-0.04366515440000001,-9.13678402,3.899956256000001,-1.40555161,3.66317589,-2.92065993,,,
imu,332.169383,-0.0532355992,-9.1200357416,3.9053396312,-1.45788998,3.71551426,-2.95804448,,,
imu,332.177843,-0.0382817792,-9.126017269600002,3.9101248536,-1.57004363,3.66317589,-3.02533667,,,
imu,332.186303,-0.0346928624,-9.1026893104,3.905937784,-1.45041307,3.76785263,-3.02533667,,,
imu,332.194762,-0.0257205704,-9.0925207128,3.907134089600001,-1.20367504,3.820191,-2.87579847,,,
imu,332.203222,-0.020935348,-9.096707782400001,3.9011525616,-1.25601341,3.70056044,-2.90570611,,,
imu,332.211682,-0.0263187232,-9.090726254400002,3.8957691864,-1.28592105,3.70056044,-2.86832156,,,
imu,332.220142,-0.0346928624,-9.100296699200001,3.907134089600001,-0.7401066199999999,3.5958837,-2.85336774,,,
imu,332.228601,-0.04545961280000001,-9.114054213600001,3.8993581032,-0.55318387,3.57345297,-2.71878336,,,
imu,332.237061,-0.04725407120000001,-9.1134560608,3.9173026872,-0.7251528,3.46129932,-2.748691,,,
imu,332.245521,-0.05443190480000001,-9.134391408800001,3.917900840000001,-0.69524516,3.37905331,-2.88327538,,,
imu,332.253981,-0.0526374464,-9.13678402,3.9262749792,-0.79244499,3.33419185,-2.91318302,,,
imu,332.26244,-0.06400234960000001,-9.1302043392,3.927471284800001,-0.63542988,3.19213056,-2.88327538,,,
imu,332.2709,-0.062806044,-9.132596950400002,3.9334528128,-0.81487572,3.28933039,-2.81598319,,,
imu,331.602585,,,,,,,-95.72887320000001,167.903902,119.8808224
imu,332.27936,-0.07716171120000001,-9.136185867200002,3.930462048800001,-1.06909066,3.43886859,-2.6739219,,,
imu,332.287819,-0.0634041968,-9.124222811200001,3.908330395200001,-1.11395212,3.48373005,-2.54681443,,,
imu,332.296279,-0.05084298800000001,-9.096707782400001,3.9077322424,-1.11395212,3.61083752,-2.53186061,,,
imu,332.304739,-0.0526374464,-9.083548420800001,3.894572880800001,-1.15133667,3.55849915,-2.55429134,,,
imu,332.313199,-0.0532355992,-9.076370587200001,3.8796190608,-0.8672140899999999,3.57345297,-2.56176825,,,
imu,332.321658,-0.04845037680000001,-9.072781670400001,3.873637532800001,-0.5980453299999999,3.62579134,-2.65896808,,,
imu,332.330473,-0.0346928624,-9.077566892800002,3.8634689352,-0.35878421,3.56597606,-2.65896808,,,
imu,332.339287,-0.03887993200000001,-9.097904088000002,3.8784227552,-0.06718472,3.56597606,-2.60662971,,,
imu,332.348101,-0.03947808480000001,-9.103287463200001,3.8646652408,0.12721494,3.64074516,-2.62906044,,,
imu,332.356915,-0.0406743904,-9.114652366400001,3.8802172136,0.11973803,3.58840679,-2.70382954,,,
imu,332.36573,-0.04964668240000001,-9.1170449776,3.8742356856,0.12721494,3.5958837,-2.56176825,,,
imu,332.374544,-0.0550300576,-9.117643130400001,3.873637532800001,0.02253820000000001,3.60336061,-2.60662971,,,
imu,332.383358,-0.0592171272,-9.1373821728,3.889189505600001,0.16459949,3.69308353,-2.47952224,,,
imu,332.392173,-0.0526374464,-9.154728604,3.8867968944,-0.07466163,3.76785263,-2.46456842,,,
imu,332.400987,-0.05383375200000001,-9.151737840000001,3.889189505600001,-0.15690764,3.820191,-2.64401426,,,
imu,332.409801,-0.05802082160000001,-9.1642990488,3.8772264496,-0.19429219,3.79028336,-2.71878336,,,
imu,332.418615,-0.05203929360000001,-9.150541534400002,3.879020908000001,-0.14195382,3.79028336,-2.77859864,,,
imu,332.42743,-0.04486146000000001,-9.1511396872,3.8802172136,-0.24663056,4.00711375,-2.84589083,,,
imu,332.436244,-0.04127254320000001,-9.166093507200001,3.871244921600001,-0.32139966,4.11179049,-2.8982292,,,
imu,332.445058,-0.03588916800000001,-9.1511396872,3.8706467688,-0.26906129,4.06692903,-2.89075229,,,
imu,332.453872,-0.023926112,-9.148747076000001,3.8784227552,-0.31392275,4.02206757,-2.91318302,,,
imu,332.462687,-0.03349655680000001,-9.157719368,3.883806130400001,-0.3513073,3.98468302,-3.01785976,,,
imu,332.471501,-0.0376836264,-9.152934145600002,3.879020908000001,-0.44103022,4.14169813,-3.13001341,,,
imu,332.480315,-0.03588916800000001,-9.135587714400002,3.883806130400001,-0.48589168,4.126744309999999,-3.0477674,,,
imu,332.48913,-0.0263187232,-9.1236246584,3.8748338384,-0.5307531400000001,4.03702139,-3.03281358,,,
imu,332.497944,-0.0263187232,-9.106876380000001,3.8604781712,-0.7401066199999999,4.08188285,-2.94309066,,,
imu,332.506758,-0.0173464312,-9.0913244072,3.862272629600001,-0.44850713,3.98468302,-2.6739219,,,
imu,332.515572,-0.002990764,-9.093118865600001,3.869450463200001,-0.47093786,3.8949601,-2.63653735,,,
imu,332.524387,-0.004785222400000001,-9.0991003936,3.87303938,-0.20924601,3.76785263,-2.71130645,,,
imu,332.532863,0.0017944584,-9.1272135752,3.871843074400001,-0.15690764,3.63326825,-2.84589083,,,
imu,332.541339,-0.0101685976,-9.115250519200002,3.870048616000001,-0.007369440000000005,3.61083752,-2.81598319,,,
imu,332.549815,-0.0113649032,-9.1272135752,3.8664596992,0.09730729999999999,3.49868387,-2.6739219,,,
imu,332.558292,-0.007177833600000002,-9.1409710896,3.8867968944,0.11226112,3.40148404,-2.62906044,,,
imu,332.566768,-0.0137575144,-9.152335992800001,3.871244921600001,0.12721494,3.21456129,-2.80850628,,,
imu,332.575244,-0.03110394560000001,-9.1266154224,3.8616744768,-0.09709236,3.02016163,-3.0477674,,,
imu,332.58372,-0.04545961280000001,-9.123026505600002,3.8634689352,0.0001074699999999984,2.87810034,-3.23469015,,,
imu,332.592197,-0.05742266880000001,-9.1708787296,3.8802172136,-0.0522309,2.74351596,-3.50385891,,,
imu,332.600673,-0.0861340032,-9.204375286400001,3.881413519200001,0.01506129,2.81080815,-3.43656672,,,
imu,332.609149,-0.1034804344,-9.187028855200001,3.882011672,0.02253820000000001,2.93043871,-3.06272122,,,
imu,332.617625,-0.1022841288,-9.1792528688,3.8754319912,-0.14195382,3.19213056,-2.63653735,,,
imu,332.626102,-0.08792846160000001,-9.174467646400002,3.871843074400001,-0.20924601,3.3715764,-2.35241477,,,
imu,332.634578,-0.07596540560000001,-9.159513826400001,3.8592818656,-0.28401511,3.35662258,-2.30755331,,,
imu,332.643054,-0.07297464160000001,-9.1445600064,3.8473188096,-0.32139966,3.40148404,-2.39727623,,,
imu,332.651531,-0.068787572,-9.135587714400002,3.8413372816,-0.38121494,3.31176112,-2.38232241,,,
imu,332.660007,-0.08254508640000002,-9.134391408800001,3.832963142400001,-0.3513073,3.28185348,-2.56176825,,,
imu,332.668483,-0.09570444800000001,-9.141569242400001,3.8245890032,-0.25410747,3.36409949,-2.50942988,,,
imu,332.676959,-0.092713684,-9.136185867200002,3.815616711200001,-0.35878421,3.53606842,-2.47952224,,,
imu,332.685436,-0.08374139200000001,-9.125419116800002,3.813224100000001,0.02253820000000001,3.73046808,-2.35989168,,,
imu,332.693912,-0.07955432240000002,-9.1290080336,3.8144204056,-0.08213854000000001,3.96225229,-2.33746095,,,
imu,332.702388,-0.07716171120000001,-9.13678402,3.800064738400001,0.007584380000000002,4.18655959,-2.45709151,,,
imu,332.710864,-0.0592171272,-9.152934145600002,3.8006628912,0.16459949,4.246374869999999,-2.50195297,,,
imu,332.719341,-0.0227298064,-9.190019619200001,3.8180093224,0.21693786,4.3435747,-2.63653735,,,
imu,332.727817,-0.03110394560000001,-9.1918140776,3.834757600800001,0.11973803,4.48563599,-2.77859864,,,
imu,332.736288,-0.0107667504,-9.201384522400001,3.830570531200001,0.007584380000000002,4.40338998,-3.00290594,,,
imu,332.744759,-0.0053833752,-9.216338342400002,3.8449261984,-0.38869185,4.20899032,-2.94309066,,,
imu,332.75323,-0.0053833752,-9.219927259200002,3.855094796,-0.55318387,4.216467229999999,-2.8982292,,,
imu,332.761702,-0.0005981528000000001,-9.2139457312,3.843729892800001,-0.74758353,4.05197521,-2.84589083,,,
imu,332.770173,0.008972292000000002,-9.1965993,3.840739128800001,-1.26349032,3.99215993,-2.73373718,,,
imu,332.778644,0.0143556672,-9.179851021600001,3.84313174,-1.64481273,3.820191,-2.77859864,,,
imu,332.787115,-0.009570444800000001,-9.184636244000002,3.840140976,-1.6971511,3.72299117,-2.62158353,,,
imu,332.795586,-0.0203371952,-9.1918140776,3.850309573600001,-1.72705874,3.56597606,-2.50942988,,,
imu,332.804057,-0.003588916800000001,-9.182243632800002,3.865263393600001,-1.73453565,3.60336061,-2.45709151,,,
imu,332.812529,0.003588916800000001,-9.171476882400002,3.867057852000001,-1.89155076,3.41643786,-2.59167589,,,
imu,332.821,-0.0161501256,-9.153532298400002,3.8688523104,-1.93641222,3.22951511,-2.77112173,,,
imu,332.829471,-0.03588916800000001,-9.155924909600001,3.8778246024,-2.01118132,3.13979219,-2.83093701,,,
imu,332.837942,-0.0323002512,-9.1373821728,3.8879932,-2.01865823,3.10240764,-2.81598319,,,
imu,332.846413,-0.0490485296,-9.1266154224,3.887395047200001,-2.06351969,3.1472691,-2.8234601,,,
imu,332.854884,-0.04007623760000001,-9.1056800744,3.882011672,-1.94388913,3.06502309,-2.85336774,,,
imu,332.863356,-0.0323002512,-9.100296699200001,3.883806130400001,-1.90650458,2.97530017,-2.86832156,,,
imu,332.871827,-0.0502448352,-9.079361351200001,3.867656004800001,-1.6971511,3.02016163,-2.92065993,,,
imu,332.880298,-0.06400234960000001,-9.0572296976,3.883806130400001,-1.51022835,2.98277708,-2.95804448,,,
imu,332.888769,-0.07177833600000001,-9.056631544800002,3.876030144,-1.22610577,2.93791562,-2.88327538,,,
imu,332.89724,-0.08673215600000002,-9.062613072800001,3.879020908000001,-0.97189083,3.0725,-2.91318302,,,
imu,332.905711,-0.09091922560000001,-9.075772434400001,3.8867968944,-0.6279529699999999,3.23699202,-2.87579847,,,
imu,332.914183,-0.09989151760000002,-9.0781650456,3.8921802696,-0.71767589,3.43139168,-2.80850628,,,
imu,332.922654,-0.09690075360000001,-9.093118865600001,3.885002436000001,-0.7401066199999999,3.5958837,-2.87579847,,,
imu,332.931125,-0.09091922560000001,-9.111063449600001,3.8778246024,-0.67281443,3.76785263,-2.77859864,,,
imu,332.939581,-0.07058203040000001,-9.114054213600001,3.8664596992,-0.51579932,4.13422122,-2.60662971,,,
imu,332.948037,-0.06400234960000001,-9.114652366400001,3.882011672,-0.29149202,4.26132869,-2.56924516,,,
imu,332.956493,-0.03887993200000001,-9.135587714400002,3.8856005888,-0.37373803,4.30619015,-2.54681443,,,
imu,332.964949,-0.0227298064,-9.138578478400001,3.881413519200001,-0.63542988,4.35105161,-2.59167589,,,
imu,332.973404,-0.0185427368,-9.148747076000001,3.888591352800001,-0.52327623,4.2688056,-2.748691,,,
imu,332.98186,-0.0191408896,-9.155326756800001,3.8897876584,-0.5008455,4.149175039999999,-2.86084465,,,
imu,332.990316,0.0,-9.151737840000001,3.892778422400001,-0.56066078,4.171605769999999,-2.86832156,,,
imu,332.998772,-0.007775986400000001,-9.152335992800001,3.8754319912,-0.6279529699999999,3.91739083,-2.8982292,,,
imu,333.007228,-0.0023926112,-9.154728604,3.8778246024,-0.69524516,3.8949601,-2.96552139,,,
imu,333.015684,-0.003588916800000001,-9.1541304512,3.872441227200001,-0.77749117,3.85757555,-2.95804448,,,
imu,333.02414,0.0,-9.142765548000002,3.8706467688,-0.79244499,3.75289881,-2.91318302,,,
imu,333.032596,-0.0005981528000000001,-9.131998797600001,3.8682541576,-0.85973718,3.58840679,-2.98795212,,,
imu,333.041052,-0.004785222400000001,-9.131998797600001,3.87303938,-0.9943215599999999,3.42391477,-3.07019813,,,
imu,333.049508,-0.0101685976,-9.140372936800002,3.876628296800001,-1.15133667,3.24446893,-3.28702852,,,
imu,333.057964,-0.0167482784,-9.134391408800001,3.865263393600001,-1.36069015,3.08745382,-3.3468438,,,
imu,333.06642,-0.0257205704,-9.1122597552,3.862272629600001,-1.21115195,3.10988455,-3.36927453,,,
imu,333.074875,-0.0340947096,-9.111661602400002,3.867656004800001,-0.9793677399999999,3.06502309,-3.15244414,,,
imu,333.083331,-0.0323002512,-9.123026505600002,3.8658615464,-0.85973718,3.04259236,-2.86084465,,,
imu,333.091787,-0.0293094872,-9.140372936800002,3.8879932,-1.0242292,3.08745382,-2.93561375,,,
imu,331.704257,,,,,,,-96.449098,167.9771452,119.0263184
imu,331.805758,,,,,,,-96.35144040000002,167.5743076,119.4779848
imu,331.907321,,,,,,,-95.9852244,167.2447132,119.4535704
imu,332.008914,,,,,,,-93.2386044,166.4146236,118.879832
imu,332.110446,,,,,,,-95.6190084,167.4644428,119.490192
imu,332.212008,,,,,,,-94.190766,166.7198036,117.53704
imu,332.313693,,,,,,,-96.00963879999999,167.9771452,119.9906872
imu,332.415133,,,,,,,-96.3392332,167.110434,117.1952384
imu,333.1003,-0.0370854736,-9.177458410400002,3.896965492000001,-0.8821679099999999,3.13979219,-2.9729983,,,
imu,333.108756,-0.03110394560000001,-9.172673188000001,3.8957691864,-0.89712173,3.15474601,-2.93561375,,,
imu,333.117211,-0.0203371952,-9.155326756800001,3.914910076,-0.97189083,3.24446893,-2.87579847,,,
imu,333.125667,-0.0131593616,-9.188823313600002,3.944219563200001,-1.36069015,3.19213056,-2.99542903,,,
imu,333.134123,-0.0185427368,-9.2103568144,3.9543881608,-1.75696638,2.99025399,-3.17487487,,,
imu,333.142958,-0.06041343280000001,-9.198393758400002,3.967547522400001,-2.19062716,2.84071579,-3.39170526,,,
imu,333.151792,-0.08374139200000001,-9.135587714400002,3.962164147200001,-2.370073,2.49677793,-3.65339711,,,
imu,333.160626,-0.1094619624,-9.111661602400002,3.954986313600001,-2.53456502,2.33976282,-3.75059694,,,
imu,333.16946,-0.1561178808,-9.110465296800001,3.9143119232,-2.66167249,2.37714737,-3.54872037,,,
imu,333.178294,-0.2009793408,-9.066800142400002,3.892778422400001,-2.60185721,2.45939338,-3.02533667,,,
imu,333.187128,-0.2015774936,-9.029116516000002,3.882011672,-2.23548862,2.74351596,-2.46456842,,,
imu,333.195963,-0.1788476872,-9.006984862400001,3.862272629600001,-1.74948947,2.88557725,-1.99352309,,,
imu,333.204797,-0.1650901728,-9.011770084800002,3.846122504000001,-1.22610577,3.05006927,-1.69444669,,,
imu,333.213631,-0.1579123392,-9.009975626400001,3.8353557536,-0.61299915,3.19960747,-1.67949287,,,
imu,333.222465,-0.1333880744,-9.0464629472,3.8449261984,-0.11952309,3.24446893,-1.5523854,,,
imu,333.231299,-0.1088638096,-9.102091157600002,3.8538984904,0.60573718,3.33419185,-1.36546265,,,
imu,333.240133,-0.1070693512,-9.1511396872,3.8562911016,0.88985976,3.43886859,-1.47013939,,,
imu,333.248968,-0.1004896704,-9.160710132,3.867656004800001,0.8524752099999999,3.49120696,-1.41032411,,,
imu,333.257802,-0.09450814240000002,-9.170280576800002,3.8586837128,0.65059864,3.55849915,-1.44770866,,,
imu,333.266636,-0.08733030880000002,-9.174467646400002,3.844328045600001,0.35152224,3.76037572,-1.49257012,,,
imu,333.27547,-0.05861897440000001,-9.159513826400001,3.8317668368,0.08983038999999998,3.88748319,-1.48509321,,,
imu,333.284304,-0.04545961280000001,-9.159513826400001,3.8204019336,-0.11952309,4.11179049,-1.64958523,,,
imu,333.293138,-0.0406743904,-9.163102743200001,3.8168130168,-0.4260764,4.23889796,-1.97109236,,,
imu,333.301973,-0.0317020984,-9.1792528688,3.830570531200001,-0.29149202,4.44825144,-2.13558438,,,
imu,333.310807,-0.007775986400000001,-9.182243632800002,3.840739128800001,-0.44850713,4.567882,-2.53186061,,,
imu,333.319641,-0.0065796808,-9.183439938400001,3.840140976,-0.5681376899999999,4.70994329,-2.83093701,,,
imu,333.328475,0.0017944584,-9.191215924800002,3.8527021848,-0.67281443,4.72489711,-3.18982869,,,
imu,333.337309,0.0197390424,-9.2091605088,3.861076324,-0.78496808,4.552928179999999,-3.38422835,,,
imu,333.345788,0.05203929360000001,-9.2139457312,3.8664596992,-0.9494601,4.35852852,-3.41413599,,,
imu,333.354267,0.06699311360000001,-9.1918140776,3.854496643200001,-0.97189083,4.25385178,-3.24964397,,,
imu,333.362746,0.0783580168,-9.173869493600002,3.854496643200001,-1.06909066,3.96225229,-2.9729983,,,
imu,333.371225,0.06041343280000001,-9.176262104800001,3.861076324,-1.24105959,3.45382241,-2.80102937,,,
imu,333.379703,0.04845037680000001,-9.184038091200001,3.885002436000001,-1.24105959,3.20708438,-2.62906044,,,
imu,333.388182,0.03289840400000001,-9.203178980800002,3.898759950400001,-1.53265908,2.80333124,-2.65896808,,,
imu,333.396661,-0.0017944584,-9.2127494256,3.9077322424,-1.7719202,2.46687029,-2.64401426,,,
imu,333.40514,-0.0275150288,-9.197795605600001,3.9101248536,-1.9214584,2.35471664,-2.47204533,,,
imu,333.413619,-0.04964668240000001,-9.186430702400001,3.93285466,-2.42241137,2.21265535,-2.39727623,,,
imu,333.422097,-0.0861340032,-9.1720750352,3.9382380352,-2.45231901,2.23508608,-2.12063056,,,
imu,333.430576,-0.101685976,-9.154728604,3.9376398824,-2.58690339,2.45191647,-1.89632326,,,
imu,333.439055,-0.1154434904,-9.135587714400002,3.9310602016,-2.7439185,2.60893158,-1.82155416,,,
imu,333.447534,-0.1058730456,-9.1266154224,3.9286675904,-2.71401086,2.81080815,-1.7766927,,,
imu,333.456013,-0.1070693512,-9.106876380000001,3.929265743200001,-2.80373378,3.05006927,-1.93370781,,,
imu,333.464491,-0.1130508792,-9.0883336432,3.928069437600001,-2.56447266,3.23699202,-2.02343073,,,
imu,333.47297,-0.1118545736,-9.076968740000002,3.9262749792,-2.48222665,3.64074516,-1.93370781,,,
imu,333.481449,-0.1070693512,-9.062613072800001,3.929265743200001,-2.42988828,3.95477538,-2.02343073,,,
imu,333.489928,-0.1040785872,-9.073977976,3.926873132,-2.19062716,4.15665195,-1.98604618,,,
imu,333.498407,-0.09450814240000002,-9.068594600800001,3.925078673600001,-2.11585806,4.59031273,-1.96361545,,,
imu,333.506885,-0.07716171120000001,-9.0608186144,3.935845424,-2.05604278,4.85200458,-1.89632326,,,
imu,333.515364,-0.05742266880000001,-9.0614167672,3.9322565072,-2.21305789,5.05388115,-1.91127708,,,
imu,333.523843,-0.03887993200000001,-9.073379823200002,3.949004785600001,-2.04108896,5.21837317,-1.9262309,,,
imu,333.532322,-0.03588916800000001,-9.0817539624,3.964556758400001,-2.17567334,5.308096089999999,-1.89632326,,,
imu,333.540801,-0.02990764000000001,-9.070987212,3.952593702400001,-2.37754991,5.47258811,-1.97109236,,,
imu,333.549242,0.0011963056,-9.065603836800001,3.9729308976,-2.47474974,5.52492648,-1.99352309,,,
imu,333.557683,0.0263187232,-9.090726254400002,3.9842958008,-2.45979592,5.442680469999999,-2.12810747,,,
imu,333.566124,0.0281131816,-9.085941032000001,3.981305036800001,-2.33268845,5.21089626,-2.23278421,,,
imu,333.574565,0.04187069600000001,-9.075772434400001,3.974127203200001,-2.20558098,4.92677368,-2.49447606,,,
imu,333.583006,0.05203929360000001,-9.069790906400002,3.9783142728,-2.01865823,4.739850929999999,-2.73373718,,,
imu,333.591448,0.0406743904,-9.056631544800002,3.967547522400001,-1.83173548,4.40338998,-2.87579847,,,
imu,333.599889,0.0113649032,-9.0386869608,3.962762300000001,-1.74948947,4.05197521,-3.10010577,,,
imu,333.60833,-0.0017944584,-9.027920210400001,3.960369688800001,-1.49527453,3.79028336,-3.10758268,,,
imu,333.616771,-0.0143556672,-9.029116516000002,3.9681456752,-1.0989983,3.65569898,-2.93561375,,,
imu,333.625212,-0.0317020984,-9.035696196800002,3.9681456752,-0.79244499,3.61083752,-2.74121409,,,
imu,333.633653,-0.03887993200000001,-9.053042628,3.985492106400001,-0.59056842,3.55102224,-2.51690679,,,
imu,333.642095,-0.03947808480000001,-9.076968740000002,3.9980533152,-0.41112258,3.53606842,-2.28512258,,,
imu,333.650536,-0.05203929360000001,-9.0644075312,3.996857009600001,-0.44850713,3.50616078,-2.06081528,,,
imu,333.658977,-0.05682451600000001,-9.069192753600001,3.987884717600001,-0.56066078,3.40148404,-1.86641562,,,
imu,333.667418,-0.06400234960000001,-9.097904088000002,3.995062551200001,-0.3513073,3.32671494,-1.86641562,,,
imu,333.675859,-0.0735727944,-9.124820964000001,3.981305036800001,0.0001074699999999984,3.25942275,-1.76173888,,,
imu,333.6843,-0.0753672528,-9.114652366400001,3.986688412,0.13469185,3.31176112,-1.64210832,,,
imu,333.692741,-0.08433954480000001,-9.1134560608,4.0004459264,-0.02232326000000001,3.66317589,-1.38789338,,,
imu,333.701183,-0.08015247520000002,-9.105081921600002,3.9980533152,-0.23915365,3.9697292,-1.24583209,,,
imu,333.709624,-0.09091922560000001,-9.1122597552,4.007025607200001,-0.32139966,4.23889796,-1.1785399,,,
imu,333.718065,-0.0634041968,-9.1164468248,4.002838537600001,-0.4260764,4.523020539999999,-1.33555501,,,
imu,333.726506,-0.0257205704,-9.1134560608,3.999847773600001,-0.4260764,4.717420199999999,-1.65706214,,,
imu,333.734947,-0.0185427368,-9.112857908,3.9932680928,-0.45598404,4.9417275,-1.76173888,,,
imu,333.743388,-0.0023926112,-9.111063449600001,3.9729308976,-0.36626112,5.33800373,-1.68696978,,,
imu,333.75183,0.0346928624,-9.076968740000002,3.9376398824,-0.2765382,5.59969558,-1.34303192,,,
imu,333.760283,0.07775986400000001,-9.001003334400002,3.908928548,-0.14943073,5.64455704,-1.29069355,,,
imu,333.768736,0.1220231712,-8.959132638400002,3.892778422400001,0.26179932,5.45015738,-1.47013939,,,
imu,333.77719,0.1638938672,-8.973488305600002,3.880815366400001,0.9870595899999999,5.18098862,-1.78416961,,,
imu,333.785643,0.1686790896,-9.006386709600001,3.883806130400001,1.27865908,4.68003565,-2.03838455,,,
imu,333.794096,0.1632957144,-9.035098044000001,3.9005544088,1.68988913,4.1192674,-2.19539966,,,
imu,333.80255,0.1716698536,-9.0614167672,3.897563644800001,1.65250458,3.57345297,-2.29259949,,,
imu,333.811003,0.1417622136,-9.082950268000001,3.9262749792,1.75718132,2.97530017,-2.3000764,,,
imu,333.819457,0.1058730456,-9.1164468248,3.908330395200001,1.75718132,2.60893158,-2.24773803,,,
imu,333.82791,0.09510629520000001,-9.111063449600001,3.913713770400001,1.37585891,2.33976282,-2.11315365,,,
imu,333.836363,0.0783580168,-9.148747076000001,3.925078673600001,1.2936129,2.1752708,-1.85893871,,,
imu,333.844817,0.062806044,-9.1648972016,3.9131156176,1.01696723,2.07059406,-1.76921579,,,
imu,333.85327,0.0251224176,-9.184038091200001,3.948406632800001,0.7104139199999999,2.05564024,-1.69444669,,,
imu,333.861723,0.002990764,-9.2157401896,3.957977077600001,0.51601426,2.05564024,-1.58976995,,,
imu,333.870177,-0.008374139200000002,-9.228301398400001,3.987286564800001,0.34404533,2.25751681,-1.7019236,,,
imu,333.87863,-0.0346928624,-9.236077384800002,3.987286564800001,-0.0522309,2.72856214,-1.79164652,,,
imu,333.887084,-0.0281131816,-9.211553120000001,3.981305036800001,-0.67281443,3.18465365,-1.94866163,,,
imu,333.895537,-0.005981528000000001,-9.169682424000001,3.962762300000001,-1.09152139,3.76037572,-2.12063056,,,
imu,333.90399,0.0257205704,-9.121232047200001,3.9436214104,-1.13638285,4.23889796,-2.35989168,,,
imu,333.912444,0.05203929360000001,-9.096707782400001,3.934649118400001,-1.03170611,4.68751256,-2.70382954,,,
imu,332.516696,,,,,,,-96.18053959999999,167.4034068,120.1371736
imu,332.618289,,,,,,,-96.2781972,167.4644428,119.5878496
imu,332.719882,,,,,,,-95.82653080000001,167.3057492,119.7709576
imu,332.821383,,,,,,,-96.3758548,167.4522356,120.1860024
imu,332.923037,,,,,,,-96.24157559999999,167.8062444,118.8554176
imu,333.02463,,,,,,,-96.4979268,167.5010644,119.734336
imu,333.126071,,,,,,,-94.1175228,166.5366956,118.0009136
imu,333.227664,,,,,,,-96.00963879999999,167.4400284,119.4779848
imu,333.920897,0.07058203040000001,-9.065603836800001,3.9190971456,-0.89712173,4.95668132,-2.91318302,,,
imu,333.92935,0.10467674,-9.0386869608,3.920891604000001,-0.77749117,5.113696429999999,-3.05524431,,,
imu,333.937804,0.1190324072,-9.066800142400002,3.9322565072,-0.45598404,5.0164966,-3.22721324,,,
imu,333.946257,0.1262102408,-9.0991003936,3.929265743200001,-0.20924601,4.68003565,-3.66835093,,,
imu,333.95474,0.1453511304,-9.088931796,3.9376398824,-0.43355331,4.40338998,-3.95247351,,,
imu,333.963222,0.1238176296,-9.072781670400001,3.9244805208,-0.36626112,3.99963684,-3.83284295,,,
imu,333.971705,0.1052748928,-9.0805576568,3.922087909600001,-0.2017691,3.7454219,-3.51881273,,,
imu,333.980188,0.06400234960000001,-9.087137337600002,3.9184989928,-0.17933837,3.69308353,-2.9729983,,,
imu,333.98867,0.0675912664,-9.076968740000002,3.913713770400001,-0.25410747,3.56597606,-2.38979932,,,
imu,333.997153,0.06519865520000001,-9.0787631984,3.906535936800001,-0.11952309,3.46129932,-2.15801511,,,
imu,334.005635,0.05084298800000001,-9.0913244072,3.908330395200001,0.23189168,3.27437657,-1.91127708,,,
imu,334.014118,0.023926112,-9.097305935200001,3.8915821168,0.5459219,3.12483837,-1.95613854,,,
imu,334.022601,0.005981528000000001,-9.096707782400001,3.886198741600001,0.6281679099999999,3.11736146,-2.13558438,,,
imu,334.031083,0.0005981528000000001,-9.109867144,3.902348867200001,0.9272443100000001,3.21456129,-2.27764567,,,
imu,334.039566,0.0023926112,-9.135587714400002,3.912517464800001,0.8973366700000001,3.37905331,-2.35989168,,,
imu,334.048048,0.002990764,-9.141569242400001,3.904143325600001,0.8524752099999999,3.53606842,-2.36736859,,,
imu,334.056531,0.007775986400000001,-9.1331951032,3.913713770400001,0.4711528,3.77532954,-2.46456842,,,
imu,334.065014,0.01495382,-9.134391408800001,3.905937784,0.26179932,4.01459066,-2.49447606,,,
imu,334.073496,0.02990764000000001,-9.136185867200002,3.885002436000001,0.06739966,4.29871324,-2.53933752,,,
imu,334.081979,0.05084298800000001,-9.1200357416,3.887395047200001,-0.007369440000000005,4.40338998,-2.68139881,,,
imu,334.090462,0.0693857248,-9.115250519200002,3.883806130400001,0.05992275,4.433297619999999,-2.87579847,,,
imu,334.098944,0.08673215600000002,-9.106876380000001,3.887395047200001,0.08235347999999998,4.38095925,-3.0477674,,,
imu,334.107427,0.08254508640000002,-9.0925207128,3.889189505600001,-0.01484635000000001,4.29123633,-3.28702852,,,
imu,334.115909,0.0903210728,-9.119437588800002,3.892778422400001,0.03001510999999998,4.29123633,-3.53376655,,,
imu,334.124392,0.09390998960000001,-9.138578478400001,3.8981617976,0.19450713,4.216467229999999,-3.6459202,,,
imu,334.132875,0.08194693360000001,-9.154728604,3.8993581032,0.2468455,3.94729847,-3.74312003,,,
imu,334.141357,0.08733030880000002,-9.169682424000001,3.9131156176,0.15712258,3.77532954,-3.95247351,,,
imu,334.14984,0.09510629520000001,-9.151737840000001,3.905937784,0.27675314,3.58092988,-3.85527368,,,
imu,334.158657,0.10467674,-9.145158159200001,3.911919312000001,0.29170696,3.39400713,-3.82536604,,,
imu,334.167474,0.1058730456,-9.145158159200001,3.907134089600001,0.20198404,3.04259236,-3.8702275,,,
imu,334.176291,0.1100601152,-9.119437588800002,3.879020908000001,0.14216876,2.76594669,-3.85527368,,,
imu,334.185108,0.09091922560000001,-9.060220461600002,3.865263393600001,0.08235347999999998,2.55659321,-3.76555076,,,
imu,334.193947,0.08194693360000001,-9.072781670400001,3.861076324,0.46367589,2.34723973,-3.54872037,,,
imu,334.202764,0.07118018320000001,-9.097305935200001,3.862870782400001,0.4711528,2.12293243,-3.58610492,,,
imu,334.211581,0.0323002512,-9.100894852000001,3.8706467688,0.7104139199999999,1.81637912,-3.55619728,,,
imu,334.220398,0.0185427368,-9.123026505600002,3.9011525616,0.4861066199999999,1.71917929,-3.58610492,,,
imu,334.229215,0.005981528000000001,-9.163700896000002,3.889189505600001,0.7104139199999999,1.59954873,-3.42908981,,,
imu,334.238032,0.0023926112,-9.125419116800002,3.8353557536,0.7403215599999999,1.58459491,-3.38422835,,,
imu,334.246849,-0.0053833752,-9.087137337600002,3.8538984904,0.8749059399999999,1.71170238,-3.33188998,,,
imu,334.255666,-0.0023926112,-9.097904088000002,3.841935434400001,1.16650543,1.98087114,-3.11505959,,,
imu,334.264483,-0.023926112,-9.1122597552,3.8538984904,1.23379762,2.00330187,-3.0477674,,,
imu,334.2733,-0.02871133440000001,-9.142167395200001,3.8664596992,1.19641307,1.99582496,-3.21973633,,,
imu,334.282117,0.0065796808,-9.211553120000001,3.9005544088,0.9646288599999999,1.79394839,-3.78050458,,,
imu,334.290934,0.0113649032,-9.239068148800001,3.8963673392,0.74779847,1.69674856,-4.25154991,,,
imu,334.29975,-0.0005981528000000001,-9.208562356000002,3.9011525616,0.58330645,1.77151766,-4.34874974,,,
imu,334.308567,-0.0233279592,-9.186430702400001,3.853300337600001,0.46367589,1.82385603,-4.07210407,,,
imu,334.317384,-0.04486146000000001,-9.160111979200002,3.8568892544,0.59078336,1.93600968,-3.76555076,,,
imu,334.326201,-0.002990764,-9.156523062400002,3.832963142400001,0.64312173,2.1005017,-3.75807385,,,
imu,334.335018,0.0011963056,-9.0883336432,3.8024573496,0.67302937,2.04068642,-3.7954584,,,
imu,334.343835,-0.004187069600000001,-9.047061100000002,3.788699835200001,1.12164397,1.88367131,-3.95995042,,,
imu,334.352652,0.0101685976,-9.076968740000002,3.8150185584,1.65998149,1.90610204,-3.97490424,,,
imu,334.361154,0.0107667504,-9.123026505600002,3.8215982392,1.8917657,1.94348659,-3.86275059,,,
imu,334.369655,0.004785222400000001,-9.121830200000002,3.823392697600001,1.95905789,1.83880985,-3.8702275,,,
imu,334.378157,0.007177833600000002,-9.1134560608,3.809037030400001,2.07121154,1.8761944,-3.84779677,,,
imu,334.386659,0.01495382,-9.093118865600001,3.8078407248,2.18336519,1.74908693,-3.71321239,,,
imu,334.39516,0.0011963056,-9.115848672,3.8204019336,2.14598064,1.59954873,-3.63844329,,,
imu,334.403662,-0.0197390424,-9.161308284800002,3.8317668368,2.03382699,1.59207182,-3.69078166,,,
imu,334.412164,-0.0281131816,-9.156523062400002,3.8198037808,1.97401171,1.577118,-3.75807385,,,
imu,334.420666,-0.04605776560000001,-9.138578478400001,3.8174111696,1.77961205,1.65936401,-3.85527368,,,
imu,334.429167,-0.0675912664,-9.1331951032,3.825187156000001,1.7422275,1.74161002,-3.97490424,,,
imu,334.437669,-0.0741709472,-9.178654716,3.8383465176,1.71231986,1.90610204,-4.124442439999999,,,
imu,334.446171,-0.07058203040000001,-9.214543884000001,3.831168684000001,1.65250458,2.00330187,-4.124442439999999,,,
imu,334.454672,-0.09749890640000002,-9.208562356000002,3.838944670400001,1.48801256,2.07807097,-3.95995042,,,
imu,334.463174,-0.1034804344,-9.208562356000002,3.850309573600001,1.39081273,2.26499372,-3.89265823,,,
imu,334.471676,-0.09390998960000001,-9.2139457312,3.834757600800001,1.27118217,2.51173175,-3.80293531,,,
imu,334.480177,-0.09450814240000002,-9.194804841600002,3.819205628,1.28613599,2.57154703,-3.81788913,,,
imu,334.488679,-0.1010878232,-9.1583175208,3.8204019336,1.15902852,2.72108523,-3.69825857,,,
imu,334.497181,-0.10467674,-9.152335992800001,3.821000086400001,1.00949032,2.81080815,-3.5711511,,,
imu,334.505682,-0.09570444800000001,-9.174467646400002,3.834159448,0.9347212199999999,2.99025399,-3.45152054,,,
imu,334.514184,-0.07656355840000001,-9.176262104800001,3.8150185584,0.91229049,3.02763854,-3.57862801,,,
imu,334.522686,-0.0813487808,-9.155326756800001,3.804251808000001,1.00201341,3.01268472,-3.68330475,,,
imu,334.531187,-0.0933118368,-9.139774784,3.801261044,1.23379762,3.07997691,-3.70573548,,,
imu,334.539689,-0.06041343280000001,-9.1511396872,3.800064738400001,1.22632071,3.06502309,-3.61601256,,,
imu,334.548191,-0.0592171272,-9.1541304512,3.781522001600001,1.19641307,3.09493073,-3.33936689,,,
imu,334.556693,-0.06041343280000001,-9.1541304512,3.781522001600001,1.42072037,3.06502309,-3.14496723,,,
imu,334.565128,-0.0634041968,-9.1433637008,3.771353404000001,1.34595127,2.84071579,-3.28702852,,,
imu,334.573564,-0.0634041968,-9.146354464800002,3.754006972800001,1.39081273,2.82576197,-3.20478251,,,
imu,334.581999,-0.0723764888,-9.157121215200002,3.7408476112,1.57025857,2.71360832,-3.31693616,,,
imu,334.590435,-0.0861340032,-9.13678402,3.742043916800001,1.63007385,2.51173175,-3.29450543,,,
imu,334.59887,-0.101685976,-9.1481489232,3.744436528,1.73475059,2.43696265,-3.51881273,,,
imu,334.607306,-0.1333880744,-9.157719368,3.732473472000001,1.88428879,2.45939338,-3.59358183,,,
imu,334.615742,-0.137575144,-9.166691660000001,3.729482708,1.95158098,2.6238854,-3.50385891,,,
imu,334.624177,-0.1339862272,-9.158915673600001,3.7151270408,2.02635008,2.93043871,-3.55619728,,,
imu,334.632613,-0.1459492832,-9.152335992800001,3.718715957600001,2.07121154,3.19213056,-3.48142818,,,
imu,334.641048,-0.1429585192,-9.180449174400001,3.7127344296,2.09364227,3.37905331,-3.43656672,,,
imu,334.649484,-0.1274065464,-9.2001882168,3.721108568800001,2.28056502,3.55849915,-3.31693616,,,
imu,334.657919,-0.122621324,-9.2300958568,3.7193141104,2.13850373,3.7454219,-3.42908981,,,
imu,334.666355,-0.122621324,-9.215142036800001,3.718715957600001,2.14598064,3.82766791,-3.48890509,,,
imu,334.67479,-0.1142471848,-9.245647829600001,3.718715957600001,1.95158098,3.90243701,-3.45152054,,,
imu,334.683226,-0.1094619624,-9.253423816000002,3.707351054400001,1.77213514,3.88748319,-3.38422835,,,
imu,334.691662,-0.09749890640000002,-9.239666301600002,3.7127344296,1.62259694,3.97720611,-3.39170526,,,
imu,334.700097,-0.08673215600000002,-9.257012732800002,3.705556596,1.52539711,3.90991392,-3.35432071,,,
imu,334.708533,-0.09151737840000002,-9.262396108,3.7031639848,1.16650543,3.78280645,-3.39918217,,,
imu,334.716968,-0.1130508792,-9.246844135200002,3.703762137600001,0.97210577,3.64822207,-3.36179762,,,
imu,334.725404,-0.1028822816,-9.260003496800001,3.6959861512,0.9571519499999999,3.70803735,-3.33936689,,,
imu,334.733839,-0.08493769760000001,-9.2480404408,3.6917990816,0.8524752099999999,3.79028336,-3.14496723,,,
imu,333.329241,,,,,,,-94.12973,166.8418756,116.7191576
imu,333.430804,,,,,,,-96.11950360000002,167.3423708,119.7831648
imu,333.532549,,,,,,,-96.6688276,168.0992172,118.5380304
imu,333.633898,,,,,,,-96.204954,168.2457036,119.2948768
imu,333.743243,,,,,,,-96.4979268,168.8560636,119.1361832
imu,333.837023,,,,,,,-96.05846760000001,168.7950276,119.0385256
imu,333.938616,,,,,,,-96.3758548,167.9161092,118.6723096
imu,334.040148,,,,,,,-95.43590040000001,168.0748028,118.7333456
imu,334.742275,-0.10467674,-9.246245982400001,3.6947898456,0.55339881,3.70803735,-3.0477674,,,
imu,334.750711,-0.1172379488,-9.214543884000001,3.675050803200001,0.36647606,3.70056044,-3.16739796,,,
imu,334.759146,-0.1172379488,-9.187028855200001,3.651124691200001,0.41133752,3.73794499,-2.95804448,,,
imu,334.767612,-0.107667504,-9.169084271200001,3.6295911904,0.55339881,3.88748319,-2.9729983,,,
imu,334.776078,-0.1178361016,-9.188823313600002,3.6379653296,0.8375213899999999,3.99963684,-2.9729983,,,
imu,334.784544,-0.1172379488,-9.170280576800002,3.6451431632,1.04687487,4.07440594,-3.0477674,,,
imu,334.793011,-0.1058730456,-9.194804841600002,3.642750552,1.07678251,4.02954448,-3.07767504,,,
imu,334.801477,-0.0855358504,-9.230694009600002,3.6481339272,1.33099745,4.126744309999999,-3.27955161,,,
imu,334.809943,-0.0634041968,-9.245647829600001,3.6571062192,1.38333582,4.08188285,-3.23469015,,,
imu,334.818409,-0.04785222400000001,-9.2169364952,3.6403579408,1.48053565,4.08935976,-2.99542903,,,
imu,334.826875,-0.04545961280000001,-9.226506940000002,3.633180107200001,1.54035093,4.02954448,-2.80102937,,,
imu,334.835341,-0.04187069600000001,-9.218132800800001,3.6254041208,1.39828964,3.77532954,-2.8234601,,,
imu,334.843807,-0.01495382,-9.210954967200001,3.627796732000001,1.61512003,3.49120696,-3.01785976,,,
imu,334.852273,-0.011963056,-9.208562356000002,3.6176281344,1.60764312,3.05754618,-3.50385891,,,
imu,334.860739,-0.03947808480000001,-9.219927259200002,3.621815204,1.71231986,2.61640849,-3.78798149,,,
imu,334.869205,-0.0681894192,-9.2588071912,3.6170299816,1.53287402,2.19022462,-4.034719519999999,,,
imu,334.877671,-0.09570444800000001,-9.214543884000001,3.591309411200001,1.39828964,2.19022462,-3.92256587,,,
imu,334.886137,-0.1010878232,-9.2378718432,3.586524188800001,1.56278166,2.18274771,-3.71321239,,,
imu,334.894604,-0.09749890640000002,-9.2139457312,3.563196229600001,1.75718132,2.23508608,-3.71321239,,,
imu,334.90307,-0.10467674,-9.198991911200002,3.560205465600001,1.6674584,2.23508608,-3.78050458,,,
imu,334.911536,-0.1274065464,-9.203178980800002,3.55900916,1.86933497,2.11545552,-3.61601256,,,
imu,334.920002,-0.1250139352,-9.2300958568,3.5673832992,1.90671952,2.24256299,-3.71321239,,,
imu,334.928468,-0.1244157824,-9.287518525600001,3.5883186472,1.98896553,2.36219355,-3.7206893,,,
imu,334.936934,-0.1274065464,-9.3108464848,3.5805426608,1.89924261,2.58650085,-3.54872037,,,
imu,334.9454,-0.1357806856,-9.313239096000002,3.5901131056,1.65250458,2.67622377,-3.30945925,,,
imu,334.953866,-0.1088638096,-9.329987374400002,3.5984872448,1.25622835,2.6986545,-3.29450543,,,
imu,334.962332,-0.1519308112,-9.324005846400002,3.573962980000001,1.13659779,2.8481927,-2.90570611,,,
imu,334.970803,-0.122621324,-9.310248332,3.5805426608,0.7403215599999999,2.94539253,-2.79355246,,,
imu,334.979275,-0.1214250184,-9.343744888800002,3.5960946336,0.29170696,3.04259236,-2.748691,,,
imu,334.987746,-0.1561178808,-9.335968902400001,3.593103869600001,-0.2765382,3.18465365,-2.88327538,,,
imu,334.996217,-0.1459492832,-9.3126409432,3.591907564,-0.5980453299999999,3.38653022,-3.15244414,,,
imu,335.004688,-0.1064711984,-9.323407693600002,3.587720494400001,-0.6279529699999999,3.49868387,-3.11505959,,,
imu,335.013159,-0.1220231712,-9.3006778872,3.586524188800001,-0.76253735,3.58092988,-3.16739796,,,
imu,335.02163,-0.09510629520000001,-9.2851259144,3.5841315776,-1.01675229,3.58840679,-3.41413599,,,
imu,335.030102,-0.092713684,-9.280938844800001,3.5966927864,-1.1737674,3.62579134,-3.57862801,,,
imu,335.038573,-0.1010878232,-9.251629357600002,3.591907564,-1.21115195,3.5958837,-3.5711511,,,
imu,335.047044,-0.1004896704,-9.245647829600001,3.6032724672,-1.33078251,3.52859151,-3.71321239,,,
imu,335.055515,-0.0903210728,-9.2300958568,3.600879856,-1.4728438,3.45382241,-3.75059694,,,
imu,335.063986,-0.09091922560000001,-9.219329106400002,3.600281703200001,-1.48032071,3.37905331,-3.68330475,,,
imu,335.072457,-0.09450814240000002,-9.219927259200002,3.6116466064,-1.43545925,3.16969983,-3.65339711,,,
imu,335.080929,-0.07955432240000002,-9.2271050928,3.621217051200001,-1.34573633,2.9977309,-3.60853565,,,
imu,335.0894,-0.08912476720000001,-9.2103568144,3.61882444,-1.41302852,2.78090051,-3.62348947,,,
imu,335.097871,-0.101685976,-9.207964203200001,3.633180107200001,-1.46536689,2.36219355,-3.78050458,,,
imu,335.106342,-0.1160416432,-9.203777133600001,3.6439468576,-1.3233056,2.16779389,-3.72816621,,,
imu,335.114813,-0.137575144,-9.228899551200001,3.6565080664,-1.30835178,1.98834805,-3.53376655,,,
imu,335.123284,-0.1776513816,-9.2432552184,3.6589006776,-1.54013599,1.75656384,-3.48890509,,,
imu,335.131756,-0.1902125904,-9.225908787200002,3.6385634824,-1.64481273,1.71917929,-3.38422835,,,
imu,335.140227,-0.1896144376,-9.172673188000001,3.6230115096,-1.37564397,1.8014253,-3.08515195,,,
imu,335.148698,-0.203371952,-9.178654716,3.6200207456,-1.1737674,1.77151766,-3.01785976,,,
imu,335.157169,-0.2195220776,-9.190617772000001,3.621815204,-1.03918302,1.8014253,-3.14496723,,,
imu,335.16564,-0.2344758976,-9.180449174400001,3.6254041208,-0.77749117,1.94348659,-3.25712088,,,
imu,335.174457,-0.2284943696,-9.1684861184,3.623609662400001,-0.59056842,2.12293243,-3.20478251,,,
imu,335.183274,-0.2201202304,-9.187028855200001,3.639161635200001,-0.6503837,2.22013226,-3.1973056,,,
imu,335.192091,-0.2225128416,-9.2127494256,3.642750552,-0.4260764,2.4743472,-3.05524431,,,
imu,335.200908,-0.2039701048,-9.184636244000002,3.6230115096,-0.26906129,2.55659321,-3.06272122,,,
imu,335.209725,-0.2201202304,-9.175663952,3.614039217600001,-0.0522309,2.75846978,-2.87579847,,,
imu,335.218542,-0.2111479384,-9.1960011472,3.6080576896,-0.08213854000000001,2.80333124,-2.8234601,,,
imu,335.227359,-0.1561178808,-9.1858325496,3.605066925600001,0.13469185,2.72856214,-2.81598319,,,
imu,335.236176,-0.1752587704,-9.2139457312,3.6230115096,0.35152224,2.65379304,-2.92813684,,,
imu,335.244993,-0.2141387024,-9.242058912800001,3.620618898400001,0.5010604399999999,2.66126995,-2.92065993,,,
imu,335.25381,-0.2261017584,-9.240264454400002,3.6134410648,0.65059864,2.6238854,-2.83841392,,,
imu,335.262626,-0.19439966,-9.254021968800002,3.6092539952,0.7104139199999999,2.58650085,-2.83841392,,,
imu,335.271443,-0.19439966,-9.2719665528,3.622413356800001,0.68798319,2.63136231,-2.8234601,,,
imu,335.28026,-0.212344244,-9.3383615136,3.614637370400001,0.6281679099999999,2.75099287,-2.77112173,,,
imu,335.288971,-0.2039701048,-9.3335762912,3.621815204,0.3889067899999999,2.73603905,-2.68887572,,,
imu,335.297788,-0.173464312,-9.3269966104,3.587720494400001,0.06739966,2.81080815,-2.77112173,,,
imu,335.306605,-0.1447529776,-9.283929608800001,3.5960946336,-0.18681528,2.75099287,-2.83841392,,,
imu,335.315422,-0.1549215752,-9.294696359200001,3.593103869600001,-0.46346095,2.59397776,-2.92813684,,,
imu,335.324239,-0.1650901728,-9.313239096000002,3.5895149528,-0.874691,2.37714737,-3.00290594,,,
imu,335.333056,-0.158510492,-9.233086620800002,3.5476442568,-1.24105959,2.35471664,-2.95056757,,,
imu,335.341873,-0.17944584,-9.1642990488,3.5458497984,-1.33825942,2.46687029,-2.72626027,,,
imu,335.35069,-0.1890162848,-9.224114328800002,3.5775518968,-1.15881358,2.43696265,-2.62906044,,,
imu,335.359507,-0.2051664104,-9.266583177600001,3.579346355200001,-1.05413684,2.45191647,-2.58419898,,,
imu,335.368323,-0.2111479384,-9.211553120000001,3.582935272,-0.9494601,2.42948574,-2.41223005,,,
imu,335.37679,-0.2099516328,-9.2277032456,3.5996835504,-0.76253735,2.57902394,-2.50195297,,,
imu,335.385256,-0.2129423968,-9.242657065600001,3.5763555912,-0.65786061,2.7734236,-2.62906044,,,
imu,335.393722,-0.2045682576000001,-9.244451524,3.5996835504,-0.52327623,2.88557725,-2.64401426,,,
imu,335.402188,-0.188418132,-9.250433052000002,3.6230115096,-0.7550604399999999,2.86314652,-2.47204533,,,
imu,335.410654,-0.1746606176,-9.2755554696,3.634974565600001,-0.70272207,2.68370068,-2.54681443,,,
imu,335.41912,-0.1806421456,-9.249236746400001,3.6170299816,-0.9494601,2.53416248,-2.86832156,,,
imu,335.427586,-0.1770532288,-9.174467646400002,3.600281703200001,-0.82982954,2.46687029,-3.10010577,,,
imu,335.436052,-0.1860255208,-9.202580828,3.600879856,-0.77001426,2.39210119,-3.18982869,,,
imu,335.444518,-0.2201202304,-9.253423816000002,3.6104503008,-0.41859949,2.23508608,-3.05524431,,,
imu,335.452984,-0.2404574256,-9.2366755376,3.5960946336,-0.38869185,2.39210119,-2.77859864,,,
imu,335.46145,-0.2488315648,-9.198991911200002,3.588916800000001,-0.30644584,2.59397776,-2.47204533,,,
imu,335.469916,-0.2703650656,-9.209758661600002,3.6056650784,-0.23167674,2.85566961,-2.17296893,,,
imu,335.478383,-0.2709632184,-9.173271340800001,3.5871223416,-0.23167674,2.97530017,-2.001,,,
imu,335.486849,-0.2494297176,-9.2546201216,3.662489594400001,-0.127,3.09493073,-1.82903107,,,
imu,335.495315,-0.2787392048,-9.441841948000002,3.669667428,-0.10456927,3.15474601,-1.58229304,,,
imu,335.503781,-0.3259932760000001,-9.368269153600002,3.648732080000001,-0.60552224,3.37905331,-1.36546265,,,
imu,335.512247,-0.3373581792000001,-9.2851259144,3.649330232800001,-1.21862886,3.75289881,-1.38041647,,,
imu,335.520713,-0.3128339144,-9.308453873600001,3.626002273600001,-1.5476129,4.126744309999999,-1.23087827,,,
imu,335.529179,-0.3152265256,-9.2588071912,3.5745611328,-1.63733582,4.56040509,-0.79721749,,,
imu,335.537645,-0.3116376088,-9.1445600064,3.5093624776,-1.74201256,5.08378879,-0.66263311,,,
imu,335.546111,-0.2679724544000001,-9.0434721832,3.472875156800001,-1.57004363,5.53240339,-0.7224483899999998,,,
imu,335.554577,-0.2446444952,-9.0339017384,3.439976752800001,-0.8672140899999999,6.07821782,-0.88694041,,,
imu,334.141741,,,,,,,-96.0950892,168.1114244,118.879832
imu,334.243304,,,,,,,-93.77572119999999,167.7085868,115.9134824
imu,334.344866,,,,,,,-96.05846760000001,167.4522356,118.7821744
imu,334.44649,,,,,,,-93.42171240000002,166.805254,117.2440672
imu,334.547991,,,,,,,-95.5091436,167.17147,119.6000568
imu,334.649554,,,,,,,-95.30162120000001,166.9517404,120.2470384
imu,334.751086,,,,,,,-95.6312156,167.2447132,119.917444
imu,334.852801,,,,,,,-95.94860279999999,166.9517404,119.8442008
imu,335.563043,-0.2261017584,-9.0016014872,3.4393786,-0.35878421,6.32495585,-1.13367844,,,
imu,335.571509,-0.2027737992,-9.0255275992,3.489025282400001,0.29170696,6.624032249999999,-1.50752394,,,
imu,335.579974,-0.1609031032,-9.066800142400002,3.506371713600001,1.15155161,6.728708989999999,-1.82155416,,,
imu,335.588439,-0.1417622136,-9.090726254400002,3.5165403112,1.71979677,6.98292393,-2.14306129,,,
imu,335.596904,-0.1339862272,-9.141569242400001,3.547046104000001,2.37028794,6.98292393,-2.62158353,,,
imu,335.605369,-0.09091922560000001,-9.246844135200002,3.5781500496,2.68431816,6.85581646,-3.10010577,,,
imu,335.613834,-0.07297464160000001,-9.3036686512,3.5847297304,2.95348692,6.840862639999999,-3.11505959,,,
imu,335.622298,-0.080750628,-9.350324569600001,3.621815204,3.140409669999999,6.69132444,-3.33188998,,,
imu,335.630763,-0.0663949608,-9.4412437952,3.6325819544,2.74413344,6.45954023,-3.68330475,,,
imu,335.639228,-0.06998387760000001,-9.454403156800002,3.6194225928,2.10111918,6.250186749999999,-3.89265823,,,
imu,335.647693,-0.0562263632,-9.391597112800001,3.594898328000001,1.20388998,5.97354108,-3.87770441,,,
imu,335.656158,-0.0323002512,-9.4005694048,3.618226287200001,0.80013684,5.84643361,-3.75807385,,,
imu,335.664622,-0.03110394560000001,-9.5118258256,3.6385634824,0.3889067899999999,5.50249575,-3.66835093,,,
imu,335.673087,-0.0281131816,-9.4962738528,3.6361708712,-0.41859949,5.25575772,-3.52628964,,,
imu,335.681552,-0.03349655680000001,-9.420906600000002,3.6355727184,-1.41302852,4.85948149,-3.40665908,,,
imu,335.690017,-0.03887993200000001,-9.388606348800002,3.600879856,-1.80930475,4.54545127,-3.23469015,,,
imu,335.698482,-0.04366515440000001,-9.402363863200002,3.6056650784,-2.26539626,4.17908268,-3.10010577,,,
imu,335.706947,-0.017944584,-9.373652528800001,3.614637370400001,-2.6691494,3.90243701,-2.8982292,,,
imu,335.715411,-0.0155519728,-9.344941194400002,3.6056650784,-2.99065653,3.63326825,-2.75616791,,,
imu,335.723876,-0.04187069600000001,-9.2970889704,3.5984872448,-3.14767164,3.13231528,-2.83093701,,,
imu,335.732341,-0.0592171272,-9.225908787200002,3.582935272,-3.29720984,2.75846978,-2.88327538,,,
imu,335.740806,-0.09091922560000001,-9.2067678976,3.579346355200001,-3.14767164,2.51173175,-3.14496723,,,
imu,335.749271,-0.113649032,-9.208562356000002,3.569775910400001,-3.14019473,2.22760917,-3.24964397,,,
imu,335.757735,-0.13458438,-9.1720750352,3.5614017712,-3.05047181,2.24256299,-3.16739796,,,
imu,335.7662,-0.1698753952,-9.134391408800001,3.5673832992,-3.028041079999999,2.34723973,-3.18235178,,,
imu,335.774665,-0.1692772424,-9.134391408800001,3.5614017712,-2.75139541,2.34723973,-3.2720747,,,
imu,335.783129,-0.1908107432,-9.1134560608,3.5578128544,-2.62428794,2.54163939,-3.14496723,,,
imu,335.791592,-0.2147368552,-9.1164468248,3.565588840800001,-2.56447266,2.72856214,-3.09262886,,,
imu,335.800056,-0.2290925224000001,-9.142765548000002,3.567981452000001,-2.27287317,2.93791562,-3.15244414,,,
imu,335.808519,-0.2344758976,-9.0853428792,3.514745852800001,-1.92893531,3.28933039,-3.10758268,,,
imu,335.816983,-0.2290925224000001,-9.040481419200002,3.54405534,-1.2485365,3.63326825,-3.13749032,,,
imu,335.825446,-0.2278962168,-9.1583175208,3.591309411200001,-0.81487572,3.93982156,-3.4216129,,,
imu,335.83391,-0.2231109944,-9.2271050928,3.626002273600001,-0.5980453299999999,4.35105161,-3.46647436,,,
imu,335.842373,-0.2069608688,-9.218132800800001,3.6660785112,-0.43355331,4.814620029999999,-3.18982869,,,
imu,335.850837,-0.1991848824,-9.237273690400002,3.6774434144,-0.40364567,4.95668132,-3.16739796,,,
imu,335.8593,-0.1842310624,-9.2827333032,3.695387998400001,-0.6279529699999999,5.158557889999999,-3.26459779,,,
imu,335.867764,-0.1716698536,-9.292303748000002,3.6959861512,-0.63542988,5.263234629999999,-3.29450543,,,
imu,335.876228,-0.1507345056,-9.264788719200002,3.6690692752,-0.8672140899999999,5.2408039,-3.2720747,,,
imu,335.884691,-0.1369769912,-9.263592413600001,3.687612012,-0.9494601,5.20341935,-3.45152054,,,
imu,335.893155,-0.1292010048,-9.302472345600002,3.6642840528,-0.9494601,5.20341935,-3.52628964,,,
imu,335.901618,-0.1094619624,-9.271368400000002,3.658302524800001,-1.18872122,5.068834969999999,-3.30198234,,,
imu,335.910082,-0.1022841288,-9.245049676800003,3.6463394688,-1.12142903,5.05388115,-3.06272122,,,
imu,335.918545,-0.09091922560000001,-9.215142036800001,3.621815204,-0.82982954,4.85200458,-2.95056757,,,
imu,335.927009,-0.08733030880000002,-9.204375286400001,3.6116466064,-0.90459864,4.717420199999999,-2.9729983,,,
imu,335.935472,-0.0813487808,-9.283331456,3.6421523992,-0.74758353,4.48563599,-3.04029049,,,
imu,335.943936,-0.08433954480000001,-9.280938844800001,3.631983801600001,-0.61299915,4.26132869,-3.04029049,,,
imu,335.952399,-0.113649032,-9.225310634400001,3.63377826,-0.79244499,4.05197521,-3.18235178,,,
imu,335.960863,-0.092713684,-9.1852343968,3.636769024,-1.00179847,3.87252937,-3.24964397,,,
imu,335.969326,-0.07297464160000001,-9.2067678976,3.6266004264,-0.89712173,3.49868387,-3.31693616,,,
imu,335.97779,-0.09989151760000002,-9.1708787296,3.6266004264,-0.81487572,3.05006927,-3.50385891,,,
imu,335.986252,-0.1232194768,-9.177458410400002,3.637367176800001,-0.78496808,2.4743472,-4.00481188,,,
imu,335.994715,-0.1393696024,-9.1930103832,3.6242078152,-0.65786061,2.12293243,-4.51324176,,,
imu,336.003177,-0.1758569232,-9.184636244000002,3.6200207456,-0.66533752,1.84628676,-4.55810322,,,
imu,336.011639,-0.1985867296,-9.190617772000001,3.622413356800001,-0.47093786,1.76404075,-4.25902682,,,
imu,336.020101,-0.1758569232,-9.172673188000001,3.5715703688,-0.49336859,1.63693328,-3.84031986,,,
imu,336.028564,-0.1776513816,-9.073977976,3.530895978400001,-0.51579932,1.61450255,-3.29450543,,,
imu,336.037026,-0.2075590216,-9.0638093784,3.5386719648,-0.06718472,1.45001053,-3.14496723,,,
imu,336.045488,-0.2368685088,-9.1445600064,3.5614017712,0.4861066199999999,1.32290306,-3.18235178,,,
imu,336.05395,-0.2625890792,-9.191215924800002,3.567981452000001,0.74779847,1.14345722,-3.24964397,,,
imu,336.062413,-0.272159524,-9.211553120000001,3.581140813600001,0.9197674,1.24065705,-3.31693616,,,
imu,336.070875,-0.3104413032000001,-9.219927259200002,3.573962980000001,1.21136689,1.47991817,-3.17487487,,,
imu,336.079337,-0.3259932760000001,-9.187627008000002,3.561999924,1.57025857,1.63693328,-2.90570611,,,
imu,336.0878,-0.3182172896000001,-9.204375286400001,3.593702022400001,1.76465823,1.82385603,-2.77112173,,,
imu,336.096262,-0.2823281216,-9.300079734400002,3.620618898400001,1.87681188,2.06311715,-2.71878336,,,
imu,336.104724,-0.2500278704,-9.3269966104,3.618226287200001,1.95905789,2.16031698,-2.70382954,,,
imu,336.113186,-0.2380648144,-9.3126409432,3.6594988304,1.8169966,2.324809,-2.56924516,,,
imu,336.121649,-0.2464389536,-9.374250681600001,3.6774434144,1.63755076,2.34723973,-2.66644499,,,
imu,336.130111,-0.2458408008,-9.411934308000001,3.6612932888,1.11416706,2.43696265,-2.76364482,,,
imu,336.138573,-0.2470371064,-9.373652528800001,3.614039217600001,0.3963837,2.60893158,-2.64401426,,,
imu,336.147035,-0.2637853848,-9.235479232000001,3.5524294792,-0.10456927,2.85566961,-2.45709151,,,
imu,336.155498,-0.266177996,-9.146952617600002,3.5195310752,-0.30644584,2.97530017,-2.57672207,,,
imu,336.16396,-0.2889078024000001,-9.251629357600002,3.5943001752,-0.03727708,3.19213056,-2.63653735,,,
imu,336.172422,-0.2972819416,-9.450814240000001,3.6313856488,0.0001074699999999984,3.50616078,-2.69635263,,,
imu,336.180884,-0.2727576768,-9.390998960000001,3.6092539952,-0.44850713,3.80523718,-2.68887572,,,
imu,336.189705,-0.2584020096,-9.203178980800002,3.5925057168,-1.04665993,4.03702139,-2.79355246,,,
imu,336.198526,-0.2542149400000001,-9.182243632800002,3.6092539952,-1.43545925,4.14169813,-2.75616791,,,
imu,336.207347,-0.2488315648,-9.245049676800003,3.595496480800001,-1.54013599,4.28375942,-2.5991528,,,
imu,336.216168,-0.2266999112,-9.245647829600001,3.5781500496,-1.3233056,4.40338998,-2.5991528,,,
imu,336.224989,-0.2290925224000001,-9.191215924800002,3.5901131056,-1.20367504,4.39591307,-2.748691,,,
imu,336.23381,-0.2266999112,-9.198393758400002,3.591907564,-1.12890594,4.42582071,-2.63653735,,,
imu,336.242631,-0.2195220776,-9.224114328800002,3.6056650784,-0.85973718,4.31366706,-2.25521494,,,
imu,336.251452,-0.2087553272,-9.245647829600001,3.594898328000001,-0.85973718,4.27628251,-1.97109236,,,
imu,336.260273,-0.2075590216,-9.238469996000001,3.5847297304,-0.5307531400000001,4.32862088,-1.71687742,,,
imu,336.269094,-0.191408896,-9.246245982400001,3.583533424800001,-0.30644584,4.15665195,-1.58229304,,,
imu,336.277914,-0.1961941184,-9.294098206400001,3.606861384000001,-0.23915365,3.95477538,-1.54490849,,,
imu,336.286735,-0.2165313136,-9.340155972000002,3.608655842400001,-0.44103022,3.93234465,-1.38041647,,,
imu,336.295556,-0.221316536,-9.2899111368,3.5901131056,-0.79244499,4.02206757,-1.29069355,,,
imu,336.304377,-0.2296906752000001,-9.218730953600001,3.5667851464,-1.34573633,4.13422122,-1.17106299,,,
imu,336.313198,-0.221316536,-9.3006778872,3.5823371192,-1.45041307,4.27628251,-1.17106299,,,
imu,336.322019,-0.2284943696,-9.346137500000001,3.5685796048,-1.35321324,4.59778964,-1.09629389,,,
imu,336.33084,-0.230288828,-9.260003496800001,3.587720494400001,-1.6971511,4.76975857,-1.35798574,,,
imu,336.339661,-0.2284943696,-9.2641905664,3.5871223416,-2.11585806,4.94920441,-1.59724686,,,
imu,336.348482,-0.1985867296,-9.305463109600002,3.579944508,-2.28035008,5.20341935,-1.55986231,,,
imu,336.357303,-0.1716698536,-9.2546201216,3.572766674400001,-2.60185721,5.51744957,-1.50004703,,,
imu,336.366124,-0.1351825328,-9.221721717600001,3.570972216,-2.72896468,5.69689541,-1.53743158,,,
imu,336.374944,-0.1280046992,-9.210954967200001,3.572168521600001,-2.54951884,5.62212631,-1.64210832,,,
imu,334.954369,,,,,,,-95.49693640000001,166.5489028,119.9418584
imu,335.055931,,,,,,,-92.6282444,166.500074,119.0507328
imu,335.157433,,,,,,,-94.97202680000001,166.011786,120.4301464
imu,335.259026,,,,,,,-93.01887479999999,165.3770116,117.7445624
imu,335.360558,,,,,,,-94.95981959999999,165.8652996,120.5766328
imu,335.46212,,,,,,,-95.14292760000001,164.9863812,117.3417248
imu,335.563683,,,,,,,-95.3382428,165.9629572,120.1127592
imu,335.665276,,,,,,,-95.3138284,166.2803444,119.2216336
imu,336.383876,-0.09151737840000002,-9.249834899200001,3.5883186472,-2.53456502,5.56231103,-1.64210832,,,
imu,336.392409,-0.07058203040000001,-9.279144386400002,3.60387062,-2.54951884,5.50997266,-1.79912343,,,
imu,336.400941,-0.06460050240000001,-9.286920372800001,3.618226287200001,-2.66167249,5.18098862,-2.001,,,
imu,336.409473,-0.0933118368,-9.277349928000001,3.630189343200001,-2.90841052,4.97163514,-2.06081528,,,
imu,336.418005,-0.062806044,-9.292303748000002,3.630787496000001,-2.94579507,4.7921893,-2.17296893,,,
imu,336.426538,-0.05861897440000001,-9.289312984,3.639759788000001,-3.25982529,4.62769728,-2.23278421,,,
imu,336.43507,-0.0663949608,-9.282135150400002,3.651722844000001,-3.31964057,4.433297619999999,-2.24773803,,,
imu,336.443602,-0.09510629520000001,-9.24146076,3.633180107200001,-3.43179422,4.32862088,-2.12063056,,,
imu,336.452134,-0.09749890640000002,-9.186430702400001,3.615833676,-3.74582444,4.32862088,-2.09819983,,,
imu,336.460666,-0.09091922560000001,-9.141569242400001,3.60387062,-3.53647096,4.39591307,-2.16549202,,,
imu,336.469199,-0.09450814240000002,-9.123026505600002,3.6014780088,-3.37197894,4.36600543,-2.17296893,,,
imu,336.477731,-0.0980970592,-9.1056800744,3.6116466064,-2.93831816,4.39591307,-2.18792275,,,
imu,336.486263,-0.08912476720000001,-9.118839436000002,3.623609662400001,-2.42241137,4.37348234,-2.32998404,,,
imu,336.494795,-0.08314323920000001,-9.139176631200002,3.6409560936,-1.86164312,4.149175039999999,-2.55429134,,,
imu,336.503327,-0.08493769760000001,-9.1499433816,3.641554246400001,-1.57752054,3.93982156,-2.71130645,,,
imu,336.51186,-0.08493769760000001,-9.145158159200001,3.665480358400001,-1.11395212,3.86505246,-2.65896808,,,
imu,336.520392,-0.09091922560000001,-9.184038091200001,3.6852194008,-0.7401066199999999,3.7454219,-2.58419898,,,
imu,336.528924,-0.1034804344,-9.208562356000002,3.7019676792,-0.7550604399999999,3.56597606,-2.68887572,,,
imu,336.537456,-0.1040785872,-9.197197452800001,3.704958443200001,-0.5681376899999999,3.37905331,-2.79355246,,,
imu,336.545988,-0.1297991576,-9.166093507200001,3.690602776,-0.50832241,2.97530017,-3.03281358,,,
imu,336.554521,-0.1303973104,-9.156523062400002,3.693593540000001,-0.41859949,2.72108523,-3.30198234,,,
imu,336.563053,-0.1004896704,-9.228899551200001,3.7217067216,-0.31392275,2.68370068,-3.45899745,,,
imu,336.571585,-0.131593616,-9.2366755376,3.7127344296,-0.35878421,2.76594669,-3.2720747,,,
imu,336.580117,-0.1710717008,-9.2271050928,3.702565832000001,-0.33635348,2.7734236,-2.6739219,,,
imu,336.588649,-0.1561178808,-9.2342829264,3.684023095200001,-0.5008455,2.83323888,-2.53186061,,,
imu,335.766838,,,,,,,-95.1551348,166.439038,118.8065888
imu,335.868401,,,,,,,-95.3138284,166.133858,119.5390208
imu,335.969994,,,,,,,-95.167342,166.2681372,119.001904
imu,336.075493,,,,,,,-95.20396360000001,166.5855244,119.612264
imu,336.173088,,,,,,,-92.70148760000001,165.5723268,118.1351928
imu,336.27462,,,,,,,-95.0818916,166.5977316,120.3935248
imu,336.376183,,,,,,,-93.09211800000001,165.7188132,118.0985712
imu,336.477837,,,,,,,-95.3748644,166.8784972,119.9052368
imu,336.579161,,,,,,,-95.2527924,166.7808396,118.45258
