Type,Timestamp,Data Accelerometer X,Data Accelerometer Y,Data Accelerometer Z,Data Gyroscope X,Data Gyroscope Y,Data Gyroscope Z,Data Magnetometer X,Data Magnetometer Y,Data Magnetometer Z
imu,255.810096,0.1692772424,-9.825257892800002,1.3554142448,0.9197674,38.59529941,-0.4458027199999999,,,
imu,255.818932,0.07895616960000001,-9.807313308800001,1.3596013144,0.64312173,36.08305765,0.02524261000000028,,,
imu,255.827769,-0.0143556672,-9.788172419200002,1.3613957728,0.63564482,33.89979993,-0.2738337899999999,,,
imu,255.836606,-0.1232194768,-9.7815927384,1.3769477456,0.5982602699999999,32.34460265,-0.7598329399999999,,,
imu,255.845443,-0.1752587704,-9.782789044000001,1.4044627744,0.5982602699999999,31.19315851,-1.4028472,,,
imu,255.85428,-0.1920070488,-9.769031529600001,1.4200147472,0.8973366700000001,30.55014425,-1.85893871,,,
imu,255.863117,-0.2404574256,-9.772022293600001,1.4481279288,0.8524752099999999,29.90712999,-2.4496146,,,
imu,255.871953,-0.2835244272,-9.802528086400002,1.4732503464,0.77770611,29.49589994,-2.95804448,,,
imu,255.88079,-0.3170209840000001,-9.80970592,1.4822226384,0.66555246,29.32393101,-3.25712088,,,
imu,255.889627,-0.3295821928000001,-9.825257892800002,1.5007653752,0.56087572,29.24916191,-3.35432071,,,
imu,255.898464,-0.3726491944000001,-9.8461932408,1.5091395144,0.28423005,29.35383865,-3.52628964,,,
imu,255.907301,-0.3475267768,-9.876699033600001,1.5181118064,0.01506129,29.63796123,-3.80293531,,,
imu,255.916138,-0.3463304712,-9.860548908000002,1.52528964,-0.20924601,29.78002252,-4.17678081,,,
imu,255.924974,-0.35889168,-9.828248656800001,1.5246914872,-0.47093786,29.53328449,-4.625395409999999,,,
imu,255.933811,-0.3433397072,-9.802528086400002,1.5378508488,-0.68029134,29.51085376,-4.954379449999999,,,
imu,255.942648,-0.3158246784000001,-9.7606573904,1.55519728,-0.80739881,29.6155305,-5.02914855,,,
imu,255.951485,-0.3259932760000001,-9.728955292000002,1.55519728,-0.81487572,29.41365393,-4.931948719999999,,,
imu,255.960322,-0.3570972216000001,-9.731946056000002,1.5354582376,-0.71019898,29.25663882,-4.98428709,,,
imu,255.968797,-0.3355637208,-9.745703570400002,1.5743381696,-0.71019898,29.09962371,-4.96933327,,,
imu,255.977272,-0.2715613712,-9.801929933600002,1.620994088,-0.68776825,28.99494697,-4.77493361,,,
imu,255.985747,-0.2296906752000001,-9.820472670400001,1.6503035752,-0.9494601,28.56128619,-4.759979789999999,,,
imu,255.994222,-0.188418132,-9.8683248944,1.6861927432,-1.15881358,27.73134918,-4.74502597,,,
imu,256.002697,-0.1423603664,-9.860548908000002,1.683800132,-1.42798234,26.74439706,-4.79736434,,,
imu,256.011172,-0.1459492832,-9.764246307200002,1.6556869504,-1.51770526,25.67519893,-4.68521069,,,
imu,256.019647,-0.158510492,-9.655980650400002,1.656883256,-1.61490509,24.78544664,-4.23659609,,,
imu,256.028122,-0.1519308112,-9.575230022400001,1.656883256,-1.40555161,23.99289418,-3.46647436,,,
imu,256.036597,-0.1650901728,-9.593772759200002,1.6544906448,-1.00179847,23.17043408,-2.77859864,,,
imu,256.045072,-0.1872218264,-9.596165370400001,1.6437238944,-0.56066078,22.31806634,-2.5991528,,,
imu,256.053547,-0.185427368,-9.574631869600001,1.6455183528,0.11226112,21.60028298,-2.77112173,,,
imu,256.062022,-0.152528964,-9.516611048000001,1.626975616,1.03939796,21.00213018,-3.10010577,,,
imu,256.070497,-0.1112564208,-9.439449336800001,1.6311626856,2.05625772,20.46379266,-3.50385891,,,
imu,256.078971,-0.02871133440000001,-9.399971252000002,1.6377423664,3.09554821,19.60394801,-3.88518132,,,
imu,256.087446,0.0191408896,-9.382624820800002,1.6550887976,4.17222325,18.49736533,-4.363703559999999,,,
imu,256.095921,0.03648732080000001,-9.3993730992,1.6664537008,5.4059134,17.33844428,-4.70764142,,,
imu,256.104396,0.0317020984,-9.405354627200001,1.6820056736,6.49006535,16.10475413,-4.83474889,,,
imu,256.112871,0.0203371952,-9.4454308648,1.701744716,7.61160185,14.92340235,-4.57305704,,,
imu,256.121346,0.0215335008,-9.5237888816,1.7178948416,8.41910813,13.93645023,-4.64034923,,,
imu,256.129821,0.04486146000000001,-9.588389384000001,1.7059317856,8.94249183,12.77005227,-4.89456417,,,
imu,256.138296,0.0861340032,-9.6505972752,1.7125114664,9.331291149999998,11.58870049,-4.92447181,,,
imu,256.146771,0.16449202,-9.713403319200001,1.707726244,9.675229009999999,10.39239489,-4.85717962,,,
imu,256.155246,0.2147368552,-9.745105417600001,1.68978166,9.77242884,8.687659409999998,-5.216071299999999,,,
imu,256.163721,0.2249054528,-9.755274015200001,1.6861927432,9.92944395,6.74366281,-5.612347529999999,,,
imu,256.172172,0.1620994088,-9.744507264800001,1.6503035752,9.97430541,4.784712389999999,-5.522624609999999,,,
imu,256.180623,0.1178361016,-9.713403319200001,1.626975616,10.22852035,3.16222292,-4.976810179999999,,,
imu,256.189074,0.0813487808,-9.7163940832,1.5982642816,10.14627434,1.53225654,-4.42351884,,,
imu,256.197525,0.1668846312,-9.730749750400001,1.5653658776,10.35562782,0.1191205499999999,-3.91508896,,,
imu,256.205975,0.3002727056,-9.731347903200001,1.5151210424,10.57245821,-1.39121527,-3.84031986,,,
imu,256.214426,0.4922797544,-9.743909112,1.4911949304,10.75938096,-3.71653428,-3.97490424,,,
imu,256.222877,0.7859727792000001,-9.824061587200001,1.5061487504,10.77433478,-6.81197502,-3.8702275,,,
imu,256.231328,0.9546518688000002,-9.870717505600002,1.4600909848,10.50516602,-10.84950642,-3.31693616,,,
imu,256.239779,1.0342061912,-9.807313308800001,1.4044627744,10.340674,-15.93380522,-2.1505382,,,
imu,256.24823,1.1077789856,-9.7474980288,1.3380678136,10.1163667,-21.63121064,-0.6402023799999998,,,
imu,256.25668,1.1215365,-9.727758986400001,1.2656913248,10.4154431,-27.42581589,0.9224718100000002,,,
imu,256.265131,1.0539452336,-9.7217774584,1.1981000584,10.67713495,-33.55688209,1.90194702,,,
imu,256.273582,0.9456795768000001,-9.690673512800002,1.169388724,11.07341118,-39.43373335,2.58982274,,,
imu,256.281937,0.8906495192000001,-9.724768222400002,1.1532385984,11.49959505,-44.60775507,3.35246756,,,
imu,256.290388,0.8661252544000001,-9.824061587200001,1.1370884728,11.93325583,-49.60980786,4.43661951,,,
imu,256.298839,0.8541621984000002,-9.906008520800002,1.079665804,11.99307111,-54.54456846,5.520771460000001,,,
imu,256.30729,0.8266471696000001,-9.954458897600002,1.0264302048,11.63417943,-59.70363636,6.14135499,,,
imu,256.31574,0.8242545584000001,-9.987357301600001,1.0210468296,11.12574955,-64.48138184999999,6.589969590000001,,,
imu,256.324191,0.7213722768,-10.0507614984,0.9863539672000001,10.33319709,-69.29651188999999,6.978768909999999,,,
imu,256.332642,0.5012520464000001,-10.0782765272,0.9486703408000001,9.53316772,-73.55087368,7.771321370000001,,,
imu,256.341093,0.1597067976,-10.10878232,0.9337165208000001,8.50883105,-76.51920695,8.90781169,,,
imu,256.349544,-0.2105497856,-10.1321102792,0.9247442288000001,7.32747927,-78.17160405999999,10.35085532,,,
imu,256.357995,-0.5604691736,-10.2140572128,0.9247442288000001,6.02649693,-78.10431186999999,11.62193002,,,
imu,256.366445,-0.8128896552000001,-10.2110664488,0.8834716856000001,4.87505279,-76.5565915,12.54906686,,,
imu,256.374924,-0.9373054376000002,-10.150653016,0.86732156,3.55163972,-74.02939592,12.22755973,,,
imu,256.383403,-0.9211553120000001,-10.0585374848,0.8338250032000001,2.44505704,-70.95638591,11.2331307,,,
imu,256.391882,-0.9008181168,-9.9658238008,0.8051136688,1.74970441,-68.18992920999999,9.5882105,,,
imu,256.400361,-0.8266471696000001,-9.867128588800002,0.7811875568000001,1.43567419,-65.58048762,7.748890640000001,,,
imu,256.408839,-0.7482891528000001,-9.803126239200001,0.7913561544000001,1.45062801,-62.96356912,6.02920134,,,
imu,256.417318,-0.7357279440000001,-9.83961356,0.86732156,1.69736604,-60.51114264,5.498340730000001,,,
imu,256.425797,-0.7895616960000001,-9.832435726400002,0.8828735328,1.7422275,-58.17834672,5.43852545,,,
imu,256.434276,-0.8188711832000002,-9.835426490400001,0.8924439776000002,2.08616536,-55.16515199,5.93947842,,,
imu,256.442755,-0.7578595976000001,-9.787574266400002,0.9145756312000002,1.98896553,-52.01737288,6.477815940000001,,,
imu,256.451233,-0.7458965416000001,-9.7265626808,0.9540537160000001,2.27308811,-49.25091618,6.53763122,,,
imu,256.459712,-0.7297464160000001,-9.727160833600001,0.9887465784000001,2.51234923,-46.67138223,5.93947842,,,
imu,256.468191,-0.7686263480000001,-9.690075360000002,0.9636241608000001,2.67684125,-44.21147884,5.259079610000001,,,
imu,256.47667,-0.6908664840000001,-9.692467971200001,0.9857558144000002,3.05068675,-41.28053012,4.862803380000001,,,
imu,256.485149,-0.5610673264,-9.702636568800001,0.9869521200000001,3.32733242,-38.61127325,4.47400406,,,
imu,256.493627,-0.4551942808000001,-9.743909112,1.0031022456,3.58154736,-36.53269227,4.02538946,,,
imu,256.502106,-0.3576953744,-9.783985349600002,1.0324117328,3.7609932,-34.94011044,3.62911323,,,
imu,256.510585,-0.3271895816000001,-9.824659740000001,1.0461692472,3.79090084,-33.45968226,3.28517537,,,
imu,256.519064,-0.3247969704000001,-9.824659740000001,1.0539452336,3.70865483,-32.17365374,3.56929795,,,
imu,256.527543,-0.3469286240000001,-9.837220948800002,1.0671045952,3.67127028,-30.77547157,3.99548182,,,
imu,256.536021,-0.4175106544000001,-9.877297186400002,1.1083771384,3.3871477,-29.10812064,4.26465058,,,
imu,256.5445,-0.4438293776000001,-9.954458897600002,1.142471848,3.2376095,-27.07440112,4.36932732,,,
imu,256.552979,-0.3989679176000001,-9.9885536072,1.1472570704,2.75908726,-24.77151284,4.376804229999999,,,
imu,256.561458,-0.3361618736,-9.959244120000001,1.1263217224,1.92167334,-22.66302422,3.9057589,,,
imu,256.569937,-0.3427415544,-9.892251006400002,1.0844510264,1.2936129,-21.01810402,2.73188403,,,
imu,256.578382,-0.3002727056,-9.831837573600001,1.0730861232,1.0693056,-19.26850708,1.52062461,,,
imu,256.586828,-0.2655798432,-9.748096181600001,1.043776636,1.34595127,-17.48152559,1.03462546,,,
imu,256.595274,-0.1686790896,-9.706225485600001,1.0491600112,1.80951969,-15.79174393,0.7355490599999999,,,
imu,256.603719,-0.0251224176,-9.690673512800002,1.0449729416,2.39271867,-14.28140811,0.38413429,,,
imu,256.612165,0.0693857248,-9.638634219200002,1.0276265104,2.92357928,-13.63839385,-0.07943412999999988,,,
imu,256.620611,0.1333880744,-9.5656595776,1.007887468,3.45443989,-13.46642492,-0.3560797999999998,,,
imu,256.629057,0.1070693512,-9.534555632000002,1.0066911624,4.14979252,-13.49633256,-0.5280487299999999,,,
imu,256.637502,0.01495382,-9.6159044128,1.0593286088,4.86757588,-13.36174818,-0.3934643499999999,,,
imu,256.645948,-0.0693857248,-9.770825988000002,1.0820584152,5.22646756,-12.77107229,0.0177657,,,
imu,256.654394,-0.1208268656,-9.879689797600001,1.0730861232,5.248898290000001,-11.9560891,0.1972115400000001,,,
imu,256.66284,-0.11963056,-9.962234884,1.094619624,5.06945245,-10.89436788,-0.1392494099999999,,,
imu,256.671285,-0.1070693512,-10.045976276,1.1029937632,4.62831476,-9.94480031,-0.9766633299999998,,,
imu,256.679731,-0.06519865520000001,-10.0722949992,1.082656568,4.00773123,-9.144770939999999,-1.88136944,,,
imu,255.850486,,,,,,,272.4036572,-186.5565644,-338.3164296
imu,255.952476,,,,,,,273.7830708,-185.799718,-338.3164296
imu,256.688177,-0.0352910152,-9.9885536072,1.0276265104,3.44696298,-8.38212612,-2.36736859,,,
imu,256.696623,0.002990764,-9.904214062400001,1.0150653016,2.87871782,-7.51480456,-2.21783039,,,
imu,256.705068,0.0352910152,-9.836622796,0.9773816752000002,2.37776485,-6.954036309999999,-1.72435433,,,
imu,256.713514,0.07118018320000001,-9.798341016800002,0.9600352440000001,2.14598064,-6.475514069999999,-1.39537029,,,
imu,256.72196,0.09749890640000002,-9.7534795568,0.9708019944000001,2.12354991,-6.11662239,-1.253309,,,
imu,256.730406,0.06220789120000001,-9.7815927384,0.9983170232,2.45253395,-5.884838179999999,-0.9467556899999998,,,
imu,256.738851,0.0281131816,-9.811500378400002,1.0204486768,2.61702597,-5.48108504,-0.6775869299999999,,,
imu,256.747297,0.0053833752,-9.810902225600001,1.0162616072,2.52730305,-4.7782555,-0.8495558599999999,,,
imu,256.755743,-0.0317020984,-9.806715156000001,1.040785872,2.24318047,-4.06794905,-1.28321664,,,
imu,256.764189,-0.1022841288,-9.815687448000002,1.0330098856,2.01139626,-3.05108929,-1.81407725,,,
imu,256.772634,-0.1501363528,-9.821668976000002,1.0162616072,1.87681188,-1.7874915,-2.56176825,,,
imu,256.781572,-0.1483418944,-9.820472670400001,1.0365988024,1.42072037,-0.3444478700000002,-3.29450543,,,
imu,256.79051,-0.1208268656,-9.801929933600002,1.0192523712,1.08425942,1.26308778,-4.11696553,,,
imu,256.799447,-0.1411640608,-9.850978463200002,0.9881484256000002,0.9571519499999999,2.69117759,-4.83474889,,,
imu,256.808385,-0.09151737840000002,-9.881484256,0.9666149248000001,0.94967504,3.90991392,-5.59739371,,,
imu,256.817323,0.0346928624,-9.8749045752,0.9474740352000001,0.9272443100000001,5.23332699,-5.91142393,,,
imu,256.82626,0.1788476872,-9.845595088000001,0.9474740352000001,0.8375213899999999,5.9137258,-6.45723836,,,
imu,256.835198,0.2619909264,-9.822267128800002,0.9271368400000001,0.81509066,5.726803049999999,-6.9357606,,,
imu,256.844136,0.320011748,-9.802528086400002,0.9038088808000001,0.91229049,5.2408039,-6.950714420000001,,,
imu,256.853073,0.323002512,-9.775611210400001,0.9181645480000001,1.00949032,4.44077453,-6.47966909,,,
imu,256.862011,0.3774344168000001,-9.728955292000002,0.9277349928000002,1.39828964,3.6706528,-5.65720899,,,
imu,256.870949,0.4892889904,-9.711608860800002,0.9271368400000001,1.77961205,2.84071579,-4.89456417,,,
imu,256.879886,0.6244715232,-9.671532623200001,0.9301276040000002,2.09364227,1.64441019,-4.25902682,,,
imu,256.888824,0.804515516,-9.6470083584,0.9408943544,2.48244159,-0.2921095,-3.88518132,,,
imu,256.897762,1.1227328056,-9.6505972752,0.9624278552000001,2.87871782,-2.74453598,-3.52628964,,,
imu,256.906699,1.4427445536,-9.6667474008,0.9708019944000001,3.30490169,-6.40074497,-3.37675144,,,
imu,256.915637,1.6760241456,-9.669738164800002,0.980970592,3.84323921,-11.14858282,-3.07767504,,,
imu,256.924575,1.7962528584,-9.6535880392,1.0060930096,4.19465398,-16.94318807,-2.8982292,,,
imu,256.933512,1.8578625968,-9.591380148,1.0186542184,4.62083785,-23.12659264,-1.91875399,,,
imu,256.94245,1.8799942504,-9.547116840800001,1.0653101368,5.248898290000001,-29.30999721,-0.31869525,,,
imu,256.951388,1.9338280024,-9.544126076800001,1.0808621096,6.03397384,-35.49340178,0.9374256299999999,,,
imu,256.960325,1.9751005456,-9.520798117600002,1.0820584152,6.8265263,-42.04317494,1.50567079,,,
imu,256.969263,2.1437796352,-9.533359326400001,1.0467674,7.83590915,-48.58547119,2.00662376,,,
imu,256.978201,2.4889138008,-9.543527924000001,0.9385017432000002,8.97239947,-55.56142822,2.60477656,,,
imu,256.986676,2.9034336912,-9.610521037600002,0.8051136688,9.764951929999999,-63.9953827,3.0085297,,,
imu,256.995151,3.1959304104,-9.6745233872,0.6149010784000001,10.66965804,-74.48548742999999,3.06834498,,,
imu,257.003626,3.1528634088,-9.806715156000001,0.5263744640000001,11.29771848,-86.26162068,3.61415941,,,
imu,257.012101,3.008708584,-9.8162856008,0.370854736,11.78371763,-97.88073881999999,5.543202190000001,,,
imu,257.020576,2.764064088800001,-9.8778953392,0.3062542336,12.14260931,-108.44561265,8.578827650000001,,,
imu,257.029051,2.3142531832,-9.974197940000002,0.2918985664000001,12.29962442,-117.65716577,12.07054462,,,
imu,257.037526,1.6993521048,-10.1219416816,0.3134320672,12.16504004,-125.29856779,15.30056974,,,
imu,257.046001,1.1998945168,-10.1279232096,0.2930948720000001,11.49211814,-130.5398817,17.62588875,,,
imu,257.054476,0.8517695872000001,-10.0244427752,0.2763465936,10.39301237,-133.57550716,18.2614261,,,
imu,257.062951,0.6119103144000001,-9.895839923200002,0.2051664104,9.615413729999998,-135.01855079,16.78099792,,,
imu,257.071426,0.3804251808,-9.901821451200002,0.1908107432,9.16679913,-135.43725775,14.20894088,,,
imu,257.079901,0.3379563320000001,-9.828846809600002,0.04545961280000001,8.83781509,-134.94378169,10.88171593,,,
imu,257.088376,0.0305057928,-9.896438076,0.080750628,8.763045989999998,-133.6801839,7.883475020000001,,,
imu,257.09685,-0.2978800944000001,-10.0238446224,0.1453511304,8.800430539999999,-131.47449545,5.52824837,,,
imu,257.105325,-1.2722710056,-10.264302048,0.1955959656,8.97239947,-127.03321091,4.02538946,,,
imu,257.1138,-1.6006568928,-10.0854543608,0.3038616224,8.471446499999999,-119.90771568,4.137543109999999,,,
imu,257.122275,-1.845301388,-9.868923047200001,0.3977716120000001,8.299477569999999,-110.98028514,5.44600236,,,
imu,257.13075,-1.7543821624,-9.6846919848,0.3780325696000001,8.501354139999998,-101.65657837,5.46843309,,,
imu,257.139225,-1.7968510112,-9.791761336000002,0.4438293776000001,9.062122389999999,-93.06560877999999,3.16554481,,,
imu,257.1477,-1.8746108752,-9.800135475200001,0.4522035168,9.20418368,-85.50645277,-0.9542325999999999,,,
imu,257.156175,-1.8106085256,-9.769629682400002,0.4665591840000001,9.413537159999999,-77.78280473999999,-4.04967334,,,
imu,257.16465,-1.7729248992,-9.761853696000001,0.4707462536000001,9.697659739999999,-69.79746485999999,-4.53567249,,,
imu,257.173125,-1.7083243968,-9.833632032,0.4964668240000001,9.899536309999998,-62.08129374,-4.42351884,,,
imu,257.1816,-1.4696614296,-9.8497821576,0.4797185456,9.877105579999998,-54.60438374,-4.51324176,,,
imu,257.189948,-1.3356752024,-9.977188704000001,0.5401319784,9.720090469999999,-48.09947204,-5.09644074,,,
imu,257.198296,-1.1418736952,-10.090837736,0.4892889904,9.346244969999999,-42.34225134,-5.67216281,,,
imu,257.206644,-0.9719983000000001,-10.1464659464,0.4492127528000001,8.68079998,-37.10093743,-5.94880848,,,
imu,257.214992,-0.8750975464000001,-10.2230295048,0.4569887392,7.43215601,-32.7418989,-5.97871612,,,
imu,257.22334,-0.9091922560000001,-10.2278147272,0.4677554896000001,5.99658929,-28.59221385,-5.85908556,,,
imu,257.231687,-0.8936402832000001,-10.2290110328,0.5102243384,4.49373038,-24.61449773,-4.98428709,,,
imu,257.240035,-0.7955432240000001,-10.2026923096,0.5144114080000001,2.92357928,-20.42742813,-4.0197657,,,
imu,257.248383,-0.7829820152,-10.2242258104,0.5616654792000001,1.24127453,-16.80112678,-3.39918217,,,
imu,257.256731,-0.8762938520000002,-10.2200387408,0.58319898,-0.21672292,-13.24211762,-3.45899745,,,
imu,257.265079,-0.9259405344000001,-10.1679994472,0.6172936896000001,-1.51022835,-9.12981712,-3.39918217,,,
imu,257.273426,-0.9618297024000001,-10.0118815664,0.6412198016000001,-2.41493446,-4.44927146,-2.60662971,,,
imu,257.281774,-1.0509544696,-9.841408018400001,0.6896701784000001,-2.84111833,0.4854891399999999,-2.10567674,,,
imu,257.290122,-1.1640053488,-9.7337405144,0.7494854584000001,-2.75139541,5.831479789999999,-2.48699915,,,
imu,257.29847,-1.2812432976,-9.638634219200002,0.7997302936000001,-2.31773463,11.5961774,-3.13001341,,,
imu,257.306818,-1.3063657152,-9.6290637744,0.8601437264,-1.79435093,17.81696652,-3.81788913,,,
imu,257.315166,-1.3123472432,-9.627867468800002,0.9014162696000001,-1.00927538,24.55366243,-4.954379449999999,,,
imu,257.323513,-1.31593616,-9.623680399200001,0.9899428840000002,-0.49336859,31.02118958,-6.69649948,,,
imu,257.331861,-1.4170239832,-9.6260730104,1.0037003984,0.22441477,37.60087038,-8.393758049999999,,,
imu,257.340209,-1.519308112,-9.599754287200001,0.9450814240000001,1.00201341,44.27027409999999,-9.93400151,,,
imu,257.348557,-1.6347516024,-9.5949690648,0.9414925072000001,1.55530475,51.30604640999999,-11.45181424,,,
imu,257.356905,-1.7657470656,-9.612913648800001,0.8894532136000001,2.4151494,58.31191107999999,-13.17150354,,,
imu,257.365253,-1.8985369872,-9.627269316000001,0.8188711832000002,3.41705534,65.47479086,-15.11550014,,,
imu,257.373541,-1.935024308,-9.5800152448,0.7482891528000001,4.23951544,73.16105434,-16.2818981,,,
imu,257.381889,-1.9356224608,-9.592576453600001,0.7094092208000001,4.94234498,81.22116332,-16.55106686,,,
imu,257.390359,-1.9571559616,-9.765442612800001,0.6824923448,5.41339031,89.12425719000001,-16.71555888,,,
imu,257.398829,-2.0223546168,-10.0358076784,0.7040258456,5.3311443,96.57873646,-17.43334224,,,
imu,257.407299,-2.1078904672,-10.2176461296,0.6711274416,4.56102257,104.20518466,-17.82214156,,,
imu,257.415769,-2.0612345488,-10.2092719904,0.5341504504000001,3.2376095,112.25033982,-17.65764954,,,
imu,257.424239,-2.0062044912,-10.141680724,0.4276792520000001,1.86933497,120.2356797,-17.39595769,,,
imu,257.432708,-1.9248557104,-10.0376021368,0.257205704,0.9197674,127.86960481,-17.61278808,,,
imu,257.441178,-1.710717008,-9.8497821576,0.09570444800000001,0.27675314,135.4885761,-18.39786363,,,
imu,257.449648,-1.459492832,-9.654186192000001,-0.0275150288,0.53844499,142.47948695,-19.54183086,,,
imu,257.458118,-1.2513356576,-9.5590798968,-0.09091922560000001,1.48053565,148.45353804,-21.08207432,,,
imu,257.466588,-1.0401877192,-9.621287788000002,-0.1309954632,2.85628709,153.45559083,-22.83914817,,,
imu,257.475058,-0.8266471696000001,-9.769031529600001,-0.152528964,3.87314685,157.78472172,-25.16446718,,,
imu,257.483528,-0.5784137576,-9.8653341304,-0.1896144376,4.40400746,161.32877706,-27.40006327,,,
imu,257.491998,-0.4342589328000001,-9.994535135200001,-0.1668846312,4.74794532,163.88588028,-29.43378279,,,
imu,257.500468,-0.2398592728,-10.1679994472,-0.1573141864,4.5086842,166.05418418,-30.47307328,,,
imu,256.053581,,,,,,,270.804514,-183.4437284,-338.3164296
imu,256.155204,,,,,,,272.5501436000001,-183.5780076,-338.3164296
imu,256.256675,,,,,,,270.0598748,-182.56481,-338.3164296
imu,256.358238,,,,,,,267.7038852000001,-187.1791316,-338.3164296
imu,256.4598,,,,,,,270.5725772000001,-189.9379588,-338.3164296
imu,256.561363,,,,,,,272.818702,-192.147462,-338.3164296
imu,256.662956,,,,,,,273.8196924,-194.0029564,-338.3164296
imu,256.764488,,,,,,,274.2713588,-194.6377308,-338.3164296
imu,257.508938,-0.0263187232,-10.3229210224,-0.1321917688,3.70865483,168.09538061,-29.48612116,,,
imu,257.517407,0.1268083936,-10.4264014568,-0.161501256,2.18336519,168.43931847,-28.03560062,,,
imu,257.525877,0.3020671640000001,-10.4281959152,-0.1979885768,0.18703022,167.64676601,-28.02812371,,,
imu,257.534347,0.5251781584,-10.3755584688,-0.20935348,-1.86164312,165.85230761,-28.96273746,,,
imu,257.542817,0.7895616960000001,-10.2846392432,-0.2320832864,-3.67105534,162.74938996,-30.09175087,,,
imu,257.551287,1.0671045952,-10.2637038952,-0.2117460912,-5.06923751,158.17352104,-31.48993304,,,
imu,257.559757,1.4319778032,-10.3342859256,-0.1561178808,-6.243112379999999,152.25180832,-33.0301765,,,
imu,257.568227,1.7214837584,-10.3181358,-0.08254508640000002,-7.656248369999999,144.45339119,-34.44331249,,,
imu,257.576697,1.8351327904,-10.2320017968,-0.0251224176,-8.740400320000001,135.09229987,-35.52746444,,,
imu,257.585167,1.7950565528,-10.0184612472,0.0352910152,-9.51799896,125.66391636,-34.81715799,,,
imu,257.593628,1.665855548,-9.755872168000002,0.08972292000000001,-9.56286042,116.86359329,-31.14599518,,,
imu,257.602089,1.5713474056,-9.576426328,0.1896144376,-9.10676891,108.28757752,-25.15699027,,,
imu,257.61055,1.5540009744,-9.553098368800002,0.2350740504,-8.28430881,99.9732536,-19.1231239,,,
imu,257.619011,1.4756429576,-9.568650341600001,0.2542149400000001,-7.31231051,91.21031508,-15.25756143,,,
imu,257.627472,1.3386659664,-9.52558334,0.2936930248,-6.27302002,82.30531527000001,-13.7397487,,,
imu,257.635933,1.1897259192,-9.504647992000002,0.3654713608,-4.942130039999999,73.85640697000001,-12.61073529,,,
imu,257.644394,1.1538367512,-9.5566872856,0.4683536424000001,-3.44674804,65.96079001,-10.98076891,,,
imu,257.652855,1.1598182792,-9.6637566368,0.5066354216000001,-2.1457657,58.2520958,-9.80689404,,,
imu,257.661316,1.0491600112,-9.688879054400001,0.5281689224000001,-1.16629049,50.54340158999999,-9.30594107,,,
imu,257.669777,0.8750975464000001,-9.644615747200001,0.5604691736,-0.38869185,43.44781399999999,-8.8049881,,,
imu,257.678238,0.7243630408,-9.609922884800001,0.58319898,0.49358353,37.04010212999999,-7.09277571,,,
imu,257.686699,0.5849934384000001,-9.6643547896,0.5891805080000001,1.18893616,31.66420384,-5.12634838,,,
imu,257.69516,0.4557924336,-9.724170069600001,0.5808063688,1.80204278,26.76682779,-3.7954584,,,
imu,257.703621,0.3547046104000001,-9.802528086400002,0.5826008272000001,2.33290339,22.37040471,-3.33188998,,,
imu,257.712082,0.3152265256,-9.858754449600001,0.5796100632000001,2.79647181,18.3253964,-3.13749032,,,
imu,257.720543,0.2338777448,-9.924551257600003,0.6041343280000001,2.85628709,14.35515719,-3.29450543,,,
imu,257.729004,0.09390998960000001,-9.977188704000001,0.6466031768,2.90862546,10.8484864,-3.20478251,,,
imu,257.737465,-0.10467674,-10.0178630944,0.6615569968000001,2.38524176,7.723138019999999,-2.87579847,,,
imu,257.745926,-0.3517138464,-10.0986137224,0.6525847048000001,1.69736604,5.48006502,-2.18792275,,,
imu,257.754387,-0.5329541448,-10.1650086832,0.6166955368000001,0.8449983,4.42582071,-1.38789338,,,
imu,257.762848,-0.6507902464,-10.126726904,0.5855915912,-0.24663056,4.171605769999999,-1.09629389,,,
imu,257.771309,-0.7638411256000001,-10.0376021368,0.58319898,-1.00927538,4.25385178,-0.99161715,,,
imu,257.77977,-0.8122915024000001,-9.995133288000002,0.580208216,-1.51022835,4.672558739999999,-1.50004703,,,
imu,257.788231,-0.8350213088000001,-10.0124797192,0.6065269392000001,-1.62985891,5.43520356,-2.29259949,,,
imu,257.79705,-0.8122915024000001,-10.0208538584,0.6256678288,-1.81678166,6.250186749999999,-3.41413599,,,
imu,257.80587,-0.7118018320000001,-10.0633227072,0.6878757200000001,-2.17567334,6.92310865,-4.37118047,,,
imu,257.814689,-0.6866794144,-10.0800709856,0.7177833600000001,-2.65419558,7.42406162,-5.08148692,,,
imu,257.823509,-0.8093007384,-10.0196575528,0.7159889016000002,-3.36450203,7.53621527,-5.85908556,,,
imu,257.832328,-0.9259405344000001,-9.9430939944,0.741709472,-3.80563972,8.029691329999999,-5.94133157,,,
imu,257.841148,-0.9755872168000002,-9.927542021600003,0.7973376824000001,-4.373884879999999,9.4278735,-5.42542478,,,
imu,257.849968,-0.9797742864000001,-10.0208538584,0.7937487656000001,-4.59071527,11.12513207,-4.909517989999999,,,
imu,257.858787,-1.0252338992,-10.0752857632,0.7339334856000002,-5.226252619999999,12.67285244,-5.58243989,,,
imu,257.867607,-1.0324117328,-9.992142524000002,0.7297464160000001,-6.108528,14.34768028,-6.73388403,,,
imu,257.876426,-0.9971207176000002,-9.85456738,0.7213722768,-6.661819339999999,16.26176924,-7.90028199,,,
imu,257.885246,-0.9708019944000001,-9.728955292000002,0.7219704296,-6.54218878,18.04875073,-8.97695703,,,
imu,257.894066,-0.9277349928000002,-9.6637566368,0.7399150136000001,-5.92160525,19.54413273,-10.08353971,,,
imu,257.902885,-0.8152822664000001,-9.6745233872,0.7764023344000002,-5.07671442,20.76286906,-11.24246076,,,
imu,257.911705,-0.7566632920000002,-9.6428212888,0.7811875568000001,-4.12714685,21.70495972,-12.07987468,,,
imu,257.920524,-0.7345316384000001,-9.5877912312,0.8416009896000001,-3.10281018,22.08628213,-12.81261186,,,
imu,257.929344,-0.7213722768,-9.560874355200001,0.8882569080000001,-2.25791935,22.34797398,-13.22384191,,,
imu,257.938163,-0.7129981376000001,-9.587193078400002,0.9199590064000001,-1.48779762,22.3629278,-13.35094938,,,
imu,257.946983,-0.7518780696000001,-9.654186192000001,0.9612315496000001,-0.6503837,22.2881587,-13.32851865,,,
imu,257.955803,-0.7710189592000001,-9.7217774584,0.9827650504000001,-0.11952309,22.22834342,-13.54534904,,,
imu,257.964622,-0.7183815128000002,-9.8264541984,1.0222431352,0.18703022,22.31058943,-13.59768741,,,
imu,257.973442,-0.6890720256,-9.8719138112,1.043776636,0.2468455,22.12366668,-13.37338011,,,
imu,257.982261,-0.6537810104000001,-9.8946436176,1.0539452336,-0.05970781,21.6152368,-13.35094938,,,
imu,257.991081,-0.6322475096000001,-9.870119352800002,1.0539452336,-0.32139966,20.93483799,-13.52291831,,,
imu,257.99956,-0.6047324808000001,-9.879689797600001,1.0850491792,-0.71019898,20.11237789,-13.08178062,,,
imu,258.008039,-0.6029380224,-9.894045464800001,1.0820584152,-0.91207555,19.05065667,-12.53596619,,,
imu,258.016517,-0.6190881480000001,-9.885671325600002,1.1053863744,-1.13638285,17.88425871,-12.22193597,,,
imu,258.024996,-0.6244715232,-9.883876867200001,1.1418736952,-1.27096723,16.530938,-11.9452903,,,
imu,258.033475,-0.6567717744000001,-9.8264541984,1.1047882216,-1.15881358,15.31220167,-11.75836755,,,
imu,258.041954,-0.6747163584000001,-9.751685098400001,1.088638096,-1.26349032,14.19066517,-11.35461441,,,
imu,258.050433,-0.6806978864000002,-9.683495679200002,1.0988066936,-1.30835178,13.05417485,-10.65926178,,,
imu,258.058911,-0.7106055264000001,-9.699645804800001,1.1215365,-1.07656757,11.75319251,-9.56763292,,,
imu,258.06739,-0.7692245008,-9.713403319200001,1.1143586664,-0.874691,10.59427146,-8.565726979999999,,,
imu,258.075869,-0.7931506128000001,-9.7504887928,1.124527264,-0.39616876,9.52507333,-7.63859014,,,
imu,258.084348,-0.8487788232000001,-9.756470320800002,1.0958159296,-0.13447691,8.72504396,-6.71893021,,,
imu,258.092827,-0.903210728,-9.7911631832,1.070693512,-0.04475399000000001,7.94744532,-5.829177919999999,,,
imu,258.101305,-0.9205571592,-9.828846809600002,1.058730456,0.10478421,7.37172325,-5.17868675,,,
imu,258.109784,-0.8649289488,-9.844398782400003,1.0521507752,-0.007369440000000005,6.848339549999999,-4.6179185,,,
imu,258.118263,-0.6812960392000001,-9.873708269600002,1.0419821776,-0.22419983,6.14551001,-4.26650373,,,
imu,258.126742,-0.4486146000000001,-9.934719855200001,1.0383932608,-0.53823005,4.91929677,-4.19921154,,,
imu,258.135221,-0.2284943696,-9.925149410400001,1.0252338992,-0.9494601,2.58650085,-4.22164227,,,
imu,258.143699,-0.0466559184,-9.9239531048,1.0449729416,-1.38312088,-0.9500775800000003,-3.95995042,,,
imu,258.152178,0.0263187232,-9.9131863544,1.0431784832,-1.63733582,-4.87545533,-2.62906044,,,
imu,258.160657,-0.03349655680000001,-9.883278714400001,1.013868996,-2.03361205,-8.9653251,-0.26635688,,,
imu,258.169136,-0.1447529776,-9.889858395200001,1.0204486768,-2.26539626,-12.92061049,2.67206875,,,
imu,258.177615,-0.2907022608000001,-9.897036228800001,1.0365988024,-2.43736519,-16.38241982,5.19926433,,,
imu,258.186093,-0.4318663216,-9.895241770400002,1.0575341504,-2.60185721,-19.4329991,6.410523750000001,,,
imu,258.194572,-0.5778156048000002,-9.921560493600001,1.082656568,-2.92336434,-21.63121064,7.12830711,,,
imu,258.203037,-0.6352382736000001,-9.959842272800001,1.0754787344,-3.37945585,-23.23874629,7.43486042,,,
imu,258.211502,-0.6633514552,-9.9753942456,1.0665064424,-3.902839549999999,-24.592067,7.53953716,,,
imu,258.219967,-0.6657440664000001,-9.942495841600001,1.0491600112,-4.3140696,-25.75098805,7.031107280000001,,,
imu,258.228431,-0.726755652,-9.880886103200002,1.0180560656,-4.747730379999999,-26.82766309,6.26846246,,,
imu,258.236896,-0.8380120728000001,-9.821668976000002,1.0240375936,-4.964560769999999,-27.56787718,6.193693360000001,,,
imu,258.245361,-0.8583492680000002,-9.820472670400001,1.037795108,-5.084191329999999,-27.83704594,6.5974465,,,
imu,258.253826,-0.88227538,-9.806715156000001,1.0671045952,-4.79259184,-27.59778482,6.5974465,,,
imu,258.262291,-0.9390998960000001,-9.802528086400002,1.07667504,-4.80754566,-27.38843134,5.760032580000001,,,
imu,258.270755,-1.010878232,-9.743310959200002,1.0868436376,-4.64305364,-26.90243219,5.034772309999999,,,
imu,258.27922,-1.0832547208,-9.722973764,1.1239291112,-4.19443904,-25.99024917,4.49643479,,,
imu,258.287685,-1.118545736,-9.787574266400002,1.1502478344,-3.96265483,-24.592067,3.98800491,,,
imu,258.29615,-1.1083771384,-9.802528086400002,1.1646035016,-3.97013174,-23.03686972,3.47957503,,,
imu,258.304615,-1.1011993048,-9.805518850400002,1.1861370024,-4.00003938,-21.64616446,2.6346842,,,
imu,258.31308,-1.1017974576,-9.803724392000001,1.184342544,-4.06733157,-20.105921,1.78231646,,,
imu,258.321544,-1.0784694984,-9.785181655200002,1.1909222248,-4.044900839999999,-18.6853081,1.01219473,,,
imu,256.866081,,,,,,,275.015998,-195.3701628,-338.3164296
imu,256.967704,,,,,,,273.8074852,-196.2734956,-338.3164296
imu,257.069206,,,,,,,277.7992396,-199.5572324,-338.3164296
imu,257.170951,,,,,,,288.8223412,-217.599474,-338.3164296
imu,257.272544,,,,,,,301.2980996000001,-236.7891924,-338.3164296
imu,257.373832,,,,,,,299.7721996000001,-236.3497332,-338.3164296
imu,257.475425,,,,,,,296.927922,-237.19203,-338.3164296
imu,257.576988,,,,,,,285.0747308000001,-236.0689676,-338.3164296
imu,258.330009,-1.0479637056,-9.745703570400002,1.2058760448,-3.85050118,-17.40675649,0.36170356,,,
imu,258.338474,-0.9660167720000001,-9.706225485600001,1.2058760448,-3.67105534,-16.30765072,-0.1915877799999999,,,
imu,258.346939,-0.8840698384000001,-9.671532623200001,1.214250184,-3.28225602,-15.20854495,-0.3112183399999999,,,
imu,258.355404,-0.8188711832000002,-9.605735815200001,1.2375781432,-2.66167249,-14.7225458,-0.1616801399999999,,,
imu,258.363868,-0.8176748776000001,-9.597959828800002,1.2674857832,-2.17567334,-14.52814614,0.03271952000000011,,,
imu,258.372333,-0.8619381848000001,-9.631456385600002,1.2788506864,-1.56256672,-14.32626957,0.2794575500000001,,,
imu,258.380798,-0.8882569080000001,-9.676317845600002,1.283037756,-1.07656757,-13.83279351,0.9822870900000003,,,
imu,258.389263,-0.8996218112000001,-9.7151977776,1.292010048,-0.7550604399999999,-13.15987161,1.5879168,,,
imu,258.397728,-0.8924439776000002,-9.769629682400002,1.3147398544,-0.5307531400000001,-12.35984224,1.55053225,,,
imu,258.406185,-0.8398065312,-9.8144911424,1.2955989648,-0.55318387,-11.62710506,1.08696383,,,
imu,258.414642,-0.7225685824,-9.860548908000002,1.283037756,-0.6503837,-11.18596737,0.4289957499999999,,,
imu,258.423099,-0.56824516,-9.842604324000002,1.2543264216,-0.84478336,-11.00652153,-0.2813106999999999,,,
imu,258.431556,-0.4031549872,-9.803126239200001,1.2459522824,-0.88964482,-11.52242832,-0.76730985,,,
imu,258.440014,-0.3116376088,-9.786377960800001,1.2513356576,-0.84478336,-12.71873392,-0.88694041,,,
imu,258.448471,-0.367863972,-9.785181655200002,1.2429615184,-0.5756146,-14.25897738,-0.4831872699999999,,,
imu,258.456928,-0.5305615336,-9.812098531200002,1.2573171856,-0.30644584,-15.65715955,0.3542266500000002,,,
imu,258.465301,-0.6501920936000001,-9.834828337600001,1.2818414504,-0.4260764,-16.13568179,1.42342478,,,
imu,258.473758,-0.7297464160000001,-9.864137824800002,1.2926082008,-0.76253735,-16.09829724,2.58982274,,,
imu,258.482216,-0.7686263480000001,-9.8982325344,1.3105527848,-0.89712173,-15.67211337,2.60477656,,,
imu,258.490673,-0.7518780696000001,-9.920962340800001,1.3195250768,-1.33078251,-15.25340641,1.72997809,,,
imu,258.49913,-0.6938572480000001,-9.935916160800002,1.3314881328,-1.92893531,-14.75245344,0.7205952400000002,,,
imu,258.507587,-0.5526931872,-9.931729091200001,1.3284973688,-2.49718047,-14.39356176,-0.01214194000000002,,,
imu,258.516044,-0.3469286240000001,-9.8683248944,1.3081601736,-3.07290254,-14.75993035,-0.51309491,,,
imu,258.524501,-0.1489400472,-9.8144911424,1.3087583264,-3.43927113,-16.06091269,-0.8719865899999999,,,
imu,258.532959,-0.011963056,-9.755274015200001,1.3003841872,-3.45422495,-18.12453985,-0.8719865899999999,,,
imu,258.541416,-0.0203371952,-9.681103068,1.3177306184,-3.29720984,-20.79379672,-0.17663396,,,
imu,258.549873,-0.1991848824,-9.637437913600001,1.3320862856,-2.75887232,-23.22379247,1.45333242,,,
imu,258.55833,-0.3852104032000001,-9.651195428000001,1.3332825912,-2.27287317,-24.93600486,3.27769846,,,
imu,258.566787,-0.5933675776,-9.7193848472,1.3596013144,-1.90650458,-25.57154221,4.78055737,,,
imu,258.575245,-0.7542706808000001,-9.783387196800001,1.369769912,-1.75696638,-25.28741963,5.4011409,,,
imu,258.583702,-0.8110951968000001,-9.777405668800002,1.3763495928,-1.63733582,-24.45000571,5.07215686,,,
imu,258.592159,-0.7668318896,-9.7301515976,1.3835274264,-1.61490509,-23.22379247,3.89080508,,,
imu,258.600616,-0.6747163584000001,-9.710412555200001,1.3739569816,-1.48032071,-22.13216361,2.25336179,,,
imu,258.609085,-0.5700396184000001,-9.711608860800002,1.3829292736,-1.1737674,-21.78822575,0.50376485,,,
imu,258.617553,-0.4599795032,-9.678112304,1.363788384,-0.8821679099999999,-21.66859519,-0.8046943999999998,,,
imu,258.626022,-0.3373581792000001,-9.625474857600002,1.3500308696,-0.59056842,-22.04244069,-1.27573973,,,
imu,258.634491,-0.266177996,-9.591380148,1.3566105504,-0.08213854000000001,-22.93219298,-0.99909406,,,
imu,258.642959,-0.2566075512,-9.5740337168,1.3691717592,0.42629134,-24.26308296,-0.1093417699999999,,,
imu,258.651428,-0.3206099008000001,-9.618297024,1.3924997184,0.97210577,-25.53415766,0.9299487200000001,,,
imu,258.659897,-0.4258847936,-9.708019944000002,1.414631372,1.51044329,-26.75289399,2.26831561,,,
imu,258.668365,-0.6089195504,-9.8013317808,1.4451371648,1.83195042,-27.39590825,3.21040627,,,
imu,258.676834,-0.7656355840000001,-9.868923047200001,1.477437416,1.76465823,-27.35104679,3.39732902,,,
imu,258.685302,-0.8457880592000001,-9.943692147200002,1.4439408592,1.6674584,-26.44634068,3.20292936,,,
imu,258.693771,-0.8505732816000001,-9.906008520800002,1.3841255792,1.4431511,-24.92852795,2.64963802,,,
imu,258.70224,-0.7620466672,-9.8581562968,1.3649846896,1.00201341,-23.58268415,1.69259354,,,
imu,258.710708,-0.6250696760000001,-9.837819101600003,1.3524234808,0.5459219,-22.41628619,0.7953643399999999,,,
imu,258.719177,-0.5299633808,-9.866530436000001,1.3201232296,0.29918387,-21.90785631,0.09253480000000014,,,
imu,258.727646,-0.4839056152000001,-9.883876867200001,1.2985897288,0.23189168,-21.71345665,-0.3411259799999999,,,
imu,258.736114,-0.5706377712,-9.842006171200001,1.3087583264,0.16459949,-21.48914935,-0.01961884999999985,,,
imu,258.744583,-0.7076147624000001,-9.796546558400001,1.303973104,0.20198404,-21.18259604,0.6533030499999999,,,
imu,258.753051,-0.804515516,-9.7845835024,1.309954632,0.10478421,-19.72459859,1.34117877,,,
imu,258.76152,-0.8571529624000002,-9.767835224,1.3177306184,-0.127,-18.03481693,1.69259354,,,
imu,258.769989,-0.8792846160000001,-9.754675862400001,1.3213195352,-0.25410747,-16.18802016,1.2140713,,,
imu,258.778457,-0.8069081272,-9.7474980288,1.3416567304,-0.31392275,-14.30383884,0.3467497399999999,,,
imu,258.786926,-0.6902683312000001,-9.7492924872,1.366779148,-0.43355331,-12.83088757,-0.91684805,,,
imu,258.795395,-0.5622636320000001,-9.748096181600001,1.3775458984,-0.52327623,-11.98599674,-2.14306129,,,
imu,258.803863,-0.4749333232000001,-9.7750130576,1.39070526,-0.54570696,-11.52242832,-3.17487487,,,
imu,258.812678,-0.454596128,-9.789368724800001,1.4050609272,-0.44103022,-11.41027467,-3.39918217,,,
imu,258.821492,-0.4557924336,-9.785181655200002,1.4068553856,-0.35878421,-11.33550557,-2.87579847,,,
imu,258.830306,-0.4964668240000001,-9.7750130576,1.423603664,-0.21672292,-11.06633681,-1.8514618,,,
imu,258.83912,-0.6083213976,-9.7989391696,1.444539012,-0.06718472,-10.61772221,-1.08881698,,,
imu,258.847935,-0.7100073736000001,-9.8300431152,1.45052054,0.09730729999999999,-9.92236958,-0.3635567099999999,,,
imu,258.856749,-0.7662337368000001,-9.837819101600003,1.4738484992,0.01506129,-8.72606398,-0.07943412999999988,,,
imu,258.865563,-0.7734115704000001,-9.8294449624,1.4870078608,-0.26906129,-7.454989279999999,-0.43832581,,,
imu,258.874377,-0.741709472,-9.834230184800003,1.4828207912,-0.36626112,-6.17643767,-1.55986231,,,
imu,258.883192,-0.681894192,-9.8264541984,1.4762411104,-0.47093786,-5.0025628,-2.8234601,,,
imu,258.892006,-0.646005024,-9.7959484056,1.4696614296,-0.73262971,-4.09037978,-3.89265823,,,
imu,258.90082,-0.5508987288,-9.746899876,1.48042818,-1.13638285,-3.36511951,-4.43847266,,,
imu,258.909634,-0.5102243384,-9.748096181600001,1.504354292,-1.21862886,-2.75201289,-4.5431494,,,
imu,258.918449,-0.520392936,-9.766040765600001,1.5211025704,-1.2485365,-2.69967452,-4.67773378,,,
imu,258.927263,-0.5688433128,-9.766040765600001,1.5127284312,-1.09152139,-2.56509014,-4.48333412,,,
imu,258.936077,-0.5826008272000001,-9.76484446,1.5091395144,-0.94198319,-1.97441425,-3.89265823,,,
imu,258.944892,-0.62806044,-9.786377960800001,1.5199062648,-1.22610577,-1.60056875,-3.69825857,,,
imu,258.953706,-0.7064184568,-9.820472670400001,1.5211025704,-1.31582869,-1.1893387,-3.80293531,,,
imu,258.96252,-0.7596540560000001,-9.837819101600003,1.492391236,-1.42798234,-0.2023865800000002,-3.90013514,,,
imu,258.971334,-0.7680281952000001,-9.842006171200001,1.4792318744,-1.68219728,0.9714882899999999,-3.98238115,,,
imu,258.980149,-0.7524762224000001,-9.825856045600002,1.4780355688,-1.79435093,2.12293243,-4.17678081,,,
imu,258.988963,-0.726755652,-9.824659740000001,1.474446652,-1.81678166,3.28933039,-4.49081103,,,
imu,258.997777,-0.6986424704000002,-9.8270523512,1.4636799016,-2.02613514,4.35852852,-4.78241052,,,
imu,259.006591,-0.6627533024,-9.8479876992,1.444539012,-2.34016536,5.023973509999999,-5.26840967,,,
imu,259.01507,-0.6364345792000001,-9.842006171200001,1.4499223872,-2.64671867,5.65203395,-5.45533242,,,
imu,259.023549,-0.6089195504,-9.818678212000002,1.4666706656,-2.80373378,6.4371095,-5.50767079,,,
imu,259.032028,-0.5796100632000001,-9.807313308800001,1.4816244856,-2.93831816,6.863293369999999,-5.41047096,,,
imu,259.040507,-0.5407301312,-9.8049206976,1.495382,-3.10281018,7.057693029999999,-5.50767079,,,
imu,259.048986,-0.5263744640000001,-9.8061170032,1.489400472,-3.17010237,7.19227741,-5.477763149999999,,,
imu,259.057464,-0.5293652280000001,-9.786976113600002,1.495382,-3.27477911,7.39415398,-5.38056332,,,
imu,259.065943,-0.5455153536,-9.7534795568,1.513326584,-3.30468675,7.65584583,-5.13382529,,,
imu,259.074422,-0.5437208952000001,-9.721179305600002,1.5390471544,-3.25982529,7.73061493,-4.909517989999999,,,
imu,259.082901,-0.5287670752,-9.701440263200002,1.549215752,-3.22244074,7.99230678,-4.715118329999999,,,
imu,259.09138,-0.5197947832,-9.690673512800002,1.5695529472,-3.0429949,8.13436807,-4.887087259999999,,,
imu,259.099858,-0.5257763112000001,-9.682897526400001,1.58510492,-2.79625687,8.16427571,-5.05905619,,,
imu,259.108337,-0.5419264368000001,-9.676317845600002,1.6078347264,-2.45231901,8.40353683,-5.07401001,,,
imu,259.116816,-0.5526931872,-9.709814402400001,1.6215922408,-2.25044244,8.56055194,-5.01419473,,,
imu,259.125295,-0.5556839512000001,-9.731347903200001,1.6353497552,-2.12333497,8.710090139999998,-5.021671639999999,,,
imu,259.133774,-0.5592728680000001,-9.7510869456,1.6353497552,-2.07847351,9.054027999999999,-4.999240909999999,,,
imu,259.142252,-0.5544876456000001,-9.765442612800001,1.6503035752,-2.23548862,9.15122783,-5.27588658,,,
imu,257.678495,,,,,,,270.1209108,-231.4790604,-338.3164296
imu,257.779996,,,,,,,270.5969916,-231.3081596,-338.3164296
imu,257.881559,,,,,,,269.3030284,-231.08843,-338.3164296
imu,257.983182,,,,,,,268.5950108,-231.1372588,-338.3164296
imu,258.087858,,,,,,,270.4138836,-230.7100068,-338.3164296
imu,258.186307,,,,,,,268.1433444,-230.4902772,-338.3164296
imu,258.287931,,,,,,,271.5613604000001,-230.8564932,-338.3164296
imu,258.389554,,,,,,,270.6336132,-229.4038364,-338.3164296
imu,259.150731,-0.5497024232000001,-9.779798280000001,1.6586777144,-2.22801171,9.38301204,-5.238502029999999,,,
imu,259.15921,-0.5359449088000001,-9.761853696000001,1.6670518536,-2.01118132,9.48768878,-5.02914855,,,
imu,259.167689,-0.5371412144000001,-9.746301723200002,1.683800132,-2.1457657,9.39048895,-4.94690254,,,
imu,259.176168,-0.5395338256000001,-9.7361331256,1.698753952,-2.05604278,9.45030423,-4.93942563,,,
imu,259.184646,-0.5221873944000001,-9.709814402400001,1.6843982848,-2.06351969,9.554980969999999,-4.70016451,,,
imu,259.193125,-0.4964668240000001,-9.6954587352,1.7011465632,-1.98127368,9.48768878,-4.52071867,,,
imu,259.201604,-0.4641665728000001,-9.706225485600001,1.68978166,-1.68219728,9.48768878,-4.3936112,,,
imu,259.210083,-0.4378478496000001,-9.701440263200002,1.6706407704,-1.66724346,9.188612379999999,-4.40108811,,,
imu,259.21855,-0.4240903352000001,-9.703234721600001,1.6461165056,-1.60742818,8.99421272,-4.17678081,,,
imu,259.227017,-0.4043512928,-9.696655040800001,1.650901728,-1.29339796,8.77738233,-3.81041222,,,
imu,259.235485,-0.3870048616000001,-9.696056888000001,1.650901728,-1.08404448,8.41101374,-3.77302767,,,
imu,259.243952,-0.3870048616000001,-9.6984494992,1.635947908,-1.06909066,7.92501459,-3.90013514,,,
imu,259.252419,-0.3941826952,-9.714001472000001,1.6437238944,-0.81487572,7.73061493,-3.82536604,,,
imu,259.260887,-0.3642750552,-9.737927584000001,1.6437238944,-0.71019898,7.44649235,-3.61601256,,,
imu,259.269354,-0.3331711096,-9.745703570400002,1.6485091168,-0.50832241,7.20723123,-3.7206893,,,
imu,259.277822,-0.3337692624,-9.751685098400001,1.6556869504,-0.21672292,6.93806247,-4.08705789,,,
imu,259.286289,-0.3253951232,-9.731946056000002,1.6562851032,-0.14943073,6.66889371,-4.19173463,,,
imu,259.294756,-0.3014690112,-9.715795930400002,1.6532943392,-0.11204618,6.40720186,-4.13191935,,,
imu,259.303224,-0.2769447464000001,-9.720581152800001,1.6706407704,0.007584380000000002,5.943633439999999,-4.17678081,,,
imu,259.311691,-0.2865151912,-9.76484446,1.6999502576,-0.11952309,5.45015738,-4.61044159,,,
imu,259.320158,-0.323002512,-9.824659740000001,1.7334468144,-0.11204618,4.99406587,-4.90204108,,,
imu,259.328626,-0.3463304712,-9.880886103200002,1.74959694,-0.3513073,4.62769728,-5.13382529,,,
imu,259.337093,-0.3475267768,-9.896438076,1.7567747736,-0.65786061,4.38095925,-5.29831731,,,
imu,259.34556,-0.3654713608,-9.850978463200002,1.7340449672,-1.21115195,3.92486774,-5.75440882,,,
imu,259.354028,-0.3684621248000001,-9.7815927384,1.73464312,-1.60742818,3.68560662,-5.8889932,,,
imu,259.362495,-0.3750418056000001,-9.708019944000002,1.74959694,-1.71210492,3.52859151,-5.41794787,,,
imu,259.370962,-0.3864067088000001,-9.7074217912,1.7418209536,-1.85416621,3.45382241,-4.887087259999999,,,
imu,259.37943,-0.4127254320000001,-9.715795930400002,1.737633884,-1.97379677,3.18465365,-4.647826139999999,,,
imu,259.387897,-0.4420349192,-9.7492924872,1.7382320368,-1.71958183,2.78090051,-4.49081103,,,
imu,259.396365,-0.4372496968000001,-9.718786694400002,1.7280634392,-1.40555161,2.64631613,-4.22911918,,,
imu,259.404832,-0.4360533912000001,-9.689477207200001,1.737633884,-1.36069015,2.37714737,-4.408565019999999,,,
imu,259.413299,-0.4504090584,-9.6494009696,1.74959694,-0.9793677399999999,2.21265535,-4.56558013,,,
imu,259.421763,-0.4438293776000001,-9.633250844,1.7412228008,-0.70272207,2.01077878,-4.66277996,,,
imu,259.430226,-0.4432312248,-9.644615747200001,1.7238763696,-0.43355331,1.89114822,-4.49828794,,,
imu,259.43869,-0.4288755576000001,-9.640428677600001,1.731652356,-0.07466163,1.81637912,-4.21416536,,,
imu,259.447153,-0.4240903352000001,-9.658971414400002,1.7424191064,0.26179932,1.54721036,-4.15435008,,,
imu,259.455617,-0.4372496968000001,-9.688879054400001,1.7489987872,0.5010604399999999,1.32290306,-4.16182699,,,
imu,259.464081,-0.4420349192,-9.693664276800002,1.746606176,0.6954601,1.1285034,-4.18425772,,,
imu,259.472544,-0.4199032656,-9.709216249600003,1.7478024816,0.68798319,0.9789651999999998,-4.21416536,,,
imu,259.481008,-0.4073420568000001,-9.715795930400002,1.7460080232,0.7552753799999999,0.70231953,-4.25902682,,,
imu,259.489471,-0.4061457512000001,-9.703234721600001,1.743615412,0.74779847,0.50044296,-4.244073,,,
imu,259.497935,-0.4163143488000001,-9.7056273328,1.7358394256,0.94219813,0.06678217999999969,-4.318842099999999,,,
imu,259.506398,-0.4330626272,-9.7074217912,1.7460080232,1.0693056,-0.4640784300000003,-4.43847266,,,
imu,259.514862,-0.4809148512,-9.724170069600001,1.7424191064,1.21136689,-0.6360473600000001,-4.44594957,,,
imu,259.523325,-0.520392936,-9.7325442088,1.7609618432,1.09921324,-0.8080162900000003,-4.49081103,,,
imu,259.531789,-0.5461135064000001,-9.728955292000002,1.7519895512,1.36090509,-0.7257702800000003,-4.25154991,,,
imu,259.540252,-0.5646562432000001,-9.7337405144,1.7454098704,1.41324346,-0.4715553400000001,-4.26650373,,,
imu,259.548716,-0.5742266880000001,-9.744507264800001,1.7549803152,1.45810492,-0.2472480400000001,-4.35622665,,,
imu,259.557135,-0.5927694248,-9.773218599200002,1.770532288,1.36090509,-0.1051867500000001,-4.66277996,,,
imu,259.565598,-0.5778156048000002,-9.802528086400002,1.7777101216,1.19641307,0.1265974599999997,-4.954379449999999,,,
imu,259.574062,-0.5616654792000001,-9.808509614400002,1.7926639416,1.02444414,0.3957662200000001,-4.93942563,,,
imu,259.582525,-0.5275707696,-9.801929933600002,1.7902713304,0.94219813,0.3434278499999999,-4.96933327,,,
imu,259.590989,-0.5180003248000001,-9.7845835024,1.7759156632,0.74779847,0.3060432999999998,-5.193640569999999,,,
imu,259.599452,-0.5281689224000001,-9.7534795568,1.788476872,0.67302937,0.08921290999999965,-5.27588658,,,
imu,259.607916,-0.5473098120000001,-9.746301723200002,1.7723267464,0.63564482,-0.09023292999999999,-5.11139456,,,
imu,259.61638,-0.5580765624000001,-9.696655040800001,1.7711304408,0.56087572,-0.2248173100000002,-4.75250288,,,
imu,259.625206,-0.5544876456000001,-9.693066124000001,1.7777101216,0.7253677399999999,-0.4117400600000001,-4.22164227,,,
imu,259.634032,-0.5987509528,-9.697253193600002,1.7789064272,0.9347212199999999,-0.5463244400000002,-3.95247351,,,
imu,259.642858,-0.6119103144000001,-9.696655040800001,1.758569232,1.03192105,-0.5014629800000003,-3.62348947,,,
imu,259.651684,-0.6250696760000001,-9.692467971200001,1.7627563016,1.2188438,-0.3893093300000001,-3.59358183,,,
imu,259.660511,-0.6304530512000001,-9.678710456800001,1.7573729264,1.38333582,-0.25472495,-3.68330475,,,
imu,259.669337,-0.6316493568000001,-9.690075360000002,1.74959694,1.68241222,-0.02294074000000013,-3.91508896,,,
imu,259.678163,-0.6400234960000001,-9.7265626808,1.7549803152,1.92167334,0.1565051,-3.97490424,,,
imu,259.686989,-0.6507902464,-9.762451848800001,1.7519895512,1.8917657,0.52287369,-4.13191935,,,
imu,259.695816,-0.6370327320000001,-9.76484446,1.7460080232,1.73475059,0.8817653699999997,-4.25154991,,,
imu,259.704642,-0.6262659816,-9.7714241408,1.7412228008,1.74970441,1.21074941,-4.23659609,,,
imu,259.713468,-0.6005454112,-9.777405668800002,1.7442135648,1.54782784,1.45001053,-4.15435008,,,
imu,259.722294,-0.5658525488000001,-9.7702278352,1.7394283424,1.42072037,1.76404075,-4.124442439999999,,,
imu,259.73112,-0.5760211464000001,-9.777405668800002,1.7364375784,1.1440747,1.6518871,-4.0945348,,,
imu,259.739947,-0.58319898,-9.766040765600001,1.7220819112,1.13659779,1.62197946,-4.13191935,,,
imu,259.748773,-0.5951620360000001,-9.761853696000001,1.7208856056,1.06182869,1.577118,-3.92256587,,,
imu,259.757599,-0.5993491056000001,-9.745105417600001,1.7155022304,0.9571519499999999,1.63693328,-3.66087402,,,
imu,259.766425,-0.6208826064000001,-9.736731278400002,1.6981557992,1.00201341,1.64441019,-3.45152054,,,
imu,259.775251,-0.6226770648,-9.724170069600001,1.6754259928,0.94967504,1.74161002,-3.41413599,,,
imu,259.784078,-0.6232752176,-9.734338667200001,1.6903798128,1.19641307,1.97339423,-3.37675144,,,
imu,259.792904,-0.6143029256000001,-9.773218599200002,1.6849964376,1.34595127,2.25751681,-3.41413599,,,
imu,259.80173,-0.6047324808000001,-9.803724392000001,1.6712389232,1.38333582,2.40705501,-3.50385891,,,
imu,259.810556,-0.5867878968000001,-9.825257892800002,1.6580795616,1.38333582,2.58650085,-3.5711511,,,
imu,259.819383,-0.5616654792000001,-9.834828337600001,1.6574814088,0.9571519499999999,2.63883922,-3.60105874,,,
imu,259.827844,-0.535346756,-9.842604324000002,1.653892492,0.67302937,2.58650085,-3.56367419,,,
imu,259.836305,-0.5215892416000001,-9.856959991200002,1.6592758672,0.47862971,2.42200883,-3.51133582,,,
imu,259.844766,-0.5185984776000001,-9.856959991200002,1.6497054224,0.15712258,2.37714737,-3.54124346,,,
imu,259.853227,-0.5329541448,-9.843800629600002,1.6712389232,-0.21672292,2.41453192,-3.30945925,,,
imu,259.861688,-0.5640580904000001,-9.803126239200001,1.6832019792,-0.52327623,2.30237827,-3.06272122,,,
imu,259.870149,-0.5867878968000001,-9.762451848800001,1.677818604,-0.71767589,2.33976282,-2.8982292,,,
imu,259.87861,-0.6166955368000001,-9.734338667200001,1.6760241456,-0.73262971,2.57902394,-2.748691,,,
imu,259.887071,-0.6166955368000001,-9.6775141512,1.6670518536,-0.71019898,2.88557725,-2.73373718,,,
imu,259.895532,-0.6095177032000001,-9.667345553600002,1.671837076,-0.63542988,3.47625314,-2.78607555,,,
imu,259.903993,-0.6053306336000001,-9.6703363176,1.680809368,-0.5008455,3.86505246,-2.92065993,,,
imu,259.912453,-0.5640580904000001,-9.683495679200002,1.6766222984,-0.20924601,4.33609779,-2.96552139,,,
imu,259.920914,-0.5377393672000002,-9.7074217912,1.6921742712,0.05244583999999999,4.4931129,-3.2720747,,,
imu,259.929375,-0.5221873944000001,-9.7283571392,1.6921742712,0.22441477,4.552928179999999,-3.63844329,,,
imu,259.937836,-0.49347606,-9.744507264800001,1.7125114664,0.3963837,4.59031273,-3.83284295,,,
imu,259.946297,-0.4659610312,-9.7510869456,1.7202874528,0.44124516,4.44077453,-3.98238115,,,
imu,259.954758,-0.430670016,-9.742114653600002,1.7131096192,0.45619898,4.126744309999999,-3.85527368,,,
imu,259.963219,-0.4019586816,-9.7295534448,1.7071280912,0.56835263,3.6706528,-3.74312003,,,
imu,258.490995,,,,,,,273.7708636,-230.0752324,-338.3164296
imu,258.592527,,,,,,,272.0618556,-228.9277556,-338.3164296
imu,258.694089,,,,,,,274.6253676,-228.9033412,-338.3164296
imu,258.795652,,,,,,,275.8338804000001,-228.4760892,-338.3164296
imu,258.897214,,,,,,,277.0301860000001,-227.8901436,-338.3164296
imu,258.998807,,,,,,,276.9569428,-228.1098732,-338.3164296
imu,259.100339,,,,,,,277.3475732000001,-227.7070356,-338.3164296
imu,259.201902,,,,,,,278.6903652,-225.59519,-338.3164296
imu,259.97168,-0.3612842912,-9.727758986400001,1.73464312,0.7552753799999999,3.2968073,-3.57862801,,,
imu,259.980141,-0.3445360128,-9.734936820000001,1.7412228008,0.8524752099999999,2.59397776,-3.51133582,,,
imu,259.988602,-0.311039456,-9.789966877600001,1.7771119688,0.9048135799999999,1.48739508,-3.46647436,,,
imu,259.997063,-0.2655798432,-9.8043225448,1.788476872,1.05435178,0.2836125699999998,-3.39918217,,,
imu,260.005524,-0.2637853848,-9.796546558400001,1.77950458,0.8823828499999999,-1.15943106,-3.61601256,,,
imu,260.013985,-0.2703650656,-9.7128051664,1.7699341352,0.91229049,-2.51275177,-3.46647436,,,
imu,260.022446,-0.2829262744000001,-9.6499991224,1.7741212048,0.8823828499999999,-3.69410355,-2.58419898,,,
imu,260.030915,-0.2966837888,-9.648802816800002,1.785486108,0.9272443100000001,-4.93527061,-1.31312428,,,
imu,260.039384,-0.3463304712,-9.692467971200001,1.7968510112,0.9272443100000001,-6.168960759999999,-0.6701100199999999,,,
imu,260.047852,-0.4115291264,-9.745703570400002,1.7992436224,1.06182869,-7.088620690000001,-0.09438795,,,
imu,260.056321,-0.4689517952000001,-9.755274015200001,1.8010380808,1.24127453,-7.73911186,0.4589033900000001,,,
imu,260.06479,-0.4593813504000001,-9.7427128064,1.7992436224,1.48053565,-8.16529573,0.78788743,,,
imu,260.073258,-0.4611758088,-9.714599624800002,1.7998417752,1.39081273,-8.32978775,0.60844159,,,
imu,260.081727,-0.4378478496000001,-9.6876827488,1.8052251504,1.4431511,-8.53914123,0.2121653600000002,,,
imu,260.090196,-0.3977716120000001,-9.687084596000002,1.8106085256,1.63007385,-8.71858707,-0.12429559,,,
imu,260.098664,-0.3606861384,-9.696056888000001,1.8207771232,1.55530475,-9.01766347,-0.1915877799999999,,,
imu,260.107133,-0.334965568,-9.702038416,1.8118048312,1.60764312,-9.144770939999999,-0.43832581,,,
imu,260.115601,-0.3104413032000001,-9.7151977776,1.8255623456,1.63007385,-9.57843172,-0.52057182,,,
imu,260.12407,-0.3098431504,-9.7331423616,1.8267586512,1.63007385,-10.04947705,-0.54300255,,,
imu,260.132539,-0.3786307224000001,-9.758862932000001,1.827356804,1.6674584,-10.43079946,-0.76730985,,,
imu,260.141007,-0.4701481008,-9.780396432800002,1.8219734288,1.65998149,-10.63267603,-0.88694041,,,
imu,260.149476,-0.5562821040000001,-9.769629682400002,1.8231697344,1.36090509,-10.58781457,-1.33555501,,,
imu,260.157945,-0.6083213976,-9.758862932000001,1.8088140672,1.50296638,-9.87750812,-1.54490849,,,
imu,260.166413,-0.631051204,-9.760059237600002,1.7920657888,1.4431511,-8.99523274,-2.04586146,,,
imu,260.174882,-0.6394253432000001,-9.768433376800001,1.776513816,1.4431511,-8.23258792,-2.86832156,,,
imu,260.18335,-0.5969564944000001,-9.7570684736,1.7591673848,1.38333582,-7.245635800000001,-3.56367419,,,
imu,260.191819,-0.5640580904000001,-9.7606573904,1.7507932456,1.54782784,-6.58019081,-4.079580979999999,,,
imu,260.200288,-0.5209910888,-9.755872168000002,1.731652356,1.42819728,-6.011945649999999,-4.341272829999999,,,
imu,260.208756,-0.5287670752,-9.752881404000002,1.7220819112,1.368382,-5.74277689,-4.35622665,,,
imu,260.217225,-0.5395338256000001,-9.748694334400001,1.7298578976,1.36090509,-5.30911611,-4.04219643,,,
imu,260.225694,-0.5915731192000001,-9.761853696000001,1.7603636904,1.30108981,-5.054901170000001,-3.77302767,,,
imu,260.234156,-0.6597625384000001,-9.785779808000001,1.7699341352,1.30108981,-4.50160983,-3.61601256,,,
imu,260.242618,-0.7123999848000001,-9.801929933600002,1.7711304408,0.9197674,-3.86607248,-3.63096638,,,
imu,260.25108,-0.7578595976000001,-9.785779808000001,1.7789064272,0.77770611,-2.81930508,-3.496382,,,
imu,260.259543,-0.7746078760000001,-9.763050001600002,1.785486108,0.6281679099999999,-1.60804566,-3.60853565,,,
imu,260.268005,-0.7686263480000001,-9.759461084800002,1.770532288,0.42629134,-0.4117400600000001,-3.84031986,,,
imu,260.276467,-0.7441020832,-9.7636481544,1.7609618432,0.33656842,0.9041961000000001,-4.012288789999999,,,
imu,260.284929,-0.6878757200000001,-9.7474980288,1.7424191064,0.35899915,2.15284007,-4.30388828,,,
imu,260.293392,-0.6071250920000001,-9.744507264800001,1.7244745224,0.59078336,2.85566961,-4.33379592,,,
imu,260.301854,-0.5251781584,-9.7492924872,1.7196893,0.65059864,3.40148404,-4.5431494,,,
imu,260.310316,-0.4713444064,-9.761853696000001,1.7023428688,0.77770611,3.68560662,-4.737549059999999,,,
imu,260.318779,-0.4629702672000001,-9.793555794400001,1.7155022304,1.09173633,3.55102224,-4.83474889,,,
imu,260.327241,-0.4755314760000001,-9.786377960800001,1.7202874528,1.00949032,3.5211146,-4.75250288,,,
imu,260.335703,-0.4575868920000001,-9.802528086400002,1.7155022304,0.77770611,3.32671494,-4.58053395,,,
imu,260.344165,-0.5000557408,-9.801929933600002,1.713707772,0.65059864,3.35662258,-4.47585721,,,
imu,260.352628,-0.5281689224000001,-9.794752100000002,1.7244745224,0.4861066199999999,3.43886859,-4.61044159,,,
imu,260.36109,-0.5544876456000001,-9.783387196800001,1.7220819112,0.18703022,3.41643786,-4.93942563,,,
imu,260.369552,-0.5670488544000001,-9.7570684736,1.7322505088,0.18703022,3.4463455,-5.03662546,,,
imu,260.378014,-0.6083213976,-9.768433376800001,1.73464312,0.06739966,3.62579134,-5.216071299999999,,,
imu,260.386477,-0.6268641344,-9.7702278352,1.716698536,-0.08213854000000001,3.86505246,-5.26840967,,,
imu,260.394939,-0.648995788,-9.762451848800001,1.7238763696,-0.21672292,4.05197521,-5.39551714,,,
imu,260.403401,-0.6789034280000001,-9.749890640000002,1.728661592,-0.26158438,4.410866889999999,-5.29831731,,,
imu,260.411863,-0.6998387760000001,-9.743310959200002,1.7412228008,-0.44103022,4.784712389999999,-5.216071299999999,,,
imu,260.420326,-0.7064184568,-9.734936820000001,1.7364375784,-0.35878421,5.285665359999999,-4.999240909999999,,,
imu,260.428788,-0.7076147624000001,-9.7295534448,1.7418209536,-0.06718472,5.988494899999999,-4.79736434,,,
imu,260.437322,-0.7195778184000001,-9.7474980288,1.74959694,-0.26158438,6.601601519999999,-4.83474889,,,
imu,260.445855,-0.6962498592000002,-9.766040765600001,1.7573729264,-0.22419983,7.07264685,-4.86465653,,,
imu,260.454388,-0.6483976352,-9.7702278352,1.7549803152,-0.08213854000000001,7.558646,-5.11887147,,,
imu,260.462922,-0.6101158560000001,-9.769629682400002,1.7603636904,-0.11952309,8.074552789999998,-5.16373293,,,
imu,260.471455,-0.5903768136,-9.7612555432,1.7693359824,-0.16438455,8.29138318,-5.20859439,,,
imu,260.479989,-0.580208216,-9.7534795568,1.7789064272,-0.13447691,8.50073666,-5.12634838,,,
imu,260.488522,-0.5688433128,-9.7474980288,1.7920657888,-0.24663056,8.530644299999999,-5.216071299999999,,,
imu,260.497056,-0.550300576,-9.7510869456,1.7878787192,-0.4260764,8.51569048,-5.26840967,,,
imu,260.505589,-0.5263744640000001,-9.759461084800002,1.8046269976,-0.45598404,8.70261323,-5.15625602,,,
imu,260.514123,-0.5018501992000001,-9.758862932000001,1.8147955952,-0.5008455,8.73999778,-5.11887147,,,
imu,260.522656,-0.4970649768000001,-9.752283251200002,1.812402984,-0.64290679,8.65775177,-5.17120984,,,
imu,260.53119,-0.4970649768000001,-9.765442612800001,1.8141974424,-0.7251528,8.575505759999999,-5.18616366,,,
imu,260.539723,-0.4898871432,-9.765442612800001,1.8231697344,-0.63542988,8.508213569999999,-5.238502029999999,,,
imu,260.548257,-0.505439116,-9.770825988000002,1.8357309432,-0.69524516,8.38858301,-5.15625602,,,
imu,260.55679,-0.5299633808,-9.765442612800001,1.8375254016,-0.91207555,8.24652172,-5.27588658,,,
imu,260.565324,-0.5359449088000001,-9.764246307200002,1.8429087768,-0.95693701,8.32876773,-5.08148692,,,
imu,260.573857,-0.5096261856000001,-9.756470320800002,1.8506847632,-1.15133667,8.418490649999999,-5.05157928,,,
imu,260.582391,-0.4755314760000001,-9.748096181600001,1.8476939992,-1.29339796,8.373629189999999,-5.33570186,,,
imu,260.590924,-0.4665591840000001,-9.746899876,1.8339364848,-1.12142903,8.21661408,-5.59739371,,,
imu,260.599458,-0.4444275304,-9.739722042400002,1.8405161656,-1.12142903,7.835291669999999,-5.829177919999999,,,
imu,260.607991,-0.4019586816,-9.697253193600002,1.8441050824,-1.25601341,7.483876899999999,-5.9637623,,,
imu,260.616525,-0.4115291264,-9.6703363176,1.8536755272,-1.15133667,6.840862639999999,-5.93385466,,,
imu,260.625058,-0.4300718632,-9.632054538400002,1.8536755272,-1.0242292,6.47449405,-5.69459354,,,
imu,260.633591,-0.4378478496000001,-9.6470083584,1.8973406816,-1.00179847,6.138033099999999,-5.43290169,,,
imu,260.6424,-0.4504090584,-9.678112304,1.9093037376,-0.98684465,5.749233779999999,-5.27588658,,,
imu,260.651182,-0.4868963792000001,-9.728955292000002,1.9505762808,-0.81487572,5.23332699,-5.23102512,,,
imu,260.659991,-0.4779240872000001,-9.783985349600002,1.9541651976,-0.77001426,4.74732784,-5.545055339999999,,,
imu,260.6688,-0.4665591840000001,-9.758264779200001,1.9314353912,-0.52327623,4.27628251,-5.806747189999999,,,
imu,260.677609,-0.4707462536000001,-9.682299373600001,1.893153612,-0.34383039,3.70056044,-5.896470109999999,,,
imu,260.686418,-0.4557924336,-9.597361676,1.860255208,-0.02980017,3.25194584,-5.58243989,,,
imu,260.695227,-0.4360533912000001,-9.5698466472,1.8464976936,0.29918387,2.93043871,-5.00671782,,,
imu,260.704036,-0.4205014184,-9.617698871200002,1.8309457208,0.79265993,2.4743472,-4.51324176,,,
imu,260.712845,-0.4228940296000001,-9.678710456800001,1.8130011368,1.17398234,1.8761944,-4.146873169999999,,,
imu,260.721654,-0.4175106544000001,-9.682897526400001,1.8112066784,1.47305874,1.25561087,-3.84779677,,,
imu,260.730463,-0.400762376,-9.669140012000002,1.8225715816,1.86933497,0.7097964399999999,-3.76555076,,,
imu,260.739272,-0.4324644744,-9.680504915200002,1.8321420264,2.02635008,0.2537049300000001,-4.0197657,,,
imu,260.748081,-0.4976631296000001,-9.701440263200002,1.8357309432,1.98896553,-0.2248173100000002,-4.19921154,,,
imu,260.75689,-0.5395338256000001,-9.715795930400002,1.8417124712,2.01139626,-0.4042631500000002,-4.35622665,,,
imu,260.765699,-0.5574784096000001,-9.720581152800001,1.8668348888,1.89924261,-0.3893093300000001,-4.58053395,,,
imu,260.774508,-0.580208216,-9.714599624800002,1.8859757784,1.54035093,-0.3818324200000003,-4.887087259999999,,,
imu,260.783317,-0.5927694248,-9.7217774584,1.8674330416,1.34595127,-0.25472495,-5.22354821,,,
imu,259.303402,,,,,,,277.945726,-222.0917236,-338.3164296
imu,259.405148,,,,,,,280.8998684000001,-221.3714988,-338.3164296
imu,259.506619,,,,,,,278.6171220000001,-220.468166,-338.3164296
imu,259.608242,,,,,,,281.4247780000001,-220.6756884,-338.3164296
imu,259.709683,,,,,,,279.3373468,-218.8446084,-338.3164296
imu,259.811276,,,,,,,279.471626,-219.3939324,-338.3164296
imu,259.912869,,,,,,,279.7157700000001,-218.2342484,-338.3164296
imu,260.01437,,,,,,,279.9965356,-216.0979884,-338.3164296
imu,260.792126,-0.5634599376000001,-9.727160833600001,1.8578625968,1.27865908,-0.007986920000000008,-5.33570186,,,
imu,260.800935,-0.5317578392000001,-9.749890640000002,1.8548718328,1.30108981,0.01444380999999995,-5.41794787,,,
imu,260.115994,,,,,,,280.387166,-214.1448364,-338.3164296
imu,260.217495,,,,,,,280.0697788000001,-213.9006924,-338.3164296
imu,260.319058,,,,,,,281.5102284,-213.6809628,-338.3164296
imu,260.420651,,,,,,,281.0341476,-213.5833052,-338.3164296
imu,260.522244,,,,,,,283.6586956,-214.4988452,-338.3164296
imu,260.623776,,,,,,,281.7787868,-212.4480356,-338.3164296
imu,260.725369,,,,,,,283.6831100000001,-211.495874,-338.3164296
