Type,Timestamp,Data Accelerometer X,Data Accelerometer Y,Data Accelerometer Z,Data Gyroscope X,Data Gyroscope Y,Data Gyroscope Z,Data Magnetometer X,Data Magnetometer Y,Data Magnetometer Z
imu,186.386711,-0.4593813504000001,-9.756470320800002,1.9164815712,0.51601426,2.8481927,-3.5711511,,,
imu,186.395526,-0.454596128,-9.760059237600002,1.9146871128,0.56087572,2.78837742,-3.95995042,,,
imu,186.404342,-0.4498109056,-9.7636481544,1.9194723352,0.60573718,2.52668557,-4.22911918,,,
imu,186.413158,-0.4444275304,-9.7504887928,1.9188741824,0.64312173,2.35471664,-4.37118047,,,
imu,186.421973,-0.4492127528000001,-9.7576666264,1.9236594048,0.6281679099999999,2.30985518,-4.47585721,,,
imu,186.430789,-0.4492127528000001,-9.746301723200002,1.9296409328,0.3739529699999999,2.21265535,-4.48333412,,,
imu,186.439604,-0.4623721144,-9.739722042400002,1.9422021416,0.2468455,2.21265535,-4.4683803,,,
imu,186.44842,-0.4707462536000001,-9.743909112,1.9332298496,0.19450713,2.04068642,-4.3936112,,,
imu,186.457236,-0.4683536424000001,-9.738525736800002,1.9392113776,0.15712258,2.06311715,-4.37865738,,,
imu,186.466051,-0.4862982264000001,-9.7403201952,1.9404076832,-0.07466163,2.0257326,-4.50576485,,,
imu,186.474867,-0.5036446576000001,-9.746301723200002,1.9392113776,-0.02232326000000001,1.95844041,-4.53567249,,,
imu,186.483682,-0.5138132552000001,-9.734338667200001,1.9368187664,-0.04475399000000001,2.08554788,-4.56558013,,,
imu,186.492498,-0.5132151024,-9.7265626808,1.9445947528,-0.06718472,2.0257326,-4.58801086,,,
imu,186.501314,-0.5215892416000001,-9.724170069600001,1.9392113776,-0.06718472,2.20517844,-4.47585721,,,
imu,186.510129,-0.520392936,-9.7151977776,1.9386132248,0.18703022,2.48930102,-4.31136519,,,
imu,186.518945,-0.5275707696,-9.715795930400002,1.9445947528,0.34404533,2.63136231,-4.31136519,,,
imu,186.52776,-0.517402172,-9.722973764,1.9451929056,0.38142988,2.67622377,-4.22911918,,,
imu,186.536576,-0.5126169496,-9.731347903200001,1.9583522672,0.53844499,2.79585433,-4.034719519999999,,,
imu,186.545392,-0.4988594352000001,-9.722375611200002,1.9715116288,0.70293701,2.93043871,-3.90013514,,,
imu,186.554207,-0.4928779072000001,-9.739722042400002,1.961941184,0.8449983,2.98277708,-3.80293531,,,
imu,186.563023,-0.4755314760000001,-9.758862932000001,1.9804839208,0.8449983,3.06502309,-3.7206893,,,
imu,186.571838,-0.4665591840000001,-9.785779808000001,1.976895004,0.7702292,3.00520781,-3.82536604,,,
imu,186.580654,-0.4617739616000001,-9.802528086400002,1.98885806,0.73284465,2.81080815,-3.81041222,,,
imu,186.58947,-0.4492127528000001,-9.788172419200002,2.0020174216,0.44124516,2.55659321,-3.97490424,,,
imu,186.597937,-0.4653628784000001,-9.777405668800002,2.0079989496,0.14964567,2.40705501,-4.08705789,,,
imu,186.606404,-0.4587831976000001,-9.786377960800001,2.0085971024,0.11973803,2.42948574,-3.74312003,,,
imu,186.614872,-0.4551942808000001,-9.766638918400002,1.9906525184,-0.19429219,2.33228591,-3.52628964,,,
imu,186.623339,-0.439642308,-9.730749750400001,1.9864654488,-0.23915365,2.2500399,-3.38422835,,,
imu,186.631806,-0.4252866408000001,-9.706225485600001,1.979885768,-0.11952309,2.28742445,-3.31693616,,,
imu,186.640274,-0.4264829464000001,-9.6912716656,1.9816802264,-0.07466163,2.10797861,-3.4216129,,,
imu,186.648741,-0.4258847936,-9.6799067624,1.9792876152,0.22441477,1.8014253,-3.56367419,,,
imu,186.657209,-0.439642308,-9.661962178400001,1.9745023928,0.41881443,1.59207182,-3.80293531,,,
imu,186.665676,-0.4557924336,-9.660765872800003,1.970913476,0.6132140899999999,1.49487199,-3.82536604,,,
imu,186.674143,-0.4641665728000001,-9.646410205600002,1.967922712,0.9347212199999999,1.40514907,-3.74312003,,,
imu,186.682611,-0.472540712,-9.669140012000002,1.9745023928,1.02444414,1.32290306,-3.85527368,,,
imu,186.691078,-0.4833074624000001,-9.6846919848,1.9822783792,1.18893616,1.32290306,-3.62348947,,,
imu,186.699545,-0.4851019208000001,-9.718188541600002,1.997830352,1.37585891,1.3528107,-3.5711511,,,
imu,186.708013,-0.4922797544,-9.730749750400001,1.9990266576,1.63755076,1.40514907,-3.60853565,,,
imu,186.71648,-0.5006538936,-9.752881404000002,2.0074007968,1.49548947,1.69674856,-3.48890509,,,
imu,186.724947,-0.4982612824000001,-9.776807516000002,2.0032137272,1.48053565,1.73413311,-3.45152054,,,
imu,186.733415,-0.4862982264000001,-9.768433376800001,1.994839588,1.38333582,1.79394839,-3.37675144,,,
imu,186.741882,-0.4868963792000001,-9.767237071200002,1.9942414352,1.24875144,1.91357895,-3.41413599,,,
imu,186.750349,-0.4803166984,-9.752283251200002,1.9894562128,1.23379762,2.21265535,-3.39918217,,,
imu,186.758817,-0.4755314760000001,-9.7474980288,1.9900543656,0.97958268,2.15284007,-3.38422835,,,
imu,186.767284,-0.4593813504000001,-9.7265626808,1.979885768,1.01696723,2.15284007,-3.40665908,,,
imu,186.775752,-0.4563905864000001,-9.722973764,1.9816802264,1.09921324,2.1752708,-3.48890509,,,
imu,186.784219,-0.4402404608,-9.709814402400001,1.9816802264,1.11416706,2.13788625,-3.51133582,,,
imu,186.792686,-0.4372496968000001,-9.708019944000002,1.97390424,1.33099745,2.01825569,-3.70573548,,,
imu,186.80115,-0.4288755576000001,-9.7086180968,1.976895004,1.34595127,1.96591732,-3.74312003,,,
imu,186.809613,-0.4408386136,-9.708019944000002,1.9745023928,1.38333582,1.78647148,-3.91508896,,,
imu,186.818077,-0.4360533912000001,-9.709216249600003,1.9721097816,1.43567419,1.64441019,-3.98985806,,,
imu,186.82654,-0.442633072,-9.7217774584,1.9655301008,1.47305874,1.56964109,-4.00481188,,,
imu,186.835004,-0.4414367664,-9.724170069600001,1.964931948,1.5926893,1.43505671,-4.07210407,,,
imu,186.843467,-0.454596128,-9.718188541600002,1.9583522672,1.48053565,1.30794924,-4.21416536,,,
imu,186.851931,-0.4593813504000001,-9.722973764,1.9607448784,1.57025857,1.23318014,-4.13939626,,,
imu,186.860395,-0.4611758088,-9.7337405144,1.9577541144,1.61512003,1.2032725,-4.04967334,,,
imu,186.868858,-0.472540712,-9.731946056000002,1.9631374896,1.63755076,1.22570323,-4.02724261,,,
imu,186.877322,-0.4689517952000001,-9.727758986400001,1.9601467256,1.70484295,1.15093413,-3.95995042,,,
imu,186.885785,-0.4880926848000001,-9.725964528,1.9505762808,1.80204278,1.18084177,-3.98985806,,,
imu,186.894249,-0.490485296,-9.734338667200001,1.9571559616,1.85438115,1.24813396,-3.82536604,,,
imu,186.902712,-0.4982612824000001,-9.746301723200002,1.9523707392,1.85438115,1.46496435,-3.70573548,,,
imu,186.911176,-0.5048409632,-9.762451848800001,1.9631374896,1.82447351,1.53225654,-3.66087402,,,
imu,186.919639,-0.5072335744,-9.779798280000001,1.95895042,1.77213514,1.6518871,-3.72816621,,,
imu,186.928103,-0.5042428104000001,-9.7780038216,1.9577541144,1.80951969,1.75656384,-3.78050458,,,
imu,186.936566,-0.5030465048,-9.800135475200001,1.9439966,1.68988913,1.98087114,-3.67582784,,,
imu,186.94503,-0.4940742128000001,-9.797742864000002,1.9398095304,1.54035093,1.99582496,-3.75059694,,,
imu,186.953494,-0.4892889904,-9.790565030400002,1.9374169192,1.48053565,2.19022462,-3.87770441,,,
imu,186.961957,-0.4916816016,-9.783985349600002,1.9266501688,1.5179202,2.28742445,-3.78050458,,,
imu,186.970421,-0.481513004,-9.7702278352,1.9284446272,1.37585891,2.42948574,-3.98985806,,,
imu,186.978884,-0.4713444064,-9.767237071200002,1.9242575576,1.11416706,2.40705501,-3.97490424,,,
imu,186.987348,-0.4557924336,-9.758264779200001,1.9116963488,1.10669015,2.43696265,-3.87770441,,,
imu,186.995811,-0.4498109056,-9.746899876,1.908107432,1.12164397,2.42948574,-3.78798149,,,
imu,187.004286,-0.4318663216,-9.745703570400002,1.9045185152,0.9870595899999999,2.41453192,-3.75807385,,,
imu,187.012761,-0.4312681688,-9.741516500800001,1.9128926544,0.85995212,2.324809,-3.90761205,,,
imu,187.021236,-0.4252866408000001,-9.723571916800001,1.917079724,0.9272443100000001,2.29490136,-3.7954584,,,
imu,187.029711,-0.4187069600000001,-9.725366375200002,1.9134908072,0.94219813,2.24256299,-3.69078166,,,
imu,187.038186,-0.4312681688,-9.731347903200001,1.9206686408,0.9272443100000001,1.92105586,-3.78798149,,,
imu,187.046661,-0.424688488,-9.748096181600001,1.9272483216,0.97210577,1.7266562,-3.86275059,,,
imu,187.055136,-0.4264829464000001,-9.745703570400002,1.9338280024,1.15155161,1.62945637,-3.84031986,,,
imu,187.063611,-0.4378478496000001,-9.7504887928,1.9368187664,1.27865908,1.56964109,-3.93751969,,,
imu,187.072025,-0.4522035168,-9.76484446,1.9386132248,1.24127453,1.47991817,-3.84031986,,,
imu,187.0805,-0.4504090584,-9.760059237600002,1.941005836,1.17398234,1.37524143,-3.80293531,,,
imu,187.088975,-0.4599795032,-9.748096181600001,1.9433984472,1.12164397,1.21074941,-3.87770441,,,
imu,187.09745,-0.4617739616000001,-9.7331423616,1.9386132248,1.02444414,1.2032725,-4.06462716,,,
imu,187.105925,-0.481513004,-9.743310959200002,1.9565578088,1.01696723,1.0537343,-4.23659609,,,
imu,187.1144,-0.4964668240000001,-9.7612555432,1.970913476,0.88985976,1.10607267,-4.32631901,,,
imu,187.122875,-0.5000557408,-9.776209363200001,1.9613430312,0.79265993,1.21074941,-4.07210407,,,
imu,187.13135,-0.4988594352000001,-9.7744149048,1.9637356424,0.7552753799999999,1.2032725,-3.90013514,,,
imu,187.139825,-0.5078317272000001,-9.743310959200002,1.9703153232,0.64312173,1.39019525,-3.81788913,,,
imu,187.1483,-0.4988594352000001,-9.7325442088,1.9565578088,0.59078336,1.47244126,-3.66087402,,,
imu,187.156775,-0.4928779072000001,-9.718786694400002,1.9475855168,0.67302937,1.75656384,-3.21225942,,,
imu,187.16525,-0.4862982264000001,-9.720581152800001,1.941005836,0.82256757,1.94348659,-2.8982292,,,
imu,187.173725,-0.4629702672000001,-9.716992236000001,1.935024308,0.9870595899999999,2.10797861,-2.73373718,,,
imu,187.1822,-0.4486146000000001,-9.7122070136,1.935024308,1.15902852,2.18274771,-2.90570611,,,
imu,187.190675,-0.4468201416000001,-9.710412555200001,1.9248557104,1.4431511,1.90610204,-3.30198234,,,
imu,187.19915,-0.4390441552000001,-9.727160833600001,1.9314353912,1.57025857,1.71917929,-3.78050458,,,
imu,187.207606,-0.4360533912000001,-9.738525736800002,1.9344261552,1.74970441,1.62945637,-4.19921154,,,
imu,187.216061,-0.4372496968000001,-9.7576666264,1.9368187664,1.68241222,1.29299542,-4.48333412,,,
imu,187.224517,-0.4360533912000001,-9.755274015200001,1.9463892112,1.68241222,1.23318014,-4.55810322,,,
imu,187.232973,-0.4276792520000001,-9.7540777096,1.9487818224,1.61512003,1.21822632,-4.43847266,,,
imu,187.241429,-0.4354552384000001,-9.758264779200001,1.9416039888,1.26370526,1.15841104,-4.19921154,,,
imu,187.249885,-0.4408386136,-9.736731278400002,1.9433984472,1.04687487,1.00887284,-4.26650373,,,
imu,187.258341,-0.4420349192,-9.730749750400001,1.9457910584,1.05435178,0.86681155,-4.146873169999999,,,
imu,187.266797,-0.4617739616000001,-9.7361331256,1.9451929056,0.94967504,0.6574580699999997,-4.079580979999999,,,
imu,187.275253,-0.4719425592000001,-9.7217774584,1.9332298496,0.82256757,0.6499811599999998,-3.98985806,,,
imu,187.283709,-0.4773259344000001,-9.7283571392,1.9392113776,0.80761375,0.5677351499999999,-3.95995042,,,
imu,187.292165,-0.4862982264000001,-9.710412555200001,1.9374169192,0.81509066,0.5752120599999997,-3.89265823,,,
imu,187.300621,-0.4982612824000001,-9.716992236000001,1.9356224608,0.94219813,0.6798887999999996,-3.71321239,,,
imu,187.309077,-0.5000557408,-9.7265626808,1.9272483216,1.12164397,0.7696117199999999,-3.66087402,,,
imu,187.317532,-0.5042428104000001,-9.743909112,1.9344261552,1.2936129,1.11354958,-3.52628964,,,
imu,187.325988,-0.5006538936,-9.7510869456,1.9326316968,1.43567419,1.06868812,-3.78050458,,,
imu,187.334444,-0.4922797544,-9.7612555432,1.9308372384,1.42072037,1.15841104,-3.78050458,,,
imu,186.480003,,,,,,,83.5582732,-18.34134840000001,118.8065888
imu,186.581809,,,,,,,86.1950284,-18.67094280000001,117.109788
imu,187.3429,-0.4892889904,-9.759461084800002,1.9224630992,1.54782784,1.2780416,-3.78798149,,,
imu,187.351356,-0.4874945320000001,-9.755872168000002,1.9284446272,1.71979677,1.44253362,-3.86275059,,,
imu,187.359812,-0.4785222400000001,-9.780396432800002,1.9302390856,1.60016621,1.63693328,-3.90013514,,,
imu,187.368268,-0.4743351704000001,-9.7995373224,1.9332298496,1.5926893,1.62197946,-4.02724261,,,
imu,187.376724,-0.4605776560000001,-9.801929933600002,1.9296409328,1.48053565,1.62945637,-4.21416536,,,
imu,187.38518,-0.4444275304,-9.788172419200002,1.9266501688,1.2188438,1.54721036,-4.25902682,,,
imu,187.393636,-0.4647647256,-9.785181655200002,1.9308372384,1.03192105,1.44253362,-4.4683803,,,
imu,187.402092,-0.4641665728000001,-9.7744149048,1.9224630992,0.8524752099999999,1.577118,-4.29641137,,,
imu,187.410912,-0.4647647256,-9.762451848800001,1.9356224608,0.81509066,1.61450255,-4.00481188,,,
imu,187.419733,-0.4408386136,-9.7474980288,1.9194723352,0.74779847,1.64441019,-3.69078166,,,
imu,187.428554,-0.4372496968000001,-9.730749750400001,1.9116963488,0.9347212199999999,1.39767216,-3.81041222,,,
imu,187.437375,-0.4282774048000001,-9.740918348000001,1.9057148208,0.9048135799999999,1.1285034,-3.90761205,,,
imu,187.446196,-0.4330626272,-9.723571916800001,1.8955462232,1.10669015,0.9415806499999997,-4.0945348,,,
imu,187.455017,-0.4474182944000001,-9.7265626808,1.893153612,1.23379762,0.6873657099999999,-4.33379592,,,
imu,187.463838,-0.4486146000000001,-9.725964528,1.902125904,1.33847436,0.4630584099999999,-4.41604193,,,
imu,187.472659,-0.4647647256,-9.724768222400002,1.9003314456,1.47305874,0.5303505999999998,-4.26650373,,,
imu,187.48148,-0.4821111568000001,-9.7403201952,1.9003314456,1.30856672,0.5527813299999997,-4.102011709999999,,,
imu,187.490301,-0.5000557408,-9.763050001600002,1.9075092792,1.39081273,0.47801223,-3.84779677,,,
imu,187.499122,-0.4952705184000001,-9.760059237600002,1.9128926544,1.12164397,0.4032431299999999,-3.83284295,,,
imu,187.507942,-0.4928779072000001,-9.782789044000001,1.9194723352,0.94967504,0.4481045899999998,-3.9449966,,,
imu,187.516763,-0.5096261856000001,-9.798341016800002,1.9194723352,0.9571519499999999,0.6724118899999998,-3.8702275,,,
imu,187.525584,-0.5126169496,-9.785181655200002,1.9302390856,0.78518302,0.8369039099999998,-3.7954584,,,
imu,187.534405,-0.5156077136000001,-9.7821908912,1.9248557104,0.5010604399999999,0.7995193599999997,-3.82536604,,,
imu,187.543226,-0.5162058664000001,-9.776209363200001,1.9314353912,0.36647606,0.9565344699999998,-3.84031986,,,
imu,187.552047,-0.5185984776000001,-9.769031529600001,1.9326316968,0.19450713,1.17336486,-3.76555076,,,
imu,187.560868,-0.499457588,-9.7576666264,1.9212667936,0.32909151,1.31542615,-3.74312003,,,
imu,187.569689,-0.502448352,-9.7474980288,1.920070488,0.44124516,1.44253362,-3.76555076,,,
imu,187.57851,-0.5030465048,-9.745105417600001,1.9224630992,0.5459219,1.68927165,-3.73564312,,,
imu,187.587331,-0.4982612824000001,-9.754675862400001,1.9152852656,0.47862971,1.61450255,-4.0197657,,,
imu,187.596151,-0.4952705184000001,-9.752283251200002,1.9212667936,0.56087572,1.64441019,-4.02724261,,,
imu,187.604972,-0.4821111568000001,-9.745703570400002,1.9254538632,0.68050628,1.69674856,-4.06462716,,,
imu,187.613409,-0.4701481008,-9.745703570400002,1.923061252,0.76275229,1.7266562,-4.20668845,,,
imu,187.621845,-0.4839056152000001,-9.746899876,1.9278464744,0.58330645,1.61450255,-4.29641137,,,
imu,187.630281,-0.481513004,-9.748694334400001,1.935024308,0.55339881,1.58459491,-4.37118047,,,
imu,187.638718,-0.472540712,-9.7474980288,1.9368187664,0.6281679099999999,1.40514907,-4.363703559999999,,,
imu,187.647154,-0.4641665728000001,-9.742114653600002,1.9356224608,0.44124516,1.33037997,-4.37865738,,,
imu,187.65559,-0.4749333232000001,-9.739722042400002,1.9386132248,0.38142988,1.29299542,-4.37118047,,,
imu,187.664026,-0.4731388648000001,-9.744507264800001,1.9416039888,0.3889067899999999,1.03878048,-4.408565019999999,,,
imu,187.672463,-0.4827093096,-9.739123889600002,1.9374169192,0.49358353,0.9565344699999998,-4.22911918,,,
imu,187.680899,-0.4892889904,-9.737927584000001,1.9404076832,0.42629134,0.8967191899999998,-4.13939626,,,
imu,187.689335,-0.4862982264000001,-9.739722042400002,1.9332298496,0.51601426,0.94905756,-3.97490424,,,
imu,187.697771,-0.5006538936,-9.745105417600001,1.9392113776,0.51601426,0.9191499199999997,-3.70573548,,,
imu,187.706208,-0.4958686712000001,-9.748096181600001,1.9386132248,0.6132140899999999,0.86681155,-3.68330475,,,
imu,187.714644,-0.4958686712000001,-9.7510869456,1.9392113776,0.620691,0.9341037399999998,-3.61601256,,,
imu,187.72308,-0.5042428104000001,-9.758264779200001,1.938015072,0.6954601,0.9341037399999998,-3.59358183,,,
imu,187.731517,-0.499457588,-9.7534795568,1.9338280024,0.65059864,0.9041961000000001,-3.63096638,,,
imu,187.739953,-0.5066354216000001,-9.754675862400001,1.9416039888,0.73284465,1.1285034,-3.60105874,,,
imu,187.748389,-0.502448352,-9.7612555432,1.9392113776,0.68050628,1.16588795,-3.66087402,,,
imu,187.756825,-0.505439116,-9.762451848800001,1.9404076832,0.5982602699999999,1.27056469,-3.78798149,,,
imu,187.765262,-0.502448352,-9.768433376800001,1.9505762808,0.50853735,1.36776452,-3.86275059,,,
imu,187.773698,-0.5114206440000001,-9.765442612800001,1.9493799752,0.4711528,1.36776452,-3.88518132,,,
imu,187.782134,-0.5138132552000001,-9.754675862400001,1.9541651976,0.35152224,1.45748744,-3.98238115,,,
imu,187.790571,-0.49347606,-9.748694334400001,1.941005836,0.27675314,1.68927165,-3.99733497,,,
imu,187.799007,-0.4922797544,-9.739123889600002,1.9428002944,0.3739529699999999,1.78647148,-3.91508896,,,
imu,187.807443,-0.4839056152000001,-9.7325442088,1.9487818224,0.35152224,1.85376367,-4.10948862,,,
imu,187.815879,-0.4797185456,-9.7163940832,1.9416039888,0.29918387,1.98087114,-4.35622665,,,
imu,187.824367,-0.4659610312,-9.710412555200001,1.9428002944,0.29918387,2.07059406,-4.3936112,,,
imu,187.832855,-0.4653628784000001,-9.7086180968,1.9439966,0.42629134,2.08554788,-4.386134289999999,,,
imu,187.841343,-0.4689517952000001,-9.702636568800001,1.9487818224,0.52349117,1.97339423,-4.40108811,,,
imu,187.849831,-0.4593813504000001,-9.722973764,1.9601467256,0.6281679099999999,1.8014253,-4.43847266,,,
imu,187.858319,-0.4575868920000001,-9.743310959200002,1.9595485728,0.73284465,1.79394839,-4.49828794,,,
imu,187.866807,-0.4695499480000001,-9.745703570400002,1.9613430312,0.8524752099999999,1.75656384,-4.26650373,,,
imu,187.875294,-0.4671573368000001,-9.7510869456,1.976895004,0.8749059399999999,1.59207182,-4.102011709999999,,,
imu,187.883782,-0.4641665728000001,-9.748096181600001,1.9727079344,0.82256757,1.5023489,-4.07210407,,,
imu,187.89227,-0.4653628784000001,-9.727758986400001,1.9637356424,0.85995212,1.39767216,-4.15435008,,,
imu,187.900758,-0.4737370176,-9.720581152800001,1.964931948,0.9048135799999999,1.27056469,-4.42351884,,,
imu,187.909246,-0.4982612824000001,-9.717590388800001,1.9643337952,1.03192105,1.06868812,-4.53567249,,,
imu,187.917734,-0.5096261856000001,-9.746301723200002,1.9834746848,0.85995212,1.06121121,-4.57305704,,,
imu,187.926222,-0.5293652280000001,-9.766638918400002,1.994839588,0.74779847,1.06868812,-4.52071867,,,
imu,187.93471,-0.5389356728,-9.786377960800001,1.9942414352,0.74779847,1.10607267,-4.27398064,,,
imu,187.943197,-0.5257763112000001,-9.76484446,1.9906525184,0.5010604399999999,1.30794924,-4.0945348,,,
imu,187.951685,-0.5257763112000001,-9.734936820000001,1.9906525184,0.45619898,1.40514907,-4.034719519999999,,,
imu,187.960173,-0.5365430616000001,-9.708019944000002,1.9697171704,0.59078336,1.5023489,-3.83284295,,,
imu,187.968661,-0.5275707696,-9.699645804800001,1.952968892,0.8449983,1.81637912,-3.44404363,,,
imu,187.977149,-0.5132151024,-9.687084596000002,1.9493799752,1.10669015,1.89114822,-3.16739796,,,
imu,187.985637,-0.5018501992000001,-9.690673512800002,1.9445947528,1.37585891,1.76404075,-3.20478251,,,
imu,187.994125,-0.5006538936,-9.709216249600003,1.935024308,1.89924261,1.80890221,-3.35432071,,,
imu,188.002612,-0.5006538936,-9.724170069600001,1.941005836,2.22074974,1.74908693,-3.63096638,,,
imu,188.0111,-0.505439116,-9.756470320800002,1.949978128,2.21327283,1.61450255,-3.96742733,,,
imu,188.019574,-0.5185984776000001,-9.766040765600001,1.961941184,2.12354991,1.48739508,-4.13191935,,,
imu,188.028048,-0.5060372688000001,-9.779798280000001,1.9846709904,1.85438115,1.56964109,-4.18425772,,,
imu,188.036521,-0.4958686712000001,-9.801929933600002,1.9661282536,1.32352054,1.59954873,-4.23659609,,,
imu,188.044995,-0.5012520464000001,-9.800733628000001,1.9697171704,1.23379762,1.47244126,-4.28893446,,,
imu,188.053469,-0.4928779072000001,-9.773218599200002,1.9661282536,0.97210577,1.59207182,-4.25154991,,,
imu,188.061943,-0.4928779072000001,-9.761853696000001,1.9637356424,0.68798319,1.5023489,-4.146873169999999,,,
imu,188.070416,-0.4958686712000001,-9.751685098400001,1.9493799752,0.53096808,1.5023489,-4.04219643,,,
imu,188.07889,-0.5048409632,-9.7337405144,1.9445947528,0.26927623,1.48739508,-4.06462716,,,
imu,188.087364,-0.5018501992000001,-9.724768222400002,1.952968892,0.20198404,1.3528107,-4.10948862,,,
imu,188.095837,-0.5018501992000001,-9.723571916800001,1.9433984472,0.3216146,1.25561087,-3.95995042,,,
imu,188.104311,-0.5036446576000001,-9.7122070136,1.9505762808,0.36647606,1.36028761,-3.93004278,,,
imu,188.112785,-0.5090280328000001,-9.717590388800001,1.9547633504,0.67302937,1.2780416,-3.75807385,,,
imu,188.121259,-0.5150095608,-9.7361331256,1.9595485728,0.78518302,1.18831868,-3.78798149,,,
imu,188.129732,-0.5138132552000001,-9.760059237600002,1.9601467256,0.8823828499999999,1.23318014,-3.73564312,,,
imu,188.138206,-0.5185984776000001,-9.7636481544,1.9481836696,1.00201341,1.24813396,-3.63096638,,,
imu,188.14668,-0.5144114080000001,-9.756470320800002,1.9517725864,1.27865908,1.33037997,-3.45899745,,,
imu,188.155153,-0.5185984776000001,-9.7612555432,1.9661282536,1.15155161,1.47991817,-3.44404363,,,
imu,186.683116,,,,,,,83.973318,-17.85306040000001,119.0995616
imu,186.784679,,,,,,,84.35174119999999,-18.74418600000001,116.6459144
imu,186.88618,,,,,,,83.79021,-17.99954680000002,119.4779848
imu,186.987773,,,,,,,83.94890360000001,-18.39017720000002,118.2450576
imu,187.089641,,,,,,,83.5094444,-18.26810520000002,118.940868
imu,187.191051,,,,,,,83.6803452,-17.96292520000002,119.2338408
imu,187.29243,,,,,,,83.99773239999999,-18.8784652,119.3192912
imu,187.394054,,,,,,,83.99773239999999,-18.42679880000002,119.1117688
imu,188.163586,-0.5078317272000001,-9.773218599200002,1.970913476,1.17398234,1.60702564,-3.36927453,,,
imu,188.172059,-0.5162058664000001,-9.800733628000001,1.9792876152,1.05435178,1.61450255,-3.51133582,,,
imu,188.180533,-0.5144114080000001,-9.8013317808,1.9840728376,0.9048135799999999,1.61450255,-3.62348947,,,
imu,188.189007,-0.4982612824000001,-9.783985349600002,1.9756986984,0.65807555,1.4275798,-3.93004278,,,
imu,188.19748,-0.5132151024,-9.760059237600002,1.9745023928,0.43376825,1.62945637,-4.11696553,,,
imu,188.205954,-0.5114206440000001,-9.746899876,1.9804839208,0.20946095,1.71917929,-3.8702275,,,
imu,188.214428,-0.4988594352000001,-9.7504887928,1.979885768,0.26927623,1.88367131,-3.45152054,,,
imu,188.222895,-0.4761296288000001,-9.721179305600002,1.9756986984,0.1720764,2.04068642,-3.33188998,,,
imu,188.231363,-0.4677554896000001,-9.702636568800001,1.9541651976,0.41881443,2.1005017,-3.30945925,,,
imu,188.23983,-0.4575868920000001,-9.685290137600001,1.9625393368,0.34404533,1.83880985,-3.58610492,,,
imu,188.248297,-0.4522035168,-9.690673512800002,1.9511744336,0.56835263,1.71917929,-3.88518132,,,
imu,188.256765,-0.4575868920000001,-9.682299373600001,1.9481836696,0.9048135799999999,1.55468727,-4.13191935,,,
imu,188.265232,-0.4719425592000001,-9.6918698184,1.9416039888,0.91229049,1.38271834,-4.363703559999999,,,
imu,188.273699,-0.4761296288000001,-9.6912716656,1.9451929056,1.26370526,1.45001053,-4.25902682,,,
imu,188.282167,-0.472540712,-9.713403319200001,1.9577541144,1.45810492,1.42010289,-4.169303899999999,,,
imu,188.290634,-0.4737370176,-9.721179305600002,1.9577541144,1.30856672,1.32290306,-4.07210407,,,
imu,188.299101,-0.4653628784000001,-9.739123889600002,1.9661282536,1.34595127,1.30794924,-3.97490424,,,
imu,188.307569,-0.4719425592000001,-9.7510869456,1.9655301008,1.20388998,1.26308778,-3.90761205,,,
imu,188.316036,-0.4755314760000001,-9.759461084800002,1.9727079344,1.25622835,1.26308778,-3.87770441,,,
imu,188.324504,-0.4755314760000001,-9.7534795568,1.97390424,1.16650543,1.18084177,-4.04967334,,,
imu,188.332971,-0.4886908376000001,-9.751685098400001,1.97390424,1.1440747,1.21074941,-4.04967334,,,
imu,188.341438,-0.4880926848000001,-9.746899876,1.97390424,1.03192105,1.07616503,-4.08705789,,,
imu,188.349906,-0.4898871432,-9.737927584000001,1.9703153232,0.9870595899999999,1.18831868,-3.95995042,,,
imu,188.358373,-0.4976631296000001,-9.738525736800002,1.9643337952,1.1440747,1.33785688,-3.92256587,,,
imu,188.36684,-0.5060372688000001,-9.735534972800002,1.961941184,1.1440747,1.15841104,-4.012288789999999,,,
imu,188.375308,-0.5060372688000001,-9.734936820000001,1.9505762808,1.05435178,1.24813396,-4.102011709999999,,,
imu,188.383775,-0.5090280328000001,-9.731347903200001,1.9517725864,1.15902852,1.26308778,-4.15435008,,,
imu,188.392242,-0.5180003248000001,-9.7331423616,1.9565578088,1.4431511,1.33785688,-4.169303899999999,,,
imu,188.40071,-0.5209910888,-9.7337405144,1.9547633504,1.53287402,1.27056469,-4.28893446,,,
imu,188.409177,-0.5168040192000001,-9.7325442088,1.9565578088,1.63755076,1.3528107,-4.318842099999999,,,
imu,188.417644,-0.517402172,-9.7331423616,1.9613430312,1.49548947,1.29299542,-4.42351884,,,
imu,188.426471,-0.517402172,-9.7361331256,1.9517725864,1.60016621,1.28551851,-4.50576485,,,
imu,188.435297,-0.5156077136000001,-9.741516500800001,1.9523707392,1.53287402,1.30047233,-4.70016451,,,
imu,188.444123,-0.5209910888,-9.7474980288,1.9374169192,1.52539711,1.30794924,-4.63287232,,,
imu,188.452949,-0.5209910888,-9.744507264800001,1.9368187664,1.45810492,1.33037997,-4.4683803,,,
imu,188.461776,-0.5221873944000001,-9.730749750400001,1.9308372384,1.50296638,1.36776452,-4.52819558,,,
imu,188.470602,-0.5215892416000001,-9.7474980288,1.9356224608,1.48801256,1.36028761,-4.55810322,,,
imu,188.479428,-0.5221873944000001,-9.745703570400002,1.9392113776,1.46558183,1.30794924,-4.43847266,,,
imu,188.488254,-0.5168040192000001,-9.746301723200002,1.941005836,1.36090509,1.18831868,-4.30388828,,,
imu,188.49708,-0.5197947832,-9.746899876,1.9368187664,1.41324346,1.14345722,-4.124442439999999,,,
imu,188.505907,-0.520392936,-9.752283251200002,1.9338280024,1.48053565,0.92662683,-4.13191935,,,
imu,188.514733,-0.5221873944000001,-9.7510869456,1.9445947528,1.4431511,0.9415806499999997,-4.079580979999999,,,
imu,188.523559,-0.5227855472,-9.748096181600001,1.9356224608,1.45810492,0.9041961000000001,-3.98985806,,,
imu,188.532385,-0.5389356728,-9.752283251200002,1.9224630992,1.28613599,0.9041961000000001,-3.76555076,,,
imu,188.541211,-0.5437208952000001,-9.748694334400001,1.9224630992,1.38333582,0.9789651999999998,-3.56367419,,,
imu,188.550038,-0.550300576,-9.745703570400002,1.9164815712,1.38333582,0.9341037399999998,-3.51881273,,,
imu,188.558864,-0.5538894928000001,-9.748694334400001,1.9284446272,1.25622835,1.06121121,-3.54124346,,,
imu,188.56769,-0.5544876456000001,-9.7504887928,1.9212667936,1.31604363,1.18831868,-3.60853565,,,
imu,188.576516,-0.550300576,-9.746899876,1.917079724,1.22632071,1.36776452,-3.63844329,,,
imu,188.585343,-0.5413282840000001,-9.745105417600001,1.9146871128,1.24875144,1.45748744,-3.72816621,,,
imu,188.594169,-0.5401319784,-9.746301723200002,1.923061252,1.12912088,1.67431783,-3.85527368,,,
imu,188.602995,-0.5239818528000001,-9.742114653600002,1.9158834184,1.03192105,1.77899457,-3.99733497,,,
imu,188.611821,-0.5132151024,-9.737927584000001,1.9146871128,1.25622835,1.78647148,-4.06462716,,,
imu,188.620647,-0.5042428104000001,-9.743310959200002,1.9248557104,1.20388998,1.83133294,-4.21416536,,,
imu,188.629112,-0.490485296,-9.7474980288,1.9326316968,1.09173633,1.66684092,-4.32631901,,,
imu,188.637577,-0.4791203928000001,-9.760059237600002,1.9398095304,1.32352054,1.61450255,-4.27398064,,,
imu,188.646042,-0.4785222400000001,-9.755872168000002,1.938015072,1.23379762,1.55468727,-4.28893446,,,
imu,188.654507,-0.4803166984,-9.7612555432,1.9374169192,1.17398234,1.40514907,-4.19921154,,,
imu,188.662971,-0.4803166984,-9.737927584000001,1.9296409328,1.15902852,1.06868812,-4.22164227,,,
imu,188.671436,-0.4821111568000001,-9.7265626808,1.9206686408,1.00201341,0.8294269999999999,-4.43847266,,,
imu,188.679901,-0.4970649768000001,-9.724170069600001,1.9218649464,1.10669015,0.5527813299999997,-4.670256869999999,,,
imu,188.688366,-0.5227855472,-9.724170069600001,1.9272483216,1.34595127,0.3658585799999998,-4.81979507,,,
imu,188.696831,-0.5443190480000001,-9.760059237600002,1.9463892112,1.23379762,0.2237972899999998,-4.72259524,,,
imu,188.705296,-0.5592728680000001,-9.782789044000001,1.952968892,1.16650543,0.3060432999999998,-4.56558013,,,
imu,188.71376,-0.5616654792000001,-9.7606573904,1.9422021416,1.04687487,0.3434278499999999,-4.341272829999999,,,
imu,188.722225,-0.565254396,-9.741516500800001,1.9475855168,0.9870595899999999,0.5303505999999998,-4.22164227,,,
imu,188.73069,-0.5784137576,-9.7217774584,1.938015072,0.8524752099999999,0.58268897,-4.057150249999999,,,
imu,188.739155,-0.5790119104,-9.713403319200001,1.9308372384,1.00201341,0.8518577299999999,-3.66835093,,,
imu,188.74762,-0.5730303824,-9.7122070136,1.9248557104,1.24127453,1.24065705,-3.39170526,,,
imu,188.756084,-0.5610673264,-9.718786694400002,1.9164815712,1.42072037,1.45001053,-3.25712088,,,
imu,188.764549,-0.5449172008000001,-9.7217774584,1.9158834184,1.65250458,1.64441019,-3.30945925,,,
imu,188.773014,-0.535346756,-9.737329431200001,1.9063129736,1.86933497,1.53973345,-3.59358183,,,
imu,188.781479,-0.5239818528000001,-9.761853696000001,1.9212667936,1.9665348,1.50982581,-4.07210407,,,
imu,188.789944,-0.5185984776000001,-9.782789044000001,1.9188741824,2.09364227,1.38271834,-4.57305704,,,
imu,188.798408,-0.5287670752,-9.782789044000001,1.9164815712,2.04878081,1.27056469,-4.80484125,,,
imu,188.806873,-0.5191966304000001,-9.7815927384,1.9134908072,1.95905789,1.42010289,-4.92447181,,,
imu,188.815338,-0.5299633808,-9.764246307200002,1.9099018904,1.80951969,1.40514907,-4.77493361,,,
imu,188.823803,-0.5275707696,-9.759461084800002,1.905116668,1.54782784,1.39767216,-4.65530305,,,
imu,188.832266,-0.5215892416000001,-9.742114653600002,1.902125904,1.25622835,1.34533379,-4.58053395,,,
imu,188.84073,-0.5180003248000001,-9.725366375200002,1.89913514,1.12912088,1.19579559,-4.6179185,,,
imu,188.849194,-0.5227855472,-9.723571916800001,1.896144376,1.09173633,1.12102649,-4.5431494,,,
imu,188.857657,-0.5323559920000001,-9.727160833600001,1.8967425288,0.94219813,0.9341037399999998,-4.692687599999999,,,
imu,188.866121,-0.5287670752,-9.722375611200002,1.8889665424,0.9347212199999999,0.9041961000000001,-4.56558013,,,
imu,188.874584,-0.5389356728,-9.724768222400002,1.8859757784,0.9347212199999999,0.6948426199999997,-4.46090339,,,
imu,188.883048,-0.5395338256000001,-9.727160833600001,1.8955462232,1.08425942,0.70231953,-4.3936112,,,
imu,188.891511,-0.5538894928000001,-9.7510869456,1.8955462232,1.04687487,0.5677351499999999,-4.386134289999999,,,
imu,188.899975,-0.5580765624000001,-9.760059237600002,1.9009295984,1.42819728,0.5752120599999997,-4.31136519,,,
imu,188.908438,-0.56824516,-9.7744149048,1.9075092792,1.4431511,0.6350273399999997,-4.25902682,,,
imu,188.916902,-0.5778156048000002,-9.787574266400002,1.8973406816,1.46558183,0.62007352,-4.169303899999999,,,
imu,188.925365,-0.5927694248,-9.776209363200001,1.9003314456,1.43567419,0.7471809899999999,-4.102011709999999,,,
imu,188.933829,-0.5843952856000001,-9.773816752000002,1.9039203624,1.43567419,0.9789651999999998,-4.04219643,,,
imu,188.942292,-0.5826008272000001,-9.7995373224,1.9045185152,1.32352054,0.9939190199999999,-3.95995042,,,
imu,188.950756,-0.5921712720000001,-9.803724392000001,1.9069111264,1.36090509,0.98644211,-4.102011709999999,,,
imu,188.95922,-0.5939657304000001,-9.807313308800001,1.9146871128,1.18145925,1.07616503,-4.3936112,,,
imu,188.967683,-0.5891805080000001,-9.788172419200002,1.9218649464,0.82256757,1.02382666,-4.647826139999999,,,
imu,188.976147,-0.6005454112,-9.790565030400002,1.923061252,0.53844499,1.13598031,-4.78241052,,,
imu,187.495677,,,,,,,86.1339924,-18.20706920000001,119.2216336
imu,187.597118,,,,,,,83.851246,-18.0605828,119.0141112
imu,187.698711,,,,,,,86.1950284,-18.86625800000001,116.5360496
imu,187.804454,,,,,,,83.41178680000002,-18.30472680000002,119.612264
imu,187.901805,,,,,,,83.5216516,-18.97612280000001,116.6215
imu,188.003368,,,,,,,83.9855252,-17.96292520000002,119.123976
imu,188.104961,,,,,,,83.82683159999999,-18.34134840000001,118.7821744
imu,188.206493,,,,,,,83.76579559999999,-18.23148360000002,118.8432104
imu,188.98461,-0.5981528,-9.786377960800001,1.9194723352,0.43376825,1.42010289,-4.44594957,,,
imu,188.993074,-0.5963583416000001,-9.775611210400001,1.9075092792,0.22441477,1.56216418,-4.08705789,,,
imu,189.001537,-0.5891805080000001,-9.744507264800001,1.8949480704,0.14964567,1.78647148,-3.98238115,,,
imu,189.010001,-0.5610673264,-9.722375611200002,1.8949480704,0.19450713,1.79394839,-3.88518132,,,
imu,189.018464,-0.5544876456000001,-9.7151977776,1.8913591536,0.3889067899999999,1.74908693,-3.97490424,,,
imu,189.026928,-0.5562821040000001,-9.7086180968,1.8907610008,0.57582954,1.58459491,-4.20668845,,,
imu,189.035393,-0.5622636320000001,-9.696655040800001,1.8919573064,0.56835263,1.30794924,-4.49828794,,,
imu,189.043858,-0.5664507016000001,-9.699047652,1.8913591536,0.82256757,1.37524143,-4.41604193,,,
imu,189.052322,-0.565254396,-9.7056273328,1.8907610008,0.79265993,1.3528107,-4.363703559999999,,,
imu,189.060787,-0.5658525488000001,-9.719983000000001,1.9009295984,0.97958268,1.24065705,-4.19173463,,,
imu,189.069252,-0.5754229936,-9.7337405144,1.9105000432,1.04687487,1.16588795,-4.124442439999999,,,
imu,189.077717,-0.5742266880000001,-9.749890640000002,1.9128926544,1.02444414,1.12102649,-4.07210407,,,
imu,189.086182,-0.5730303824,-9.766040765600001,1.9194723352,1.00949032,1.14345722,-3.9449966,,,
imu,189.094646,-0.5766192992000001,-9.782789044000001,1.9254538632,0.94219813,1.16588795,-3.91508896,,,
imu,189.103111,-0.5808063688,-9.794752100000002,1.926052016,0.97958268,1.13598031,-3.83284295,,,
imu,189.111576,-0.5933675776,-9.783985349600002,1.9248557104,0.78518302,1.28551851,-3.73564312,,,
imu,189.120041,-0.5909749664,-9.767835224,1.9224630992,0.60573718,1.36776452,-3.6459202,,,
imu,189.128506,-0.5861897440000001,-9.761853696000001,1.9254538632,0.42629134,1.45001053,-3.67582784,,,
imu,189.13697,-0.6053306336000001,-9.7612555432,1.920070488,0.43376825,1.51730272,-3.81788913,,,
imu,189.145435,-0.6029380224,-9.752881404000002,1.9146871128,0.53844499,1.64441019,-3.7206893,,,
imu,189.1539,-0.5897786608000001,-9.742114653600002,1.92904278,0.65059864,1.83133294,-3.84031986,,,
imu,189.162365,-0.5891805080000001,-9.7361331256,1.9242575576,0.67302937,1.95844041,-4.124442439999999,,,
imu,189.17083,-0.5849934384000001,-9.7504887928,1.9224630992,0.7552753799999999,2.1005017,-4.25154991,,,
imu,189.179295,-0.5604691736,-9.745703570400002,1.9206686408,0.9048135799999999,2.19022462,-4.34874974,,,
imu,189.187759,-0.5467116592000001,-9.740918348000001,1.9164815712,0.81509066,2.19770153,-4.43847266,,,
imu,189.196224,-0.5437208952000001,-9.7403201952,1.9188741824,0.94967504,2.2500399,-4.55810322,,,
imu,189.204689,-0.5197947832,-9.7474980288,1.9266501688,0.8973366700000001,2.16031698,-4.66277996,,,
imu,189.213154,-0.5126169496,-9.7427128064,1.920070488,0.85995212,1.9509635,-4.887087259999999,,,
imu,189.221619,-0.5060372688000001,-9.743310959200002,1.9206686408,0.78518302,1.69674856,-4.737549059999999,,,
imu,189.230083,-0.5168040192000001,-9.739722042400002,1.9182760296,0.74779847,1.44253362,-4.87213344,,,
imu,189.238572,-0.5084298800000001,-9.736731278400002,1.9152852656,0.73284465,1.18831868,-4.759979789999999,,,
imu,189.247061,-0.5221873944000001,-9.746301723200002,1.920070488,0.65059864,0.9041961000000001,-4.602964679999999,,,
imu,189.25554,-0.5293652280000001,-9.746899876,1.9242575576,0.79265993,0.6499811599999998,-4.4683803,,,
imu,189.264029,-0.5437208952000001,-9.7474980288,1.9224630992,0.79265993,0.4256738599999998,-4.341272829999999,,,
imu,189.272518,-0.5544876456000001,-9.7474980288,1.9224630992,0.9347212199999999,0.3658585799999998,-4.20668845,,,
imu,189.281007,-0.5766192992000001,-9.746899876,1.9308372384,0.8375213899999999,0.2387511099999999,-4.13191935,,,
imu,189.289496,-0.5975546472000001,-9.748096181600001,1.9248557104,0.73284465,0.1415512799999998,-4.17678081,,,
imu,189.297985,-0.6166955368000001,-9.7534795568,1.9284446272,0.8375213899999999,0.2836125699999998,-4.08705789,,,
imu,189.306474,-0.6352382736000001,-9.7576666264,1.9314353912,0.80761375,0.3135202100000001,-3.9449966,,,
imu,189.314963,-0.6430142600000001,-9.762451848800001,1.9326316968,0.74779847,0.52287369,-4.04219643,,,
imu,189.323452,-0.6477994824000001,-9.754675862400001,1.9206686408,0.7552753799999999,0.7471809899999999,-4.0945348,,,
imu,189.331941,-0.6579680800000002,-9.7576666264,1.9386132248,0.7702292,0.98644211,-4.13939626,,,
imu,189.34043,-0.6543791632000001,-9.755872168000002,1.9242575576,0.68050628,1.15841104,-4.33379592,,,
imu,189.348919,-0.6531828576,-9.772620446400001,1.9236594048,0.6132140899999999,1.31542615,-4.28145755,,,
imu,189.357408,-0.6364345792000001,-9.766040765600001,1.9445947528,0.58330645,1.55468727,-4.3936112,,,
imu,189.365897,-0.6442105656,-9.766638918400002,1.9236594048,0.45619898,1.89114822,-4.44594957,,,
imu,189.374386,-0.6322475096000001,-9.7576666264,1.932033544,0.42629134,1.88367131,-4.70016451,,,
imu,189.382875,-0.6208826064000001,-9.752283251200002,1.9314353912,0.28423005,1.89862513,-4.68521069,,,
imu,189.391364,-0.6178918424000002,-9.735534972800002,1.9236594048,0.14964567,1.91357895,-4.65530305,,,
imu,189.399853,-0.6065269392000001,-9.728955292000002,1.9182760296,0.18703022,1.97339423,-4.55062631,,,
imu,189.408342,-0.6035361752000001,-9.7128051664,1.9152852656,0.35899915,1.93600968,-4.49081103,,,
imu,189.416831,-0.5981528,-9.70502918,1.9176778768,0.44124516,1.86124058,-4.49828794,,,
imu,189.42532,-0.5945638832000001,-9.7163940832,1.923061252,0.40386061,1.68927165,-4.41604193,,,
imu,189.433809,-0.5951620360000001,-9.7283571392,1.9314353912,0.51601426,1.56216418,-4.26650373,,,
imu,189.442606,-0.6005454112,-9.748694334400001,1.9416039888,0.65059864,1.41262598,-4.25902682,,,
imu,189.451403,-0.6053306336000001,-9.7540777096,1.9511744336,0.6281679099999999,1.26308778,-4.13191935,,,
imu,189.4602,-0.6101158560000001,-9.763050001600002,1.949978128,0.7403215599999999,1.19579559,-4.04219643,,,
imu,189.468997,-0.6250696760000001,-9.7540777096,1.9451929056,0.6281679099999999,1.13598031,-4.16182699,,,
imu,189.477794,-0.6334438152,-9.744507264800001,1.9493799752,0.60573718,0.94905756,-4.244073,,,
imu,189.486591,-0.6483976352,-9.7265626808,1.9439966,0.58330645,1.10607267,-4.29641137,,,
imu,189.495388,-0.6573699272000001,-9.742114653600002,1.9433984472,0.5459219,1.04625739,-4.33379592,,,
imu,189.504185,-0.6711274416,-9.759461084800002,1.9511744336,0.45619898,1.00887284,-4.23659609,,,
imu,189.512982,-0.6783052752000002,-9.767835224,1.9451929056,0.33656842,1.19579559,-4.22911918,,,
imu,189.521779,-0.6651459136000001,-9.779798280000001,1.9457910584,0.47862971,1.56216418,-4.079580979999999,,,
imu,189.530576,-0.6705292888000001,-9.7427128064,1.955959656,0.23936859,1.66684092,-4.02724261,,,
imu,189.539373,-0.6615569968000001,-9.7301515976,1.9541651976,0.26179932,1.95844041,-3.70573548,,,
imu,189.54817,-0.6555754688000001,-9.739123889600002,1.9416039888,0.3889067899999999,2.22013226,-3.32441307,,,
imu,189.556967,-0.6334438152,-9.737927584000001,1.9326316968,0.6281679099999999,2.51173175,-2.91318302,,,
imu,189.565764,-0.6166955368000001,-9.7403201952,1.9314353912,0.65807555,2.61640849,-2.92065993,,,
imu,189.574561,-0.601143564,-9.746301723200002,1.932033544,0.88985976,2.70613141,-3.03281358,,,
imu,189.583358,-0.5790119104,-9.748096181600001,1.9314353912,1.02444414,2.42948574,-3.45152054,,,
imu,189.592155,-0.5873860496000001,-9.7492924872,1.9278464744,1.09921324,2.2500399,-3.73564312,,,
imu,189.600952,-0.5843952856000001,-9.749890640000002,1.9422021416,1.25622835,2.23508608,-3.88518132,,,
imu,189.609749,-0.5766192992000001,-9.751685098400001,1.9332298496,1.00949032,2.07807097,-4.06462716,,,
imu,189.618546,-0.5748248408000001,-9.752283251200002,1.9266501688,0.8674290299999999,2.06311715,-4.25154991,,,
imu,189.627343,-0.5706377712,-9.744507264800001,1.9392113776,0.85995212,1.95844041,-4.19173463,,,
imu,189.63614,-0.5646562432000001,-9.745703570400002,1.935024308,0.73284465,1.78647148,-4.0945348,,,
imu,189.64461,-0.565254396,-9.745703570400002,1.920070488,0.65059864,1.6518871,-4.146873169999999,,,
imu,189.65308,-0.5814045216000001,-9.725964528,1.9344261552,0.3963837,1.47244126,-4.169303899999999,,,
imu,189.66155,-0.5861897440000001,-9.7265626808,1.9296409328,0.29918387,1.3528107,-4.124442439999999,,,
imu,189.67002,-0.5861897440000001,-9.727758986400001,1.935024308,0.20198404,1.19579559,-4.25902682,,,
imu,189.67849,-0.5909749664,-9.7283571392,1.9296409328,0.15712258,1.09859576,-4.18425772,,,
imu,189.68696,-0.58319898,-9.7331423616,1.9338280024,0.34404533,0.9789651999999998,-4.00481188,,,
imu,189.695429,-0.5885823552,-9.740918348000001,1.9463892112,0.47862971,1.00139593,-3.84779677,,,
imu,189.703899,-0.5945638832000001,-9.7492924872,1.949978128,0.30666078,0.94905756,-3.89265823,,,
imu,189.712369,-0.6017417168000001,-9.751685098400001,1.9517725864,0.35899915,0.8742884599999998,-3.80293531,,,
imu,189.720839,-0.6029380224,-9.7570684736,1.949978128,0.49358353,0.94905756,-3.69825857,,,
imu,189.729309,-0.5957601888000001,-9.772620446400001,1.9505762808,0.65807555,1.08364194,-3.78050458,,,
imu,189.737779,-0.61310662,-9.756470320800002,1.9445947528,0.65059864,1.12102649,-3.90761205,,,
imu,189.746249,-0.6071250920000001,-9.748096181600001,1.9667264064,0.41881443,1.02382666,-4.079580979999999,,,
imu,189.754719,-0.6053306336000001,-9.758264779200001,1.9565578088,0.35899915,1.00139593,-4.16182699,,,
imu,189.763189,-0.6089195504,-9.7780038216,1.9553615032,0.5010604399999999,1.18831868,-4.124442439999999,,,
imu,189.771659,-0.5963583416000001,-9.788172419200002,1.9607448784,0.42629134,1.30794924,-4.27398064,,,
imu,189.780128,-0.6065269392000001,-9.767237071200002,1.9655301008,0.06739966,1.18084177,-4.49828794,,,
imu,189.788598,-0.6160973840000001,-9.758264779200001,1.9727079344,-0.03727708,1.24065705,-4.53567249,,,
imu,189.797068,-0.6154992312,-9.758264779200001,1.9762968512,-0.08961545,1.36776452,-4.124442439999999,,,
imu,188.308123,,,,,,,83.93669640000002,-18.29251960000002,118.4159584
imu,188.409716,,,,,,,83.9244892,-18.03616840000002,118.3793368
imu,188.511187,,,,,,,86.6466948,-18.57328520000001,118.574652
imu,188.612902,,,,,,,83.83903880000001,-18.39017720000002,119.123976
imu,188.714312,,,,,,,85.92647,-19.51323960000002,116.7801936
imu,188.815875,,,,,,,84.1442188,-18.56107800000002,119.3925344
imu,188.917437,,,,,,,84.75457879999999,-18.8784652,116.92668
imu,189.019,,,,,,,83.77800280000001,-18.17044760000002,119.551228
imu,189.805538,-0.6029380224,-9.7403201952,1.970913476,-0.16438455,1.577118,-3.73564312,,,
imu,189.814008,-0.5861897440000001,-9.724170069600001,1.9583522672,-0.26158438,1.46496435,-3.58610492,,,
imu,189.822478,-0.5730303824,-9.724768222400002,1.9613430312,-0.20924601,1.36028761,-3.65339711,,,
imu,189.830948,-0.5688433128,-9.7217774584,1.964931948,-0.08213854000000001,1.18831868,-3.85527368,,,
imu,189.839418,-0.5742266880000001,-9.713403319200001,1.9583522672,0.03001510999999998,0.9640113799999996,-4.0197657,,,
imu,189.847883,-0.5814045216000001,-9.706225485600001,1.9607448784,0.18703022,0.8144731799999998,-4.30388828,,,
imu,189.856347,-0.5808063688,-9.6984494992,1.9631374896,0.29918387,0.52287369,-4.4683803,,,
imu,189.864812,-0.5903768136,-9.709216249600003,1.9601467256,0.28423005,0.3434278499999999,-4.37118047,,,
imu,189.873277,-0.5903768136,-9.7265626808,1.9643337952,0.21693786,0.21632038,-4.13939626,,,
imu,189.881742,-0.5867878968000001,-9.7283571392,1.9733060872,0.35899915,0.1490281899999997,-4.06462716,,,
imu,189.890207,-0.6065269392000001,-9.7403201952,1.9751005456,0.46367589,0.11164364,-4.07210407,,,
imu,189.898671,-0.6041343280000001,-9.737927584000001,1.976895004,0.3739529699999999,-0.03041764999999996,-3.92256587,,,
imu,189.907136,-0.6268641344,-9.746301723200002,1.9756986984,0.3963837,-0.09770984000000027,-3.7206893,,,
imu,189.915601,-0.6274622872000001,-9.745105417600001,1.976895004,0.35152224,0.02939763000000006,-3.61601256,,,
imu,189.924066,-0.6238733704,-9.748694334400001,1.9792876152,0.17955331,0.08921290999999965,-3.65339711,,,
imu,189.932531,-0.631051204,-9.744507264800001,1.979885768,0.05992275,-0.007986920000000008,-3.62348947,,,
imu,189.940996,-0.6376308848000001,-9.745703570400002,1.976895004,0.04496892999999999,0.1565051,-3.55619728,,,
imu,189.94946,-0.6370327320000001,-9.734338667200001,1.9756986984,0.1720764,0.1639820099999998,-3.45899745,,,
imu,189.957925,-0.6483976352,-9.724170069600001,1.9745023928,0.12721494,0.2312741999999997,-3.65339711,,,
imu,189.96639,-0.648995788,-9.727160833600001,1.9846709904,0.23189168,0.3509047599999997,-3.65339711,,,
imu,189.974855,-0.6448087184,-9.7265626808,1.9786894624,0.15712258,0.3060432999999998,-3.81788913,,,
imu,189.98332,-0.6579680800000002,-9.738525736800002,1.979885768,0.17955331,0.4929660499999997,-3.78050458,,,
imu,189.991784,-0.6436124128,-9.719983000000001,1.9870636016,0.3889067899999999,0.7322271699999998,-3.95247351,,,
imu,190.000249,-0.6561736216000001,-9.719983000000001,1.982876532,0.28423005,0.70231953,-4.16182699,,,
imu,190.008714,-0.6549773160000001,-9.7265626808,1.9804839208,0.18703022,0.7471809899999999,-4.37118047,,,
imu,190.017179,-0.6585662328000002,-9.727160833600001,1.9936432824,0.26179932,0.7397040799999997,-4.430995749999999,,,
imu,190.025644,-0.6681366776000001,-9.718786694400002,1.9864654488,0.29918387,0.70231953,-4.49828794,,,
imu,190.034108,-0.6591643856000001,-9.714599624800002,1.9972321992,0.3739529699999999,0.7546578999999998,-4.52071867,,,
imu,190.042573,-0.6561736216000001,-9.720581152800001,1.9972321992,0.44124516,0.6948426199999997,-4.4683803,,,
imu,190.051024,-0.6693329832000001,-9.719983000000001,1.9954377408,0.3216146,0.7471809899999999,-4.50576485,,,
imu,190.059475,-0.6705292888000001,-9.714001472000001,2.0062044912,0.35899915,0.62007352,-4.318842099999999,,,
imu,190.067926,-0.6681366776000001,-9.714001472000001,2.0032137272,0.43376825,0.5976427899999996,-4.169303899999999,,,
imu,190.076377,-0.6789034280000001,-9.7217774584,2.0121860192,0.57582954,0.7172733499999997,-3.98985806,,,
imu,190.084828,-0.6759126640000002,-9.725366375200002,2.0074007968,0.34404533,0.72475026,-3.98238115,,,
imu,190.093279,-0.6824923448,-9.7193848472,2.0062044912,0.29170696,0.7546578999999998,-3.78798149,,,
imu,190.10173,-0.6926609424000001,-9.721179305600002,2.0050081856,0.32909151,0.7172733499999997,-3.73564312,,,
imu,190.110181,-0.6902683312000001,-9.725366375200002,2.0056063384,0.29918387,0.84438082,-3.57862801,,,
imu,190.118632,-0.7016332344,-9.7295534448,1.9996248104,0.29918387,0.9939190199999999,-3.36927453,,,
imu,190.127083,-0.7010350816000002,-9.7427128064,2.0145786304,0.42629134,1.04625739,-3.39170526,,,
imu,190.135533,-0.7010350816000002,-9.755872168000002,2.0199620056,0.45619898,1.1285034,-3.33188998,,,
imu,190.143984,-0.6920627896000001,-9.758862932000001,2.0187657,0.50853735,1.2780416,-3.1973056,,,
imu,190.152435,-0.6824923448,-9.7474980288,2.024747228,0.53096808,1.53973345,-3.15992105,,,
imu,190.160886,-0.6717255944000001,-9.751685098400001,2.0193638528,0.5459219,1.58459491,-3.22721324,,,
imu,190.169337,-0.666940372,-9.7474980288,2.013980477600001,0.44124516,1.68927165,-3.18982869,,,
imu,190.177788,-0.6519865520000001,-9.7295534448,2.0271398392,0.45619898,1.94348659,-3.17487487,,,
imu,190.186239,-0.6382290376000002,-9.722375611200002,2.0181675472,0.43376825,2.07807097,-3.1973056,,,
imu,190.19469,-0.6364345792000001,-9.7151977776,2.0151767832,0.40386061,2.08554788,-3.18982869,,,
imu,190.203141,-0.6244715232,-9.709814402400001,2.0115878664,0.06739966,2.1752708,-3.23469015,,,
imu,190.211592,-0.6160973840000001,-9.710412555200001,2.0062044912,0.2468455,2.26499372,-3.0477674,,,
imu,190.220043,-0.6089195504,-9.708019944000002,2.015774936,0.3739529699999999,2.25751681,-3.0477674,,,
imu,190.228494,-0.5987509528,-9.706225485600001,2.0193638528,0.38142988,2.22013226,-3.13749032,,,
imu,190.236945,-0.5796100632000001,-9.7151977776,2.0289342976,0.44124516,2.1005017,-3.16739796,,,
imu,190.245396,-0.5897786608000001,-9.718786694400002,2.0181675472,0.5459219,2.11545552,-3.25712088,,,
imu,190.253846,-0.5808063688,-9.7325442088,2.0301306032,0.66555246,1.98087114,-3.33188998,,,
imu,190.262651,-0.5891805080000001,-9.7361331256,2.0301306032,0.4861066199999999,1.90610204,-3.39170526,,,
imu,190.271456,-0.5808063688,-9.7283571392,2.0319250616,0.4861066199999999,1.62945637,-3.38422835,,,
imu,190.280261,-0.5730303824,-9.7128051664,2.0283361448,0.59078336,1.62197946,-3.57862801,,,
imu,190.289066,-0.5760211464000001,-9.682897526400001,2.0193638528,0.7552753799999999,1.56964109,-3.70573548,,,
imu,190.297871,-0.5849934384000001,-9.688879054400001,2.0325232144,0.8524752099999999,1.3528107,-3.9449966,,,
imu,190.306676,-0.6065269392000001,-9.716992236000001,2.042691812,0.8823828499999999,1.21822632,-3.98985806,,,
imu,190.315481,-0.6208826064000001,-9.741516500800001,2.0480751872,0.88985976,1.17336486,-3.98238115,,,
imu,190.324286,-0.6196863008000001,-9.755274015200001,2.0498696456,0.82256757,1.32290306,-3.76555076,,,
imu,190.333091,-0.6047324808000001,-9.7540777096,2.0558511736,0.81509066,1.36776452,-3.53376655,,,
imu,190.341896,-0.6160973840000001,-9.737329431200001,2.0588419376,0.63564482,1.47244126,-3.53376655,,,
imu,190.350818,-0.6214807592000001,-9.721179305600002,2.054654868000001,0.68050628,1.53973345,-3.08515195,,,
imu,190.359623,-0.6125084672000001,-9.725366375200002,2.0468788816,0.7403215599999999,1.81637912,-2.80850628,,,
imu,190.368428,-0.6077232448000001,-9.727160833600001,2.0295324504,0.80761375,1.8761944,-2.56176825,,,
imu,190.377233,-0.6047324808000001,-9.7193848472,2.0211583112,1.00949032,1.95844041,-2.748691,,,
imu,190.386038,-0.5969564944000001,-9.727160833600001,2.0193638528,1.4431511,1.90610204,-3.01785976,,,
imu,190.394843,-0.5909749664,-9.7128051664,2.0175693944,1.54782784,1.94348659,-3.33188998,,,
imu,190.403648,-0.6035361752000001,-9.7265626808,2.0085971024,1.63755076,1.86871749,-3.62348947,,,
imu,190.412453,-0.6089195504,-9.739123889600002,2.006802644,1.56278166,1.89114822,-3.97490424,,,
imu,190.421258,-0.6077232448000001,-9.752881404000002,2.015774936,1.41324346,2.0257326,-4.17678081,,,
imu,190.430063,-0.6029380224,-9.7504887928,2.0187657,1.12164397,1.97339423,-4.19173463,,,
imu,190.438868,-0.5939657304000001,-9.746301723200002,2.0169712416,0.9870595899999999,2.04816333,-4.25902682,,,
imu,190.447673,-0.5903768136,-9.7427128064,2.0187657,0.7253677399999999,2.21265535,-4.32631901,,,
imu,190.456478,-0.580208216,-9.722973764,2.006802644,0.57582954,2.13788625,-4.408565019999999,,,
imu,190.464972,-0.5700396184000001,-9.722973764,2.0163730888,0.34404533,1.95844041,-4.430995749999999,,,
imu,190.473466,-0.5820026744000001,-9.7217774584,2.006802644,0.22441477,1.83133294,-4.58053395,,,
imu,190.48196,-0.5778156048000002,-9.709814402400001,2.0187657,0.11226112,1.85376367,-4.602964679999999,,,
imu,190.490454,-0.5808063688,-9.7074217912,2.0145786304,0.14216876,1.62945637,-4.57305704,,,
imu,190.498948,-0.5975546472000001,-9.7151977776,2.0271398392,0.29170696,1.41262598,-4.52071867,,,
imu,190.507442,-0.6029380224,-9.725964528,2.0199620056,0.40386061,1.36776452,-4.42351884,,,
imu,190.515936,-0.6113121616,-9.718188541600002,2.0301306032,0.57582954,1.38271834,-4.23659609,,,
imu,190.52443,-0.6208826064000001,-9.7337405144,2.0283361448,0.65807555,1.30047233,-4.169303899999999,,,
imu,190.532924,-0.6286585928,-9.7403201952,2.024747228,0.74779847,1.34533379,-4.102011709999999,,,
imu,190.541418,-0.6340419680000001,-9.746301723200002,2.0295324504,0.91229049,1.36776452,-3.95995042,,,
imu,190.549912,-0.6382290376000002,-9.746899876,2.0414955064,0.97210577,1.3528107,-4.012288789999999,,,
imu,190.558406,-0.6352382736000001,-9.7510869456,2.048673340000001,0.7552753799999999,1.3528107,-4.08705789,,,
imu,190.5669,-0.6561736216000001,-9.779200127200001,2.0438881176,0.68798319,1.41262598,-4.15435008,,,
imu,190.575395,-0.6448087184,-9.779798280000001,2.0570474792,0.56835263,1.46496435,-4.35622665,,,
imu,190.583889,-0.6364345792000001,-9.779798280000001,2.0540567152,0.44124516,1.4275798,-4.430995749999999,,,
imu,190.592383,-0.6585662328000002,-9.7606573904,2.0594400904,0.2468455,1.577118,-4.51324176,,,
imu,190.600877,-0.6609588440000002,-9.751685098400001,2.0594400904,-0.02232326000000001,1.85376367,-4.19921154,,,
imu,190.609371,-0.6495939408000001,-9.7474980288,2.0522622568,-0.04475399000000001,2.13788625,-3.82536604,,,
imu,190.617865,-0.6382290376000002,-9.719983000000001,2.045682576,-0.08213854000000001,2.27994754,-3.59358183,,,
imu,189.120562,,,,,,,84.0221468,-18.4878348,119.6000568
imu,189.222094,,,,,,,83.8634532,-18.70756440000001,119.2582552
imu,189.323657,,,,,,,83.82683159999999,-18.26810520000002,119.2338408
imu,189.425189,,,,,,,83.3507508,-17.99954680000002,119.7099216
imu,189.526873,,,,,,,84.24187640000001,-18.04837560000001,119.185012
imu,189.628497,,,,,,,86.0973708,-18.01175400000001,119.001904
imu,189.73009,,,,,,,83.77800280000001,-17.85306040000001,118.9774896
imu,189.831469,,,,,,,85.87764120000001,-18.98833000000002,116.3407344
imu,190.626359,-0.6119103144000001,-9.7008421104,2.0534585624,-0.06718472,2.25751681,-3.74312003,,,
imu,190.634853,-0.6053306336000001,-9.693664276800002,2.0540567152,0.08235347999999998,2.11545552,-3.86275059,,,
imu,190.643347,-0.6125084672000001,-9.711608860800002,2.0522622568,0.18703022,2.09302479,-4.11696553,,,
imu,190.651841,-0.6160973840000001,-9.706823638400001,2.0510659512,0.41133752,1.95844041,-4.32631901,,,
imu,190.660335,-0.6184899952000001,-9.692467971200001,2.0642253128,0.49358353,1.99582496,-4.27398064,,,
imu,190.66879,-0.6154992312,-9.7056273328,2.0534585624,0.47862971,1.83880985,-4.28893446,,,
imu,190.677244,-0.6125084672000001,-9.709814402400001,2.0708049936,0.36647606,1.84628676,-4.19173463,,,
imu,190.685699,-0.6143029256000001,-9.714599624800002,2.084562508,0.40386061,1.74908693,-3.98985806,,,
imu,190.694154,-0.6089195504,-9.731946056000002,2.0917403416,0.34404533,1.8014253,-4.0197657,,,
imu,190.702608,-0.6107140088,-9.7427128064,2.0923384944,0.17955331,1.74161002,-3.7954584,,,
imu,190.711063,-0.6119103144000001,-9.748694334400001,2.0929366472,-0.03727708,1.62197946,-4.00481188,,,
imu,190.719518,-0.6160973840000001,-9.734936820000001,2.090544036,-0.05970781,1.44253362,-4.057150249999999,,,
imu,190.727972,-0.6166955368000001,-9.731946056000002,2.0989181752,-0.22419983,1.39767216,-3.9449966,,,
imu,190.736427,-0.6154992312,-9.725964528,2.099516328,-0.10456927,1.42010289,-3.80293531,,,
imu,190.744882,-0.6262659816,-9.710412555200001,2.0911421888,-0.23915365,1.44253362,-3.7206893,,,
imu,190.753336,-0.6316493568000001,-9.7086180968,2.0929366472,-0.04475399000000001,1.45748744,-3.54872037,,,
imu,190.761791,-0.6382290376000002,-9.70502918,2.0827680496,0.05244583999999999,1.36776452,-3.81041222,,,
imu,190.770245,-0.6382290376000002,-9.708019944000002,2.096525564,0.25432241,1.39767216,-3.71321239,,,
imu,190.7787,-0.6406216488000002,-9.690075360000002,2.0923384944,0.30666078,1.44253362,-3.75807385,,,
imu,190.787155,-0.6352382736000001,-9.7074217912,2.1031052448,0.53844499,1.52477963,-3.88518132,,,
imu,190.795609,-0.6406216488000002,-9.702038416,2.0791791328,0.63564482,1.59207182,-3.86275059,,,
imu,190.804064,-0.6388271904000001,-9.696056888000001,2.0947311056,0.53844499,1.55468727,-3.99733497,,,
imu,190.812519,-0.6364345792000001,-9.696056888000001,2.0923384944,0.7253677399999999,1.51730272,-4.00481188,,,
imu,190.820973,-0.6316493568000001,-9.686486443200002,2.0959274112,0.7702292,1.6518871,-4.04219643,,,
imu,190.829428,-0.6364345792000001,-9.685290137600001,2.0899458832,0.8449983,1.71917929,-3.98985806,,,
imu,190.837883,-0.6274622872000001,-9.678112304,2.0899458832,0.8973366700000001,1.63693328,-3.90761205,,,
imu,190.846337,-0.6358364264000002,-9.676915998400002,2.0917403416,0.9048135799999999,1.54721036,-3.95995042,,,
imu,190.854792,-0.6346401208000001,-9.6775141512,2.0983200224,0.9870595899999999,1.56216418,-3.95995042,,,
imu,190.863247,-0.6364345792000001,-9.6876827488,2.0899458832,1.15902852,1.60702564,-3.77302767,,,
imu,190.871697,-0.6364345792000001,-9.704431027200002,2.0887495776,1.1440747,1.53225654,-3.68330475,,,
imu,190.880148,-0.6268641344,-9.709216249600003,2.090544036,1.27865908,1.53225654,-3.56367419,,,
imu,190.888599,-0.6370327320000001,-9.706823638400001,2.0917403416,1.22632071,1.40514907,-3.53376655,,,
imu,190.89705,-0.6412198016000001,-9.7151977776,2.0869551192,1.16650543,1.47991817,-3.46647436,,,
imu,190.905501,-0.6376308848000001,-9.711010708000002,2.075590216,1.27118217,1.44253362,-3.36927453,,,
imu,190.913951,-0.6424161072,-9.7056273328,2.0833662024,1.39828964,1.39019525,-3.2720747,,,
imu,190.922402,-0.6406216488000002,-9.721179305600002,2.0809735912,1.42072037,1.40514907,-3.21225942,,,
imu,190.930853,-0.6448087184,-9.721179305600002,2.0773846744,1.42819728,1.43505671,-3.21225942,,,
imu,190.939304,-0.646005024,-9.7122070136,2.0737957576,1.62259694,1.47991817,-3.22721324,,,
imu,190.947755,-0.646005024,-9.709814402400001,2.0690105352,1.71979677,1.66684092,-3.1225365,,,
imu,190.956206,-0.6537810104000001,-9.713403319200001,2.0672160768,1.5926893,1.78647148,-3.02533667,,,
imu,190.964656,-0.6448087184,-9.722375611200002,2.054654868000001,1.57025857,1.86124058,-2.94309066,,,
imu,190.973107,-0.6442105656,-9.7283571392,2.0570474792,1.65998149,1.97339423,-3.07767504,,,
imu,190.981558,-0.6376308848000001,-9.7301515976,2.057645632,1.54035093,2.07807097,-3.24964397,,,
imu,190.990009,-0.6376308848000001,-9.743909112,2.0558511736,1.57025857,2.10797861,-3.29450543,,,
imu,190.99846,-0.6268641344,-9.7361331256,2.0468788816,1.5179202,2.05564024,-3.36927453,,,
imu,191.006911,-0.6143029256000001,-9.728955292000002,2.0552530208,1.48053565,2.19770153,-3.39170526,,,
imu,191.015361,-0.6077232448000001,-9.746301723200002,2.0498696456,1.33847436,2.2500399,-3.51133582,,,
imu,191.023812,-0.6113121616,-9.7283571392,2.0391028952,1.36090509,2.15284007,-3.55619728,,,
imu,191.032263,-0.5969564944000001,-9.7301515976,2.036710284,1.2188438,2.27994754,-3.33936689,,,
imu,191.040714,-0.5963583416000001,-9.722375611200002,2.0414955064,1.30856672,2.19770153,-3.18982869,,,
imu,191.049165,-0.5837971328000001,-9.709216249600003,2.03371952,1.31604363,2.03320951,-3.17487487,,,
imu,191.057616,-0.58319898,-9.679308609600001,2.0229527696,1.39828964,1.82385603,-3.32441307,,,
imu,191.066066,-0.5843952856000001,-9.697851346400002,2.0181675472,1.58521239,1.5023489,-3.61601256,,,
imu,191.074554,-0.5903768136,-9.702636568800001,2.0253453808,1.71979677,1.42010289,-3.78050458,,,
imu,191.083042,-0.6077232448000001,-9.7325442088,2.0504677984,1.71979677,1.34533379,-3.71321239,,,
imu,191.091529,-0.6298548984000001,-9.767237071200002,2.045682576,1.7422275,1.42010289,-3.41413599,,,
imu,191.100017,-0.6166955368000001,-9.783387196800001,2.0540567152,1.63007385,1.47244126,-3.22721324,,,
imu,191.108505,-0.5987509528,-9.768433376800001,2.0468788816,1.53287402,1.44253362,-3.20478251,,,
imu,191.116993,-0.6125084672000001,-9.748096181600001,2.0540567152,1.48053565,1.65936401,-3.14496723,,,
imu,191.12548,-0.6184899952000001,-9.746899876,2.0391028952,1.22632071,1.76404075,-3.06272122,,,
imu,191.133968,-0.6172936896000001,-9.735534972800002,2.0271398392,1.24127453,1.9509635,-2.72626027,,,
imu,191.142456,-0.6107140088,-9.725366375200002,2.0169712416,1.41324346,2.16031698,-2.49447606,,,
imu,191.150943,-0.5927694248,-9.718786694400002,2.0109897136,1.61512003,2.28742445,-2.55429134,,,
imu,191.159431,-0.5855915912,-9.730749750400001,1.9960358936,1.80951969,2.22013226,-2.8234601,,,
imu,191.167919,-0.580208216,-9.7427128064,1.9924469768,1.8917657,2.15284007,-3.02533667,,,
imu,191.176406,-0.5790119104,-9.7427128064,1.9996248104,2.07868845,2.27247063,-3.53376655,,,
imu,191.184894,-0.5736285352000001,-9.742114653600002,2.006802644,1.79456587,2.23508608,-3.86275059,,,
imu,191.193382,-0.5766192992000001,-9.746899876,1.997830352,1.67493531,2.22013226,-3.9449966,,,
imu,191.20187,-0.5640580904000001,-9.755872168000002,2.0002229632,1.57773548,2.22760917,-3.97490424,,,
imu,191.210357,-0.5425245896,-9.743310959200002,1.9966340464,1.42819728,2.29490136,-4.02724261,,,
imu,191.218845,-0.5311596864,-9.7325442088,1.9930451296,1.32352054,2.25751681,-4.0945348,,,
imu,191.227333,-0.5383375200000001,-9.721179305600002,1.9924469768,1.33099745,2.18274771,-4.169303899999999,,,
imu,191.23582,-0.5365430616000001,-9.731347903200001,1.9900543656,1.21136689,1.98087114,-4.19921154,,,
imu,191.244308,-0.520392936,-9.7265626808,1.9846709904,0.9945364999999999,1.68927165,-4.17678081,,,
imu,191.252796,-0.5215892416000001,-9.737927584000001,1.997830352,0.97210577,1.66684092,-4.16182699,,,
imu,191.261283,-0.5341504504000001,-9.7295534448,2.009793408,0.97958268,1.48739508,-4.124442439999999,,,
imu,191.269771,-0.535346756,-9.722973764,2.0020174216,1.05435178,1.2032725,-4.06462716,,,
imu,191.278567,-0.550300576,-9.723571916800001,1.9864654488,0.8973366700000001,0.9789651999999998,-4.13939626,,,
imu,191.287363,-0.5568802568000001,-9.725366375200002,2.0133823248,1.15902852,0.9714882899999999,-3.90013514,,,
imu,191.296158,-0.5790119104,-9.7510869456,2.0199620056,1.16650543,0.9191499199999997,-3.69078166,,,
imu,191.304954,-0.5796100632000001,-9.7606573904,2.0181675472,1.15155161,0.76213481,-3.80293531,,,
imu,191.31375,-0.6029380224,-9.7492924872,2.024747228,1.12164397,0.7696117199999999,-3.76555076,,,
imu,191.322545,-0.6101158560000001,-9.745105417600001,2.0265416864,1.13659779,0.9714882899999999,-3.7954584,,,
imu,191.331341,-0.6376308848000001,-9.770825988000002,2.027737992,1.10669015,1.01634975,-3.78050458,,,
imu,191.340137,-0.6340419680000001,-9.791761336000002,2.0271398392,1.03192105,1.14345722,-3.92256587,,,
imu,191.348932,-0.6262659816,-9.802528086400002,2.042691812,0.74779847,1.41262598,-4.19173463,,,
imu,191.357728,-0.6220789120000001,-9.7995373224,2.0420936592,0.45619898,1.45748744,-4.4683803,,,
imu,191.366524,-0.6286585928,-9.802528086400002,2.0391028952,0.23936859,1.62197946,-4.692687599999999,,,
imu,191.37532,-0.6286585928,-9.783387196800001,2.042691812,-0.02980017,1.9509635,-4.61044159,,,
imu,189.933227,,,,,,,83.76579559999999,-17.96292520000002,118.9774896
imu,190.034759,,,,,,,85.0353444,-18.7808076,116.2430768
imu,190.144043,,,,,,,83.8024172,-17.6943668,119.4169488
imu,190.245636,,,,,,,83.94890360000001,-18.04837560000001,119.2826696
imu,190.347259,,,,,,,83.64372360000002,-17.9263036,119.1605976
imu,190.448822,,,,,,,84.339534,-17.75540280000001,118.940868
imu,190.550323,,,,,,,83.64372360000002,-17.95071800000001,118.6723096
imu,190.651916,,,,,,,83.77800280000001,-17.7309884,118.75776
imu,190.753448,,,,,,,85.682326,-17.4990516,117.8300128
imu,190.855133,,,,,,,82.94791319999999,-17.84085320000002,118.0131208
imu,190.956573,,,,,,,86.0973708,-18.62211400000002,116.0843832
imu,191.058166,,,,,,,83.24088599999999,-17.77981720000001,118.6723096
imu,191.159729,,,,,,,83.6925524,-17.81643880000001,119.2338408
imu,191.261291,,,,,,,83.7535884,-17.74319560000002,118.6723096
imu,191.362823,,,,,,,83.6559308,-17.97513240000001,118.696724
