Type,Timestamp,Data Accelerometer X,Data Accelerometer Y,Data Accelerometer Z,Data Gyroscope X,Data Gyroscope Y,Data Gyroscope Z,Data Magnetometer X,Data Magnetometer Y,Data Magnetometer Z
imu,53.99844,0.3738455000000001,-9.596763523200002,2.4655858416,1.40576655,0.2462280199999998,-4.08705789,,,
imu,54.006903,0.361882444,-9.580613397600002,2.4560153968,1.39081273,0.3882893099999998,-4.17678081,,,
imu,54.015367,0.361882444,-9.554892827200002,2.4631932304,1.35342818,0.52287369,-4.04219643,,,
imu,54.023831,0.3636769024000001,-9.5877912312,2.460202466400001,1.368382,0.5079198699999998,-4.012288789999999,,,
imu,54.032294,0.3756399584,-9.623680399200001,2.4661839944,1.35342818,0.5079198699999998,-4.08705789,,,
imu,54.040758,0.376836264,-9.6051376624,2.454819091200001,1.2936129,0.3658585799999998,-4.18425772,,,
imu,54.049221,0.3714528888,-9.597361676,2.4560153968,1.45810492,0.3808123999999999,-4.18425772,,,
imu,54.057685,0.376836264,-9.606932120800002,2.4631932304,1.60764312,0.33595094,-4.17678081,,,
imu,54.066148,0.3786307224000001,-9.645213900000002,2.460202466400001,1.68988913,0.35838167,-4.10948862,,,
imu,54.074612,0.3726491944000001,-9.654784344800001,2.4619969248,1.65998149,0.3509047599999997,-4.08705789,,,
imu,54.083075,0.376836264,-9.666149248000002,2.4721655224,1.63007385,0.2537049300000001,-4.04967334,,,
imu,54.091539,0.3666676664,-9.6667474008,2.4661839944,1.53287402,0.3060432999999998,-4.06462716,,,
imu,54.100002,0.3600879856,-9.675719692800001,2.464389536000001,1.42819728,0.3209971199999999,-4.102011709999999,,,
imu,54.108466,0.3666676664,-9.673925234400002,2.4578098552,1.28613599,0.2836125699999998,-4.13939626,,,
imu,54.116929,0.3624805968,-9.667345553600002,2.4578098552,1.09921324,0.2836125699999998,-4.18425772,,,
imu,54.125393,0.3576953744,-9.6499991224,2.45242648,0.9197674,0.2387511099999999,-4.244073,,,
imu,54.133855,0.340947096,-9.625474857600002,2.450632021600001,1.04687487,0.1789358299999999,-4.23659609,,,
imu,54.142318,0.3415452488,-9.616502565600001,2.4476412576,1.01696723,0.2836125699999998,-4.25154991,,,
imu,54.15078,0.3325729568,-9.599156134400001,2.4332855904,0.9197674,0.3284740299999998,-4.244073,,,
imu,54.159242,0.3224043592,-9.578818939200001,2.4422578824,1.03192105,0.3284740299999998,-4.28893446,,,
imu,54.167704,0.3194135952000001,-9.578818939200001,2.437472660000001,1.02444414,0.2910894799999997,-4.10948862,,,
imu,54.176167,0.3092449976000001,-9.582407856000001,2.4368745072,1.06182869,0.3808123999999999,-4.04967334,,,
imu,54.184629,0.3194135952000001,-9.580613397600002,2.4368745072,1.1440747,0.5752120599999997,-3.93751969,,,
imu,54.193091,0.3265914288,-9.591380148,2.4422578824,1.18893616,0.4705353199999998,-3.85527368,,,
imu,54.201553,0.3188154424,-9.6015487456,2.434481896,1.10669015,0.5901658799999998,-3.93004278,,,
imu,54.210016,0.3158246784000001,-9.614109954400002,2.4362763544,1.22632071,0.6051196999999999,-3.84031986,,,
imu,54.218478,0.3080486920000001,-9.635643455200002,2.446444952,1.10669015,0.7471809899999999,-3.86275059,,,
imu,54.22694,0.3104413032000001,-9.6326526912,2.449435716,1.01696723,0.7696117199999999,-3.76555076,,,
imu,54.235403,0.3206099008000001,-9.623680399200001,2.4398652712,0.85995212,0.8369039099999998,-3.67582784,,,
imu,54.243865,0.3074505392,-9.634447149600001,2.4428560352,0.8449983,0.9714882899999999,-3.51133582,,,
imu,54.252327,0.3038616224,-9.654186192000001,2.4458467992,0.7702292,1.0537343,-3.60105874,,,
imu,54.260789,0.3098431504,-9.651195428000001,2.4428560352,0.68050628,1.33037997,-3.44404363,,,
imu,54.269252,0.3188154424,-9.6523917336,2.4518283272,0.53844499,1.40514907,-3.52628964,,,
imu,54.277598,0.3164228312,-9.6535880392,2.4542209384,0.63564482,1.66684092,-3.47395127,,,
imu,54.28606,0.3427415544,-9.633250844,2.4590061608,0.4861066199999999,1.89114822,-3.44404363,,,
imu,54.294522,0.367863972,-9.6290637744,2.471567369600001,0.38142988,1.8014253,-3.50385891,,,
imu,54.302985,0.3612842912,-9.6260730104,2.4530246328,0.30666078,1.78647148,-3.48142818,,,
imu,54.311447,0.3744436528,-9.6117173432,2.4572117024,0.31413769,1.74908693,-3.55619728,,,
imu,54.319909,0.3899956256000001,-9.613511801600001,2.4596043136,0.3216146,1.70422547,-3.45899745,,,
imu,54.328372,0.3947808480000001,-9.6248767048,2.4578098552,0.46367589,1.79394839,-3.41413599,,,
imu,54.336839,0.3959771536000001,-9.630858232800001,2.4649876888,0.45619898,1.63693328,-3.44404363,,,
imu,54.345306,0.4031549872,-9.6051376624,2.470371064,0.3739529699999999,1.46496435,-3.48142818,,,
imu,54.353774,0.4043512928,-9.596763523200002,2.467380300000001,0.45619898,1.53973345,-3.56367419,,,
imu,54.362241,0.4097346680000001,-9.599156134400001,2.4655858416,0.49358353,1.32290306,-3.59358183,,,
imu,54.370708,0.4037531400000001,-9.621287788000002,2.471567369600001,0.4861066199999999,1.12102649,-3.63844329,,,
imu,54.379176,0.400762376,-9.605735815200001,2.4769507448,0.44124516,1.06121121,-3.60853565,,,
imu,54.387643,0.3864067088000001,-9.5704448,2.4805396616,0.47862971,0.9714882899999999,-3.67582784,,,
imu,54.39611,0.3726491944000001,-9.582407856000001,2.4978860928,0.34404533,0.8593346399999997,-3.75059694,,,
imu,54.404578,0.3648732080000001,-9.6015487456,2.4925027176,0.27675314,0.7920424499999998,-3.75807385,,,
imu,54.413045,0.3576953744,-9.564463272000001,2.4757544392,0.35152224,0.8892422799999999,-3.66835093,,,
imu,54.421512,0.3630787496,-9.551303910400001,2.4841285784,0.51601426,0.84438082,-3.60853565,,,
imu,54.42998,0.3702565832000001,-9.558481744000002,2.4859230368,0.51601426,0.7770886299999997,-3.45899745,,,
imu,54.438447,0.3684621248000001,-9.558481744000002,2.4769507448,0.68798319,0.8742884599999998,-3.35432071,,,
imu,54.446914,0.3732473472,-9.559678049600002,2.461398772,1.05435178,0.9565344699999998,-3.10010577,,,
imu,54.455382,0.3744436528,-9.573435564,2.4578098552,1.16650543,1.06868812,-3.13749032,,,
imu,54.463849,0.3804251808,-9.593174606400002,2.4518283272,1.31604363,1.0537343,-3.38422835,,,
imu,54.472317,0.3774344168000001,-9.596763523200002,2.4590061608,1.53287402,1.12102649,-3.60105874,,,
imu,54.480784,0.3810233336,-9.609324732000001,2.455417244,1.65250458,1.13598031,-3.86275059,,,
imu,54.489251,0.3810233336,-9.6039413568,2.4542209384,1.6674584,1.21822632,-4.057150249999999,,,
imu,54.497719,0.3810233336,-9.6458120528,2.455417244,1.5926893,1.22570323,-4.25902682,,,
imu,54.506186,0.3762381112000001,-9.659569567200002,2.4530246328,1.48801256,1.36028761,-4.3936112,,,
imu,54.514653,0.3989679176000001,-9.646410205600002,2.4530246328,1.27118217,1.39019525,-4.3936112,,,
imu,54.523121,0.3965753064,-9.616502565600001,2.4476412576,0.97958268,1.24065705,-4.50576485,,,
imu,54.531588,0.3923882368,-9.602146898400001,2.4338837432,0.77770611,1.0537343,-4.49828794,,,
imu,54.540402,0.4139217376000001,-9.594370912,2.4398652712,0.55339881,1.06868812,-4.19173463,,,
imu,54.549217,0.4103328208,-9.6075302736,2.4350800488,0.43376825,0.8892422799999999,-3.98238115,,,
imu,54.558031,0.4061457512000001,-9.599156134400001,2.4368745072,0.52349117,0.8144731799999998,-3.7206893,,,
imu,54.566845,0.3965753064,-9.593772759200002,2.4458467992,0.34404533,0.8369039099999998,-3.60105874,,,
imu,54.575659,0.391790084,-9.613511801600001,2.4542209384,0.34404533,0.7097964399999999,-3.53376655,,,
imu,54.584474,0.3834159448,-9.638634219200002,2.4608006192,0.3889067899999999,0.6051196999999999,-3.63096638,,,
imu,54.593288,0.3672658192000001,-9.6499991224,2.4637913832,0.4711528,0.64250425,-3.70573548,,,
imu,54.602102,0.3636769024000001,-9.648802816800002,2.473959980800001,0.40386061,0.6350273399999997,-3.84779677,,,
imu,54.610917,0.3487230824000001,-9.659569567200002,2.4841285784,0.45619898,0.6051196999999999,-4.034719519999999,,,
imu,54.619731,0.3295821928000001,-9.6296619272,2.464389536000001,0.43376825,0.7322271699999998,-4.102011709999999,,,
imu,54.628545,0.3367600264,-9.600352440000002,2.4655858416,0.3889067899999999,0.9191499199999997,-4.06462716,,,
imu,54.637359,0.3224043592,-9.597959828800002,2.4655858416,0.44872207,1.16588795,-4.079580979999999,,,
imu,54.646174,0.3379563320000001,-9.588987536800001,2.4512301744,0.44124516,1.33037997,-4.06462716,,,
imu,54.654988,0.3355637208,-9.5668558832,2.4530246328,0.38142988,1.42010289,-3.99733497,,,
imu,54.663802,0.3385544848000001,-9.561472508000001,2.4518283272,0.27675314,1.39767216,-4.079580979999999,,,
imu,54.672616,0.3517138464,-9.554892827200002,2.4512301744,0.45619898,1.45001053,-4.102011709999999,,,
imu,54.681431,0.3666676664,-9.583604161600002,2.4530246328,0.50853735,1.49487199,-3.8702275,,,
imu,54.690245,0.3714528888,-9.600352440000002,2.4458467992,0.3889067899999999,1.49487199,-3.84031986,,,
imu,54.699059,0.3834159448,-9.610521037600002,2.4512301744,0.6132140899999999,1.62945637,-3.82536604,,,
imu,54.707874,0.3947808480000001,-9.635045302400002,2.4536227856,0.64312173,1.51730272,-3.8702275,,,
imu,54.716688,0.4019586816,-9.655980650400002,2.4512301744,0.6132140899999999,1.48739508,-4.00481188,,,
imu,54.725502,0.4085383624000001,-9.669738164800002,2.4590061608,0.6132140899999999,1.36028761,-4.33379592,,,
imu,54.734316,0.3989679176000001,-9.686486443200002,2.4817359672,0.56087572,1.15841104,-4.67773378,,,
imu,54.742795,0.3756399584,-9.678710456800001,2.4805396616,0.41133752,1.07616503,-4.8422258,,,
imu,54.751274,0.3493212352000001,-9.672728928800002,2.4829322728,0.3889067899999999,0.9789651999999998,-4.83474889,,,
imu,54.759753,0.3271895816000001,-9.6703363176,2.4769507448,0.11226112,0.8518577299999999,-4.9169949,,,
imu,54.768232,0.3164228312,-9.651793580800001,2.4721655224,-0.01484635000000001,0.86681155,-4.90204108,,,
imu,54.77671,0.31403022,-9.617698871200002,2.4631932304,-0.24663056,1.00139593,-4.70016451,,,
imu,54.785189,0.3068523864000001,-9.580613397600002,2.45242648,-0.29149202,1.15841104,-4.47585721,,,
imu,54.793668,0.3038616224,-9.545322382400002,2.454819091200001,-0.3513073,1.19579559,-4.29641137,,,
imu,54.802147,0.3170209840000001,-9.534555632000002,2.450632021600001,-0.32887657,1.2032725,-4.19173463,,,
imu,54.810626,0.3122357616,-9.535153784800002,2.4566135496,-0.45598404,1.30794924,-3.95247351,,,
imu,54.819104,0.3134320672,-9.543527924000001,2.4679784528,-0.23915365,1.39767216,-3.7954584,,,
imu,54.827583,0.3445360128,-9.572837411200002,2.4727636752,-0.2017691,1.3528107,-3.81788913,,,
imu,54.836062,0.3481249296000001,-9.6039413568,2.483530425600001,-0.08213854000000001,1.3528107,-3.75059694,,,
imu,54.844541,0.3481249296000001,-9.61530626,2.500278704,-0.02980017,1.30794924,-3.69825857,,,
imu,54.85302,0.3445360128,-9.651195428000001,2.512839912800001,-0.06718472,1.22570323,-3.69078166,,,
imu,54.861498,0.3427415544,-9.658373261600001,2.52719558,-0.02980017,1.31542615,-3.78050458,,,
imu,54.869977,0.3403489432000001,-9.652989886400002,2.5259992744,-0.19429219,1.19579559,-3.87770441,,,
imu,54.878456,0.3511156936,-9.637437913600001,2.5379623304,-0.26906129,1.21822632,-3.81041222,,,
imu,54.886935,0.3253951232,-9.623082246400001,2.5337752608,-0.20924601,1.08364194,-3.92256587,,,
imu,54.895414,0.3247969704000001,-9.589585689600002,2.5289900384,-0.08961545,1.17336486,-3.9449966,,,
imu,54.903892,0.3283858872000001,-9.557285438400001,2.518223288000001,0.007584380000000002,1.2780416,-4.012288789999999,,,
imu,54.912371,0.3301803456000001,-9.552500216,2.5146343712,-0.02980017,1.03130357,-4.07210407,,,
imu,54.92085,0.3361618736,-9.5184055064,2.504465773600001,0.03749201999999999,1.07616503,-4.00481188,,,
imu,54.929329,0.3355637208,-9.4962738528,2.497287940000001,0.08235347999999998,1.10607267,-3.90013514,,,
imu,54.937808,0.3427415544,-9.490292324800002,2.4978860928,0.3963837,1.11354958,-3.85527368,,,
imu,54.946271,0.3403489432000001,-9.505844297600001,2.4895119536,0.44124516,1.18084177,-3.73564312,,,
imu,54.954735,0.3379563320000001,-9.527377798400002,2.5074565376,0.51601426,1.23318014,-3.55619728,,,
imu,54.963198,0.3445360128,-9.574631869600001,2.5283918856,0.7253677399999999,1.15093413,-3.48890509,,,
imu,54.971662,0.3343674152,-9.605735815200001,2.5349715664,0.68050628,1.13598031,-3.47395127,,,
imu,54.980125,0.3403489432000001,-9.620689635200002,2.548130928,0.68050628,1.2032725,-3.53376655,,,
imu,54.988589,0.334965568,-9.6218859408,2.5535143032,0.53844499,1.15841104,-3.73564312,,,
imu,54.997052,0.3385544848000001,-9.6284656216,2.5612902896,0.42629134,1.2780416,-3.7954584,,,
imu,55.005516,0.3325729568,-9.638036066400002,2.5726551928,0.40386061,1.33037997,-3.8702275,,,
imu,55.013979,0.3493212352000001,-9.624278552000002,2.57205704,0.3889067899999999,1.36776452,-4.0197657,,,
imu,55.022443,0.3517138464,-9.611119190400002,2.5732533456,0.3216146,1.45748744,-4.079580979999999,,,
imu,55.030906,0.3564990688,-9.604539509600002,2.5732533456,0.16459949,1.53973345,-3.98238115,,,
imu,55.03937,0.3690602776000001,-9.593772759200002,2.5559069144,0.19450713,1.577118,-4.02724261,,,
imu,55.047834,0.3762381112000001,-9.576426328,2.5463364696,0.38142988,1.51730272,-3.98238115,,,
imu,55.056297,0.3882011672000001,-9.555490980000002,2.5337752608,0.6281679099999999,1.46496435,-3.66087402,,,
imu,55.064761,0.3816214864,-9.551902063200002,2.5080546904,0.9048135799999999,1.40514907,-3.60853565,,,
imu,55.073224,0.3810233336,-9.5219944232,2.488315648,1.34595127,1.45748744,-3.43656672,,,
imu,55.081688,0.3893974728000001,-9.513022131200001,2.470371064,1.5926893,1.47991817,-3.35432071,,,
imu,55.090151,0.3941826952,-9.513620284000002,2.454819091200001,1.77961205,1.50982581,-3.28702852,,,
imu,54.01562,,,,,,,92.78691640000001,-21.77157160000001,119.2948768
imu,54.117183,,,,,,,90.44313399999999,-20.97810360000001,121.0405064
imu,54.218776,,,,,,,92.3474572,-21.66170680000001,119.123976
imu,54.320308,,,,,,,90.1745756,-21.02693240000002,121.7119024
imu,55.098615,0.3852104032000001,-9.537546396000002,2.4619969248,2.09364227,1.44253362,-3.26459779,,,
imu,55.107078,0.3714528888,-9.557285438400001,2.4566135496,2.19831901,1.41262598,-3.23469015,,,
imu,55.115542,0.3780325696000001,-9.5656595776,2.4631932304,2.28056502,1.39767216,-3.41413599,,,
imu,55.124005,0.376836264,-9.5985579816,2.4769507448,2.42262631,1.577118,-3.30945925,,,
imu,55.132469,0.376836264,-9.633250844,2.469772911200001,2.02635008,1.47991817,-3.51881273,,,
imu,55.140933,0.3642750552,-9.6499991224,2.471567369600001,1.79456587,1.39019525,-3.81041222,,,
imu,55.149397,0.3630787496,-9.6643547896,2.4679784528,1.76465823,1.46496435,-3.84031986,,,
imu,55.157862,0.3600879856,-9.668541859200001,2.461398772,1.6674584,1.63693328,-3.86275059,,,
imu,55.166327,0.3624805968,-9.662560331200002,2.4667821472,1.42072037,1.62945637,-3.95995042,,,
imu,55.174792,0.3564990688,-9.6535880392,2.462595077600001,1.09173633,1.71917929,-4.057150249999999,,,
imu,55.183257,0.3732473472,-9.632054538400002,2.462595077600001,0.80761375,1.77899457,-4.16182699,,,
imu,55.191721,0.3905937784,-9.631456385600002,2.4679784528,0.50853735,1.54721036,-4.26650373,,,
imu,55.200186,0.3774344168000001,-9.627867468800002,2.4596043136,0.3739529699999999,1.49487199,-4.40108811,,,
imu,55.208651,0.3744436528,-9.6218859408,2.461398772,0.14964567,1.42010289,-4.46090339,,,
imu,55.217116,0.3810233336,-9.6260730104,2.4745581336,0.05992275,1.17336486,-4.647826139999999,,,
imu,55.225581,0.385808556,-9.647606511200001,2.4907082592,0.02253820000000001,1.12102649,-4.55810322,,,
imu,55.234045,0.3672658192000001,-9.644615747200001,2.5014750096,-0.08961545,0.9640113799999996,-4.49828794,,,
imu,55.24251,0.3487230824000001,-9.620091482400001,2.4984842456,-0.05970781,0.7471809899999999,-4.17678081,,,
imu,55.250975,0.3415452488,-9.633250844,2.52719558,0.03001510999999998,0.7322271699999998,-3.83284295,,,
imu,55.25944,0.3194135952000001,-9.6643547896,2.5337752608,-0.13447691,0.6574580699999997,-3.78798149,,,
imu,55.267905,0.311039456,-9.6523917336,2.5397567888,-0.21672292,0.5901658799999998,-3.69825857,,,
imu,55.27637,0.3014690112,-9.618895176800002,2.5547106088,-0.34383039,0.7546578999999998,-3.53376655,,,
imu,55.284834,0.2948893304,-9.6015487456,2.57205704,-0.31392275,0.94905756,-3.40665908,,,
imu,55.293299,0.290104108,-9.610521037600002,2.5612902896,-0.33635348,1.06868812,-3.2720747,,,
imu,55.301764,0.2954874832,-9.599156134400001,2.563084748,-0.41859949,1.09111885,-3.23469015,,,
imu,55.310229,0.2907022608000001,-9.569248494400002,2.557103220000001,-0.38869185,1.24065705,-3.3468438,,,
imu,55.318694,0.2924967192,-9.524387034400002,2.529588191200001,-0.08961545,1.58459491,-3.30945925,,,
imu,55.327158,0.3218062064,-9.512423978400001,2.5200177464,0.10478421,1.90610204,-3.4216129,,,
imu,55.335623,0.3331711096,-9.501657228000001,2.512839912800001,0.35152224,2.27247063,-3.43656672,,,
imu,55.344088,0.3564990688,-9.498666464000001,2.5026713152,0.65807555,2.36967046,-3.62348947,,,
imu,55.352552,0.3762381112000001,-9.524387034400002,2.5056620792,0.88985976,2.53416248,-3.76555076,,,
imu,55.361015,0.3947808480000001,-9.5423316184,2.5020731624,1.19641307,2.43696265,-3.78050458,,,
imu,55.36942,0.4115291264,-9.573435564,2.5008768568,1.33847436,2.5491163,-3.88518132,,,
imu,55.377884,0.4163143488000001,-9.604539509600002,2.5050639264,1.46558183,2.49677793,-3.85527368,,,
imu,55.386347,0.4294737104000001,-9.6224840936,2.494895328800001,1.4431511,2.26499372,-4.02724261,,,
imu,55.394811,0.4193051128000001,-9.639830524800002,2.508652843200001,1.31604363,1.93600968,-4.057150249999999,,,
imu,55.403274,0.4103328208,-9.657176956,2.5176251352,1.06182869,1.90610204,-4.07210407,,,
imu,55.411738,0.406743904,-9.66016772,2.518223288000001,0.82256757,1.59207182,-4.034719519999999,,,
imu,55.420201,0.3905937784,-9.646410205600002,2.52719558,0.4711528,1.48739508,-4.0197657,,,
imu,55.428665,0.3774344168000001,-9.644017594400001,2.5265974272,0.35152224,1.33785688,-3.81788913,,,
imu,55.437129,0.3564990688,-9.6260730104,2.5218122048,0.19450713,1.41262598,-3.61601256,,,
imu,55.445592,0.3361618736,-9.602146898400001,2.512839912800001,-0.127,1.39019525,-3.66835093,,,
imu,55.454056,0.3218062064,-9.596165370400001,2.521214052,-0.33635348,1.21822632,-3.63096638,,,
imu,55.462519,0.3038616224,-9.5877912312,2.5146343712,-0.32139966,1.36776452,-3.5711511,,,
imu,55.470983,0.3014690112,-9.568650341600001,2.5164288296,-0.18681528,1.48739508,-3.53376655,,,
imu,55.479446,0.3086468448,-9.557883591200001,2.522410357600001,-0.16438455,1.64441019,-3.35432071,,,
imu,55.48791,0.3080486920000001,-9.558481744000002,2.5188214408,-0.11952309,1.79394839,-3.24964397,,,
imu,55.496373,0.3134320672,-9.569248494400002,2.512839912800001,0.06739966,1.78647148,-3.17487487,,,
imu,55.504837,0.3194135952000001,-9.584800467200001,2.518223288000001,0.08983038999999998,1.79394839,-3.1973056,,,
imu,55.5133,0.3301803456000001,-9.584800467200001,2.529588191200001,0.22441477,2.04816333,-3.10010577,,,
imu,55.521764,0.3367600264,-9.593174606400002,2.5307844968,0.30666078,2.15284007,-3.09262886,,,
imu,55.530227,0.3576953744,-9.596763523200002,2.531980802400001,0.35899915,2.13040934,-3.28702852,,,
imu,55.538691,0.3553027632,-9.596165370400001,2.5158306768,0.56835263,2.19022462,-3.1973056,,,
imu,55.547155,0.3696584304000001,-9.6117173432,2.5134380656,0.67302937,2.18274771,-3.09262886,,,
imu,55.556033,0.3690602776000001,-9.597959828800002,2.5200177464,0.53096808,2.24256299,-3.11505959,,,
imu,55.564911,0.3666676664,-9.6075302736,2.524204816,0.50853735,2.13788625,-3.15244414,,,
imu,55.573788,0.3720510416,-9.612315496,2.5008768568,0.65059864,2.16031698,-2.98047521,,,
imu,55.582666,0.3624805968,-9.593772759200002,2.504465773600001,0.5982602699999999,2.22760917,-2.96552139,,,
imu,55.591544,0.3487230824000001,-9.6009505928,2.5080546904,0.41133752,2.18274771,-2.98047521,,,
imu,55.600422,0.3469286240000001,-9.6087265792,2.4996805512,0.50853735,2.37714737,-2.93561375,,,
imu,55.6093,0.3654713608,-9.608128426400002,2.5080546904,0.6132140899999999,2.44443956,-2.81598319,,,
imu,55.618178,0.3720510416,-9.616502565600001,2.506260232,0.2468455,2.41453192,-3.01038285,,,
imu,55.627056,0.3660695136000001,-9.635643455200002,2.5289900384,0.19450713,2.49677793,-3.10010577,,,
imu,55.635934,0.3570972216000001,-9.685888290400001,2.545140164,-0.09709236,2.6238854,-3.00290594,,,
imu,55.644812,0.3792288752000001,-9.659569567200002,2.5421494,-0.36626112,2.78090051,-3.00290594,,,
imu,55.65369,0.3762381112000001,-9.639830524800002,2.5493272336,-0.58309151,2.70613141,-2.98047521,,,
imu,55.662568,0.3911919312,-9.624278552000002,2.551121692,-0.6503837,2.65379304,-2.84589083,,,
imu,55.671446,0.4073420568000001,-9.6159044128,2.5421494,-0.49336859,2.78090051,-2.6739219,,,
imu,55.680324,0.4240903352000001,-9.577024480800002,2.52719558,-0.5980453299999999,2.72108523,-2.80102937,,,
imu,55.689202,0.4288755576000001,-9.546518688,2.5283918856,-0.44850713,2.52668557,-2.93561375,,,
imu,55.69808,0.4432312248,-9.530368562400001,2.5176251352,-0.19429219,2.42948574,-2.94309066,,,
imu,55.706958,0.4372496968000001,-9.523190728800001,2.5200177464,-0.23915365,2.36219355,-3.04029049,,,
imu,55.715836,0.4378478496000001,-9.531564868,2.5164288296,-0.127,2.33976282,-2.92065993,,,
imu,55.724714,0.4276792520000001,-9.530966715200002,2.504465773600001,0.05244583999999999,2.16031698,-2.98795212,,,
imu,55.733592,0.4264829464000001,-9.532163020800002,2.4996805512,0.1720764,2.25751681,-3.01785976,,,
imu,55.74247,0.4378478496000001,-9.547714993600001,2.4984842456,0.31413769,2.36967046,-2.93561375,,,
imu,55.751348,0.4414367664,-9.551303910400001,2.5008768568,0.45619898,2.37714737,-2.69635263,,,
imu,55.759829,0.4528016696000001,-9.562070660800002,2.5008768568,0.38142988,2.31733209,-2.80850628,,,
imu,55.76831,0.4629702672000001,-9.5668558832,2.500278704,0.28423005,2.1752708,-2.96552139,,,
imu,55.776792,0.4773259344000001,-9.587193078400002,2.5080546904,0.25432241,2.14536316,-2.98047521,,,
imu,55.785273,0.4707462536000001,-9.596165370400001,2.5050639264,0.2468455,2.2500399,-2.94309066,,,
imu,55.793754,0.4731388648000001,-9.6009505928,2.515232524,0.21693786,2.14536316,-3.09262886,,,
imu,55.802236,0.4743351704000001,-9.61530626,2.5134380656,0.02253820000000001,2.0257326,-3.17487487,,,
imu,55.810717,0.4767277816000001,-9.6428212888,2.5236066632,0.007584380000000002,1.98087114,-3.1973056,,,
imu,55.819198,0.46356842,-9.657176956,2.5313826496,-0.127,1.99582496,-3.21973633,,,
imu,55.82768,0.4623721144,-9.639232372,2.5307844968,-0.4260764,1.8761944,-3.44404363,,,
imu,55.836161,0.4557924336,-9.6494009696,2.5397567888,-0.4260764,1.74161002,-3.45899745,,,
imu,55.844642,0.4611758088,-9.662560331200002,2.5535143032,-0.44850713,1.64441019,-3.59358183,,,
imu,55.853124,0.4581850448000001,-9.612315496,2.560093984,-0.53823005,1.577118,-3.62348947,,,
imu,55.861605,0.4528016696000001,-9.596165370400001,2.564879206400001,-0.74758353,1.45748744,-3.69078166,,,
imu,55.870087,0.4462219888000001,-9.617698871200002,2.5774404152,-0.92702937,1.4275798,-3.80293531,,,
imu,55.878568,0.4372496968000001,-9.6039413568,2.5911979296,-0.92702937,1.30794924,-3.78050458,,,
imu,55.887049,0.4384460024000001,-9.575828175200002,2.6001702216,-1.0242292,1.2780416,-3.66835093,,,
imu,55.895531,0.4175106544000001,-9.583604161600002,2.5983757632,-1.15881358,1.10607267,-3.93751969,,,
imu,55.904012,0.4282774048000001,-9.591978300800001,2.5923942352,-1.09152139,1.02382666,-3.93004278,,,
imu,55.912493,0.4049494456000001,-9.590183842400002,2.607946208,-1.00927538,1.28551851,-3.58610492,,,
imu,54.421931,,,,,,,89.89381,-21.246662,120.5155968
imu,54.523433,,,,,,,90.0036748,-21.03913960000001,121.5532088
imu,54.625148,,,,,,,89.61304439999999,-20.86823880000001,121.0527136
imu,54.726558,,,,,,,89.62525160000001,-20.6240948,120.9672632
imu,54.828151,,,,,,,89.8693956,-20.51423000000001,121.0893352
imu,54.929713,,,,,,,89.6984948,-20.47760840000002,120.7963624
imu,55.031276,,,,,,,91.9934484,-21.58846360000002,119.2826696
imu,55.132838,,,,,,,89.55200839999999,-20.5264372,121.1747856
imu,55.920975,0.4216977240000001,-9.5668558832,2.628881556000001,-1.11395212,1.43505671,-3.4216129,,,
imu,55.929456,0.4163143488000001,-9.541733465600002,2.6193111112,-1.06161375,1.45748744,-3.54872037,,,
imu,55.937937,0.4252866408000001,-9.553098368800002,2.613329583200001,-0.89712173,1.55468727,-3.496382,,,
imu,55.946419,0.4414367664,-9.556089132800002,2.6252926392,-0.9793677399999999,1.64441019,-3.47395127,,,
imu,55.9549,0.4486146000000001,-9.5172092008,2.6402464592,-0.9494601,1.68179474,-3.54872037,,,
imu,55.963301,0.439642308,-9.478927421600002,2.6366575424,-0.63542988,1.97339423,-3.51881273,,,
imu,55.971702,0.4563905864000001,-9.478329268800001,2.6336667784,-0.44850713,2.00330187,-3.50385891,,,
imu,55.980104,0.4593813504000001,-9.4962738528,2.6360593896,-0.20924601,2.04816333,-3.53376655,,,
imu,55.988505,0.4749333232000001,-9.51062952,2.641442764800001,-0.24663056,1.98087114,-3.65339711,,,
imu,55.996906,0.4713444064,-9.489096019200002,2.6540039736,-0.14943073,1.89862513,-4.034719519999999,,,
imu,56.005307,0.4767277816000001,-9.477132963200003,2.6605836544,0.03001510999999998,1.86871749,-4.17678081,,,
imu,56.013709,0.4791203928000001,-9.481320032800001,2.6504150568,0.23936859,1.95844041,-4.06462716,,,
imu,56.02211,0.4928779072000001,-9.492684936000002,2.6534058208,0.44872207,2.01825569,-4.18425772,,,
imu,56.030511,0.4958686712000001,-9.486703408,2.6641725712,0.64312173,2.07807097,-4.11696553,,,
imu,56.038912,0.4982612824000001,-9.478329268800001,2.6743411688,0.7702292,1.89862513,-4.26650373,,,
imu,56.047314,0.5120187968000001,-9.477731116000001,2.659387348800001,0.9571519499999999,1.82385603,-4.124442439999999,,,
imu,56.055715,0.5191966304000001,-9.4980683112,2.6665651824,1.09173633,1.51730272,-4.23659609,,,
imu,56.064116,0.5066354216000001,-9.523190728800001,2.6629762656,1.34595127,1.30794924,-4.33379592,,,
imu,56.072517,0.4958686712000001,-9.5249851872,2.6611818072,1.58521239,1.09111885,-4.55062631,,,
imu,56.080918,0.4910834488,-9.520798117600002,2.6486205984,1.67493531,0.9041961000000001,-4.58053395,,,
imu,56.08932,0.4821111568000001,-9.533359326400001,2.6372556952,1.72727368,0.6724118899999998,-4.48333412,,,
imu,56.097721,0.4617739616000001,-9.566257730400002,2.6282834032,1.92167334,0.6499811599999998,-4.42351884,,,
imu,56.106122,0.4444275304,-9.591978300800001,2.6252926392,1.97401171,0.4929660499999997,-4.453426479999999,,,
imu,56.114523,0.4270810992000001,-9.5907819952,2.620507416800001,2.13102682,0.4256738599999998,-4.43847266,,,
imu,56.122925,0.4240903352000001,-9.593772759200002,2.613329583200001,2.14598064,0.56025824,-4.42351884,,,
imu,56.131326,0.4091365152000001,-9.5985579816,2.613927736,1.97401171,0.6275504299999999,-4.52071867,,,
imu,56.139727,0.4085383624000001,-9.6015487456,2.603759138400001,1.86933497,0.4854891399999999,-4.6179185,,,
imu,56.148128,0.3893974728000001,-9.6117173432,2.6073480552,1.84690424,0.66493498,-4.47585721,,,
imu,56.15653,0.3899956256000001,-9.616502565600001,2.6085443608,1.6674584,0.7770886299999997,-4.47585721,,,
imu,56.164992,0.3726491944000001,-9.596165370400001,2.5923942352,1.5179202,0.6873657099999999,-4.5431494,,,
imu,56.173454,0.3762381112000001,-9.574631869600001,2.5768422624,1.51044329,0.9116730099999999,-4.25154991,,,
imu,56.181916,0.3744436528,-9.5602762024,2.5774404152,1.40576655,0.9640113799999996,-4.27398064,,,
imu,56.190379,0.3702565832000001,-9.575828175200002,2.5738514984,1.42819728,0.9565344699999998,-4.37865738,,,
imu,56.198841,0.3774344168000001,-9.5740337168,2.5792348736,1.39828964,1.06868812,-4.29641137,,,
imu,56.207303,0.376836264,-9.5656595776,2.578038568,1.36090509,1.13598031,-4.25902682,,,
imu,56.215765,0.3738455000000001,-9.579417092000002,2.5905997768,1.31604363,1.26308778,-4.22164227,,,
imu,56.224228,0.3756399584,-9.6039413568,2.5923942352,1.1440747,1.31542615,-4.28893446,,,
imu,56.23269,0.382817792,-9.594370912,2.587609012800001,1.06182869,1.34533379,-4.20668845,,,
imu,56.241152,0.3816214864,-9.581809703200001,2.5828237904,1.20388998,1.43505671,-4.06462716,,,
imu,56.249615,0.3977716120000001,-9.591978300800001,2.5846182488,1.08425942,1.31542615,-3.96742733,,,
imu,56.258077,0.4079402096,-9.5842023144,2.57205704,1.17398234,1.48739508,-3.78798149,,,
imu,56.266539,0.4145198904,-9.569248494400002,2.563084748,1.25622835,1.4275798,-3.66835093,,,
imu,56.275001,0.4193051128000001,-9.5566872856,2.5337752608,1.51044329,1.53225654,-3.56367419,,,
imu,56.283464,0.4234921824,-9.558481744000002,2.543345705600001,1.55530475,1.54721036,-3.60853565,,,
imu,56.291926,0.4408386136,-9.5812115504,2.548729080800001,1.60016621,1.5023489,-3.61601256,,,
imu,56.300388,0.4480164472000001,-9.6009505928,2.551121692,1.52539711,1.51730272,-3.61601256,,,
imu,56.30885,0.4474182944000001,-9.605735815200001,2.543345705600001,1.41324346,1.42010289,-3.82536604,,,
imu,56.317313,0.4450256832000001,-9.610521037600002,2.5505235392,1.63755076,1.49487199,-3.73564312,,,
imu,56.325775,0.4456238360000001,-9.633250844,2.5565050672,1.42819728,1.39019525,-3.75059694,,,
imu,56.334237,0.454596128,-9.6326526912,2.5373641776,1.10669015,1.56964109,-3.80293531,,,
imu,56.3427,0.4575868920000001,-9.605735815200001,2.5343734136,1.06182869,1.59954873,-3.84779677,,,
imu,56.351162,0.4551942808000001,-9.6015487456,2.536167872,0.65059864,1.38271834,-4.04967334,,,
imu,56.359624,0.4701481008,-9.616502565600001,2.5439438584,0.6132140899999999,1.54721036,-4.034719519999999,,,
imu,56.368088,0.4707462536000001,-9.609922884800001,2.5463364696,0.56835263,1.51730272,-4.079580979999999,,,
imu,56.376551,0.4677554896000001,-9.605735815200001,2.554112456,0.58330645,1.36776452,-4.102011709999999,,,
imu,56.385015,0.4593813504000001,-9.603343204000002,2.555308761600001,0.41881443,1.15093413,-4.27398064,,,
imu,56.393478,0.46356842,-9.5812115504,2.557103220000001,0.35899915,0.8369039099999998,-4.4683803,,,
imu,56.401942,0.4432312248,-9.5842023144,2.5606921368,0.29918387,0.7995193599999997,-4.408565019999999,,,
imu,56.410405,0.43366078,-9.578818939200001,2.5714588872,0.1720764,0.6798887999999996,-4.430995749999999,,,
imu,56.418869,0.4240903352000001,-9.579417092000002,2.5714588872,0.18703022,0.6051196999999999,-4.43847266,,,
imu,56.427332,0.4210995712,-9.578220786400001,2.5738514984,0.33656842,0.76213481,-4.27398064,,,
imu,56.435796,0.4001642232,-9.544126076800001,2.5828237904,0.35152224,0.6798887999999996,-4.11696553,,,
imu,56.444259,0.400762376,-9.537546396000002,2.5822256376,0.23189168,0.7397040799999997,-4.124442439999999,,,
imu,56.452723,0.385808556,-9.565061424800001,2.5941886936,0.25432241,0.8144731799999998,-4.079580979999999,,,
imu,56.461087,0.3947808480000001,-9.592576453600001,2.6031609856,0.32909151,0.9415806499999997,-3.9449966,,,
imu,56.46955,0.3905937784,-9.588987536800001,2.6103388192,0.3889067899999999,0.92662683,-3.9449966,,,
imu,56.478014,0.3947808480000001,-9.572837411200002,2.6193111112,0.42629134,0.8817653699999997,-3.98985806,,,
imu,56.486477,0.4043512928,-9.583604161600002,2.6306760144,0.3963837,0.7770886299999997,-3.96742733,,,
imu,56.494941,0.385808556,-9.592576453600001,2.6157221944,0.30666078,0.7172733499999997,-4.057150249999999,,,
imu,56.503404,0.376836264,-9.597959828800002,2.613329583200001,0.35899915,0.80699627,-3.90761205,,,
imu,56.511868,0.3750418056000001,-9.575828175200002,2.6121332776,0.43376825,0.92662683,-3.7954584,,,
imu,56.520331,0.3852104032000001,-9.5704448,2.6187129584,0.50853735,1.19579559,-3.75807385,,,
imu,56.528795,0.382817792,-9.591380148,2.619909264,0.40386061,1.23318014,-3.81041222,,,
imu,56.537259,0.3905937784,-9.5865949256,2.613927736,0.42629134,1.38271834,-3.7954584,,,
imu,56.545722,0.3941826952,-9.552500216,2.613329583200001,0.5459219,1.47991817,-3.80293531,,,
imu,56.554186,0.4073420568000001,-9.527975951200002,2.607946208,0.41881443,1.52477963,-3.95247351,,,
imu,56.562649,0.415716196,-9.519003659200001,2.6001702216,0.59078336,1.55468727,-4.04219643,,,
imu,56.571467,0.4234921824,-9.522592576000001,2.5923942352,0.88985976,1.64441019,-4.11696553,,,
imu,56.580286,0.4234921824,-9.517807353600002,2.576244109600001,0.88985976,1.59954873,-4.430995749999999,,,
imu,56.589104,0.4282774048000001,-9.505246144800001,2.5798330264,1.2188438,1.62197946,-4.408565019999999,,,
imu,56.597922,0.4360533912000001,-9.520798117600002,2.5792348736,1.43567419,1.32290306,-4.453426479999999,,,
imu,56.60674,0.43366078,-9.5393408544,2.5774404152,1.39081273,1.30794924,-4.4683803,,,
imu,56.615559,0.4402404608,-9.554892827200002,2.583421943200001,1.63007385,1.2780416,-4.35622665,,,
imu,56.624377,0.4187069600000001,-9.568650341600001,2.580431179200001,1.60764312,0.98644211,-4.23659609,,,
imu,56.633195,0.4013605288,-9.576426328,2.5702625816,1.61512003,0.7172733499999997,-4.28893446,,,
imu,56.642013,0.3983697648000001,-9.5842023144,2.5636829008,1.46558183,0.80699627,-4.22911918,,,
imu,56.650832,0.3941826952,-9.591978300800001,2.57205704,1.49548947,0.9640113799999996,-4.079580979999999,,,
imu,56.65965,0.3834159448,-9.600352440000002,2.566075512,1.46558183,1.01634975,-3.93751969,,,
imu,56.668468,0.3762381112000001,-9.605735815200001,2.562486595200001,1.32352054,1.03878048,-3.82536604,,,
imu,56.677286,0.3738455000000001,-9.619493329600001,2.5606921368,1.30856672,1.09859576,-3.85527368,,,
imu,56.686105,0.3696584304000001,-9.616502565600001,2.5678699704,1.25622835,1.21822632,-3.88518132,,,
imu,56.694923,0.3606861384,-9.623680399200001,2.5714588872,1.15902852,1.36028761,-3.95995042,,,
imu,56.703741,0.3553027632,-9.619493329600001,2.5702625816,0.8674290299999999,1.40514907,-4.11696553,,,
imu,56.712559,0.3648732080000001,-9.606333968000001,2.5732533456,0.7104139199999999,1.59207182,-4.22911918,,,
imu,56.721378,0.3726491944000001,-9.589585689600002,2.5744496512,0.65059864,1.65936401,-4.25902682,,,
imu,56.730196,0.3786307224000001,-9.584800467200001,2.5582995256,0.59078336,1.75656384,-4.25902682,,,
imu,55.234263,,,,,,,92.32304280000001,-21.35652680000002,118.7699672
imu,55.335948,,,,,,,89.99146760000001,-20.73395960000002,120.7963624
imu,55.437419,,,,,,,89.6618732,-20.92927480000002,119.5390208
imu,55.538981,,,,,,,89.649666,-20.68513080000001,121.0282992
imu,55.640544,,,,,,,89.50317960000001,-20.27008600000002,120.6742904
imu,55.742076,,,,,,,89.771738,-20.2945004,120.5522184
imu,55.843791,,,,,,,89.4787652,-20.69733800000002,120.4179392
imu,55.945201,,,,,,,89.96705320000001,-20.33112200000002,120.1127592
imu,56.739014,0.3911919312,-9.578220786400001,2.557103220000001,0.65059864,1.89114822,-4.28145755,,,
imu,56.747832,0.3953790008,-9.588389384000001,2.5726551928,0.6954601,1.85376367,-4.318842099999999,,,
imu,56.756651,0.3959771536000001,-9.610521037600002,2.5846182488,0.5010604399999999,1.98087114,-4.37118047,,,
imu,56.765469,0.391790084,-9.590183842400002,2.581029332,0.4861066199999999,1.96591732,-4.26650373,,,
imu,56.773949,0.3971734592000001,-9.5740337168,2.5774404152,0.63564482,1.86871749,-4.244073,,,
imu,56.782429,0.4001642232,-9.5638651192,2.5744496512,0.52349117,1.81637912,-4.11696553,,,
imu,56.790909,0.4097346680000001,-9.5812115504,2.578636720800001,0.56087572,1.79394839,-4.034719519999999,,,
imu,56.799389,0.4163143488000001,-9.578220786400001,2.58701086,0.66555246,1.55468727,-3.92256587,,,
imu,56.807869,0.4199032656,-9.5632669664,2.581029332,0.60573718,1.51730272,-3.97490424,,,
imu,56.816349,0.4151180432000001,-9.575828175200002,2.595983152,0.56087572,1.39767216,-3.93751969,,,
imu,56.824829,0.4103328208,-9.593174606400002,2.6025628328,0.53096808,1.28551851,-3.83284295,,,
imu,56.83331,0.4049494456000001,-9.6075302736,2.601366527200001,0.5010604399999999,1.1285034,-3.89265823,,,
imu,56.84179,0.3941826952,-9.594370912,2.5983757632,0.50853735,1.03878048,-3.97490424,,,
imu,56.85027,0.3983697648000001,-9.610521037600002,2.599572068800001,0.36647606,1.14345722,-3.75807385,,,
imu,56.85875,0.3983697648000001,-9.632054538400002,2.606749902400001,0.3739529699999999,1.26308778,-3.496382,,,
imu,56.86723,0.3905937784,-9.6218859408,2.5911979296,0.26927623,1.15093413,-3.44404363,,,
imu,56.87571,0.3971734592000001,-9.585398620000001,2.5941886936,0.22441477,1.21822632,-3.41413599,,,
imu,56.88419,0.4031549872,-9.5740337168,2.5732533456,0.31413769,1.06868812,-3.54872037,,,
imu,56.89267,0.4031549872,-9.551303910400001,2.578038568,0.33656842,1.2780416,-3.73564312,,,
imu,56.90115,0.3989679176000001,-9.5237888816,2.5696644288,0.51601426,1.36776452,-3.80293531,,,
imu,56.90963,0.400762376,-9.5148165896,2.5636829008,0.6954601,1.21822632,-3.86275059,,,
imu,56.91811,0.3929863896,-9.514218436800002,2.569066276,0.78518302,1.42010289,-3.95247351,,,
imu,56.92659,0.3995660704000001,-9.5172092008,2.569066276,0.81509066,1.44253362,-4.00481188,,,
imu,56.93507,0.4061457512000001,-9.509433214400001,2.5756459568,0.9272443100000001,1.62945637,-3.97490424,,,
imu,56.94355,0.4228940296000001,-9.531564868,2.57205704,1.17398234,1.66684092,-4.0197657,,,
imu,56.952031,0.4193051128000001,-9.552500216,2.5905997768,1.27865908,1.68179474,-4.0945348,,,
imu,56.960511,0.4163143488000001,-9.538742701600002,2.588207165600001,1.22632071,1.75656384,-4.13939626,,,
imu,56.968991,0.4258847936,-9.5423316184,2.5905997768,1.2936129,1.74161002,-4.16182699,,,
imu,56.97745,0.4312681688,-9.565061424800001,2.587609012800001,1.24127453,1.71917929,-4.18425772,,,
imu,56.98591,0.4348570856000001,-9.5602762024,2.5726551928,1.35342818,1.60702564,-4.32631901,,,
imu,56.99437,0.4450256832000001,-9.566257730400002,2.57205704,1.39828964,1.64441019,-4.46090339,,,
imu,57.00283,0.4486146000000001,-9.578220786400001,2.5828237904,1.45810492,1.56964109,-4.46090339,,,
imu,57.011289,0.4372496968000001,-9.588987536800001,2.578038568,1.51044329,1.30794924,-4.49828794,,,
imu,57.019749,0.439642308,-9.5842023144,2.5768422624,1.35342818,1.08364194,-4.670256869999999,,,
imu,57.028209,0.439642308,-9.592576453600001,2.581029332,1.38333582,0.94905756,-4.65530305,,,
imu,57.036669,0.4348570856000001,-9.614109954400002,2.57205704,1.42072037,0.8967191899999998,-4.4683803,,,
imu,57.045128,0.4228940296000001,-9.585996772800002,2.5738514984,1.27865908,0.7995193599999997,-4.49081103,,,
imu,57.053588,0.4151180432000001,-9.593174606400002,2.587609012800001,1.32352054,0.6948426199999997,-4.32631901,,,
imu,57.062048,0.3953790008,-9.617100718400001,2.587609012800001,1.05435178,0.6125966099999998,-4.386134289999999,,,
imu,57.070507,0.3941826952,-9.630260080000001,2.60196468,1.00949032,0.6125966099999998,-4.51324176,,,
imu,57.078967,0.3810233336,-9.630260080000001,2.5911979296,0.8749059399999999,0.4929660499999997,-4.55810322,,,
imu,57.087427,0.3666676664,-9.611119190400002,2.598973916,0.7702292,0.6125966099999998,-4.51324176,,,
imu,57.095887,0.3648732080000001,-9.612913648800001,2.5947868464,0.78518302,0.6350273399999997,-4.41604193,,,
imu,57.104346,0.3576953744,-9.599156134400001,2.588207165600001,0.7552753799999999,0.8219500899999996,-4.19173463,,,
imu,57.112806,0.3535083048,-9.587193078400002,2.584020096,0.66555246,0.8967191899999998,-4.29641137,,,
imu,57.121266,0.3493212352000001,-9.578818939200001,2.58701086,0.56835263,0.8892422799999999,-4.42351884,,,
imu,57.129726,0.3564990688,-9.5698466472,2.5888053184,0.56087572,0.8892422799999999,-4.47585721,,,
imu,57.138185,0.3553027632,-9.555490980000002,2.5798330264,0.8524752099999999,1.00887284,-4.5431494,,,
imu,57.146645,0.3582935272000001,-9.5489112992,2.5726551928,0.97958268,1.18831868,-4.46090339,,,
imu,57.155105,0.3714528888,-9.532163020800002,2.57205704,1.02444414,1.22570323,-4.453426479999999,,,
imu,57.163564,0.3726491944000001,-9.537546396000002,2.569066276,1.12164397,1.11354958,-4.41604193,,,
imu,57.172024,0.3696584304000001,-9.5357519376,2.575047804,1.09173633,1.02382666,-4.26650373,,,
imu,57.180795,0.3612842912,-9.5459205352,2.5618884424,1.27118217,0.9714882899999999,-4.28145755,,,
imu,57.189567,0.3511156936,-9.5566872856,2.562486595200001,1.40576655,1.03878048,-4.29641137,,,
imu,57.198338,0.3493212352000001,-9.5668558832,2.5702625816,1.25622835,0.9041961000000001,-4.22164227,,,
imu,57.207109,0.3481249296000001,-9.582407856000001,2.5636829008,1.368382,1.02382666,-4.057150249999999,,,
imu,57.21588,0.3433397072,-9.587193078400002,2.5672718176,1.41324346,1.14345722,-4.012288789999999,,,
imu,57.224652,0.3451341656,-9.604539509600002,2.562486595200001,1.38333582,1.13598031,-4.04219643,,,
imu,57.233423,0.3481249296000001,-9.6009505928,2.563084748,1.31604363,1.02382666,-3.98985806,,,
imu,57.242194,0.3421434016,-9.6117173432,2.555308761600001,1.33099745,1.1285034,-3.91508896,,,
imu,57.250966,0.3505175408000001,-9.6117173432,2.5517198448,1.21136689,1.26308778,-3.8702275,,,
imu,57.259737,0.3493212352000001,-9.633848996800001,2.548130928,1.01696723,1.30047233,-3.9449966,,,
imu,57.268508,0.3564990688,-9.641026830400001,2.5535143032,0.8375213899999999,1.27056469,-3.92256587,,,
imu,57.277279,0.3427415544,-9.642223136000002,2.5445420112,0.7403215599999999,1.25561087,-3.86275059,,,
imu,57.286051,0.3457323184,-9.644017594400001,2.5493272336,0.60573718,1.29299542,-3.96742733,,,
imu,57.294822,0.3636769024000001,-9.625474857600002,2.545140164,0.41133752,1.34533379,-3.82536604,,,
imu,57.303593,0.3487230824000001,-9.618895176800002,2.5636829008,0.28423005,1.29299542,-3.84779677,,,
imu,57.312364,0.3517138464,-9.6075302736,2.564879206400001,0.04496892999999999,1.2032725,-3.98238115,,,
imu,57.321136,0.3445360128,-9.590183842400002,2.5517198448,0.01506129,1.32290306,-3.96742733,,,
imu,57.329907,0.3373581792000001,-9.566257730400002,2.5517198448,0.08235347999999998,1.46496435,-3.95995042,,,
imu,57.338678,0.3325729568,-9.554294674400001,2.5636829008,0.08983038999999998,1.58459491,-3.78050458,,,
imu,57.347449,0.3295821928000001,-9.553696521600001,2.569066276,0.11226112,1.5023489,-3.7954584,,,
imu,57.356221,0.3331711096,-9.558481744000002,2.5768422624,0.29918387,1.66684092,-3.81041222,,,
imu,57.364992,0.3253951232,-9.575230022400001,2.57205704,0.44872207,1.76404075,-3.63096638,,,
imu,57.373763,0.34393786,-9.578220786400001,2.5816274848,0.51601426,1.68179474,-3.67582784,,,
imu,57.382534,0.3499193880000001,-9.571641105600001,2.578038568,0.4861066199999999,1.66684092,-3.63844329,,,
imu,57.39069,0.3493212352000001,-9.576426328,2.5738514984,0.71789083,1.88367131,-3.59358183,,,
imu,57.398846,0.3636769024000001,-9.579417092000002,2.5738514984,0.83004448,1.84628676,-3.55619728,,,
imu,57.407002,0.3684621248000001,-9.591978300800001,2.5798330264,0.7104139199999999,1.8014253,-3.5711511,,,
imu,57.415158,0.3786307224000001,-9.581809703200001,2.5816274848,0.80013684,1.83880985,-3.57862801,,,
imu,57.423314,0.3642750552,-9.592576453600001,2.5923942352,0.59078336,1.85376367,-3.69825857,,,
imu,57.431469,0.3582935272000001,-9.618297024,2.6001702216,0.47862971,1.83880985,-3.50385891,,,
imu,57.439625,0.367863972,-9.630858232800001,2.615124041600001,0.3216146,1.86124058,-3.54124346,,,
imu,57.447781,0.3762381112000001,-9.6051376624,2.622900028000001,0.12721494,1.78647148,-3.496382,,,
imu,57.455937,0.3852104032000001,-9.594370912,2.597179457600001,0.20946095,1.77151766,-3.43656672,,,
imu,57.464093,0.3804251808,-9.594370912,2.6001702216,0.1720764,1.70422547,-3.3468438,,,
imu,57.472248,0.3726491944000001,-9.581809703200001,2.595983152,0.20198404,1.7266562,-3.18982869,,,
imu,57.480404,0.3870048616000001,-9.571641105600001,2.5923942352,0.34404533,1.82385603,-3.07767504,,,
imu,57.48856,0.385808556,-9.545322382400002,2.5947868464,0.44872207,1.84628676,-3.24964397,,,
imu,57.496716,0.3870048616000001,-9.5423316184,2.6031609856,0.67302937,1.8761944,-3.18982869,,,
imu,57.504872,0.3959771536000001,-9.5393408544,2.606749902400001,0.59078336,1.89862513,-3.30945925,,,
imu,57.513028,0.4031549872,-9.526181492800001,2.613927736,0.58330645,1.86871749,-3.40665908,,,
imu,57.521183,0.4025568344,-9.517807353600002,2.606749902400001,0.7702292,1.88367131,-3.4216129,,,
imu,57.529339,0.3887993200000001,-9.527377798400002,2.615124041600001,0.8375213899999999,1.88367131,-3.58610492,,,
imu,57.537495,0.3876030144000001,-9.527377798400002,2.610936972000001,0.79265993,1.91357895,-3.67582784,,,
imu,57.545651,0.3953790008,-9.530966715200002,2.6085443608,0.82256757,1.93600968,-3.75807385,,,
imu,56.046733,,,,,,,90.08912520000001,-20.59968040000002,120.2348312
imu,56.148356,,,,,,,92.07889879999999,-21.7105356,118.3183008
imu,56.249888,,,,,,,89.75953080000001,-20.07477080000002,120.6864976
imu,56.351481,,,,,,,92.701466,-21.51522040000003,118.086364
imu,56.453013,,,,,,,90.0402964,-20.25787880000001,120.7353264
imu,56.554576,,,,,,,89.3566932,-21.02693240000002,119.2216336
imu,56.656138,,,,,,,89.6740804,-20.33112200000002,120.649876
imu,56.757701,,,,,,,89.6984948,-20.64850920000001,120.6376688
imu,57.55374,0.3995660704000001,-9.536948243200001,2.6103388192,0.85995212,2.06311715,-3.72816621,,,
imu,57.561896,0.4055475984,-9.537546396000002,2.5935905408,0.8375213899999999,2.04816333,-3.75059694,,,
imu,57.570052,0.4264829464000001,-9.551902063200002,2.6007683744,1.05435178,1.94348659,-3.84031986,,,
imu,57.578208,0.4390441552000001,-9.5447242296,2.5888053184,1.15155161,1.86124058,-3.8702275,,,
imu,57.587023,0.4402404608,-9.558481744000002,2.5917960824,1.19641307,1.78647148,-3.81788913,,,
imu,57.595839,0.4468201416000001,-9.580613397600002,2.5894034712,1.20388998,1.74908693,-3.80293531,,,
imu,57.604655,0.442633072,-9.605735815200001,2.5864127072,1.25622835,1.51730272,-3.83284295,,,
imu,57.61347,0.442633072,-9.61530626,2.583421943200001,1.15155161,1.36028761,-3.8702275,,,
imu,57.622286,0.43366078,-9.632054538400002,2.5911979296,1.12164397,1.2032725,-3.84031986,,,
imu,57.631101,0.43366078,-9.641026830400001,2.604955444,1.09173633,0.98644211,-3.65339711,,,
imu,57.639917,0.4097346680000001,-9.6470083584,2.597179457600001,0.78518302,0.84438082,-3.65339711,,,
imu,57.648733,0.4091365152000001,-9.6009505928,2.5935905408,0.5982602699999999,0.76213481,-3.53376655,,,
imu,57.657548,0.406743904,-9.596763523200002,2.5905997768,0.32909151,0.7322271699999998,-3.66087402,,,
imu,57.666364,0.3911919312,-9.619493329600001,2.5977776104,0.14216876,0.7770886299999997,-3.84779677,,,
imu,57.675179,0.3923882368,-9.599754287200001,2.5935905408,0.3739529699999999,0.86681155,-3.76555076,,,
imu,57.683995,0.3804251808,-9.5704448,2.622900028000001,0.07487657,0.8294269999999999,-3.96742733,,,
imu,57.692811,0.3726491944000001,-9.5638651192,2.6193111112,0.0001074699999999984,0.8742884599999998,-3.95995042,,,
imu,57.701626,0.3804251808,-9.559678049600002,2.6061517496,0.26927623,1.00139593,-3.83284295,,,
imu,57.710442,0.3720510416,-9.555490980000002,2.604955444,0.3216146,1.1285034,-3.65339711,,,
imu,57.719257,0.3642750552,-9.540537160000001,2.6007683744,0.35152224,1.23318014,-3.73564312,,,
imu,57.728073,0.367863972,-9.520199964800002,2.5941886936,0.52349117,1.32290306,-3.85527368,,,
imu,57.736889,0.370854736,-9.516611048000001,2.5965813048,0.620691,1.30047233,-3.90013514,,,
imu,57.745704,0.361882444,-9.5172092008,2.5911979296,0.78518302,1.36028761,-3.90013514,,,
imu,57.75452,0.3648732080000001,-9.506442450400002,2.590001624000001,0.85995212,1.34533379,-3.97490424,,,
imu,57.763335,0.3553027632,-9.5213962704,2.5822256376,1.04687487,1.29299542,-4.07210407,,,
imu,57.772151,0.3463304712,-9.527377798400002,2.5678699704,1.42819728,1.44253362,-3.96742733,,,
imu,57.780967,0.3451341656,-9.524387034400002,2.5702625816,1.38333582,1.45748744,-4.04967334,,,
imu,57.789448,0.3481249296000001,-9.5638651192,2.5606921368,1.57773548,1.54721036,-3.85527368,,,
imu,57.797929,0.3612842912,-9.603343204000002,2.5588976784,1.65998149,1.64441019,-3.69078166,,,
imu,57.806411,0.3660695136000001,-9.617100718400001,2.569066276,1.70484295,1.59207182,-3.77302767,,,
imu,57.814892,0.3702565832000001,-9.630260080000001,2.5618884424,1.57025857,1.6518871,-3.71321239,,,
imu,57.823373,0.3905937784,-9.6470083584,2.5499253864,1.49548947,1.577118,-3.67582784,,,
imu,57.831855,0.4079402096,-9.645213900000002,2.564879206400001,1.26370526,1.60702564,-3.53376655,,,
imu,57.840336,0.4037531400000001,-9.647606511200001,2.5618884424,1.03939796,1.53225654,-3.44404363,,,
imu,57.848817,0.4091365152000001,-9.624278552000002,2.5654773592,0.8524752099999999,1.42010289,-3.39170526,,,
imu,57.857299,0.4139217376000001,-9.613511801600001,2.5565050672,0.52349117,1.28551851,-3.4216129,,,
imu,57.86578,0.4037531400000001,-9.599156134400001,2.548729080800001,0.41881443,1.21822632,-3.41413599,,,
imu,57.874261,0.3929863896,-9.582407856000001,2.5355697192,0.36647606,1.18831868,-3.33936689,,,
imu,57.882743,0.391790084,-9.565061424800001,2.5427475528,0.4711528,1.12102649,-3.36927453,,,
imu,57.891224,0.3983697648000001,-9.559678049600002,2.5379623304,0.3216146,1.2032725,-3.41413599,,,
imu,57.899705,0.3923882368,-9.565061424800001,2.5565050672,0.44872207,1.25561087,-3.30198234,,,
imu,57.908187,0.3977716120000001,-9.565061424800001,2.555308761600001,0.41881443,1.24065705,-3.29450543,,,
imu,57.916668,0.406743904,-9.568650341600001,2.570860734400001,0.41881443,1.28551851,-3.43656672,,,
imu,57.925149,0.3965753064,-9.5698466472,2.5774404152,0.40386061,1.44253362,-3.52628964,,,
imu,57.933631,0.4121272792,-9.5877912312,2.5738514984,0.36647606,1.36776452,-3.74312003,,,
imu,57.942112,0.406743904,-9.599754287200001,2.570860734400001,0.32909151,1.30047233,-3.9449966,,,
imu,57.950593,0.4121272792,-9.585996772800002,2.584020096,0.31413769,1.21822632,-4.012288789999999,,,
imu,57.959075,0.3977716120000001,-9.585398620000001,2.5983757632,0.3739529699999999,1.16588795,-4.0197657,,,
imu,57.967556,0.3882011672000001,-9.595567217600001,2.5953849992,0.33656842,1.22570323,-3.88518132,,,
imu,57.976037,0.3780325696000001,-9.591380148,2.5822256376,0.34404533,1.33785688,-3.76555076,,,
imu,57.984519,0.3870048616000001,-9.597959828800002,2.6169185,0.41881443,1.36028761,-3.69078166,,,
imu,57.992979,0.3905937784,-9.6290637744,2.6234981808,0.33656842,1.33037997,-3.67582784,,,
imu,58.001438,0.4085383624000001,-9.612913648800001,2.6217037224,0.07487657,1.25561087,-3.70573548,,,
imu,58.009898,0.4103328208,-9.603343204000002,2.624694486400001,-0.02232326000000001,1.34533379,-3.70573548,,,
imu,58.018358,0.4115291264,-9.592576453600001,2.631872320000001,-0.30644584,1.27056469,-3.81041222,,,
imu,58.026817,0.4151180432000001,-9.577024480800002,2.6372556952,-0.47841477,1.15093413,-3.81788913,,,
imu,58.035277,0.4216977240000001,-9.553696521600001,2.641442764800001,-0.50832241,1.11354958,-3.73564312,,,
imu,58.043737,0.4121272792,-9.517807353600002,2.6420409176,-0.32887657,1.01634975,-3.57862801,,,
imu,58.052197,0.4043512928,-9.508835061600001,2.6504150568,-0.18681528,0.8294269999999999,-3.46647436,,,
imu,58.060656,0.3995660704000001,-9.510031367200002,2.631872320000001,0.15712258,0.9341037399999998,-3.25712088,,,
imu,58.069116,0.3929863896,-9.486105255200002,2.6240963336,0.3963837,0.9939190199999999,-3.1973056,,,
imu,58.077576,0.3959771536000001,-9.471151435200001,2.622900028000001,0.94967504,1.03878048,-3.10758268,,,
imu,58.086035,0.3971734592000001,-9.4729458936,2.6252926392,1.30856672,1.16588795,-2.98047521,,,
imu,58.094495,0.4019586816,-9.4980683112,2.625890792,1.38333582,1.17336486,-3.13749032,,,
imu,58.102955,0.400762376,-9.5040498392,2.6175166528,1.67493531,1.18831868,-3.24216706,,,
imu,58.111415,0.4139217376000001,-9.5154147424,2.6145258888,1.88428879,1.36776452,-3.25712088,,,
imu,58.119874,0.4222958768,-9.5423316184,2.6121332776,1.92167334,1.34533379,-3.45152054,,,
imu,58.128334,0.43366078,-9.562668813600002,2.6121332776,1.71979677,1.39767216,-3.63844329,,,
imu,58.136794,0.424688488,-9.579417092000002,2.6043572912,1.60016621,1.62197946,-3.61601256,,,
imu,58.145254,0.4324644744,-9.593174606400002,2.613329583200001,1.54782784,1.62197946,-3.68330475,,,
imu,58.153713,0.4366515440000001,-9.591380148,2.5852164016,1.48053565,1.67431783,-3.71321239,,,
imu,58.162173,0.4486146000000001,-9.572837411200002,2.5816274848,1.39828964,1.577118,-3.90761205,,,
imu,58.170633,0.4629702672000001,-9.568650341600001,2.5828237904,1.35342818,1.59207182,-3.96742733,,,
imu,58.179092,0.4581850448000001,-9.572239258400002,2.5774404152,1.40576655,1.43505671,-3.98238115,,,
imu,58.187552,0.4498109056,-9.572837411200002,2.5923942352,1.28613599,1.22570323,-4.079580979999999,,,
imu,58.196016,0.4611758088,-9.5740337168,2.5792348736,1.26370526,1.13598031,-4.15435008,,,
imu,58.204479,0.4498109056,-9.562668813600002,2.5905997768,1.45062801,0.9939190199999999,-4.124442439999999,,,
imu,58.212943,0.4402404608,-9.568650341600001,2.581029332,1.35342818,0.7696117199999999,-4.17678081,,,
imu,58.221406,0.4276792520000001,-9.567454036,2.5822256376,1.45062801,0.6798887999999996,-4.244073,,,
imu,58.22987,0.4175106544000001,-9.5740337168,2.5852164016,1.36090509,0.6125966099999998,-4.28145755,,,
imu,58.238333,0.3935845424,-9.5590798968,2.590001624000001,1.41324346,0.5378275100000001,-4.19173463,,,
imu,58.246797,0.3864067088000001,-9.5590798968,2.570860734400001,1.35342818,0.56025824,-3.98238115,,,
imu,58.255261,0.3612842912,-9.593174606400002,2.5923942352,1.19641307,0.44062768,-4.15435008,,,
imu,58.263724,0.3582935272000001,-9.617100718400001,2.598973916,1.03192105,0.5976427899999996,-4.02724261,,,
imu,58.272188,0.3660695136000001,-9.6075302736,2.5905997768,0.9197674,0.7322271699999998,-3.84779677,,,
imu,58.280651,0.3523119992,-9.578220786400001,2.590001624000001,0.97958268,0.8294269999999999,-3.81788913,,,
imu,58.289115,0.3487230824000001,-9.596165370400001,2.5905997768,0.9197674,0.9939190199999999,-3.74312003,,,
imu,58.297578,0.3624805968,-9.620689635200002,2.5947868464,0.9197674,1.33037997,-3.62348947,,,
imu,58.306042,0.3792288752000001,-9.626671163200001,2.588207165600001,0.97958268,1.53973345,-3.6459202,,,
imu,58.314505,0.3864067088000001,-9.631456385600002,2.5798330264,0.9272443100000001,1.66684092,-3.75059694,,,
imu,58.322969,0.3995660704000001,-9.6248767048,2.5732533456,0.81509066,1.79394839,-3.82536604,,,
imu,58.331432,0.4127254320000001,-9.6009505928,2.576244109600001,0.94967504,1.90610204,-3.89265823,,,
imu,58.339896,0.430670016,-9.597361676,2.578038568,1.00949032,2.00330187,-3.93751969,,,
imu,58.34836,0.4492127528000001,-9.5877912312,2.5672718176,0.9646288599999999,1.92853277,-4.0945348,,,
imu,58.356823,0.4522035168,-9.5776226336,2.5577013728,1.0693056,1.8014253,-4.124442439999999,,,
imu,58.365287,0.4599795032,-9.5668558832,2.566673664800001,0.9048135799999999,1.56216418,-4.13191935,,,
imu,56.85919,,,,,,,89.4299364,-20.14801400000001,120.6376688
imu,56.960753,,,,,,,89.6740804,-20.2945004,120.5644256
imu,57.062468,,,,,,,89.8083596,-20.90486040000001,120.2958672
imu,57.163908,,,,,,,89.61304439999999,-20.31891480000001,120.2348312
imu,57.265501,,,,,,,92.06669160000001,-21.08796840000002,118.391544
imu,57.367033,,,,,,,89.72290920000002,-20.1968428,120.5155968
imu,57.468687,,,,,,,91.9812412,-21.52742760000002,118.4281656
imu,57.570097,,,,,,,89.62525160000001,-20.27008600000002,120.5522184
imu,58.37375,0.4563905864000001,-9.571042952800001,2.5577013728,0.79265993,1.39767216,-4.17678081,,,
imu,58.382214,0.454596128,-9.557285438400001,2.5588976784,0.7104139199999999,1.15093413,-4.16182699,,,
imu,58.390677,0.4528016696000001,-9.559678049600002,2.5636829008,0.83004448,0.9341037399999998,-4.11696553,,,
imu,58.399314,0.4486146000000001,-9.571641105600001,2.5606921368,0.79265993,0.7097964399999999,-4.02724261,,,
imu,58.40795,0.4384460024000001,-9.577024480800002,2.563084748,0.7403215599999999,0.6798887999999996,-3.88518132,,,
imu,58.416587,0.4240903352000001,-9.572837411200002,2.563084748,0.82256757,0.6574580699999997,-3.87770441,,,
imu,58.425223,0.4043512928,-9.558481744000002,2.5565050672,0.7552753799999999,0.4481045899999998,-3.9449966,,,
imu,58.43386,0.4061457512000001,-9.5566872856,2.5505235392,0.80013684,0.3509047599999997,-4.08705789,,,
imu,58.442496,0.3887993200000001,-9.597959828800002,2.5493272336,0.88985976,0.3509047599999997,-4.102011709999999,,,
imu,58.451133,0.3887993200000001,-9.618297024,2.5547106088,0.79265993,0.5752120599999997,-4.22911918,,,
imu,58.459769,0.3965753064,-9.609324732000001,2.5582995256,0.7702292,0.7546578999999998,-4.04219643,,,
imu,58.468405,0.3887993200000001,-9.596165370400001,2.562486595200001,0.70293701,0.8369039099999998,-4.23659609,,,
imu,58.477042,0.3995660704000001,-9.612315496,2.5594958312,0.65807555,1.06868812,-4.15435008,,,
imu,58.485678,0.3935845424,-9.5985579816,2.551121692,0.26927623,1.30794924,-4.22911918,,,
imu,58.494315,0.3935845424,-9.596165370400001,2.555308761600001,0.08983038999999998,1.30794924,-4.35622665,,,
imu,58.502951,0.4151180432000001,-9.590183842400002,2.5535143032,0.11226112,1.28551851,-4.42351884,,,
imu,58.511588,0.4085383624000001,-9.595567217600001,2.5642810536,0.10478421,1.30047233,-4.51324176,,,
imu,58.520224,0.4222958768,-9.597959828800002,2.5714588872,0.18703022,1.41262598,-4.58801086,,,
imu,58.528861,0.424688488,-9.591380148,2.581029332,0.10478421,1.39019525,-4.73007215,,,
imu,58.537497,0.4187069600000001,-9.576426328,2.585814554400001,0.02253820000000001,1.27056469,-4.87213344,,,
imu,58.546134,0.4216977240000001,-9.592576453600001,2.595983152,0.09730729999999999,1.19579559,-5.02914855,,,
imu,58.55477,0.400762376,-9.591978300800001,2.6031609856,0.18703022,0.9789651999999998,-5.00671782,,,
imu,58.563407,0.3870048616000001,-9.592576453600001,2.6217037224,0.17955331,0.92662683,-4.976810179999999,,,
imu,58.572043,0.3642750552,-9.597361676,2.627685250400001,0.13469185,0.8294269999999999,-4.89456417,,,
imu,58.58068,0.3594898328000001,-9.562070660800002,2.6217037224,0.07487657,0.8593346399999997,-4.7674567,,,
imu,58.589316,0.3493212352000001,-9.520199964800002,2.6270870976,0.0001074699999999984,0.72475026,-4.78988743,,,
imu,58.597953,0.3481249296000001,-9.531564868,2.624694486400001,0.26927623,0.6499811599999998,-4.670256869999999,,,
imu,58.60659,0.3415452488,-9.539939007200001,2.6306760144,0.53096808,0.6873657099999999,-4.42351884,,,
imu,58.615228,0.3487230824000001,-9.520199964800002,2.6252926392,0.53844499,0.6873657099999999,-4.19173463,,,
imu,58.623866,0.3415452488,-9.508835061600001,2.6444335288,0.76275229,0.5303505999999998,-4.19173463,,,
imu,58.632504,0.320011748,-9.543527924000001,2.6522095152,0.7104139199999999,0.4256738599999998,-4.22164227,,,
imu,58.641142,0.3289840400000001,-9.572239258400002,2.6510132096,0.68798319,0.2462280199999998,-4.16182699,,,
imu,58.64985,0.3128339144,-9.553696521600001,2.6725467104,0.66555246,0.05930526999999985,-3.95995042,,,
imu,58.658488,0.3032634696000001,-9.5459205352,2.6653688768,0.8674290299999999,0.09668981999999993,-3.66835093,,,
imu,58.667125,0.2907022608000001,-9.547714993600001,2.6599855016,0.9571519499999999,0.1639820099999998,-3.43656672,,,
imu,58.675763,0.2835244272,-9.554892827200002,2.6474242928,1.15155161,0.3658585799999998,-3.14496723,,,
imu,58.684401,0.2859170384,-9.529770409600001,2.6354612368,1.48801256,0.52287369,-2.98795212,,,
imu,58.693039,0.2853188856,-9.499862769600002,2.6217037224,1.63007385,0.7471809899999999,-2.95804448,,,
imu,58.701677,0.2853188856,-9.492684936000002,2.6145258888,1.6674584,1.00887284,-3.15992105,,,
imu,58.710314,0.2907022608000001,-9.4974701584,2.604955444,1.92167334,1.31542615,-3.23469015,,,
imu,58.718952,0.3086468448,-9.5172092008,2.58701086,2.07868845,1.53225654,-3.27955161,,,
imu,58.72759,0.334965568,-9.516012895200001,2.584020096,2.13850373,1.85376367,-3.40665908,,,
imu,58.736228,0.3642750552,-9.526181492800001,2.570860734400001,2.21327283,2.19022462,-3.54872037,,,
imu,58.744866,0.385808556,-9.5638651192,2.5672718176,2.16093446,2.44443956,-3.47395127,,,
imu,58.753503,0.4109309736,-9.5800152448,2.5672718176,2.14598064,2.48930102,-3.58610492,,,
imu,58.762141,0.4210995712,-9.587193078400002,2.5678699704,2.17588828,2.63883922,-3.60105874,,,
imu,58.770779,0.4450256832000001,-9.596763523200002,2.5475327752,2.10859609,2.43696265,-3.90761205,,,
imu,58.779417,0.4611758088,-9.618297024,2.5505235392,2.03382699,2.3995781,-3.9449966,,,
imu,58.788055,0.4629702672000001,-9.623680399200001,2.545738316800001,1.90671952,2.33228591,-3.93004278,,,
imu,58.796693,0.4653628784000001,-9.635643455200002,2.548729080800001,1.78708896,2.12293243,-4.012288789999999,,,
imu,58.805173,0.4707462536000001,-9.6428212888,2.5403549416,1.70484295,1.95844041,-4.02724261,,,
imu,58.813653,0.4653628784000001,-9.640428677600001,2.5421494,1.7422275,1.86124058,-4.012288789999999,,,
imu,58.822133,0.4593813504000001,-9.6326526912,2.5403549416,1.46558183,1.577118,-4.02724261,,,
imu,58.830613,0.439642308,-9.616502565600001,2.536167872,1.12164397,1.37524143,-4.26650373,,,
imu,58.839093,0.4300718632,-9.6290637744,2.5307844968,1.20388998,1.17336486,-4.30388828,,,
imu,58.847573,0.4294737104000001,-9.625474857600002,2.5337752608,1.00201341,1.12102649,-4.22911918,,,
imu,58.856053,0.4127254320000001,-9.599754287200001,2.533177108,0.8449983,1.00139593,-4.22164227,,,
imu,58.864533,0.4079402096,-9.596763523200002,2.548729080800001,0.83004448,0.8144731799999998,-4.25902682,,,
imu,58.873013,0.3899956256000001,-9.6290637744,2.566673664800001,0.58330645,0.7995193599999997,-4.25902682,,,
imu,58.881493,0.3965753064,-9.633848996800001,2.5726551928,0.4861066199999999,0.58268897,-4.41604193,,,
imu,58.889973,0.3816214864,-9.621287788000002,2.5714588872,0.5459219,0.6350273399999997,-4.408565019999999,,,
imu,58.898453,0.3523119992,-9.606932120800002,2.584020096,0.43376825,0.64250425,-4.48333412,,,
imu,58.906933,0.3313766512,-9.6039413568,2.5983757632,0.35152224,0.5079198699999998,-4.408565019999999,,,
imu,58.915414,0.3194135952000001,-9.597959828800002,2.5977776104,0.21693786,0.62007352,-4.29641137,,,
imu,58.923894,0.3086468448,-9.596763523200002,2.5953849992,0.22441477,0.7097964399999999,-4.16182699,,,
imu,58.932374,0.2918985664000001,-9.582407856000001,2.6025628328,0.20198404,0.9041961000000001,-3.91508896,,,
imu,58.940854,0.3062542336,-9.571042952800001,2.6055535968,0.16459949,1.19579559,-3.84031986,,,
imu,58.949334,0.3158246784000001,-9.5501076048,2.60196468,0.1720764,1.32290306,-3.75059694,,,
imu,58.957814,0.3343674152,-9.539939007200001,2.5888053184,0.50853735,1.5023489,-3.78050458,,,
imu,58.966294,0.361882444,-9.541135312800002,2.590001624000001,0.50853735,1.36776452,-3.93004278,,,
imu,58.974774,0.3624805968,-9.528574104,2.5822256376,0.66555246,1.36776452,-3.95247351,,,
imu,58.983254,0.3541064576,-9.510031367200002,2.58701086,1.02444414,1.42010289,-3.70573548,,,
imu,58.991734,0.3415452488,-9.519003659200001,2.5726551928,1.21136689,1.30794924,-3.8702275,,,
imu,57.671721,,,,,,,89.5398012,-20.66071640000002,120.039516
imu,57.773253,,,,,,,89.78394519999999,-20.07477080000002,121.016092
imu,57.874876,,,,,,,89.771738,-20.46540120000002,121.0893352
imu,57.976408,,,,,,,89.771738,-20.23346440000002,120.2348312
imu,58.077971,,,,,,,89.99146760000001,-20.28229320000001,119.5023992
imu,58.179503,,,,,,,89.649666,-20.23346440000002,120.6376688
imu,58.281187,,,,,,,92.32304280000001,-20.99031080000002,118.7821744
imu,58.382658,,,,,,,89.3078644,-20.59968040000002,120.7963624
imu,58.484214,,,,,,,91.846962,-21.41756280000002,118.45258
imu,58.585746,,,,,,,89.3566932,-19.94049160000002,120.6132544
imu,58.687278,,,,,,,89.58863,-19.73296920000001,119.3925344
imu,58.788871,,,,,,,89.75953080000001,-20.11139240000002,121.0649208
imu,58.890555,,,,,,,89.50317960000001,-20.31891480000001,120.466768
imu,58.991996,,,,,,,89.4177292,-20.61188760000001,121.1992
