Type,Timestamp,Data Accelerometer X,Data Accelerometer Y,Data Accelerometer Z,Data Gyroscope X,Data Gyroscope Y,Data Gyroscope Z,Data Magnetometer X,Data Magnetometer Y,Data Magnetometer Z
imu,265.374183,1.7717285936,-9.688280901600002,2.4978860928,0.94967504,23.10314189,-8.85732647,,,
imu,265.382645,1.6562851032,-9.711608860800002,2.506260232,0.8375213899999999,17.0543217,-7.28717537,,,
imu,265.391107,1.5683566416,-9.673925234400002,2.5074565376,0.79265993,11.56626976,-5.64225517,,,
imu,265.399569,1.4493242344,-9.630260080000001,2.5116436072,0.74779847,6.28009439,-4.15435008,,,
imu,265.408032,1.3267029104,-9.623082246400001,2.5056620792,0.8449983,1.74161002,-2.60662971,,,
imu,265.416494,1.2627005608,-9.592576453600001,2.494895328800001,1.05435178,-2.34078284,-0.9243249599999999,,,
imu,265.424956,1.2238206288,-9.546518688,2.4727636752,1.30856672,-6.236252950000001,0.64582614,,,
imu,265.433418,1.2627005608,-9.519003659200001,2.4572117024,1.78708896,-9.82516975,1.6626859,,,
imu,265.441881,1.262102408,-9.517807353600002,2.4751562864,2.21327283,-13.69820913,2.17111578,,,
imu,265.450343,1.2908137424,-9.547116840800001,2.509250996,2.48244159,-17.4890025,2.73188403,,,
imu,265.458805,1.3613957728,-9.551303910400001,2.5116436072,2.84881018,-21.23493441,3.54686722,,,
imu,265.46762,1.4529131512,-9.573435564,2.491306412,3.2376095,-25.30237345,4.182404569999999,,,
imu,265.476434,1.5773289336,-9.5632669664,2.473361828,3.70865483,-29.825904,4.63101917,,,
imu,265.485248,1.6287700744,-9.536948243200001,2.483530425600001,4.12736179,-34.73823387,5.3263718,,,
imu,265.494062,1.5815160032,-9.5602762024,2.4895119536,4.56102257,-39.82253267,6.133878080000001,,,
imu,265.502877,1.40565908,-9.669738164800002,2.4895119536,5.00963717,-44.78720091,7.307752950000001,,,
imu,265.511691,1.2752617696,-9.7056273328,2.4500338688,5.08440627,-48.97427051,8.74331967,,,
imu,265.520505,1.13649032,-9.7086180968,2.4452486464,4.85262206,-52.256634,10.70227009,,,
imu,265.529319,0.9468758824000001,-9.715795930400002,2.4482394104,4.45634583,-55.23244418,12.14531372,,,
imu,265.538134,0.8350213088000001,-9.794752100000002,2.4290985208,4.14231561,-57.67739375,12.85562017,,,
imu,265.546948,0.7464946944,-9.802528086400002,2.3962001168,3.79090084,-59.56905198,13.06497365,,,
imu,265.555762,0.7231667352000001,-9.7576666264,2.3991908808,3.34228624,-61.17658763000001,13.07245056,,,
imu,265.564577,0.6944554008000001,-9.703832874400002,2.4129483952,2.91610237,-62.724308,12.6537436,,,
imu,265.573391,0.6262659816,-9.692467971200001,2.4039761032,2.89367164,-64.45895112,11.78642204,,,
imu,265.582205,0.4551942808000001,-9.711608860800002,2.401583492,2.90114855,-65.87208711,10.7845161,,,
imu,265.591019,0.2440463424,-9.703234721600001,2.414144700800001,2.62450288,-66.70950103,10.29104004,,,
imu,265.599834,0.1028822816,-9.654784344800001,2.434481896,2.23570356,-66.61230119999999,10.50039352,,,
imu,265.608648,-0.0125612088,-9.630858232800001,2.4398652712,2.05625772,-65.70011817999999,11.09854632,,,
imu,265.617462,-0.1632957144,-9.632054538400002,2.449435716,1.7422275,-64.38418202,11.27051525,,,
imu,265.626276,-0.3104413032000001,-9.665551095200001,2.4757544392,1.52539711,-62.52243143,11.50977637,,,
imu,265.635091,-0.3977716120000001,-9.675719692800001,2.504465773600001,1.27865908,-60.38403517,11.44248418,,,
imu,265.643905,-0.4276792520000001,-9.683495679200002,2.5248029688,1.27118217,-58.02880852,11.06116177,,,
imu,265.652719,-0.4199032656,-9.658971414400002,2.5313826496,1.08425942,-55.66610496,10.25365549,,,
imu,265.661534,-0.4671573368000001,-9.614708107200002,2.5373641776,1.15155161,-53.25106303,8.99753461,,,
imu,265.670015,-0.520392936,-9.612315496,2.5577013728,1.20388998,-51.03789767,7.262891489999999,,,
imu,265.678496,-0.5538894928000001,-9.587193078400002,2.566673664800001,0.9347212199999999,-48.39854844,6.09649353,,,
imu,265.686978,-0.5688433128,-9.5812115504,2.592992388,1.11416706,-45.6769532,5.341325619999999,,,
imu,265.695459,-0.6005454112,-9.592576453600001,2.620507416800001,1.19641307,-42.9104965,4.43661951,,,
imu,265.70394,-0.6878757200000001,-9.595567217600001,2.6306760144,1.18145925,-40.00197851,3.64406705,,,
imu,265.712422,-0.7195778184000001,-9.572837411200002,2.6611818072,1.10669015,-36.74952266,3.09825262,,,
imu,265.720903,-0.7076147624000001,-9.591380148,2.682715308000001,1.10669015,-33.17555968,2.91880678,,,
imu,265.729384,-0.7040258456,-9.596763523200002,2.7000617392,1.00201341,-29.81095018,2.28326943,,,
imu,265.737866,-0.6926609424000001,-9.5800152448,2.7090340312,1.01696723,-26.62578652,1.46080933,,,
imu,265.746347,-0.6448087184,-9.5842023144,2.7341564488,1.04687487,-23.56025342,0.6906876,,,
imu,265.754828,-0.5784137576,-9.592576453600001,2.748512116,0.9197674,-20.60687397,-0.1915877799999999,,,
imu,265.76331,-0.5359449088000001,-9.590183842400002,2.75150288,0.9571519499999999,-18.18435513,-1.12620153,,,
imu,265.771791,-0.505439116,-9.559678049600002,2.7521010328,0.85995212,-16.03100505,-2.19539966,,,
imu,265.780272,-0.4665591840000001,-9.527975951200002,2.759877019200001,0.94219813,-13.84774733,-2.73373718,,,
imu,265.788754,-0.3911919312,-9.526779645600001,2.762269630400001,1.10669015,-11.56728978,-2.98047521,,,
imu,265.797235,-0.3367600264,-9.5148165896,2.7802142144,1.1440747,-9.63077009,-3.21973633,,,
imu,265.805716,-0.3074505392,-9.530368562400001,2.778419756,1.2188438,-8.21015719,-3.57862801,,,
imu,265.814198,-0.2488315648,-9.5459205352,2.7855975896,1.50296638,-6.826928840000001,-3.73564312,,,
imu,265.822679,-0.2069608688,-9.561472508000001,2.789186506400001,1.56278166,-5.57080796,-3.9449966,,,
imu,265.83116,-0.1495382,-9.560874355200001,2.7778216032,1.56278166,-4.44927146,-3.93751969,,,
imu,265.839642,-0.1142471848,-9.554892827200002,2.7562881024,1.80204278,-3.63428827,-3.84779677,,,
imu,265.848123,-0.0562263632,-9.559678049600002,2.739539824,1.95905789,-2.90155109,-3.68330475,,,
imu,265.856604,-0.008374139200000002,-9.560874355200001,2.740736129600001,2.04878081,-2.37816739,-3.57862801,,,
imu,265.865086,0.0293094872,-9.556089132800002,2.7263804624,2.22074974,-2.06413717,-3.35432071,,,
imu,265.873548,0.0592171272,-9.534555632000002,2.7150155592,2.44505704,-1.87721442,-3.05524431,,,
imu,265.88201,0.07118018320000001,-9.534555632000002,2.7114266424,2.49739541,-1.80244532,-2.92065993,,,
imu,265.890473,0.09450814240000002,-9.5459205352,2.70664142,2.61702597,-1.72767622,-2.8234601,,,
imu,265.898935,0.1112564208,-9.5381445488,2.709632184,2.83385636,-1.54823038,-2.59167589,,,
imu,265.907397,0.1280046992,-9.547116840800001,2.7048469616,2.81142563,-1.413646,-2.3748455,,,
imu,265.915859,0.1387714496,-9.567454036,2.7024543504,2.67684125,-1.27906162,-2.39727623,,,
imu,265.924322,0.1519308112,-9.590183842400002,2.692285752800001,2.6394567,-1.19681561,-2.3748455,,,
imu,265.932784,0.167482784,-9.595567217600001,2.6892949888,2.54973378,-1.144477240000001,-2.49447606,,,
imu,265.941246,0.188418132,-9.5800152448,2.6815190024,2.51234923,-1.15195415,-2.41223005,,,
imu,265.949709,0.197390424,-9.5877912312,2.685706072000001,2.48244159,-1.06970814,-2.42718387,,,
imu,265.958171,0.206362716,-9.581809703200001,2.6683596408,2.43758013,-1.06970814,-2.62158353,,,
imu,265.966633,0.206362716,-9.581809703200001,2.6605836544,2.32542648,-1.06970814,-2.70382954,,,
imu,265.975095,0.2225128416,-9.585398620000001,2.6522095152,2.16093446,-1.29401544,-2.78607555,,,
imu,265.983558,0.2207183832,-9.594370912,2.6599855016,2.15345755,-1.36130763,-2.86832156,,,
imu,265.99202,0.2039701048,-9.6087265792,2.664770724000001,2.0413039,-1.44355364,-3.04029049,,,
imu,266.000482,0.1920070488,-9.617698871200002,2.6683596408,2.20579592,-1.36130763,-2.95056757,,,
imu,266.008944,0.1818384512,-9.6224840936,2.6611818072,2.00391935,-1.32392308,-3.06272122,,,
imu,266.017407,0.1591086448,-9.6284656216,2.6611818072,1.98896553,-1.286538530000001,-3.06272122,,,
imu,266.025869,0.1597067976,-9.617698871200002,2.652807668,2.0413039,-1.12204651,-2.98795212,,,
imu,266.034331,0.1543234224,-9.642223136000002,2.6546021264,1.76465823,-0.9126930300000002,-2.85336774,,,
imu,266.042793,0.146547436,-9.667943706400001,2.6743411688,1.53287402,-0.7332471900000002,-2.89075229,,,
imu,266.051256,0.1746606176,-9.681103068,2.682715308000001,1.46558183,-0.45660152,-2.87579847,,,
imu,266.059718,0.1740624648,-9.664952942400001,2.682715308000001,1.2936129,-0.4266938800000002,-3.01785976,,,
imu,266.06818,0.1609031032,-9.639232372,2.6851079192,1.11416706,-0.23229422,-3.05524431,,,
imu,266.076639,0.1543234224,-9.640428677600001,2.6940802112,0.7403215599999999,-0.2173404000000003,-3.18982869,,,
imu,266.085097,0.1429585192,-9.648204664000001,2.6755374744,0.6132140899999999,-0.08275602000000015,-3.14496723,,,
imu,266.093556,0.1309954632,-9.626671163200001,2.667163335200001,0.56835263,0.2611818399999999,-3.06272122,,,
imu,266.102014,0.13458438,-9.590183842400002,2.6522095152,0.56087572,0.4331507699999997,-2.98047521,,,
imu,266.110473,0.1501363528,-9.5668558832,2.6372556952,0.68798319,0.7097964399999999,-3.17487487,,,
imu,266.118931,0.1722680064,-9.550705757600001,2.6420409176,0.8749059399999999,0.8742884599999998,-3.30198234,,,
imu,266.127389,0.1752587704,-9.554294674400001,2.6312741672,1.05435178,1.01634975,-3.56367419,,,
imu,266.135848,0.1902125904,-9.557883591200001,2.638452000800001,1.24875144,0.9939190199999999,-3.75807385,,,
imu,266.144306,0.2099516328,-9.557285438400001,2.645629834400001,1.20388998,0.9640113799999996,-4.10948862,,,
imu,266.152765,0.2057645632,-9.557285438400001,2.641442764800001,1.41324346,0.9191499199999997,-4.16182699,,,
imu,266.161223,0.19439966,-9.5740337168,2.64682614,1.40576655,0.7770886299999997,-4.244073,,,
imu,266.169682,0.1920070488,-9.5877912312,2.6546021264,1.39081273,0.7097964399999999,-4.146873169999999,,,
imu,266.17814,0.182436604,-9.609922884800001,2.6534058208,1.24875144,0.50044296,-4.057150249999999,,,
imu,266.186599,0.1890162848,-9.6218859408,2.667761488,1.33847436,0.56025824,-3.80293531,,,
imu,266.195057,0.1830347568,-9.625474857600002,2.657592890400001,1.15902852,0.56025824,-3.84779677,,,
imu,266.203516,0.1776513816,-9.609324732000001,2.6641725712,1.05435178,0.5453044199999999,-3.70573548,,,
imu,266.211974,0.1848292152,-9.602745051200001,2.6516113624,0.8749059399999999,0.5677351499999999,-3.59358183,,,
imu,266.220432,0.191408896,-9.597361676,2.6522095152,0.65807555,0.4854891399999999,-3.69825857,,,
imu,266.228798,0.1890162848,-9.595567217600001,2.649816904,0.620691,0.5453044199999999,-3.71321239,,,
imu,266.237256,0.19439966,-9.588987536800001,2.6510132096,0.65807555,0.47801223,-3.65339711,,,
imu,266.245715,0.2021756464,-9.595567217600001,2.643835376000001,0.5459219,0.4630584099999999,-3.63844329,,,
imu,266.254173,0.1961941184,-9.5985579816,2.652807668,0.56835263,0.3060432999999998,-3.69825857,,,
imu,266.262632,0.1967922712,-9.608128426400002,2.649816904,0.620691,0.2312741999999997,-3.69078166,,,
imu,266.27109,0.1979885768,-9.611119190400002,2.6510132096,0.59078336,0.1191205499999999,-3.82536604,,,
imu,266.279723,0.1955959656,-9.610521037600002,2.6695559464,0.60573718,0.09668981999999993,-3.93751969,,,
imu,266.288356,0.1788476872,-9.612913648800001,2.664770724000001,0.44872207,-0.1276174800000001,-4.079580979999999,,,
imu,266.296988,0.1597067976,-9.630858232800001,2.673743016,0.40386061,-0.1425713000000002,-3.98985806,,,
imu,266.305621,0.1423603664,-9.614109954400002,2.6755374744,0.3963837,-0.1874327600000001,-4.07210407,,,
imu,266.314253,0.1333880744,-9.617698871200002,2.6833134608,0.17955331,0.02192071999999978,-3.96742733,,,
imu,266.322886,0.1208268656,-9.614109954400002,2.679724544,0.29918387,0.09668981999999993,-3.84031986,,,
imu,266.331519,0.116639796,-9.608128426400002,2.686902377600001,0.2468455,0.1789358299999999,-3.80293531,,,
imu,266.340151,0.1064711984,-9.596763523200002,2.6875005304,0.05992275,0.3209971199999999,-3.85527368,,,
imu,266.348784,0.11963056,-9.575828175200002,2.673144863200001,-0.01484635000000001,0.41819695,-4.00481188,,,
imu,266.357417,0.1142471848,-9.579417092000002,2.673743016,0.06739966,0.58268897,-3.89265823,,,
imu,265.450879,,,,,,,82.5328684,-19.64751880000002,111.2381248
imu,265.552258,,,,,,,80.0425996,-18.9150868,113.9115016
imu,265.653852,,,,,,,85.62129,-19.13481640000001,118.0009136
imu,265.755445,,,,,,,86.1828212,-18.68315,119.7587504
imu,266.366049,0.1190324072,-9.5740337168,2.670752252,0.25432241,0.6724118899999998,-3.84031986,,,
imu,266.374682,0.1244157824,-9.5632669664,2.6875005304,0.16459949,0.7397040799999997,-3.95995042,,,
imu,266.383315,0.1220231712,-9.553696521600001,2.6833134608,0.16459949,0.7995193599999997,-3.91508896,,,
imu,266.391947,0.1220231712,-9.588987536800001,2.6928839056,0.01506129,0.84438082,-3.78050458,,,
imu,266.40058,0.1184342544,-9.595567217600001,2.701856197600001,0.21693786,0.8369039099999998,-3.61601256,,,
imu,266.409213,0.1172379488,-9.606333968000001,2.7168100176,0.03749201999999999,0.7920424499999998,-3.63844329,,,
imu,266.417845,0.131593616,-9.587193078400002,2.718604476,0.11973803,0.6948426199999997,-3.60853565,,,
imu,266.426478,0.1262102408,-9.589585689600002,2.7281749208,-0.0522309,0.7920424499999998,-3.63844329,,,
imu,266.435111,0.1262102408,-9.593772759200002,2.7192026288,0.0001074699999999984,0.92662683,-3.41413599,,,
imu,266.443743,0.1303973104,-9.572239258400002,2.7102303368,0.25432241,0.9565344699999998,-3.13749032,,,
imu,266.452376,0.1417622136,-9.558481744000002,2.7078377256,0.23189168,1.06868812,-2.95056757,,,
imu,266.461009,0.158510492,-9.551303910400001,2.6970709752,0.45619898,1.07616503,-2.91318302,,,
imu,266.469641,0.1549215752,-9.541135312800002,2.6863042248,0.4861066199999999,1.09859576,-2.9729983,,,
imu,266.478274,0.161501256,-9.5249851872,2.6916876,0.41881443,1.03878048,-3.1225365,,,
imu,266.486661,0.1561178808,-9.528574104,2.703650656000001,0.59078336,1.03878048,-3.22721324,,,
imu,266.495049,0.1483418944,-9.540537160000001,2.6928839056,0.7552753799999999,1.1285034,-3.17487487,,,
imu,266.503436,0.137575144,-9.554294674400001,2.7000617392,0.70293701,1.13598031,-3.06272122,,,
imu,266.511823,0.1531271168,-9.554294674400001,2.6916876,0.74779847,1.33037997,-2.89075229,,,
imu,266.52021,0.155519728,-9.559678049600002,2.7012580448,0.81509066,1.45001053,-2.86832156,,,
imu,266.528598,0.1776513816,-9.557883591200001,2.6982672808,0.7702292,1.66684092,-2.94309066,,,
imu,266.536985,0.19439966,-9.568650341600001,2.7054451144,0.76275229,1.73413311,-2.95804448,,,
imu,266.545372,0.2021756464,-9.588389384000001,2.7144174064,0.81509066,1.68927165,-3.21973633,,,
imu,266.553759,0.212344244,-9.596763523200002,2.713221100800001,0.76275229,1.7266562,-3.36179762,,,
imu,266.562146,0.2243073,-9.597361676,2.7198007816,0.74779847,1.85376367,-3.40665908,,,
imu,266.570534,0.2290925224000001,-9.6009505928,2.7144174064,0.70293701,1.83880985,-3.51881273,,,
imu,266.578921,0.2464389536,-9.580613397600002,2.7162118648,0.6281679099999999,1.74908693,-3.6459202,,,
imu,266.587308,0.242251884,-9.581809703200001,2.713221100800001,0.5982602699999999,1.55468727,-3.81041222,,,
imu,266.595695,0.2530186344000001,-9.5949690648,2.7192026288,0.620691,1.44253362,-3.9449966,,,
imu,266.604083,0.2518223288000001,-9.585996772800002,2.7257823096,0.59078336,1.34533379,-3.90013514,,,
imu,266.61247,0.2458408008,-9.5501076048,2.72159524,0.53844499,1.10607267,-3.72816621,,,
imu,266.620857,0.2506260232,-9.564463272000001,2.7203989344,0.41881443,0.98644211,-3.80293531,,,
imu,266.629244,0.2440463424,-9.5877912312,2.72159524,0.3739529699999999,0.8219500899999996,-3.90013514,,,
imu,266.637632,0.23926112,-9.5877912312,2.7257823096,0.4861066199999999,0.78456554,-3.90013514,,,
imu,266.646019,0.2398592728,-9.5656595776,2.7329601432,0.46367589,0.7471809899999999,-3.98985806,,,
imu,266.654406,0.218325772,-9.560874355200001,2.740736129600001,0.3963837,0.41819695,-4.13191935,,,
imu,266.662793,0.2015774936,-9.5638651192,2.740736129600001,0.5010604399999999,0.3808123999999999,-4.02724261,,,
imu,266.671181,0.1800439928,-9.5740337168,2.7329601432,0.57582954,0.27613566,-3.96742733,,,
imu,266.679568,0.1471455888,-9.5776226336,2.729371226400001,0.76275229,0.2836125699999998,-3.95995042,,,
imu,266.688289,0.1351825328,-9.578818939200001,2.7371472128,0.80013684,0.3060432999999998,-3.84779677,,,
imu,266.697011,0.137575144,-9.578220786400001,2.731165684800001,0.66555246,0.4705353199999998,-3.89265823,,,
imu,266.705732,0.1262102408,-9.591380148,2.736549060000001,0.70293701,0.56025824,-3.93751969,,,
imu,266.714454,0.1297991576,-9.591380148,2.7323619904,0.78518302,0.70231953,-4.02724261,,,
imu,266.723175,0.13458438,-9.593772759200002,2.748512116,0.65059864,0.8518577299999999,-4.057150249999999,,,
imu,266.731896,0.1339862272,-9.5668558832,2.730567532,0.51601426,0.8742884599999998,-4.0197657,,,
imu,266.740618,0.1351825328,-9.551303910400001,2.7263804624,0.65059864,1.0537343,-3.84779677,,,
imu,266.749339,0.1327899216,-9.556089132800002,2.7299693792,0.56087572,0.8892422799999999,-3.95247351,,,
imu,266.758061,0.143556672,-9.553098368800002,2.7192026288,0.63564482,1.09111885,-3.96742733,,,
imu,266.766782,0.1381732968,-9.5429297712,2.7239878512,0.65059864,1.27056469,-3.87770441,,,
imu,266.775503,0.1441548248,-9.520798117600002,2.7072395728,0.70293701,1.28551851,-3.78050458,,,
imu,266.784225,0.1513326584,-9.516611048000001,2.7000617392,0.85995212,1.37524143,-3.55619728,,,
imu,266.792946,0.1597067976,-9.522592576000001,2.6880986832,0.9197674,1.37524143,-3.53376655,,,
imu,266.801667,0.155519728,-9.520798117600002,2.6892949888,1.04687487,1.39767216,-3.53376655,,,
imu,266.810389,0.1710717008,-9.529770409600001,2.696472822400001,1.31604363,1.39019525,-3.36179762,,,
imu,266.81911,0.1746606176,-9.551303910400001,2.6910894472,1.50296638,1.53973345,-3.25712088,,,
imu,266.827832,0.1662864784,-9.577024480800002,2.6851079192,1.43567419,1.41262598,-3.48890509,,,
imu,266.836553,0.17944584,-9.597959828800002,2.701856197600001,1.40576655,1.24813396,-3.63844329,,,
imu,266.845274,0.1890162848,-9.619493329600001,2.704248808800001,1.39828964,1.2780416,-3.5711511,,,
imu,266.853996,0.19439966,-9.630858232800001,2.722791545600001,1.27118217,1.27056469,-3.63096638,,,
imu,266.862717,0.1926052016,-9.655382497600002,2.7192026288,1.03192105,1.32290306,-3.70573548,,,
imu,266.871439,0.1878199792,-9.644017594400001,2.724586004,0.9347212199999999,1.27056469,-3.78798149,,,
imu,266.88016,0.1908107432,-9.630858232800001,2.70664142,0.7104139199999999,1.2032725,-3.75059694,,,
imu,266.888639,0.1818384512,-9.626671163200001,2.7114266424,0.51601426,1.02382666,-3.77302767,,,
imu,266.897118,0.1818384512,-9.614708107200002,2.7192026288,0.33656842,1.03878048,-3.93751969,,,
imu,266.905596,0.1746606176,-9.6087265792,2.722791545600001,0.07487657,1.00887284,-4.02724261,,,
imu,266.914075,0.1728661592,-9.600352440000002,2.709632184,0.06739966,0.8518577299999999,-4.02724261,,,
imu,266.922554,0.1698753952,-9.591978300800001,2.715613712000001,0.06739966,0.8369039099999998,-4.124442439999999,,,
imu,266.931033,0.16449202,-9.580613397600002,2.7180063232,0.12721494,0.8294269999999999,-4.10948862,,,
imu,266.939512,0.1579123392,-9.5776226336,2.7257823096,0.13469185,0.9789651999999998,-3.93751969,,,
imu,266.94799,0.1603049504,-9.595567217600001,2.7221933928,0.17955331,0.7696117199999999,-3.89265823,,,
imu,266.956469,0.1680809368,-9.5949690648,2.7317638376,0.16459949,0.9191499199999997,-3.90761205,,,
imu,266.964948,0.1567160336,-9.569248494400002,2.731165684800001,0.09730729999999999,0.9191499199999997,-3.97490424,,,
imu,266.973427,0.1531271168,-9.554892827200002,2.7203989344,0.12721494,1.01634975,-3.9449966,,,
imu,266.981906,0.16449202,-9.557285438400001,2.715613712000001,0.12721494,1.01634975,-3.82536604,,,
imu,266.990384,0.1609031032,-9.559678049600002,2.7347546016,0.27675314,1.08364194,-3.83284295,,,
imu,266.998863,0.1579123392,-9.560874355200001,2.7449231992,0.15712258,1.13598031,-3.90761205,,,
imu,267.007342,0.1543234224,-9.5429297712,2.757484408000001,0.19450713,1.00139593,-4.012288789999999,,,
imu,267.015821,0.1507345056,-9.568052188800001,2.7730363808,0.2468455,1.08364194,-3.97490424,,,
imu,267.0243,0.13458438,-9.583006008800002,2.78141052,0.14216876,1.25561087,-3.93751969,,,
imu,267.032778,0.1357806856,-9.557883591200001,2.783204978400001,0.11226112,1.24065705,-3.90013514,,,
imu,267.041257,0.1387714496,-9.549509452,2.7909809648,0.01506129,1.24065705,-3.84031986,,,
imu,267.049736,0.1381732968,-9.551303910400001,2.784401284,0.18703022,1.36776452,-3.75059694,,,
imu,267.058215,0.143556672,-9.546518688,2.7700456168,0.31413769,1.45001053,-3.45899745,,,
imu,267.066694,0.131593616,-9.5459205352,2.7646622416,0.44872207,1.47991817,-3.33936689,,,
imu,267.075172,0.1423603664,-9.5249851872,2.757484408000001,0.56087572,1.56216418,-3.3468438,,,
imu,267.083651,0.1632957144,-9.5237888816,2.761671477600001,0.79265993,1.62197946,-3.30198234,,,
imu,267.09212,0.1686790896,-9.5219944232,2.7748308392,0.8674290299999999,1.53225654,-3.56367419,,,
imu,267.100588,0.173464312,-9.526181492800001,2.7766252976,1.00949032,1.62197946,-3.66087402,,,
imu,267.109057,0.1818384512,-9.530966715200002,2.775428992000001,1.12164397,1.64441019,-3.66835093,,,
imu,267.117526,0.1812402984,-9.550705757600001,2.7682511584,1.12164397,1.63693328,-3.74312003,,,
imu,267.125994,0.1896144376,-9.536350090400001,2.7664567,1.09921324,1.63693328,-3.67582784,,,
imu,267.134463,0.17944584,-9.5501076048,2.7568862552,1.11416706,1.62197946,-3.77302767,,,
imu,267.142932,0.176455076,-9.535153784800002,2.7556899496,1.33847436,1.70422547,-3.68330475,,,
imu,267.1514,0.1812402984,-9.520199964800002,2.7509047272,1.36090509,1.73413311,-3.68330475,,,
imu,267.159869,0.1860255208,-9.5291722568,2.7329601432,1.34595127,1.62945637,-3.78050458,,,
imu,267.168337,0.188418132,-9.5357519376,2.729371226400001,1.47305874,1.65936401,-3.66087402,,,
imu,267.176806,0.1926052016,-9.537546396000002,2.7329601432,1.58521239,1.74908693,-3.68330475,,,
imu,265.856977,,,,,,,87.81858600000001,-19.18364520000002,120.28366
imu,265.958539,,,,,,,86.98849639999999,-18.81742920000002,120.2348312
imu,266.060132,,,,,,,87.80637879999999,-19.13481640000001,119.9662728
imu,266.161664,,,,,,,87.1716044,-18.76860040000001,120.3324888
imu,266.263227,,,,,,,89.8693956,-19.54986120000002,117.3417248
imu,266.36482,,,,,,,87.5378204,-19.02495160000002,119.9540656
imu,266.466352,,,,,,,89.91822439999999,-19.52544680000001,117.8178056
imu,266.568341,,,,,,,87.7941716,-18.50004200000001,120.3569032
imu,267.185275,0.1896144376,-9.5566872856,2.725184156800001,1.63007385,1.62197946,-3.89265823,,,
imu,267.193743,0.1806421456,-9.566257730400002,2.725184156800001,1.64502767,1.577118,-4.00481188,,,
imu,267.202212,0.173464312,-9.5812115504,2.7281749208,1.47305874,1.47991817,-4.16182699,,,
imu,267.210681,0.1632957144,-9.578818939200001,2.7239878512,1.49548947,1.30794924,-4.21416536,,,
imu,267.219149,0.1632957144,-9.599754287200001,2.7263804624,1.54782784,1.38271834,-4.15435008,,,
imu,267.227618,0.1680809368,-9.597959828800002,2.715613712000001,1.53287402,1.41262598,-4.0197657,,,
imu,267.236087,0.1728661592,-9.5865949256,2.717408170400001,1.40576655,1.46496435,-3.97490424,,,
imu,267.244555,0.1626975616,-9.612315496,2.729371226400001,1.28613599,1.51730272,-3.81788913,,,
imu,267.253024,0.1489400472,-9.6428212888,2.7413342824,1.21136689,1.45001053,-3.89265823,,,
imu,267.261492,0.1561178808,-9.655382497600002,2.739539824,1.18145925,1.50982581,-3.84779677,,,
imu,267.269961,0.1507345056,-9.626671163200001,2.7419324352,0.9646288599999999,1.41262598,-3.85527368,,,
imu,267.27843,0.1483418944,-9.6248767048,2.7497084216,0.78518302,1.45001053,-3.90013514,,,
imu,267.286898,0.146547436,-9.641624983200002,2.7443250464,0.64312173,1.48739508,-3.82536604,,,
imu,267.295766,0.152528964,-9.631456385600002,2.7359509072,0.47862971,1.55468727,-3.78050458,,,
imu,267.304633,0.1453511304,-9.6015487456,2.740736129600001,0.33656842,1.61450255,-3.76555076,,,
imu,267.3135,0.1519308112,-9.5877912312,2.7383435184,0.17955331,1.65936401,-3.78050458,,,
imu,267.322373,0.161501256,-9.5566872856,2.7341564488,0.2468455,1.73413311,-3.67582784,,,
imu,267.33124,0.1507345056,-9.543527924000001,2.7180063232,0.34404533,1.73413311,-3.66087402,,,
imu,267.340108,0.152528964,-9.5459205352,2.7144174064,0.32909151,1.71170238,-3.73564312,,,
imu,267.348975,0.1579123392,-9.537546396000002,2.712622948,0.52349117,1.85376367,-3.61601256,,,
imu,267.357842,0.1758569232,-9.527975951200002,2.72159524,0.6132140899999999,1.65936401,-3.53376655,,,
imu,267.36671,0.1770532288,-9.556089132800002,2.713221100800001,0.68798319,1.68927165,-3.59358183,,,
imu,267.375577,0.1698753952,-9.575230022400001,2.7329601432,0.68050628,1.70422547,-3.54872037,,,
imu,267.384444,0.1776513816,-9.583006008800002,2.7341564488,0.620691,1.62197946,-3.68330475,,,
imu,267.393312,0.1842310624,-9.575828175200002,2.7383435184,0.55339881,1.59207182,-3.66087402,,,
imu,267.402179,0.1932033544,-9.578818939200001,2.7401379768,0.56087572,1.58459491,-3.496382,,,
imu,267.411046,0.2039701048,-9.591380148,2.736549060000001,0.5010604399999999,1.47991817,-3.54872037,,,
imu,267.419914,0.185427368,-9.585398620000001,2.7299693792,0.4861066199999999,1.39019525,-3.65339711,,,
imu,267.428781,0.1890162848,-9.578818939200001,2.7341564488,0.4861066199999999,1.43505671,-3.60853565,,,
imu,267.437649,0.1758569232,-9.579417092000002,2.730567532,0.31413769,1.39019525,-3.74312003,,,
imu,267.446516,0.1788476872,-9.5776226336,2.727576768,0.25432241,1.4275798,-3.76555076,,,
imu,267.455383,0.1776513816,-9.573435564,2.7341564488,0.29170696,1.36776452,-3.8702275,,,
imu,267.464251,0.1926052016,-9.565061424800001,2.742530588,0.28423005,1.31542615,-3.91508896,,,
imu,267.473118,0.185427368,-9.5740337168,2.745521352,0.25432241,1.40514907,-3.97490424,,,
imu,267.481985,0.1908107432,-9.578818939200001,2.761671477600001,0.28423005,1.29299542,-4.034719519999999,,,
imu,267.490853,0.1842310624,-9.585996772800002,2.764064088800001,0.1720764,1.29299542,-4.0945348,,,
imu,267.499274,0.1770532288,-9.572837411200002,2.7664567,0.14216876,1.29299542,-4.012288789999999,,,
imu,267.507696,0.1818384512,-9.5602762024,2.7861957424,0.11226112,1.34533379,-4.07210407,,,
imu,267.516117,0.1836329096,-9.554294674400001,2.7802142144,0.11226112,1.34533379,-4.07210407,,,
imu,267.524539,0.1866236736,-9.554892827200002,2.783204978400001,0.25432241,1.24065705,-4.124442439999999,,,
imu,267.53296,0.182436604,-9.547116840800001,2.7867938952,0.08235347999999998,1.15841104,-4.22164227,,,
imu,267.541382,0.1932033544,-9.530368562400001,2.7861957424,0.2468455,1.30794924,-4.21416536,,,
imu,267.549804,0.1908107432,-9.530368562400001,2.805934784800001,0.41133752,1.26308778,-4.19921154,,,
imu,267.558225,0.1830347568,-9.541135312800002,2.790382812,0.53844499,1.23318014,-4.29641137,,,
imu,267.566647,0.1800439928,-9.5291722568,2.7927754232,0.56835263,1.33037997,-4.20668845,,,
imu,267.575068,0.1866236736,-9.517807353600002,2.7915791176,0.7702292,1.33785688,-4.13939626,,,
imu,267.58349,0.1908107432,-9.5172092008,2.787392048000001,0.78518302,1.16588795,-4.13191935,,,
imu,267.591912,0.1842310624,-9.534555632000002,2.7927754232,1.03939796,1.23318014,-4.0197657,,,
imu,267.600333,0.1836329096,-9.533359326400001,2.78141052,1.00949032,1.39019525,-4.102011709999999,,,
imu,267.608755,0.1932033544,-9.526181492800001,2.7778216032,1.23379762,1.28551851,-4.20668845,,,
imu,267.617176,0.1800439928,-9.5566872856,2.790382812,1.45062801,1.22570323,-4.21416536,,,
imu,267.625598,0.1872218264,-9.562668813600002,2.784401284,1.30108981,1.07616503,-4.3936112,,,
imu,267.634019,0.1806421456,-9.541733465600002,2.7838031312,1.21136689,1.03130357,-4.55810322,,,
imu,267.642441,0.1698753952,-9.5602762024,2.7867938952,1.16650543,1.06121121,-4.47585721,,,
imu,267.650863,0.1549215752,-9.6009505928,2.790382812,1.18893616,0.9789651999999998,-4.46090339,,,
imu,267.659284,0.143556672,-9.599754287200001,2.783204978400001,1.01696723,0.8144731799999998,-4.4683803,,,
imu,267.667706,0.1543234224,-9.573435564,2.7867938952,1.01696723,0.9789651999999998,-4.25902682,,,
imu,267.676127,0.1429585192,-9.576426328,2.769447464,1.03939796,0.9191499199999997,-4.102011709999999,,,
imu,267.684549,0.1399677552,-9.578220786400001,2.7562881024,1.09173633,1.0537343,-3.9449966,,,
imu,267.692971,0.1274065464,-9.565061424800001,2.7347546016,1.23379762,0.98644211,-3.82536604,,,
imu,267.70144,0.131593616,-9.551902063200002,2.729371226400001,1.36090509,0.9714882899999999,-3.63096638,,,
imu,267.70991,0.1357806856,-9.556089132800002,2.729371226400001,1.6674584,1.2032725,-3.62348947,,,
imu,267.71838,0.1471455888,-9.5704448,2.729371226400001,1.57773548,1.16588795,-3.74312003,,,
imu,267.72685,0.1471455888,-9.5656595776,2.733558296,1.65250458,1.11354958,-3.95247351,,,
imu,267.73532,0.1459492832,-9.564463272000001,2.726978615200001,1.50296638,1.11354958,-4.19173463,,,
imu,267.74379,0.1393696024,-9.583006008800002,2.7281749208,1.37585891,0.9939190199999999,-4.33379592,,,
imu,267.75226,0.1333880744,-9.5907819952,2.722791545600001,1.30856672,1.1285034,-4.28145755,,,
imu,267.76073,0.1292010048,-9.589585689600002,2.731165684800001,1.12164397,1.18831868,-4.37865738,,,
imu,267.7692,0.1280046992,-9.597959828800002,2.748512116,1.10669015,1.2780416,-4.35622665,,,
imu,267.77767,0.1172379488,-9.6015487456,2.748512116,0.8375213899999999,1.34533379,-4.318842099999999,,,
imu,267.786139,0.1160416432,-9.596165370400001,2.7449231992,0.40386061,1.47991817,-4.37118047,,,
imu,267.794609,0.1268083936,-9.575230022400001,2.750306574400001,0.43376825,1.68179474,-4.25902682,,,
imu,267.803079,0.1363788384,-9.5590798968,2.7532973384,0.3216146,1.74908693,-4.19921154,,,
imu,267.811549,0.1369769912,-9.560874355200001,2.7347546016,0.29918387,1.62197946,-4.21416536,,,
imu,267.820019,0.128602852,-9.5566872856,2.748512116,0.36647606,1.62945637,-4.28145755,,,
imu,267.828489,0.1471455888,-9.562668813600002,2.7670548528,0.35152224,1.49487199,-4.408565019999999,,,
imu,267.836959,0.1597067976,-9.5638651192,2.7772234504,0.3963837,1.47991817,-4.341272829999999,,,
imu,267.845429,0.1519308112,-9.591978300800001,2.7820086728,0.4861066199999999,1.31542615,-4.28145755,,,
imu,267.853899,0.1357806856,-9.5704448,2.7802142144,0.3963837,1.2032725,-4.32631901,,,
imu,267.862369,0.1327899216,-9.5489112992,2.7927754232,0.50853735,1.32290306,-4.18425772,,,
imu,267.870838,0.1303973104,-9.589585689600002,2.8065329376,0.57582954,1.23318014,-4.0945348,,,
imu,267.879308,0.1130508792,-9.5985579816,2.8131126184,0.44124516,1.03878048,-4.16182699,,,
imu,267.887778,0.1124527264,-9.574631869600001,2.8101218544,0.43376825,0.9640113799999996,-4.04219643,,,
imu,267.896248,0.1040785872,-9.558481744000002,2.8190941464,0.3216146,0.9415806499999997,-4.0197657,,,
imu,267.904708,0.09869521200000002,-9.558481744000002,2.8184959936,0.26179932,0.9565344699999998,-4.124442439999999,,,
imu,267.913168,0.09510629520000001,-9.553696521600001,2.8047384792,0.43376825,1.03130357,-3.98985806,,,
imu,267.921627,0.08673215600000002,-9.5381445488,2.7975606456,0.4861066199999999,1.11354958,-3.78050458,,,
imu,267.930087,0.0861340032,-9.534555632000002,2.7927754232,0.57582954,1.19579559,-3.73564312,,,
imu,267.938547,0.09510629520000001,-9.528574104,2.7915791176,0.79265993,1.39767216,-3.66835093,,,
imu,267.947006,0.10467674,-9.526779645600001,2.783204978400001,0.8973366700000001,1.56216418,-3.75807385,,,
imu,267.955466,0.09989151760000002,-9.526181492800001,2.787392048000001,0.9197674,1.59207182,-3.78798149,,,
imu,267.963926,0.1124527264,-9.526779645600001,2.7802142144,1.12164397,1.64441019,-3.75059694,,,
imu,267.972386,0.122621324,-9.519601812000001,2.7748308392,1.32352054,1.74908693,-3.72816621,,,
imu,267.980845,0.1381732968,-9.5213962704,2.772438228,1.36090509,1.74161002,-4.00481188,,,
imu,267.989305,0.1411640608,-9.554892827200002,2.7664567,1.43567419,1.9509635,-3.83284295,,,
imu,267.997765,0.1495382,-9.5698466472,2.775428992000001,1.48053565,1.92105586,-3.98985806,,,
imu,266.671661,,,,,,,87.635478,-18.59769960000002,119.551228
imu,266.771027,,,,,,,87.57444199999999,-19.20805960000001,121.0405064
imu,266.872589,,,,,,,87.4157484,-18.79301480000002,120.6742904
imu,266.974182,,,,,,,87.8674148,-18.4878348,119.8930296
imu,267.075714,,,,,,,87.9650724,-18.86625800000001,119.9052368
imu,267.177368,,,,,,,88.0749372,-18.79301480000002,119.4779848
imu,267.278839,,,,,,,87.39133400000001,-18.40238440000002,120.527804
imu,267.380402,,,,,,,90.07691799999999,-19.40337480000001,117.8666344
imu,268.006225,0.155519728,-9.5566872856,2.760475172,1.51044329,1.74908693,-4.04967334,,,
imu,268.014684,0.1579123392,-9.5566872856,2.772438228,1.33099745,1.7266562,-4.057150249999999,,,
imu,268.023144,0.1531271168,-9.574631869600001,2.7628677832,1.30856672,1.71917929,-4.079580979999999,,,
imu,268.031604,0.1609031032,-9.572239258400002,2.7628677832,1.42072037,1.62945637,-3.98985806,,,
imu,268.040063,0.152528964,-9.5800152448,2.760475172,1.37585891,1.46496435,-4.057150249999999,,,
imu,268.048523,0.161501256,-9.588987536800001,2.7610733248,1.24127453,1.27056469,-4.17678081,,,
imu,268.056983,0.1656883256,-9.589585689600002,2.746119504800001,1.25622835,1.21074941,-3.97490424,,,
imu,268.065443,0.1561178808,-9.590183842400002,2.7413342824,1.30108981,1.18084177,-3.8702275,,,
imu,268.073902,0.152528964,-9.595567217600001,2.7473158104,1.27865908,1.03878048,-3.85527368,,,
imu,268.082362,0.1501363528,-9.599754287200001,2.7473158104,1.16650543,0.84438082,-3.71321239,,,
imu,268.090822,0.1495382,-9.613511801600001,2.743726893600001,1.18145925,0.8817653699999997,-3.73564312,,,
imu,268.099282,0.143556672,-9.6296619272,2.7592788664,1.00201341,1.02382666,-3.7206893,,,
imu,268.107774,0.1208268656,-9.6260730104,2.7521010328,0.8973366700000001,1.06121121,-3.69078166,,,
imu,268.116267,0.1297991576,-9.617698871200002,2.7521010328,0.7403215599999999,1.09859576,-3.87770441,,,
imu,268.12476,0.137575144,-9.614109954400002,2.754493644000001,0.53844499,1.21822632,-3.89265823,,,
imu,268.133253,0.1351825328,-9.591978300800001,2.7550917968,0.3216146,1.23318014,-3.87770441,,,
imu,268.141745,0.1297991576,-9.5842023144,2.7526991856,0.26179932,1.30047233,-3.82536604,,,
imu,268.150238,0.1453511304,-9.5602762024,2.750306574400001,0.05244583999999999,1.29299542,-3.98238115,,,
imu,268.158731,0.1411640608,-9.552500216,2.7509047272,0.1720764,1.41262598,-4.04219643,,,
imu,268.167224,0.1393696024,-9.541733465600002,2.7586807136,0.14964567,1.44253362,-4.21416536,,,
imu,268.175717,0.1483418944,-9.535153784800002,2.7670548528,0.18703022,1.29299542,-4.47585721,,,
imu,268.184209,0.152528964,-9.5393408544,2.779616061600001,0.14964567,1.17336486,-4.5431494,,,
imu,268.192702,0.143556672,-9.556089132800002,2.7802142144,0.35152224,1.2032725,-4.47585721,,,
imu,268.201195,0.1399677552,-9.554294674400001,2.784999436800001,0.3963837,1.15093413,-4.44594957,,,
imu,268.209688,0.1417622136,-9.562070660800002,2.7981587984,0.6281679099999999,1.00139593,-4.43847266,,,
imu,268.218181,0.1292010048,-9.5907819952,2.7897846592,0.6132140899999999,0.76213481,-4.46090339,,,
imu,268.226673,0.125612088,-9.572239258400002,2.783204978400001,0.55339881,0.6948426199999997,-4.386134289999999,,,
imu,268.235166,0.1124527264,-9.567454036,2.793373576,0.6132140899999999,0.72475026,-4.20668845,,,
imu,268.243659,0.1034804344,-9.581809703200001,2.805336632,0.51601426,0.6948426199999997,-4.10948862,,,
imu,268.252152,0.09151737840000002,-9.591978300800001,2.8149070768,0.34404533,0.6051196999999999,-4.124442439999999,,,
imu,268.260645,0.09989151760000002,-9.5602762024,2.817897840800001,0.23189168,0.6051196999999999,-4.29641137,,,
imu,268.269137,0.08254508640000002,-9.5632669664,2.820290452000001,0.22441477,0.58268897,-4.146873169999999,,,
imu,268.27763,0.0693857248,-9.571042952800001,2.8149070768,0.14216876,0.6574580699999997,-4.034719519999999,,,
imu,268.286123,0.07716171120000001,-9.5566872856,2.8131126184,-0.04475399000000001,0.6499811599999998,-3.96742733,,,
imu,268.294616,0.08254508640000002,-9.533957479200001,2.805934784800001,-0.02980017,0.6724118899999998,-3.92256587,,,
imu,268.303108,0.08194693360000001,-9.534555632000002,2.8047384792,0.27675314,0.7471809899999999,-3.90013514,,,
imu,268.311898,0.07297464160000001,-9.553098368800002,2.7975606456,0.49358353,0.8593346399999997,-3.82536604,,,
imu,268.320687,0.06519865520000001,-9.5381445488,2.783204978400001,0.5459219,0.8742884599999998,-3.55619728,,,
imu,268.329476,0.06101158560000001,-9.526181492800001,2.7867938952,0.80013684,0.8967191899999998,-3.51133582,,,
imu,268.338265,0.06460050240000001,-9.5501076048,2.7670548528,1.00201341,1.0537343,-3.35432071,,,
imu,268.347054,0.06579680800000001,-9.562070660800002,2.78141052,1.12164397,1.24065705,-3.31693616,,,
imu,268.355843,0.06160973840000001,-9.557883591200001,2.793373576,1.20388998,1.32290306,-3.36927453,,,
imu,268.364632,0.0753672528,-9.5566872856,2.783204978400001,1.06182869,1.37524143,-3.44404363,,,
imu,268.373421,0.07058203040000001,-9.562668813600002,2.7897846592,0.8375213899999999,1.47991817,-3.48142818,,,
imu,268.38221,0.08254508640000002,-9.561472508000001,2.790382812,0.6954601,1.64441019,-3.496382,,,
imu,268.390999,0.09211553120000002,-9.5602762024,2.805934784800001,0.50853735,1.60702564,-3.56367419,,,
imu,268.399788,0.09151737840000002,-9.558481744000002,2.796962492800001,0.41881443,1.76404075,-3.56367419,,,
imu,268.408577,0.1058730456,-9.552500216,2.7838031312,0.27675314,1.60702564,-3.69825857,,,
imu,268.417325,0.1154434904,-9.554892827200002,2.787392048000001,0.29918387,1.7266562,-3.65339711,,,
imu,268.426114,0.1250139352,-9.561472508000001,2.784999436800001,0.32909151,1.68179474,-3.75059694,,,
imu,268.434903,0.1309954632,-9.557883591200001,2.7802142144,0.32909151,1.63693328,-3.77302767,,,
imu,268.443692,0.1262102408,-9.556089132800002,2.7826068256,0.38142988,1.56964109,-3.65339711,,,
imu,268.452482,0.122621324,-9.560874355200001,2.7909809648,0.44872207,1.44253362,-3.56367419,,,
imu,268.461271,0.1208268656,-9.5638651192,2.7981587984,0.33656842,1.46496435,-3.45899745,,,
imu,268.47006,0.1244157824,-9.5704448,2.7981587984,0.29918387,1.30794924,-3.45899745,,,
imu,268.478849,0.1292010048,-9.581809703200001,2.8005514096,0.38142988,1.33037997,-3.50385891,,,
imu,268.487638,0.125612088,-9.5740337168,2.8035421736,0.42629134,1.36028761,-3.45152054,,,
imu,268.496427,0.1262102408,-9.5357519376,2.7981587984,0.41881443,1.23318014,-3.43656672,,,
imu,268.505216,0.1262102408,-9.534555632000002,2.8167015352,0.41881443,1.23318014,-3.54872037,,,
imu,268.513687,0.1034804344,-9.587193078400002,2.8077292432,0.3963837,1.22570323,-3.54872037,,,
imu,268.522158,0.1052748928,-9.605735815200001,2.8095237016,0.31413769,1.11354958,-3.62348947,,,
imu,268.530629,0.101685976,-9.575230022400001,2.8011495624,0.29170696,1.1285034,-3.65339711,,,
imu,268.539101,0.09630260080000001,-9.575828175200002,2.823281216,0.30666078,1.19579559,-3.74312003,,,
imu,268.547572,0.09510629520000001,-9.594370912,2.8208886048,0.3739529699999999,1.34533379,-3.52628964,,,
imu,268.556043,0.09570444800000001,-9.595567217600001,2.8244775216,0.32909151,1.47244126,-3.24964397,,,
imu,268.564514,0.0980970592,-9.595567217600001,2.822084910400001,0.03001510999999998,1.48739508,-3.35432071,,,
imu,268.572985,0.1052748928,-9.580613397600002,2.8214867576,-0.02980017,1.59954873,-3.32441307,,,
imu,268.581456,0.1214250184,-9.591380148,2.8238793688,-0.0522309,1.78647148,-3.24216706,,,
imu,268.589928,0.1262102408,-9.5602762024,2.8184959936,-0.02980017,1.74161002,-3.3468438,,,
imu,268.598399,0.1411640608,-9.555490980000002,2.817897840800001,-0.13447691,1.75656384,-3.47395127,,,
imu,268.60687,0.1399677552,-9.534555632000002,2.8184959936,-0.11952309,1.66684092,-3.6459202,,,
imu,268.615341,0.1399677552,-9.516012895200001,2.8184959936,-0.07466163,1.62197946,-3.55619728,,,
imu,268.623812,0.1399677552,-9.511227672800002,2.8184959936,0.06739966,1.51730272,-3.54124346,,,
imu,268.632283,0.137575144,-9.5004609224,2.8071310904,0.12721494,1.577118,-3.60853565,,,
imu,268.640755,0.1268083936,-9.499862769600002,2.8119163128,0.16459949,1.54721036,-3.61601256,,,
imu,268.649226,0.13458438,-9.5082369088,2.81131816,0.29170696,1.43505671,-3.57862801,,,
imu,268.657697,0.1417622136,-9.513620284000002,2.8089255488,0.46367589,1.4275798,-3.53376655,,,
imu,268.666168,0.1387714496,-9.530966715200002,2.8208886048,0.51601426,1.37524143,-3.47395127,,,
imu,268.674639,0.1321917688,-9.5393408544,2.8208886048,0.44872207,1.41262598,-3.44404363,,,
imu,268.683111,0.13458438,-9.536948243200001,2.823281216,0.4861066199999999,1.45748744,-3.50385891,,,
imu,268.691582,0.1411640608,-9.5590798968,2.823281216,0.58330645,1.48739508,-3.31693616,,,
imu,268.700053,0.143556672,-9.5566872856,2.835244272,0.56835263,1.36028761,-3.35432071,,,
imu,268.708524,0.1387714496,-9.573435564,2.844216564,0.5459219,1.22570323,-3.45152054,,,
imu,268.716998,0.1363788384,-9.5800152448,2.854983314400001,0.41881443,1.26308778,-3.51133582,,,
imu,268.725471,0.1369769912,-9.5812115504,2.8573759256,0.29918387,1.40514907,-3.52628964,,,
imu,268.733945,0.1363788384,-9.5776226336,2.841225800000001,0.46367589,1.42010289,-3.496382,,,
imu,268.742419,0.13458438,-9.559678049600002,2.838235036,0.41133752,1.25561087,-3.63844329,,,
imu,268.750893,0.1292010048,-9.568650341600001,2.845412869600001,0.14216876,1.3528107,-3.69078166,,,
imu,268.759366,0.128602852,-9.556089132800002,2.8400294944,0.20198404,1.25561087,-3.60853565,,,
imu,268.76784,0.1280046992,-9.555490980000002,2.8490017864,0.2468455,1.25561087,-3.59358183,,,
imu,268.776314,0.1118545736,-9.549509452,2.845412869600001,0.2468455,1.36776452,-3.58610492,,,
imu,268.784787,0.1178361016,-9.543527924000001,2.8424221056,0.25432241,1.42010289,-3.57862801,,,
imu,268.793261,0.11963056,-9.551303910400001,2.8490017864,0.22441477,1.3528107,-3.66835093,,,
imu,268.801735,0.1148453376,-9.538742701600002,2.8460110224,0.27675314,1.32290306,-3.81041222,,,
imu,268.810209,0.1154434904,-9.534555632000002,2.844216564,0.34404533,1.34533379,-3.75059694,,,
imu,268.818682,0.10467674,-9.552500216,2.8519925504,0.29170696,1.33785688,-3.72816621,,,
imu,267.481964,,,,,,,87.51340599999999,-18.60990680000001,119.734336
imu,267.583588,,,,,,,90.1745756,-19.110402,117.4027608
imu,267.685089,,,,,,,87.39133400000001,-18.71977160000002,120.2470384
imu,267.786652,,,,,,,87.9650724,-18.09720440000002,120.1249664
imu,267.888336,,,,,,,87.7087212,-18.46342040000002,120.2958672
imu,267.989777,,,,,,,87.6720996,-18.41459160000001,119.9540656
imu,268.0914,,,,,,,87.8307932,-18.60990680000001,119.551228
imu,268.193024,,,,,,,87.5622348,-18.63432120000002,119.8319936
imu,268.827156,0.113649032,-9.554294674400001,2.8507962448,0.17955331,1.36028761,-3.78050458,,,
imu,268.83563,0.1172379488,-9.538742701600002,2.8478054808,0.20198404,1.45748744,-3.60853565,,,
imu,268.844103,0.1112564208,-9.528574104,2.8543851616,0.33656842,1.5023489,-3.45152054,,,
imu,268.852577,0.1184342544,-9.552500216,2.8675445232,0.21693786,1.3528107,-3.51881273,,,
imu,268.861051,0.1118545736,-9.531564868,2.853188856,0.26927623,1.39019525,-3.48890509,,,
imu,268.869525,0.1118545736,-9.512423978400001,2.859768536800001,0.15712258,1.3528107,-3.44404363,,,
imu,268.877998,0.1058730456,-9.534555632000002,2.8729278984,0.22441477,1.36776452,-3.39918217,,,
imu,268.886472,0.1112564208,-9.572239258400002,2.883096496000001,0.26927623,1.44253362,-3.32441307,,,
imu,268.894946,0.1130508792,-9.568650341600001,2.8824983432,0.08983038999999998,1.48739508,-3.27955161,,,
imu,268.903419,0.1262102408,-9.5566872856,2.898050316,0.11973803,1.47244126,-3.21225942,,,
imu,268.911893,0.1184342544,-9.549509452,2.8944613992,0.14964567,1.45001053,-3.21973633,,,
imu,268.920354,0.1202287128,-9.551303910400001,2.892068788,0.29918387,1.45001053,-3.15992105,,,
imu,268.928815,0.1190324072,-9.5459205352,2.8795075792,0.33656842,1.53225654,-2.86832156,,,
imu,268.937276,0.11963056,-9.519601812000001,2.874124204,0.41133752,1.42010289,-2.81598319,,,
imu,268.945737,0.122621324,-9.5219944232,2.866348217600001,0.5010604399999999,1.41262598,-2.69635263,,,
imu,268.954198,0.1244157824,-9.505844297600001,2.864553759200001,0.5982602699999999,1.49487199,-2.72626027,,,
imu,268.962659,0.1303973104,-9.495077547200001,2.856777772800001,0.78518302,1.60702564,-2.87579847,,,
imu,268.97112,0.13458438,-9.495077547200001,2.8573759256,0.97210577,1.74161002,-3.00290594,,,
imu,268.979581,0.1333880744,-9.4980683112,2.853188856,0.97210577,1.89862513,-2.93561375,,,
imu,268.988042,0.140565908,-9.505246144800001,2.8615629952,1.03192105,1.98087114,-2.85336774,,,
imu,268.996503,0.1543234224,-9.519601812000001,2.868142676,1.17398234,2.13040934,-2.79355246,,,
imu,269.004964,0.1722680064,-9.519601812000001,2.8543851616,1.1440747,2.22760917,-2.83093701,,,
imu,269.013425,0.1896144376,-9.516012895200001,2.8507962448,1.11416706,2.46687029,-2.91318302,,,
imu,269.021886,0.203371952,-9.52558334,2.8579740784,1.04687487,2.3995781,-2.9729983,,,
imu,269.030347,0.2201202304,-9.553696521600001,2.8555814672,1.1440747,2.324809,-2.95804448,,,
imu,269.038808,0.2219146888,-9.5698466472,2.862161148000001,1.12164397,2.28742445,-3.04029049,,,
imu,269.047269,0.2320832864,-9.575828175200002,2.8669463704,1.03192105,2.19022462,-3.11505959,,,
imu,269.05573,0.2266999112,-9.574631869600001,2.873526051200001,0.8674290299999999,2.05564024,-3.21225942,,,
imu,269.064191,0.230288828,-9.577024480800002,2.892068788,0.68050628,1.86871749,-3.33936689,,,
imu,269.072652,0.2225128416,-9.571042952800001,2.8842928016,0.5982602699999999,1.80890221,-3.44404363,,,
imu,269.081113,0.2171294664,-9.557883591200001,2.883096496000001,0.44872207,1.59954873,-3.55619728,,,
imu,269.089574,0.2135405496,-9.568052188800001,2.889676176800001,0.45619898,1.53973345,-3.63096638,,,
imu,269.098035,0.1985867296,-9.546518688,2.8908724824,0.22441477,1.47991817,-3.73564312,,,
imu,269.106496,0.1961941184,-9.517807353600002,2.887283565600001,0.16459949,1.32290306,-3.71321239,,,
imu,269.114957,0.1938015072,-9.526779645600001,2.8986484688,0.18703022,1.24813396,-3.67582784,,,
imu,269.123414,0.188418132,-9.557285438400001,2.913004136000001,0.11226112,1.15093413,-3.69825857,,,
imu,269.131871,0.182436604,-9.530368562400001,2.9088170664,0.14964567,1.22570323,-3.75059694,,,
imu,269.140329,0.167482784,-9.490292324800002,2.9118078304,0.16459949,1.03878048,-3.90013514,,,
imu,269.148786,0.16449202,-9.502255380800001,2.9136022888,0.2468455,1.00139593,-4.00481188,,,
imu,269.157243,0.1638938672,-9.4980683112,2.9058263024,0.23189168,1.09111885,-3.92256587,,,
imu,269.1657,0.1513326584,-9.491488630400001,2.9076207608,0.3963837,1.07616503,-3.81041222,,,
imu,269.174157,0.1531271168,-9.471749588000002,2.9016392328,0.58330645,1.07616503,-3.89265823,,,
imu,269.182615,0.1513326584,-9.478329268800001,2.899246621600001,0.85995212,1.06868812,-3.78050458,,,
imu,269.191072,0.1459492832,-9.4729458936,2.8884798712,1.17398234,1.2032725,-3.63844329,,,
imu,269.199529,0.1417622136,-9.479525574400002,2.8807038848,1.16650543,1.18084177,-3.76555076,,,
imu,269.207986,0.1489400472,-9.499862769600002,2.883096496000001,1.33847436,1.13598031,-3.77302767,,,
imu,269.216443,0.1387714496,-9.51062952,2.877114968,1.62259694,1.30047233,-3.63844329,,,
imu,269.224901,0.152528964,-9.5172092008,2.8836946488,1.83195042,1.31542615,-3.51133582,,,
imu,269.233358,0.1423603664,-9.527377798400002,2.8854891072,1.88428879,1.39767216,-3.57862801,,,
imu,269.241815,0.1429585192,-9.5489112992,2.8842928016,1.95158098,1.59207182,-3.55619728,,,
imu,269.250272,0.1453511304,-9.5489112992,2.8765168152,1.91419643,1.577118,-3.51133582,,,
imu,269.258729,0.1477437416,-9.533957479200001,2.8669463704,1.99644244,1.67431783,-3.48142818,,,
imu,269.267186,0.1513326584,-9.543527924000001,2.8669463704,1.78708896,1.6518871,-3.4216129,,,
imu,269.275644,0.1626975616,-9.548313146400002,2.8609648424,1.5926893,1.74161002,-3.44404363,,,
imu,269.284101,0.1740624648,-9.553696521600001,2.8585722312,1.47305874,1.74908693,-3.41413599,,,
imu,269.292558,0.1788476872,-9.553696521600001,2.8484036336,1.5179202,1.74908693,-3.35432071,,,
imu,269.301015,0.1710717008,-9.562070660800002,2.8436184112,1.5179202,1.73413311,-3.2720747,,,
imu,269.309472,0.176455076,-9.5704448,2.8460110224,1.36090509,1.71170238,-3.4216129,,,
imu,269.31793,0.1812402984,-9.569248494400002,2.852590703200001,1.31604363,1.58459491,-3.44404363,,,
imu,269.326748,0.1896144376,-9.562070660800002,2.8543851616,1.12164397,1.55468727,-3.54872037,,,
imu,269.335566,0.1692772424,-9.5668558832,2.845412869600001,1.10669015,1.58459491,-3.48142818,,,
imu,269.344384,0.182436604,-9.577024480800002,2.852590703200001,1.01696723,1.59954873,-3.45152054,,,
imu,269.353203,0.17944584,-9.573435564,2.8495999392,1.01696723,1.73413311,-3.4216129,,,
imu,269.362021,0.1800439928,-9.557285438400001,2.859170384,0.83004448,1.71170238,-3.42908981,,,
imu,269.370839,0.1782495344,-9.5489112992,2.8537870088,0.9347212199999999,1.88367131,-3.45899745,,,
imu,269.379657,0.1860255208,-9.543527924000001,2.8519925504,0.79265993,1.8761944,-3.6459202,,,
imu,269.388476,0.1932033544,-9.551902063200002,2.8699371344,0.94967504,2.05564024,-3.5711511,,,
imu,269.397294,0.1997830352,-9.551902063200002,2.863955606400001,0.8449983,1.99582496,-3.75059694,,,
imu,269.406112,0.2069608688,-9.551902063200002,2.8603666896,0.7104139199999999,1.94348659,-3.8702275,,,
imu,269.41493,0.2147368552,-9.550705757600001,2.859170384,0.7702292,1.81637912,-3.9449966,,,
imu,269.423749,0.2189239248,-9.5393408544,2.8687408288,0.70293701,1.74161002,-4.06462716,,,
imu,269.432567,0.227298064,-9.548313146400002,2.87113344,0.66555246,1.61450255,-4.0945348,,,
imu,269.441385,0.2237091472,-9.5590798968,2.877713120800001,0.68050628,1.47991817,-4.06462716,,,
imu,269.450203,0.230288828,-9.5423316184,2.87113344,0.67302937,1.29299542,-4.08705789,,,
imu,269.459022,0.2231109944,-9.5172092008,2.8669463704,0.85995212,1.24065705,-3.85527368,,,
imu,269.46784,0.2207183832,-9.532163020800002,2.8657500648,0.82256757,1.03130357,-3.98238115,,,
imu,269.476658,0.2171294664,-9.547116840800001,2.865151912,0.85995212,0.8817653699999997,-4.0197657,,,
imu,269.485476,0.206362716,-9.5154147424,2.8699371344,0.8823828499999999,0.8219500899999996,-3.83284295,,,
imu,269.494295,0.1812402984,-9.4980683112,2.8789094264,0.9347212199999999,0.80699627,-3.73564312,,,
imu,269.503113,0.1716698536,-9.519601812000001,2.8717315928,0.8973366700000001,0.7546578999999998,-3.57862801,,,
imu,269.511842,0.1591086448,-9.5429297712,2.874124204,0.8823828499999999,0.8294269999999999,-3.68330475,,,
imu,269.52066,0.158510492,-9.520199964800002,2.8807038848,0.80013684,0.8742884599999998,-3.65339711,,,
imu,269.529144,0.155519728,-9.5148165896,2.877713120800001,1.00201341,0.8144731799999998,-3.62348947,,,
imu,269.537628,0.1489400472,-9.519003659200001,2.865151912,1.22632071,1.18084177,-3.53376655,,,
imu,269.546112,0.146547436,-9.533957479200001,2.8627593008,1.33847436,1.24813396,-3.51133582,,,
imu,269.554596,0.1477437416,-9.5184055064,2.862161148000001,1.56278166,1.33037997,-3.51881273,,,
imu,269.56308,0.1591086448,-9.5148165896,2.8340479664,1.64502767,1.44253362,-3.53376655,,,
imu,269.571564,0.1650901728,-9.541135312800002,2.835244272,1.67493531,1.49487199,-3.62348947,,,
imu,269.580048,0.1710717008,-9.534555632000002,2.8490017864,1.67493531,1.53225654,-3.87770441,,,
imu,269.588532,0.1668846312,-9.553098368800002,2.8537870088,1.58521239,1.52477963,-4.08705789,,,
imu,269.597015,0.1609031032,-9.556089132800002,2.8627593008,1.54782784,1.53225654,-4.19173463,,,
imu,269.605499,0.1567160336,-9.5638651192,2.8603666896,1.57773548,1.69674856,-4.11696553,,,
imu,269.613983,0.1638938672,-9.5740337168,2.85617962,1.42072037,1.84628676,-4.04219643,,,
imu,269.622467,0.167482784,-9.571641105600001,2.8609648424,1.11416706,1.84628676,-4.079580979999999,,,
imu,269.630951,0.16449202,-9.559678049600002,2.8555814672,0.8973366700000001,1.86871749,-3.96742733,,,
imu,269.639435,0.1668846312,-9.553098368800002,2.845412869600001,0.9048135799999999,1.98087114,-3.75807385,,,
imu,268.294386,,,,,,,87.7941716,-18.68315,119.3559128
imu,268.395918,,,,,,,87.8307932,-18.59769960000002,120.7841552
imu,268.497572,,,,,,,90.3943052,-19.31792440000002,118.3793368
imu,268.599013,,,,,,,87.29367640000001,-18.47562760000001,120.4911824
imu,268.700575,,,,,,,89.9060172,-19.0127444,118.086364
imu,268.802138,,,,,,,87.69651400000001,-18.41459160000001,118.7211384
imu,268.903914,,,,,,,88.3557028,-17.93851080000002,119.9418584
imu,269.005324,,,,,,,88.09935159999999,-18.14603320000001,119.2826696
imu,269.647919,0.1860255208,-9.551303910400001,2.853188856,0.7104139199999999,1.84628676,-3.99733497,,,
imu,269.656403,0.1896144376,-9.536350090400001,2.859170384,0.71789083,1.83133294,-3.87770441,,,
imu,269.664886,0.191408896,-9.5237888816,2.8579740784,0.74779847,1.67431783,-3.91508896,,,
imu,269.67337,0.1866236736,-9.527975951200002,2.8699371344,0.76275229,1.5023489,-4.079580979999999,,,
imu,269.681854,0.1848292152,-9.517807353600002,2.8675445232,0.82256757,1.36028761,-4.012288789999999,,,
imu,269.690338,0.1656883256,-9.5184055064,2.8765168152,0.83004448,1.18831868,-4.034719519999999,,,
imu,269.698822,0.1597067976,-9.519601812000001,2.8878817184,1.03192105,1.12102649,-3.95995042,,,
imu,269.707306,0.1531271168,-9.5154147424,2.8795075792,1.03939796,1.14345722,-3.84779677,,,
imu,269.71579,0.1399677552,-9.5118258256,2.8944613992,1.27865908,1.01634975,-3.78050458,,,
imu,269.724274,0.1208268656,-9.492086783200001,2.883096496000001,1.23379762,0.9341037399999998,-3.75059694,,,
imu,269.732745,0.1214250184,-9.4801237272,2.8819001904,1.28613599,1.24065705,-3.50385891,,,
imu,269.741216,0.110658268,-9.513620284000002,2.8932650936,1.42819728,1.31542615,-3.51881273,,,
imu,269.749687,0.1190324072,-9.532163020800002,2.8848909544,1.39828964,1.5023489,-3.50385891,,,
imu,269.758158,0.1280046992,-9.5184055064,2.8884798712,1.33099745,1.71917929,-3.496382,,,
imu,269.76663,0.1303973104,-9.5172092008,2.9004429272,1.45810492,1.76404075,-3.58610492,,,
imu,269.775101,0.1387714496,-9.536350090400001,2.8807038848,1.60764312,1.98087114,-3.53376655,,,
imu,269.783572,0.1495382,-9.562668813600002,2.8902743296,1.57773548,2.15284007,-3.496382,,,
imu,269.792043,0.1668846312,-9.5656595776,2.8848909544,1.57025857,2.20517844,-3.50385891,,,
imu,269.800514,0.185427368,-9.568650341600001,2.8902743296,1.60764312,2.30985518,-3.63096638,,,
imu,269.808985,0.1788476872,-9.555490980000002,2.880105732000001,1.60016621,2.33228591,-3.61601256,,,
imu,269.817457,0.188418132,-9.549509452,2.8842928016,1.45810492,2.27247063,-3.77302767,,,
imu,269.825928,0.1872218264,-9.5357519376,2.8723297456,1.55530475,2.19770153,-3.78798149,,,
imu,269.834399,0.20935348,-9.516611048000001,2.8657500648,1.54782784,2.10797861,-3.78798149,,,
imu,269.84287,0.2045682576000001,-9.502255380800001,2.8555814672,1.76465823,2.03320951,-3.87770441,,,
imu,269.851341,0.2165313136,-9.5040498392,2.8490017864,1.71979677,1.93600968,-4.00481188,,,
imu,269.859812,0.2171294664,-9.5154147424,2.8436184112,1.91419643,1.83880985,-3.8702275,,,
imu,269.868284,0.2081571744,-9.5184055064,2.841225800000001,2.0413039,1.67431783,-3.87770441,,,
imu,269.876755,0.2021756464,-9.519003659200001,2.837636883200001,2.06373463,1.61450255,-3.90761205,,,
imu,269.885226,0.1842310624,-9.523190728800001,2.8358424248,2.15345755,1.56216418,-3.87770441,,,
imu,269.893697,0.1806421456,-9.528574104,2.829262744000001,2.12354991,1.47991817,-3.75807385,,,
imu,269.902168,0.1896144376,-9.553098368800002,2.8310572024,2.06373463,1.47991817,-3.67582784,,,
imu,269.910639,0.1740624648,-9.548313146400002,2.8358424248,2.03382699,1.39019525,-3.59358183,,,
imu,269.919111,0.1758569232,-9.551902063200002,2.8328516608,2.13850373,1.45001053,-3.5711511,,,
imu,269.927582,0.1782495344,-9.553098368800002,2.8161033824,2.116073,1.43505671,-3.52628964,,,
imu,269.936029,0.1728661592,-9.568650341600001,2.8005514096,2.14598064,1.48739508,-3.496382,,,
imu,269.944476,0.1710717008,-9.562070660800002,2.7975606456,2.03382699,1.47991817,-3.63844329,,,
imu,269.952923,0.1800439928,-9.573435564,2.8029440208,2.06373463,1.65936401,-3.6459202,,,
imu,269.96137,0.1770532288,-9.583006008800002,2.7999532568,1.91419643,1.7266562,-3.54124346,,,
imu,269.969817,0.1961941184,-9.6051376624,2.805934784800001,1.8169966,1.75656384,-3.5711511,,,
imu,269.978264,0.1896144376,-9.603343204000002,2.805336632,1.56278166,1.89114822,-3.73564312,,,
imu,269.986711,0.200381188,-9.6051376624,2.8005514096,1.57025857,1.96591732,-3.71321239,,,
imu,269.995158,0.2039701048,-9.616502565600001,2.8095237016,1.22632071,1.85376367,-3.93004278,,,
imu,270.003605,0.2081571744,-9.6015487456,2.8077292432,1.15155161,1.91357895,-3.97490424,,,
imu,270.012052,0.215335008,-9.587193078400002,2.808327396000001,0.9272443100000001,1.86124058,-4.13191935,,,
imu,270.020499,0.2039701048,-9.575828175200002,2.802345868,0.8674290299999999,1.82385603,-4.244073,,,
imu,270.028946,0.212344244,-9.571641105600001,2.817299688,0.85995212,1.77899457,-4.25902682,,,
imu,270.037393,0.2129423968,-9.560874355200001,2.8065329376,0.8973366700000001,1.75656384,-4.244073,,,
imu,270.04584,0.2099516328,-9.550705757600001,2.8107200072,0.9197674,1.61450255,-4.33379592,,,
imu,270.054287,0.1991848824,-9.561472508000001,2.817897840800001,0.8973366700000001,1.50982581,-4.318842099999999,,,
imu,270.062734,0.1926052016,-9.559678049600002,2.8274682856,0.81509066,1.47991817,-4.27398064,,,
imu,270.071181,0.2015774936,-9.554892827200002,2.823281216,0.7552753799999999,1.30794924,-4.386134289999999,,,
imu,270.079628,0.17944584,-9.5423316184,2.8406276472,0.9048135799999999,1.29299542,-4.31136519,,,
imu,270.088075,0.185427368,-9.533957479200001,2.8244775216,0.81509066,1.19579559,-4.23659609,,,
imu,270.096522,0.1800439928,-9.553098368800002,2.8214867576,0.9048135799999999,1.21822632,-4.146873169999999,,,
imu,270.104969,0.1650901728,-9.5632669664,2.8298608968,1.03939796,1.15841104,-4.16182699,,,
imu,270.113416,0.1620994088,-9.553696521600001,2.832253508,1.06182869,1.21822632,-4.124442439999999,,,
imu,270.121863,0.1597067976,-9.541733465600002,2.8394313416,0.97210577,1.11354958,-4.17678081,,,
imu,270.13031,0.1531271168,-9.558481744000002,2.8466091752,1.05435178,1.11354958,-4.04967334,,,
imu,270.138783,0.1393696024,-9.5776226336,2.8627593008,0.73284465,1.00139593,-4.124442439999999,,,
imu,270.147255,0.1423603664,-9.566257730400002,2.8543851616,0.58330645,1.01634975,-4.06462716,,,
imu,270.155727,0.1447529776,-9.544126076800001,2.838235036,0.47862971,1.12102649,-3.9449966,,,
imu,270.1642,0.1579123392,-9.529770409600001,2.838235036,0.7403215599999999,1.36776452,-3.66835093,,,
imu,270.172672,0.1573141864,-9.537546396000002,2.8310572024,0.9272443100000001,1.28551851,-3.47395127,,,
imu,270.181145,0.161501256,-9.520798117600002,2.8238793688,1.21136689,1.29299542,-3.43656672,,,
imu,270.189617,0.1668846312,-9.504647992000002,2.8071310904,1.35342818,1.33037997,-3.45899745,,,
imu,270.19809,0.170473548,-9.514218436800002,2.8137107712,1.45810492,1.26308778,-3.51881273,,,
imu,270.206562,0.1620994088,-9.520798117600002,2.81131816,1.47305874,1.23318014,-3.63844329,,,
imu,270.215035,0.1692772424,-9.5423316184,2.817897840800001,1.55530475,1.33785688,-3.75059694,,,
imu,270.223507,0.1668846312,-9.545322382400002,2.8119163128,1.46558183,1.32290306,-3.73564312,,,
imu,270.231979,0.1656883256,-9.557285438400001,2.8065329376,1.32352054,1.52477963,-3.63844329,,,
imu,270.240452,0.1632957144,-9.568650341600001,2.819692299200001,1.27865908,1.51730272,-3.73564312,,,
imu,270.248924,0.1579123392,-9.571042952800001,2.8280664384,1.15902852,1.62945637,-3.75059694,,,
imu,270.257397,0.1537252696,-9.555490980000002,2.8214867576,0.97210577,1.62197946,-3.8702275,,,
imu,270.265869,0.158510492,-9.553098368800002,2.8161033824,0.97958268,1.83880985,-3.90013514,,,
imu,270.274342,0.1668846312,-9.535153784800002,2.8011495624,1.00201341,1.95844041,-3.89265823,,,
imu,270.282814,0.1812402984,-9.516611048000001,2.8011495624,0.9945364999999999,1.97339423,-3.84779677,,,
imu,270.291286,0.1788476872,-9.516611048000001,2.801747715200001,1.15155161,1.97339423,-3.95995042,,,
imu,270.299759,0.1848292152,-9.526181492800001,2.7981587984,1.20388998,1.93600968,-4.146873169999999,,,
imu,270.308231,0.1920070488,-9.533957479200001,2.792177270400001,1.42072037,1.92853277,-4.13939626,,,
imu,270.316704,0.2021756464,-9.541733465600002,2.7981587984,1.60016621,1.71170238,-4.23659609,,,
imu,270.325176,0.1866236736,-9.554294674400001,2.8095237016,1.60016621,1.48739508,-4.408565019999999,,,
imu,270.333649,0.1908107432,-9.5566872856,2.8077292432,1.68988913,1.4275798,-4.341272829999999,,,
imu,270.34254,0.1812402984,-9.572239258400002,2.8005514096,1.6674584,1.30794924,-4.18425772,,,
imu,270.351431,0.1746606176,-9.541135312800002,2.802345868,1.63755076,1.17336486,-4.11696553,,,
imu,270.360322,0.1686790896,-9.560874355200001,2.8137107712,1.54035093,1.11354958,-3.97490424,,,
imu,269.106978,,,,,,,88.09935159999999,-18.10941160000002,120.0273088
imu,269.20851,,,,,,,87.69651400000001,-17.70657400000002,119.6855072
imu,269.309981,,,,,,,88.1603876,-17.96292520000002,118.7211384
imu,269.411543,,,,,,,87.68430680000002,-18.09720440000002,119.5268136
imu,269.513136,,,,,,,90.6628636,-19.3423388,117.6102832
imu,269.614699,,,,,,,88.06273,-18.01175400000001,119.917444
imu,269.7162,,,,,,,90.28444040000001,-18.82963640000002,117.3417248
imu,269.817793,,,,,,,87.6598924,-18.29251960000002,119.6000568
imu,269.919457,,,,,,,87.80637879999999,-18.79301480000002,117.5492472
imu,270.02105,,,,,,,88.4777748,-18.12161880000001,119.795372
imu,270.122582,,,,,,,87.9040364,-18.30472680000002,118.4647872
imu,270.224175,,,,,,,88.0749372,-17.98733960000001,119.6366784
imu,270.32586,,,,,,,87.9040364,-17.96292520000002,118.9042464
