Type,Timestamp,Data Accelerometer X,Data Accelerometer Y,Data Accelerometer Z,Data Gyroscope X,Data Gyroscope Y,Data Gyroscope Z,Data Magnetometer X,Data Magnetometer Y,Data Magnetometer Z
imu,193.671467,0.2087553272,-9.618297024,2.6749393216,0.44124516,1.40514907,-3.70573548,,,
imu,193.679936,0.1985867296,-9.612913648800001,2.680920849600001,0.29918387,1.39019525,-3.70573548,,,
imu,193.688404,0.2117460912,-9.600352440000002,2.688696836,0.14964567,1.37524143,-3.84779677,,,
imu,193.696873,0.2105497856,-9.592576453600001,2.6815190024,0.06739966,1.32290306,-3.8702275,,,
imu,193.705341,0.215335008,-9.568052188800001,2.671350404800001,0.14216876,1.36028761,-3.88518132,,,
imu,193.71381,0.2159331608,-9.556089132800002,2.6665651824,0.27675314,1.5023489,-3.67582784,,,
imu,193.722279,0.2075590216,-9.562668813600002,2.6755374744,0.25432241,1.42010289,-3.60105874,,,
imu,193.730747,0.227298064,-9.5638651192,2.6833134608,0.29918387,1.30794924,-3.72816621,,,
imu,193.739216,0.2290925224000001,-9.550705757600001,2.682715308000001,0.22441477,1.21074941,-3.67582784,,,
imu,193.747685,0.2087553272,-9.559678049600002,2.7048469616,0.23189168,1.09111885,-3.76555076,,,
imu,193.756153,0.2027737992,-9.582407856000001,2.70664142,0.27675314,1.01634975,-3.74312003,,,
imu,193.764617,0.2159331608,-9.587193078400002,2.7114266424,0.04496892999999999,0.94905756,-3.63844329,,,
imu,193.77308,0.20935348,-9.578818939200001,2.700659892,-0.03727708,0.8144731799999998,-3.57862801,,,
imu,193.781544,0.218325772,-9.574631869600001,2.703650656000001,0.20946095,0.8518577299999999,-3.33188998,,,
imu,193.790007,0.2045682576000001,-9.5907819952,2.703650656000001,0.27675314,0.7397040799999997,-3.07019813,,,
imu,193.798471,0.197390424,-9.575230022400001,2.709632184,0.3963837,0.8742884599999998,-2.89075229,,,
imu,193.806934,0.2021756464,-9.577024480800002,2.7030525032,0.26927623,0.7172733499999997,-2.84589083,,,
imu,193.815398,0.1991848824,-9.561472508000001,2.704248808800001,0.36647606,0.8219500899999996,-2.90570611,,,
imu,193.823862,0.2087553272,-9.556089132800002,2.704248808800001,0.3963837,0.9191499199999997,-3.13001341,,,
imu,193.832325,0.203371952,-9.555490980000002,2.7030525032,0.57582954,1.1285034,-3.11505959,,,
imu,193.840789,0.2147368552,-9.5357519376,2.6928839056,0.7104139199999999,1.02382666,-3.17487487,,,
imu,193.849252,0.2171294664,-9.526779645600001,2.6934820584,0.7253677399999999,1.15093413,-3.08515195,,,
imu,193.857716,0.206362716,-9.519601812000001,2.6916876,0.73284465,1.41262598,-3.14496723,,,
imu,193.866179,0.2117460912,-9.52558334,2.6934820584,0.68050628,1.36028761,-3.30198234,,,
imu,193.874643,0.2147368552,-9.520199964800002,2.688696836,0.56835263,1.44253362,-3.36927453,,,
imu,193.883106,0.2255036056,-9.536948243200001,2.6803226968,0.7403215599999999,1.53973345,-3.37675144,,,
imu,193.89157,0.2416537312,-9.541733465600002,2.6892949888,1.04687487,1.81637912,-3.18982869,,,
imu,193.900033,0.2470371064,-9.533957479200001,2.6863042248,1.10669015,1.75656384,-3.25712088,,,
imu,193.908497,0.2566075512,-9.5638651192,2.6988654336,1.24127453,1.78647148,-3.33188998,,,
imu,193.91696,0.2590001624000001,-9.588987536800001,2.7024543504,1.08425942,1.7266562,-3.496382,,,
imu,193.925424,0.263187232,-9.5812115504,2.6928839056,1.15155161,1.6518871,-3.47395127,,,
imu,193.933888,0.263187232,-9.590183842400002,2.6970709752,1.13659779,1.46496435,-3.54872037,,,
imu,193.942351,0.2566075512,-9.584800467200001,2.6958746696,1.13659779,1.24813396,-3.66835093,,,
imu,193.950815,0.2398592728,-9.593174606400002,2.6863042248,1.38333582,1.29299542,-3.60105874,,,
imu,193.959278,0.2446444952,-9.591380148,2.6928839056,1.27118217,1.31542615,-3.59358183,,,
imu,193.967742,0.2261017584,-9.609922884800001,2.712622948,1.15155161,1.27056469,-3.56367419,,,
imu,193.976205,0.2141387024,-9.6051376624,2.700659892,1.10669015,1.24813396,-3.50385891,,,
imu,193.984669,0.2141387024,-9.593772759200002,2.7120247952,0.9646288599999999,1.29299542,-3.45899745,,,
imu,193.993132,0.2141387024,-9.6087265792,2.715613712000001,0.7702292,1.45001053,-3.40665908,,,
imu,194.001596,0.2099516328,-9.612315496,2.718604476,0.78518302,1.45748744,-3.2720747,,,
imu,194.010059,0.2261017584,-9.592576453600001,2.7114266424,0.5982602699999999,1.43505671,-3.18982869,,,
imu,194.018523,0.2141387024,-9.560874355200001,2.7192026288,0.51601426,1.52477963,-3.21225942,,,
imu,194.026987,0.2177276192,-9.5842023144,2.7102303368,0.45619898,1.53973345,-3.18982869,,,
imu,194.03545,0.2159331608,-9.5656595776,2.709632184,0.49358353,1.67431783,-3.11505959,,,
imu,194.043914,0.2147368552,-9.5602762024,2.7162118648,0.52349117,1.70422547,-2.92065993,,,
imu,194.052377,0.2159331608,-9.5501076048,2.724586004,0.56087572,1.76404075,-2.88327538,,,
imu,194.060841,0.2225128416,-9.5501076048,2.7138192536,0.60573718,1.96591732,-2.92813684,,,
imu,194.069304,0.2410555784,-9.5357519376,2.7108284896,0.65807555,2.12293243,-3.02533667,,,
imu,194.077768,0.2554112456,-9.516012895200001,2.70664142,0.83004448,2.27994754,-2.88327538,,,
imu,194.086231,0.2733558296,-9.482516338400002,2.694678364,1.00201341,2.26499372,-3.00290594,,,
imu,194.094695,0.287113344,-9.4699551296,2.6791263912,1.27865908,2.27247063,-3.05524431,,,
imu,194.103158,0.3074505392,-9.5004609224,2.6695559464,1.51044329,2.1005017,-3.33188998,,,
imu,194.111622,0.3265914288,-9.5184055064,2.661779960000001,1.60764312,1.98087114,-3.45899745,,,
imu,194.120045,0.3218062064,-9.516611048000001,2.6623781128,2.09364227,1.70422547,-3.33936689,,,
imu,194.128508,0.323002512,-9.554892827200002,2.671350404800001,2.37028794,1.59207182,-3.21225942,,,
imu,194.136972,0.2984782472,-9.5865949256,2.670752252,2.37028794,1.23318014,-3.22721324,,,
imu,194.145435,0.2948893304,-9.6009505928,2.680920849600001,2.36281103,1.07616503,-3.01785976,,,
imu,194.153899,0.3002727056,-9.636241608,2.7024543504,2.14598064,1.04625739,-3.01038285,,,
imu,194.162363,0.2823281216,-9.627269316000001,2.701856197600001,1.88428879,0.8593346399999997,-3.13001341,,,
imu,194.170827,0.2667761488000001,-9.636241608,2.694678364,1.76465823,0.8294269999999999,-3.02533667,,,
imu,194.179292,0.2607946208,-9.632054538400002,2.689893141600001,1.64502767,0.8593346399999997,-2.79355246,,,
imu,194.187757,0.266177996,-9.609922884800001,2.6988654336,1.20388998,0.8219500899999996,-2.95056757,,,
imu,194.196222,0.2679724544000001,-9.61530626,2.7084358784,1.1440747,0.8742884599999998,-2.92813684,,,
imu,194.204687,0.2697669128,-9.610521037600002,2.7000617392,0.9646288599999999,0.64250425,-3.14496723,,,
imu,194.213151,0.2745521352,-9.5985579816,2.7108284896,0.9272443100000001,0.7172733499999997,-3.05524431,,,
imu,194.221616,0.2727576768,-9.585398620000001,2.7048469616,0.80013684,0.78456554,-2.99542903,,,
imu,194.230081,0.2643835376,-9.5907819952,2.713221100800001,0.74779847,0.7397040799999997,-2.84589083,,,
imu,194.238546,0.2673743016,-9.562070660800002,2.712622948,0.620691,0.4854891399999999,-2.84589083,,,
imu,194.247011,0.2787392048,-9.556089132800002,2.7078377256,0.5982602699999999,0.3882893099999998,-2.83841392,,,
imu,194.255476,0.2895059552,-9.531564868,2.7072395728,0.63564482,0.3808123999999999,-2.748691,,,
imu,194.26394,0.3080486920000001,-9.513620284000002,2.696472822400001,0.8674290299999999,0.33595094,-2.69635263,,,
imu,194.272405,0.2978800944000001,-9.517807353600002,2.701856197600001,0.94967504,-0.007986920000000008,-2.85336774,,,
imu,194.28087,0.2865151912,-9.505844297600001,2.6815190024,1.12912088,-0.2173404000000003,-2.75616791,,,
imu,194.289335,0.2793373576,-9.5004609224,2.6821171552,1.27118217,-0.31454023,-2.70382954,,,
imu,194.2978,0.2518223288000001,-9.507040603200002,2.6665651824,1.51044329,-0.5014629800000003,-2.47952224,,,
imu,194.306264,0.2530186344000001,-9.5172092008,2.6665651824,1.82447351,-0.4117400600000001,-2.38232241,,,
imu,194.314729,0.242251884,-9.5357519376,2.652807668,2.0413039,-0.2696787700000001,-2.17296893,,,
imu,194.323194,0.2410555784,-9.554294674400001,2.6516113624,2.116073,-0.15004821,-2.02343073,,,
imu,194.331659,0.2410555784,-9.585398620000001,2.6569947376,2.42262631,0.04435144999999974,-1.97856927,,,
imu,194.340124,0.2326814392,-9.603343204000002,2.6540039736,2.50487232,0.07425908999999997,-2.17296893,,,
imu,194.348588,0.2506260232,-9.606932120800002,2.649816904,2.46748777,0.3209971199999999,-2.11315365,,,
imu,194.357053,0.2536167872,-9.627269316000001,2.6569947376,2.53477996,0.52287369,-2.12063056,,,
imu,194.365518,0.251224176,-9.635643455200002,2.645629834400001,2.57216451,0.7995193599999997,-2.06829219,,,
imu,194.374336,0.2757484408,-9.645213900000002,2.6569947376,2.39271867,0.8144731799999998,-2.06829219,,,
imu,194.383155,0.2847207328,-9.641624983200002,2.6516113624,2.22074974,1.04625739,-2.13558438,,,
imu,194.391973,0.2936930248,-9.6505972752,2.649816904,1.77213514,0.94905756,-2.36736859,,,
imu,194.400791,0.3014690112,-9.654784344800001,2.6546021264,1.37585891,0.8294269999999999,-2.62158353,,,
imu,194.409609,0.3086468448,-9.66016772,2.657592890400001,1.12912088,0.9116730099999999,-2.48699915,,,
imu,194.418428,0.3337692624,-9.645213900000002,2.6504150568,0.9571519499999999,0.8219500899999996,-2.53933752,,,
imu,194.427246,0.3343674152,-9.623680399200001,2.649816904,0.8973366700000001,0.6574580699999997,-2.47204533,,,
imu,194.436064,0.3218062064,-9.602146898400001,2.643835376000001,0.7702292,0.5527813299999997,-2.3748455,,,
imu,194.444882,0.3433397072,-9.5985579816,2.641442764800001,0.79265993,0.4929660499999997,-2.04586146,,,
imu,194.453701,0.3559009160000001,-9.576426328,2.631872320000001,0.7253677399999999,0.4481045899999998,-1.63463141,,,
imu,194.462519,0.3762381112000001,-9.572239258400002,2.646227987200001,0.70293701,0.3209971199999999,-1.4028472,,,
imu,194.471337,0.3726491944000001,-9.5812115504,2.664770724000001,0.58330645,0.11164364,-1.46266248,,,
imu,194.480155,0.3876030144000001,-9.5812115504,2.6725467104,0.5982602699999999,-0.0603252900000002,-1.33555501,,,
imu,194.488974,0.4025568344,-9.5776226336,2.6803226968,0.7702292,-0.0005100100000001717,-1.16358608,,,
imu,194.497792,0.4127254320000001,-9.582407856000001,2.689893141600001,0.7253677399999999,-0.1425713000000002,-1.14115535,,,
imu,194.50661,0.4199032656,-9.571042952800001,2.7078377256,0.65059864,-0.2472480400000001,-1.08134007,,,
imu,194.515428,0.4282774048000001,-9.557285438400001,2.7221933928,0.65059864,-0.4640784300000003,-1.21592445,,,
imu,194.524247,0.4175106544000001,-9.551902063200002,2.722791545600001,0.5010604399999999,-0.7257702800000003,-1.28321664,,,
imu,194.533065,0.3965753064,-9.5489112992,2.7209970872,0.46367589,-0.8528777500000002,-1.37293956,,,
imu,194.541883,0.3774344168000001,-9.512423978400001,2.706043267200001,0.29918387,-1.06970814,-1.64210832,,,
imu,194.550701,0.3541064576,-9.4753385048,2.7012580448,0.63564482,-1.00989286,-1.63463141,,,
imu,194.55952,0.3582935272000001,-9.486105255200002,2.6833134608,0.8823828499999999,-0.9799852200000005,-1.91127708,,,
imu,194.568338,0.3594898328000001,-9.471151435200001,2.6761356272,1.07678251,-0.9874621299999999,-2.25521494,,,
imu,194.576819,0.3505175408000001,-9.469356976800002,2.678528238400001,1.30108981,-0.9799852200000005,-2.60662971,,,
imu,194.585301,0.3576953744,-9.467562518400001,2.6701540992,1.54035093,-1.02484668,-2.65896808,,,
imu,194.593782,0.3445360128,-9.481320032800001,2.659387348800001,1.9665348,-0.8977392100000001,-2.73373718,,,
imu,194.602263,0.3433397072,-9.492684936000002,2.6450316816,2.116073,-1.06223123,-2.9729983,,,
imu,194.610745,0.331974804,-9.520199964800002,2.6540039736,2.29551884,-1.17438488,-2.86832156,,,
imu,194.619226,0.3182172896000001,-9.5566872856,2.661779960000001,2.40019558,-1.1893387,-2.80102937,,,
imu,194.627707,0.3062542336,-9.552500216,2.6581910432,2.42262631,-1.12204651,-2.34493786,,,
imu,194.636189,0.3128339144,-9.5776226336,2.6641725712,2.55721069,-0.8977392100000001,-2.09819983,,,
imu,194.64467,0.320011748,-9.618297024,2.6779300856,2.47496468,-0.8379239300000001,-1.99352309,,,
imu,194.653151,0.3559009160000001,-9.639830524800002,2.6743411688,2.25065738,-0.7482010100000003,-1.88884635,,,
imu,194.661633,0.3648732080000001,-9.630260080000001,2.6719485576,2.17588828,-0.7108164600000002,-1.80660034,,,
imu,194.670114,0.3564990688,-9.633250844,2.680920849600001,2.04878081,-0.6061397200000003,-1.78416961,,,
imu,194.678595,0.3660695136000001,-9.6428212888,2.6719485576,1.95905789,-0.5313706200000001,-1.64210832,,,
imu,194.687077,0.3570972216000001,-9.655382497600002,2.671350404800001,1.86185806,-0.4640784300000003,-1.4776163,,,
imu,194.695558,0.3553027632,-9.627867468800002,2.6755374744,1.83195042,-0.15004821,-1.26078591,,,
imu,194.704039,0.3576953744,-9.610521037600002,2.6635744184,1.87681188,0.13407437,-1.23087827,,,
imu,194.712521,0.3600879856,-9.582407856000001,2.6492187512,1.76465823,0.41819695,-1.30564737,,,
imu,194.721002,0.382817792,-9.554892827200002,2.6324704728,1.83195042,0.6798887999999996,-1.51500085,,,
imu,194.729483,0.3834159448,-9.553098368800002,2.6264889448,1.80951969,0.8967191899999998,-1.86641562,,,
imu,194.737965,0.3965753064,-9.534555632000002,2.6103388192,1.95158098,1.15093413,-2.17296893,,,
imu,194.746446,0.3983697648000001,-9.5249851872,2.5923942352,2.07868845,1.42010289,-2.39727623,,,
imu,194.754927,0.385808556,-9.535153784800002,2.5953849992,2.3403803,1.74908693,-2.51690679,,,
imu,194.763409,0.3882011672000001,-9.534555632000002,2.5923942352,2.28804193,1.99582496,-2.55429134,,,
imu,194.77189,0.4175106544000001,-9.547714993600001,2.585814554400001,2.22822665,2.29490136,-2.69635263,,,
imu,194.780389,0.4163143488000001,-9.5740337168,2.5828237904,2.25813429,2.67622377,-2.77859864,,,
imu,194.788888,0.4420349192,-9.591978300800001,2.5917960824,2.19831901,2.9977309,-2.81598319,,,
imu,194.797388,0.4611758088,-9.588389384000001,2.592992388,2.07121154,3.0725,-2.92813684,,,
imu,194.805887,0.4988594352000001,-9.594370912,2.5947868464,2.05625772,3.05754618,-3.1225365,,,
imu,194.814386,0.5090280328000001,-9.614109954400002,2.599572068800001,1.85438115,3.1472691,-3.36927453,,,
imu,194.822885,0.5299633808,-9.6290637744,2.606749902400001,1.72727368,3.03511545,-3.53376655,,,
imu,194.831384,0.5365430616000001,-9.631456385600002,2.5983757632,1.60016621,2.84071579,-3.7954584,,,
imu,194.839883,0.5485061176,-9.634447149600001,2.5935905408,1.52539711,2.68370068,-3.99733497,,,
imu,194.848382,0.5467116592000001,-9.636241608,2.604955444,1.33847436,2.39210119,-4.0945348,,,
imu,194.856882,0.5215892416000001,-9.637437913600001,2.599572068800001,1.18145925,2.19022462,-4.29641137,,,
imu,194.865381,0.5090280328000001,-9.638634219200002,2.604955444,1.12912088,1.86124058,-4.32631901,,,
imu,194.87388,0.4719425592000001,-9.639830524800002,2.607946208,1.18893616,1.80890221,-4.21416536,,,
imu,194.882379,0.4587831976000001,-9.6290637744,2.6085443608,1.12912088,1.61450255,-4.13939626,,,
imu,194.890878,0.4432312248,-9.623082246400001,2.6061517496,1.04687487,1.55468727,-4.11696553,,,
imu,194.899377,0.442633072,-9.604539509600002,2.6031609856,1.06182869,1.62945637,-4.244073,,,
imu,194.907877,0.442633072,-9.599754287200001,2.5977776104,1.15902852,1.67431783,-4.23659609,,,
imu,194.916376,0.4300718632,-9.593772759200002,2.599572068800001,1.06182869,1.48739508,-4.32631901,,,
imu,194.924875,0.415716196,-9.5877912312,2.5965813048,0.9945364999999999,1.30047233,-4.41604193,,,
imu,194.933374,0.4013605288,-9.576426328,2.6007683744,1.17398234,1.37524143,-4.27398064,,,
imu,193.748134,,,,,,,88.40453159999998,-18.96391560000001,121.1992
imu,193.849697,,,,,,,90.80935000000001,-19.72076200000001,118.4037512
imu,193.951259,,,,,,,88.28245960000001,-19.00053720000001,120.2958672
imu,194.052974,,,,,,,90.84597160000001,-19.79400520000001,119.06294
imu,194.154384,,,,,,,88.0261084,-18.85405080000002,121.1259568
imu,194.255947,,,,,,,88.3557028,-19.06157320000002,121.2236144
imu,194.941873,0.3899956256000001,-9.562070660800002,2.5935905408,1.06182869,1.47991817,-4.23659609,,,
imu,194.950372,0.3834159448,-9.554892827200002,2.5947868464,0.9870595899999999,1.51730272,-4.17678081,,,
imu,194.958871,0.3840140976,-9.538742701600002,2.592992388,0.97958268,1.67431783,-4.06462716,,,
imu,194.967371,0.385808556,-9.5501076048,2.601366527200001,1.07678251,1.6518871,-3.82536604,,,
imu,194.97587,0.3774344168000001,-9.564463272000001,2.5911979296,1.24127453,1.83880985,-3.66835093,,,
imu,194.984295,0.3762381112000001,-9.557883591200001,2.597179457600001,1.42072037,2.03320951,-3.45899745,,,
imu,194.99272,0.385808556,-9.557285438400001,2.6007683744,1.36090509,2.20517844,-3.36927453,,,
imu,195.001146,0.3816214864,-9.5877912312,2.6115351248,1.39081273,2.27994754,-3.32441307,,,
imu,195.009571,0.3929863896,-9.6087265792,2.6294797088,1.30856672,2.29490136,-3.33936689,,,
imu,195.017997,0.400762376,-9.6218859408,2.6432372232,1.09921324,2.5491163,-3.48890509,,,
imu,195.026422,0.3953790008,-9.617100718400001,2.6629762656,0.9646288599999999,2.61640849,-3.5711511,,,
imu,195.034847,0.4061457512000001,-9.6260730104,2.6581910432,0.63564482,2.71360832,-3.6459202,,,
imu,195.043273,0.3995660704000001,-9.617100718400001,2.6653688768,0.35899915,2.83323888,-3.69078166,,,
imu,195.051698,0.4043512928,-9.6039413568,2.6695559464,0.21693786,2.90800798,-3.7206893,,,
imu,195.060124,0.4169125016,-9.579417092000002,2.655798432,0.23936859,2.97530017,-3.69825857,,,
imu,195.068549,0.4228940296000001,-9.562070660800002,2.64682614,0.26179932,3.02763854,-3.70573548,,,
imu,195.076974,0.4318663216,-9.558481744000002,2.640844612,0.7253677399999999,3.13231528,-3.66835093,,,
imu,195.0854,0.4342589328000001,-9.553696521600001,2.6294797088,0.94219813,3.11736146,-3.69825857,,,
imu,195.093825,0.4360533912000001,-9.529770409600001,2.6073480552,1.24127453,3.19213056,-3.65339711,,,
imu,195.102251,0.4432312248,-9.535153784800002,2.6127314304,1.40576655,3.09493073,-3.56367419,,,
imu,195.110676,0.4522035168,-9.537546396000002,2.6217037224,1.57025857,3.11736146,-3.38422835,,,
imu,195.119101,0.4701481008,-9.5447242296,2.620507416800001,1.68988913,3.02763854,-3.33188998,,,
imu,195.127527,0.4611758088,-9.561472508000001,2.6193111112,1.98148862,3.18465365,-3.18982869,,,
imu,195.135952,0.4659610312,-9.558481744000002,2.6121332776,1.9665348,3.13231528,-3.05524431,,,
imu,195.144378,0.4862982264000001,-9.540537160000001,2.606749902400001,1.84690424,3.11736146,-2.92813684,,,
imu,195.152803,0.5018501992000001,-9.557285438400001,2.5911979296,1.87681188,3.19960747,-2.98047521,,,
imu,195.161228,0.505439116,-9.562070660800002,2.5888053184,1.76465823,2.96034635,-3.05524431,,,
imu,195.169654,0.5120187968000001,-9.567454036,2.583421943200001,1.73475059,2.71360832,-3.38422835,,,
imu,195.178079,0.5132151024,-9.571042952800001,2.576244109600001,1.84690424,2.69117759,-3.496382,,,
imu,195.186543,0.5197947832,-9.574631869600001,2.578038568,1.64502767,2.6238854,-3.6459202,,,
imu,195.195006,0.5305615336,-9.5842023144,2.5672718176,1.57025857,2.58650085,-3.84031986,,,
imu,195.20347,0.5263744640000001,-9.591380148,2.560093984,1.61512003,2.37714737,-4.06462716,,,
imu,195.211988,0.5233837000000001,-9.609324732000001,2.566673664800001,1.77961205,2.15284007,-4.25902682,,,
imu,195.220452,0.5156077136000001,-9.631456385600002,2.564879206400001,1.5926893,2.16779389,-4.408565019999999,,,
imu,195.228915,0.4964668240000001,-9.6535880392,2.569066276,1.51044329,2.00330187,-4.49081103,,,
imu,195.237379,0.4886908376000001,-9.679308609600001,2.566673664800001,1.24875144,1.99582496,-4.46090339,,,
imu,195.245843,0.4940742128000001,-9.687084596000002,2.5744496512,0.9272443100000001,1.81637912,-4.44594957,,,
imu,195.254306,0.4809148512,-9.694860582400002,2.58701086,0.78518302,1.8761944,-4.20668845,,,
imu,195.26277,0.481513004,-9.6846919848,2.575047804,0.42629134,1.86871749,-4.0945348,,,
imu,195.271233,0.4743351704000001,-9.6846919848,2.584020096,0.11973803,1.66684092,-4.23659609,,,
imu,195.279697,0.4653628784000001,-9.713403319200001,2.5935905408,-0.22419983,1.56964109,-4.341272829999999,,,
imu,195.28816,0.4683536424000001,-9.6918698184,2.599572068800001,-0.50832241,1.61450255,-4.27398064,,,
imu,195.296624,0.4695499480000001,-9.658373261600001,2.6085443608,-0.76253735,1.59207182,-4.34874974,,,
imu,195.305087,0.4510072112,-9.6942624296,2.6187129584,-0.97189083,1.47991817,-4.47585721,,,
imu,195.313551,0.4510072112,-9.718786694400002,2.634264931200001,-1.30835178,1.37524143,-4.34874974,,,
imu,195.322014,0.439642308,-9.7325442088,2.6121332776,-1.72705874,1.45001053,-4.169303899999999,,,
imu,195.330478,0.424688488,-9.711608860800002,2.604955444,-2.18315025,1.39767216,-4.23659609,,,
imu,195.338941,0.4216977240000001,-9.664952942400001,2.6007683744,-2.39250373,1.42010289,-4.30388828,,,
imu,195.347405,0.4145198904,-9.620091482400001,2.5756459568,-2.75887232,1.30047233,-4.386134289999999,,,
imu,195.355869,0.4031549872,-9.582407856000001,2.57205704,-2.75887232,1.38271834,-4.51324176,,,
imu,195.364332,0.4037531400000001,-9.554892827200002,2.5702625816,-2.82616451,1.44253362,-4.56558013,,,
imu,195.372796,0.3905937784,-9.533359326400001,2.5888053184,-2.70653395,1.51730272,-4.55810322,,,
imu,195.381259,0.3870048616000001,-9.51062952,2.5935905408,-2.50465738,1.50982581,-4.692687599999999,,,
imu,195.390403,0.3822196392,-9.499862769600002,2.6085443608,-2.48222665,1.58459491,-4.78988743,,,
imu,195.399546,0.3714528888,-9.4938812416,2.6264889448,-2.23548862,1.84628676,-4.80484125,,,
imu,195.408689,0.3654713608,-9.4980683112,2.6486205984,-2.19810407,1.97339423,-4.77493361,,,
imu,195.417833,0.3553027632,-9.516611048000001,2.6803226968,-1.98875059,2.15284007,-4.58801086,,,
imu,195.426976,0.3505175408000001,-9.513022131200001,2.694678364,-1.86164312,2.33228591,-4.408565019999999,,,
imu,195.436119,0.3630787496,-9.485507102400002,2.713221100800001,-1.72705874,2.51173175,-4.341272829999999,,,
imu,195.445263,0.3756399584,-9.450216087200001,2.703650656000001,-1.53265908,2.70613141,-4.11696553,,,
imu,195.454406,0.3882011672000001,-9.443038253600001,2.7168100176,-1.14385976,2.90800798,-4.079580979999999,,,
imu,195.463549,0.3995660704000001,-9.450216087200001,2.706043267200001,-0.80739881,2.95286944,-4.28145755,,,
imu,195.472693,0.4163143488000001,-9.443038253600001,2.709632184,-0.58309151,2.86314652,-4.10948862,,,
imu,195.481836,0.4360533912000001,-9.444832712,2.725184156800001,-0.22419983,2.75099287,-4.012288789999999,,,
imu,195.490979,0.451605364,-9.477731116000001,2.726978615200001,0.34404533,2.85566961,-3.80293531,,,
imu,195.500123,0.4659610312,-9.4801237272,2.729371226400001,0.67302937,2.54163939,-3.89265823,,,
imu,195.509266,0.4713444064,-9.499264616800001,2.746119504800001,0.97958268,2.38462428,-3.83284295,,,
imu,195.518409,0.4779240872000001,-9.5213962704,2.745521352,1.11416706,2.09302479,-3.7954584,,,
imu,195.527553,0.4569887392,-9.538742701600002,2.747913963200001,1.30108981,1.68179474,-3.91508896,,,
imu,195.536696,0.4444275304,-9.537546396000002,2.7509047272,1.33847436,1.43505671,-3.84031986,,,
imu,195.545839,0.4324644744,-9.537546396000002,2.7556899496,1.39828964,1.27056469,-3.78798149,,,
imu,195.554983,0.4205014184,-9.555490980000002,2.7431287408,1.50296638,1.18831868,-3.74312003,,,
imu,195.564126,0.3947808480000001,-9.548313146400002,2.7497084216,1.51044329,1.07616503,-3.5711511,,,
imu,195.573269,0.3798270280000001,-9.516012895200001,2.7449231992,1.55530475,1.02382666,-3.37675144,,,
imu,195.582412,0.3804251808,-9.507040603200002,2.7281749208,1.34595127,1.14345722,-3.38422835,,,
imu,195.591556,0.3738455000000001,-9.527377798400002,2.715613712000001,1.42819728,1.21822632,-3.13749032,,,
imu,195.599719,0.3660695136000001,-9.510031367200002,2.717408170400001,1.41324346,1.31542615,-3.07767504,,,
imu,195.607883,0.3666676664,-9.510031367200002,2.731165684800001,1.57025857,1.43505671,-3.18235178,,,
imu,195.616046,0.3822196392,-9.5148165896,2.706043267200001,1.78708896,1.56216418,-3.01785976,,,
imu,195.62421,0.361882444,-9.496872005600002,2.6875005304,1.97401171,1.51730272,-3.04029049,,,
imu,195.632373,0.3553027632,-9.526779645600001,2.6863042248,2.43758013,1.7266562,-2.96552139,,,
imu,195.640537,0.3564990688,-9.5423316184,2.6833134608,2.53477996,1.80890221,-3.03281358,,,
imu,195.6487,0.361882444,-9.573435564,2.6719485576,2.57216451,1.94348659,-3.1973056,,,
imu,195.656863,0.3624805968,-9.5740337168,2.6749393216,2.57964142,2.18274771,-3.10758268,,,
imu,195.665027,0.361882444,-9.591978300800001,2.688696836,2.40019558,2.37714737,-3.35432071,,,
imu,195.67319,0.3714528888,-9.618895176800002,2.6851079192,2.28804193,2.51173175,-3.33936689,,,
imu,195.681354,0.3911919312,-9.6296619272,2.6839116136,2.17588828,2.69117759,-3.36179762,,,
imu,195.689517,0.3989679176000001,-9.612315496,2.668957793600001,1.88428879,2.70613141,-3.43656672,,,
imu,195.697681,0.4097346680000001,-9.604539509600002,2.667163335200001,1.78708896,2.75099287,-3.30945925,,,
imu,195.705844,0.4079402096,-9.602146898400001,2.6432372232,1.8169966,2.71360832,-3.20478251,,,
imu,195.714008,0.4037531400000001,-9.604539509600002,2.6234981808,1.83942733,2.67622377,-3.05524431,,,
imu,195.722171,0.4073420568000001,-9.6051376624,2.6324704728,1.77213514,2.64631613,-2.8982292,,,
imu,195.730335,0.4085383624000001,-9.591978300800001,2.6300778616,1.73475059,2.73603905,-2.69635263,,,
imu,195.738498,0.3905937784,-9.596763523200002,2.6330686256,1.60764312,2.78837742,-2.50942988,,,
imu,195.746661,0.3684621248000001,-9.594370912,2.638452000800001,1.46558183,2.97530017,-2.38232241,,,
imu,195.754825,0.3570972216000001,-9.576426328,2.634264931200001,1.5179202,3.1472691,-2.39727623,,,
imu,194.35754,,,,,,,88.245838,-19.59869000000001,121.0649208
imu,194.459102,,,,,,,88.612054,-18.90287960000001,121.1503712
imu,194.560634,,,,,,,88.80736920000001,-18.40238440000002,120.7597408
imu,194.662197,,,,,,,88.68529720000001,-19.48882520000002,121.382308
imu,194.76379,,,,,,,89.9304316,-19.29351000000001,120.4179392
imu,194.865322,,,,,,,89.1491708,-19.23247400000001,120.4545608
imu,194.966915,,,,,,,91.54178200000001,-19.69634760000001,118.3549224
imu,195.068447,,,,,,,88.74633320000001,-18.8784652,120.9184344
imu,195.762988,0.3331711096,-9.565061424800001,2.625890792,1.65250458,3.55102224,-2.29259949,,,
imu,195.771152,0.3146283728000001,-9.5704448,2.6240963336,1.48801256,4.03702139,-2.30755331,,,
imu,195.779315,0.3122357616,-9.5740337168,2.6366575424,1.33099745,4.47068217,-2.50195297,,,
imu,195.787479,0.3164228312,-9.573435564,2.643835376000001,1.18893616,5.113696429999999,-2.65149117,,,
imu,195.79594,0.3092449976000001,-9.5800152448,2.643835376000001,1.06182869,5.69689541,-2.94309066,,,
imu,195.804401,0.272159524,-9.617698871200002,2.646227987200001,1.02444414,6.24270984,-3.20478251,,,
imu,195.812862,0.2386629672,-9.635643455200002,2.6486205984,0.9646288599999999,6.773570449999999,-3.54124346,,,
imu,195.821323,0.1333880744,-9.693664276800002,2.670752252,0.50853735,7.32686179,-3.89265823,,,
imu,195.829784,-0.08792846160000001,-9.785779808000001,2.6815190024,0.36647606,8.32129082,-4.19921154,,,
imu,195.838245,-0.4043512928,-9.881484256,2.717408170400001,-0.17933837,9.891441919999998,-4.72259524,,,
imu,195.846706,-0.7650374312,-10.0274335392,2.72159524,-1.27096723,12.73266772,-5.13382529,,,
imu,195.855167,-0.9217534648000001,-9.999320357600002,2.6336667784,-2.78877996,17.29358282,-5.42542478,,,
imu,195.863628,-0.9181645480000001,-9.941299536000002,2.6336667784,-4.30659269,22.93864987,-5.84413174,,,
imu,195.872089,-0.8571529624000002,-9.9329253968,2.581029332,-5.794497779999999,28.61362456,-6.58434583,,,
imu,195.88055,-0.7656355840000001,-9.889260242400002,2.5343734136,-6.98332647,33.81755392,-7.578774859999999,,,
imu,195.889011,-0.5407301312,-9.806715156000001,2.525401121600001,-8.01514005,38.53548413,-8.76012664,,,
imu,195.897472,-0.3086468448,-9.714599624800002,2.4966897872,-8.76283105,42.39356969,-9.63492511,,,
imu,195.905933,-0.1052748928,-9.631456385600002,2.473361828,-8.889938520000001,45.10768802,-10.5246774,,,
imu,195.914394,0.04246884880000001,-9.560874355200001,2.494895328800001,-8.81516942,46.90962333,-11.48172188,,,
imu,195.922855,0.2984782472,-9.4753385048,2.4608006192,-8.47870847,47.91152927,-12.22193597,,,
imu,195.931316,0.5000557408,-9.381428515200001,2.458408008,-7.88803258,48.44238988,-12.71541203,,,
imu,195.939777,0.6424161072,-9.336567055200002,2.5194195936,-7.17772613,48.14331348,-12.9172886,,,
imu,195.948238,0.7656355840000001,-9.328791068800001,2.545738316800001,-6.43751204,47.20122282,-12.71541203,,,
imu,195.956699,0.8840698384000001,-9.310248332,2.5612902896,-5.57019048,46.02734795,-12.78270422,,,
imu,195.96516,1.0850491792,-9.304266804000001,2.603759138400001,-4.80754566,44.62916577999999,-12.55092001,,,
imu,195.973621,1.1855388496,-9.277349928000001,2.6240963336,-3.91031646,42.67769226999999,-12.14716687,,,
imu,195.982082,1.2567190328,-9.2958926648,2.6534058208,-2.99065653,40.12806595999999,-11.720983,,,
imu,195.990543,1.3081601736,-9.3622876256,2.7024543504,-2.24296553,37.33170162,-10.98076891,,,
imu,195.999006,1.3153380072,-9.4244955168,2.717408170400001,-1.72705874,34.37084526,-10.35270847,,,
imu,196.00747,1.3141417016,-9.437654878400002,2.7257823096,-1.35321324,31.50718873,-9.73212494,,,
imu,196.015933,1.3171324656,-9.435262267200002,2.743726893600001,-1.01675229,28.70334748,-8.83489574,,,
imu,196.024397,1.2932063536,-9.454403156800002,2.7664567,-1.00179847,26.14624426,-8.09468165,,,
imu,196.03286,1.2160446424,-9.5010590752,2.78141052,-0.7999219,23.55175649,-7.294652279999999,,,
imu,196.041324,1.1287143336,-9.5393408544,2.7778216032,-0.73262971,21.25634512,-6.7862224,,,
imu,196.049787,1.0694972064,-9.557883591200001,2.7951680344,-0.8672140899999999,19.27496397,-6.404899990000001,,,
imu,196.058251,1.0174579128,-9.558481744000002,2.794569881600001,-1.05413684,17.59265922,-6.12825432,,,
imu,196.066715,0.980970592,-9.528574104,2.784999436800001,-1.15881358,16.18700014,-6.075915950000001,,,
imu,196.075178,0.9498666464000002,-9.516611048000001,2.7826068256,-1.25601341,14.83367943,-6.1880696,,,
imu,196.083642,0.9420906600000001,-9.502853533600002,2.7838031312,-1.12142903,13.74205057,-5.99366994,,,
imu,196.092105,0.9474740352000001,-9.498666464000001,2.7861957424,-0.90459864,12.78500609,-5.98619303,,,
imu,196.100569,0.9444832712000001,-9.4699551296,2.784999436800001,-0.84478336,11.50645448,-6.30022325,,,
imu,196.109032,0.9773816752000002,-9.430477044800002,2.794569881600001,-0.51579932,10.48959472,-6.17311578,,,
imu,196.117496,0.9959244120000001,-9.4215047528,2.8029440208,-0.29149202,9.577411699999999,-6.090869769999999,,,
imu,196.125959,0.9893447312000001,-9.437056725600002,2.8286645912,-0.08961545,8.42596756,-6.008623759999999,,,
imu,196.134423,0.9725964528000002,-9.4454308648,2.8418239528,0.1720764,7.41658471,-5.86656247,,,
imu,196.142886,0.8858642968000001,-9.4496179344,2.8753205096,0.29170696,6.50440169,-5.41047096,,,
imu,196.15135,0.8284416280000001,-9.453206851200001,2.8657500648,0.44124516,5.77914142,-4.94690254,,,
imu,196.159813,0.8093007384,-9.440645642400002,2.8460110224,0.51601426,5.52492648,-4.55062631,,,
imu,196.168277,0.7811875568000001,-9.4244955168,2.822084910400001,0.5459219,5.47258811,-4.20668845,,,
imu,196.176741,0.7662337368000001,-9.389204501600002,2.8149070768,0.81509066,5.49501884,-4.0945348,,,
imu,196.185204,0.7650374312,-9.373652528800001,2.7838031312,1.06182869,5.62212631,-4.244073,,,
imu,196.193668,0.7429057776,-9.384419279200001,2.764064088800001,1.45810492,5.62212631,-4.67773378,,,
imu,196.20213,0.7435039304000001,-9.4041583216,2.739539824,1.97401171,5.64455704,-5.328224949999999,,,
imu,196.210592,0.7321390272000001,-9.412532460800001,2.7383435184,2.30299575,5.569787939999999,-6.15068505,,,
imu,196.219054,0.7387187080000002,-9.4496179344,2.7449231992,2.70674889,5.614649399999999,-6.58434583,,,
imu,196.227517,0.7668318896,-9.502853533600002,2.731165684800001,3.12545585,5.5398803,-7.04043734,,,
imu,196.235979,0.7775986400000001,-9.544126076800001,2.72159524,3.43200916,5.24828081,-7.578774859999999,,,
imu,196.244441,0.7961413768000002,-9.556089132800002,2.7239878512,3.71613174,4.87443531,-7.87785126,,,
imu,196.252904,0.8320305448000002,-9.562070660800002,2.7233896984,3.62640882,4.08935976,-8.1320662,,,
imu,196.261366,0.8517695872000001,-9.5949690648,2.72159524,3.60397809,3.31176112,-8.24421985,,,
imu,196.269828,0.8750975464000001,-9.6284656216,2.7144174064,3.69370101,2.43696265,-8.0572971,,,
imu,196.27829,0.8703123240000001,-9.624278552000002,2.7299693792,3.45443989,1.1285034,-7.78812834,,,
imu,196.286753,0.8858642968000001,-9.612913648800001,2.722791545600001,3.11050203,-0.05284837999999992,-7.43671357,,,
imu,196.295215,0.8888550608000001,-9.618895176800002,2.7108284896,2.77404108,-1.19681561,-6.771268579999999,,,
imu,196.30376,0.8936402832000001,-9.6051376624,2.688696836,2.4899185,-2.57256705,-5.851608649999999,,,
imu,196.312222,0.9217534648000001,-9.5907819952,2.671350404800001,2.29551884,-3.84364175,-5.00671782,,,
imu,196.320685,0.9731946056000002,-9.568052188800001,2.6665651824,2.18336519,-5.21939319,-4.146873169999999,,,
imu,196.329147,1.0234394408,-9.554294674400001,2.6641725712,2.22074974,-6.961513220000001,-3.39918217,,,
imu,196.337609,1.0485618584,-9.519601812000001,2.6563965848,2.32542648,-8.98775583,-3.01785976,,,
imu,196.346071,1.055739692,-9.548313146400002,2.6252926392,2.53477996,-11.17849046,-2.86084465,,,
imu,196.354534,1.0521507752,-9.5800152448,2.588207165600001,2.81890254,-13.3019329,-2.69635263,,,
imu,196.362996,1.0066911624,-9.572837411200002,2.5947868464,2.99087147,-15.47771371,-2.50942988,,,
imu,196.371458,0.9666149248000001,-9.559678049600002,2.6055535968,2.998348379999999,-17.44414104,-2.23278421,,,
imu,196.379921,0.9020144224000001,-9.555490980000002,2.5953849992,3.04320984,-19.17878416,-1.70940051,,,
imu,196.388383,0.8326286976000001,-9.5590798968,2.6073480552,2.88619473,-20.65921234,-1.23835518,,,
imu,196.396845,0.8057118216000001,-9.562668813600002,2.601366527200001,2.87124091,-21.70597974,-0.49066418,,,
imu,196.405663,0.7435039304000001,-9.575230022400001,2.588207165600001,2.7142258,-22.85742388,-0.1915877799999999,,,
imu,196.414482,0.7602522088000001,-9.5985579816,2.5864127072,2.6394567,-23.80699145,-0.06448030999999999,,,
imu,196.4233,0.7470928472,-9.575230022400001,2.601366527200001,2.40019558,-24.75655902,0.10001171,,,
imu,196.432118,0.7129981376000001,-9.516611048000001,2.6300778616,2.37028794,-25.67621895,0.3093651899999998,,,
imu,196.440936,0.6932590952000001,-9.5213962704,2.6390501536,2.52730305,-26.52110978,0.4289957499999999,,,
imu,196.449755,0.5975546472000001,-9.571042952800001,2.6420409176,2.60207215,-27.42581589,0.5934877699999999,,,
imu,196.458573,0.5126169496,-9.588987536800001,2.6474242928,2.67684125,-27.94919959,0.7430259700000001,,,
imu,196.467391,0.4085383624000001,-9.593772759200002,2.6749393216,2.58711833,-27.94919959,1.25145585,,,
imu,196.476209,0.296085636,-9.6009505928,2.6958746696,2.58711833,-27.63516937,1.70754736,,,
imu,196.485028,0.20935348,-9.597361676,2.6910894472,2.50487232,-26.97720129,1.9617623,,,
imu,196.493846,0.1202287128,-9.6117173432,2.6916876,2.37776485,-26.03511063,1.95428539,,,
imu,196.502664,0.0741709472,-9.6296619272,2.7054451144,2.36281103,-24.86871267,1.67016281,,,
imu,196.511482,0.0681894192,-9.6290637744,2.725184156800001,2.10859609,-23.51539196,1.16173293,,,
imu,196.520301,0.1447529776,-9.623082246400001,2.742530588,1.98148862,-21.95271777,0.44394957,,,
imu,196.529119,0.191408896,-9.592576453600001,2.717408170400001,1.9665348,-20.94333492,-0.4458027199999999,,,
imu,196.537937,0.236270356,-9.560874355200001,2.7239878512,1.76465823,-20.1806901,-1.52995467,,,
imu,196.546755,0.2566075512,-9.5566872856,2.729371226400001,1.6674584,-19.66478331,-2.19539966,,,
imu,196.555574,0.2613927736,-9.558481744000002,2.7209970872,1.60764312,-19.34327618,-2.64401426,,,
imu,196.564392,0.2356722032,-9.541135312800002,2.717408170400001,1.68988913,-18.72269265,-2.68887572,,,
imu,196.57321,0.1812402984,-9.5459205352,2.7281749208,1.83195042,-18.16940131,-2.39727623,,,
imu,195.170085,,,,,,,91.54178200000001,-19.64751880000002,118.330508
imu,195.27177,,,,,,,88.86840520000001,-19.20805960000001,121.2358216
imu,195.373241,,,,,,,89.28345,-18.8784652,120.3202816
imu,195.474834,,,,,,,88.7219188,-19.2446812,120.6864976
imu,195.576335,,,,,,,88.92944119999999,-18.95170840000002,120.2348312
imu,195.677897,,,,,,,89.1491708,-18.9150868,120.1493808
imu,195.779491,,,,,,,89.02709879999999,-19.17143800000001,120.4423536
imu,195.881022,,,,,,,88.85619799999999,-18.59769960000002,120.1737952
imu,196.582028,0.1244157824,-9.556089132800002,2.7383435184,1.90671952,-17.31703357,-1.82155416,,,
imu,196.590847,0.07596540560000001,-9.561472508000001,2.743726893600001,1.97401171,-16.34503527,-0.99161715,,,
imu,196.599665,0.0346928624,-9.5668558832,2.743726893600001,1.92915025,-15.28331405,-0.37851053,,,
imu,196.608145,0.0143556672,-9.5740337168,2.7532973384,1.80951969,-13.95990098,0.1448731699999999,,,
imu,196.616625,0.0370854736,-9.571042952800001,2.747913963200001,1.83942733,-12.69630319,0.2046884499999999,,,
imu,196.625105,0.06041343280000001,-9.552500216,2.7299693792,1.83942733,-11.49999759,0.002811879999999878,,,
imu,196.633585,0.05981528000000001,-9.535153784800002,2.7263804624,1.80204278,-10.57286075,-0.5355256399999999,,,
imu,196.642065,0.05861897440000001,-9.5184055064,2.7233896984,1.86185806,-9.690585369999999,-1.11124771,,,
imu,196.650545,0.04964668240000001,-9.513620284000002,2.7209970872,2.02635008,-8.63634106,-1.43275484,,,
imu,196.659025,0.04725407120000001,-9.505844297600001,2.72159524,2.01887317,-7.454989279999999,-1.52247776,,,
imu,196.667505,0.04486146000000001,-9.5040498392,2.7180063232,2.06373463,-6.22877604,-1.55986231,,,
imu,196.675986,0.0741709472,-9.507040603200002,2.7108284896,2.07868845,-5.189485550000001,-1.81407725,,,
imu,196.684466,0.1034804344,-9.517807353600002,2.7090340312,2.05625772,-4.29973326,-2.20287657,,,
imu,196.692946,0.1495382,-9.516611048000001,2.704248808800001,2.37776485,-3.40998097,-2.50942988,,,
imu,196.701426,0.191408896,-9.534555632000002,2.7192026288,2.407672489999999,-2.80435126,-2.8234601,,,
imu,196.709906,0.230288828,-9.560874355200001,2.7203989344,2.37028794,-2.33330593,-3.03281358,,,
imu,196.718386,0.2823281216,-9.578220786400001,2.7120247952,2.44505704,-1.80992223,-3.10010577,,,
imu,196.726866,0.3062542336,-9.591380148,2.709632184,2.44505704,-1.43607673,-3.06272122,,,
imu,196.735346,0.3236006648,-9.606333968000001,2.7048469616,2.33290339,-1.286538530000001,-3.00290594,,,
imu,196.743826,0.3361618736,-9.6218859408,2.7090340312,2.28804193,-1.03232359,-2.87579847,,,
imu,196.752306,0.34393786,-9.633848996800001,2.7054451144,2.116073,-0.9874621299999999,-2.74121409,,,
imu,196.760786,0.3433397072,-9.634447149600001,2.7102303368,1.77213514,-0.7781086500000001,-2.69635263,,,
imu,196.769266,0.3403489432000001,-9.642223136000002,2.709632184,1.64502767,-0.59866281,-2.65896808,,,
imu,196.777746,0.331974804,-9.614109954400002,2.7239878512,1.39828964,-0.5164168,-2.62158353,,,
imu,196.786227,0.3445360128,-9.606932120800002,2.7072395728,1.21136689,-0.31454023,-2.38979932,,,
imu,196.794707,0.3451341656,-9.600352440000002,2.7203989344,0.9646288599999999,-0.1126636599999999,-2.42718387,,,
imu,196.803187,0.3403489432000001,-9.578220786400001,2.7198007816,0.8749059399999999,0.1415512799999998,-2.46456842,,,
imu,196.81165,0.340947096,-9.558481744000002,2.7239878512,0.83004448,0.2237972899999998,-2.38979932,,,
imu,196.820114,0.3493212352000001,-9.553098368800002,2.729371226400001,0.9272443100000001,0.5901658799999998,-2.47204533,,,
imu,196.828577,0.3636769024000001,-9.52558334,2.7221933928,0.9272443100000001,0.9565344699999998,-2.56924516,,,
imu,196.837041,0.3911919312,-9.524387034400002,2.731165684800001,0.80013684,1.17336486,-2.69635263,,,
imu,196.845504,0.4043512928,-9.5082369088,2.7198007816,1.0693056,1.34533379,-2.75616791,,,
imu,196.853968,0.4133235848,-9.5004609224,2.7180063232,1.1440747,1.38271834,-2.94309066,,,
imu,196.862431,0.442633072,-9.495675700000001,2.7120247952,1.41324346,1.49487199,-2.98047521,,,
imu,196.870895,0.4414367664,-9.5010590752,2.7078377256,1.62259694,1.59207182,-3.07767504,,,
imu,196.879359,0.4492127528000001,-9.5010590752,2.7233896984,1.87681188,1.44253362,-3.21973633,,,
imu,196.887822,0.4522035168,-9.519003659200001,2.724586004,2.01887317,1.37524143,-3.18235178,,,
imu,196.896286,0.46356842,-9.52558334,2.7221933928,2.25813429,1.36028761,-3.13001341,,,
imu,196.904749,0.4779240872000001,-9.513620284000002,2.713221100800001,2.27308811,1.06121121,-3.09262886,,,
imu,196.913213,0.4880926848000001,-9.544126076800001,2.7030525032,2.51982614,0.9565344699999998,-3.03281358,,,
imu,196.921676,0.4970649768000001,-9.549509452,2.7030525032,2.54973378,0.7696117199999999,-2.99542903,,,
imu,196.93014,0.46356842,-9.5602762024,2.713221100800001,2.4899185,0.7397040799999997,-2.9729983,,,
imu,196.938603,0.4492127528000001,-9.568052188800001,2.706043267200001,2.51234923,0.7397040799999997,-2.68887572,,,
imu,196.947067,0.4492127528000001,-9.591380148,2.715613712000001,2.3403803,0.52287369,-2.74121409,,,
imu,196.95553,0.4187069600000001,-9.626671163200001,2.729371226400001,1.97401171,0.4929660499999997,-2.88327538,,,
imu,196.963994,0.4139217376000001,-9.635045302400002,2.722791545600001,1.73475059,0.41819695,-2.80850628,,,
imu,196.972457,0.4127254320000001,-9.6224840936,2.7168100176,1.71231986,0.64250425,-2.63653735,,,
imu,196.980921,0.4073420568000001,-9.620091482400001,2.7102303368,1.60764312,0.6873657099999999,-2.68139881,,,
imu,196.989385,0.4085383624000001,-9.621287788000002,2.7024543504,1.45062801,0.7546578999999998,-2.77859864,,,
imu,196.997848,0.4085383624000001,-9.600352440000002,2.686902377600001,1.31604363,0.94905756,-2.81598319,,,
imu,197.006312,0.4139217376000001,-9.573435564,2.6743411688,1.31604363,1.10607267,-2.93561375,,,
imu,197.014774,0.4109309736,-9.557285438400001,2.6683596408,1.40576655,1.31542615,-2.93561375,,,
imu,197.023236,0.406743904,-9.5447242296,2.668957793600001,1.39081273,1.59207182,-2.9729983,,,
imu,197.031698,0.4193051128000001,-9.5357519376,2.6504150568,1.54782784,1.8014253,-2.98795212,,,
imu,197.040161,0.4294737104000001,-9.5172092008,2.649816904,1.64502767,2.00330187,-3.13001341,,,
imu,197.048623,0.43366078,-9.520798117600002,2.641442764800001,1.63007385,2.04068642,-3.33188998,,,
imu,197.057085,0.4408386136,-9.516012895200001,2.634264931200001,1.63755076,2.0257326,-3.37675144,,,
imu,197.065548,0.4402404608,-9.510031367200002,2.6444335288,1.85438115,2.19022462,-3.38422835,,,
imu,197.07401,0.4557924336,-9.516611048000001,2.6402464592,1.93662716,2.29490136,-3.54124346,,,
imu,197.082472,0.4647647256,-9.535153784800002,2.6444335288,2.01139626,2.40705501,-3.45152054,,,
imu,197.090934,0.4665591840000001,-9.553696521600001,2.6432372232,2.13102682,2.41453192,-3.76555076,,,
imu,197.099397,0.4940742128000001,-9.5602762024,2.6546021264,2.01887317,2.40705501,-3.76555076,,,
imu,197.107859,0.505439116,-9.580613397600002,2.6486205984,1.91419643,2.40705501,-3.73564312,,,
imu,197.116321,0.5180003248000001,-9.588389384000001,2.648022445600001,1.89924261,2.25751681,-3.87770441,,,
imu,197.124783,0.5126169496,-9.600352440000002,2.6420409176,2.01887317,2.12293243,-3.8702275,,,
imu,197.133246,0.5084298800000001,-9.627867468800002,2.6510132096,2.00391935,2.0257326,-3.96742733,,,
imu,197.141708,0.505439116,-9.627867468800002,2.6504150568,1.86185806,1.92105586,-3.90013514,,,
imu,197.15017,0.5048409632,-9.6290637744,2.6540039736,1.65998149,1.66684092,-3.89265823,,,
imu,197.158633,0.49347606,-9.635643455200002,2.6563965848,1.57025857,1.61450255,-3.92256587,,,
imu,197.167095,0.4982612824000001,-9.6290637744,2.6510132096,1.47305874,1.47991817,-3.84031986,,,
imu,197.175557,0.4964668240000001,-9.611119190400002,2.6510132096,1.2936129,1.41262598,-3.78050458,,,
imu,197.184019,0.5006538936,-9.599156134400001,2.659387348800001,1.24875144,1.45748744,-3.6459202,,,
imu,197.192482,0.4827093096,-9.608128426400002,2.6695559464,1.13659779,1.28551851,-3.65339711,,,
imu,197.200944,0.4916816016,-9.6224840936,2.6659670296,0.8375213899999999,1.27056469,-3.80293531,,,
imu,197.209406,0.4773259344000001,-9.599156134400001,2.671350404800001,0.68798319,1.18084177,-3.87770441,,,
imu,197.217872,0.4581850448000001,-9.593174606400002,2.6773319328,0.71789083,1.1285034,-4.0197657,,,
imu,197.226338,0.4462219888000001,-9.581809703200001,2.6833134608,0.73284465,1.13598031,-3.83284295,,,
imu,197.234804,0.4462219888000001,-9.575828175200002,2.673144863200001,0.67302937,1.25561087,-3.83284295,,,
imu,197.24327,0.4264829464000001,-9.5602762024,2.6534058208,0.59078336,1.30794924,-3.85527368,,,
imu,197.251737,0.4222958768,-9.532163020800002,2.652807668,0.71789083,1.45001053,-3.85527368,,,
imu,197.260203,0.4234921824,-9.5327611736,2.655798432,0.8674290299999999,1.62945637,-3.82536604,,,
imu,197.268669,0.4366515440000001,-9.531564868,2.6420409176,0.9571519499999999,1.68179474,-3.84031986,,,
imu,197.277135,0.4348570856000001,-9.5489112992,2.6474242928,1.09173633,1.67431783,-3.9449966,,,
imu,197.285601,0.4348570856000001,-9.544126076800001,2.634264931200001,1.41324346,1.8761944,-3.91508896,,,
imu,197.294067,0.4402404608,-9.5447242296,2.6300778616,1.27865908,1.74908693,-3.95247351,,,
imu,197.302533,0.4414367664,-9.553696521600001,2.6354612368,1.34595127,1.8761944,-3.93004278,,,
imu,197.310999,0.4390441552000001,-9.574631869600001,2.631872320000001,1.35342818,1.93600968,-3.81041222,,,
imu,197.319465,0.4438293776000001,-9.573435564,2.6336667784,1.45062801,2.04068642,-3.496382,,,
imu,197.327931,0.4450256832000001,-9.5907819952,2.6396483064,1.41324346,1.90610204,-3.50385891,,,
imu,197.336397,0.4480164472000001,-9.614708107200002,2.6282834032,1.39828964,2.01825569,-3.44404363,,,
imu,197.344863,0.4528016696000001,-9.624278552000002,2.6426390704,1.20388998,2.01077878,-3.20478251,,,
imu,197.35333,0.4587831976000001,-9.619493329600001,2.6563965848,0.9347212199999999,2.04068642,-3.07019813,,,
imu,197.361796,0.4647647256,-9.612315496,2.640844612,0.68798319,2.07807097,-3.04029049,,,
imu,197.370262,0.4707462536000001,-9.606932120800002,2.6504150568,0.56087572,1.93600968,-2.98795212,,,
imu,197.378728,0.46356842,-9.583604161600002,2.646227987200001,0.46367589,1.83133294,-3.01038285,,,
imu,197.387194,0.4779240872000001,-9.562070660800002,2.6420409176,0.41881443,2.01077878,-2.9729983,,,
imu,195.982585,,,,,,,87.4035412,-18.76860040000001,119.9540656
imu,196.084178,,,,,,,88.0871444,-19.39116760000001,115.8036176
imu,196.185741,,,,,,,84.9743084,-18.54887080000001,116.92668
imu,196.287303,,,,,,,86.8542172,-19.72076200000001,114.4364112
imu,196.388835,,,,,,,85.1696236,-18.57328520000001,116.987716
imu,196.490581,,,,,,,86.07295640000001,-18.79301480000002,118.5868592
imu,196.59196,,,,,,,87.29367640000001,-18.53666360000001,119.1483904
imu,196.693522,,,,,,,87.5988564,-18.47562760000001,119.7587504
imu,197.395577,0.4797185456,-9.5638651192,2.6336667784,0.41133752,1.93600968,-3.06272122,,,
imu,197.404043,0.4803166984,-9.554892827200002,2.6330686256,0.49358353,1.86124058,-3.10010577,,,
imu,197.412509,0.4868963792000001,-9.547116840800001,2.638452000800001,0.53096808,1.9509635,-3.15244414,,,
imu,197.421366,0.4773259344000001,-9.554892827200002,2.6402464592,0.70293701,1.95844041,-3.30945925,,,
imu,197.430222,0.4928779072000001,-9.568052188800001,2.6629762656,0.6132140899999999,1.8761944,-3.53376655,,,
imu,197.439079,0.4946723656000001,-9.557883591200001,2.6659670296,0.9870595899999999,2.01825569,-3.41413599,,,
imu,197.447936,0.5144114080000001,-9.551303910400001,2.6599855016,0.9945364999999999,1.98087114,-3.45899745,,,
imu,197.456792,0.5090280328000001,-9.552500216,2.655798432,0.8973366700000001,1.99582496,-3.59358183,,,
imu,197.465649,0.5108224912,-9.551902063200002,2.6719485576,0.97958268,2.07059406,-3.66087402,,,
imu,197.474506,0.5114206440000001,-9.553098368800002,2.667761488,0.8375213899999999,2.03320951,-3.67582784,,,
imu,197.483363,0.5209910888,-9.562668813600002,2.6749393216,0.88985976,1.85376367,-3.73564312,,,
imu,197.492219,0.5239818528000001,-9.555490980000002,2.670752252,1.05435178,1.8761944,-3.83284295,,,
imu,197.501076,0.5162058664000001,-9.554892827200002,2.670752252,1.07678251,1.67431783,-3.89265823,,,
imu,197.509933,0.5156077136000001,-9.554892827200002,2.6695559464,1.12164397,1.59207182,-3.8702275,,,
imu,197.51879,0.5072335744,-9.5590798968,2.673144863200001,1.06182869,1.53973345,-4.10948862,,,
imu,197.527646,0.4946723656000001,-9.555490980000002,2.678528238400001,1.00949032,1.41262598,-4.102011709999999,,,
imu,197.536503,0.4731388648000001,-9.5704448,2.6779300856,1.03939796,1.38271834,-4.0197657,,,
imu,197.54536,0.4743351704000001,-9.5704448,2.6695559464,1.12912088,1.43505671,-3.99733497,,,
imu,197.554216,0.4665591840000001,-9.5602762024,2.667761488,1.18145925,1.43505671,-3.80293531,,,
imu,197.563073,0.4557924336,-9.5566872856,2.6761356272,1.23379762,1.45001053,-3.76555076,,,
imu,197.57193,0.4498109056,-9.568052188800001,2.6761356272,1.24127453,1.52477963,-3.75059694,,,
imu,197.580787,0.4480164472000001,-9.5590798968,2.6659670296,1.18145925,1.53973345,-3.63096638,,,
imu,197.589643,0.4318663216,-9.547714993600001,2.6791263912,1.11416706,1.5023489,-3.60853565,,,
imu,197.5985,0.4252866408000001,-9.556089132800002,2.6791263912,0.9571519499999999,1.61450255,-3.67582784,,,
imu,197.607357,0.4288755576000001,-9.575828175200002,2.6791263912,1.03939796,1.88367131,-3.47395127,,,
imu,197.616214,0.439642308,-9.562070660800002,2.673743016,1.09173633,1.95844041,-3.33936689,,,
imu,197.624673,0.4438293776000001,-9.540537160000001,2.667163335200001,1.12164397,1.98834805,-3.32441307,,,
imu,197.633133,0.4557924336,-9.555490980000002,2.649816904,1.33847436,2.04816333,-3.39918217,,,
imu,197.641593,0.4677554896000001,-9.551902063200002,2.6330686256,1.40576655,2.20517844,-3.28702852,,,
imu,197.650053,0.4689517952000001,-9.543527924000001,2.6240963336,1.54782784,2.33976282,-3.01785976,,,
imu,197.658512,0.4976631296000001,-9.5489112992,2.6055535968,1.64502767,2.38462428,-3.07019813,,,
imu,197.666972,0.4958686712000001,-9.584800467200001,2.6103388192,1.8917657,2.324809,-3.0477674,,,
imu,197.675432,0.5090280328000001,-9.602745051200001,2.610936972000001,1.9665348,2.34723973,-3.00290594,,,
imu,197.683891,0.5257763112000001,-9.608128426400002,2.6091425136,1.94410407,2.26499372,-3.11505959,,,
imu,197.692351,0.5293652280000001,-9.608128426400002,2.6061517496,1.84690424,2.20517844,-3.22721324,,,
imu,197.700811,0.5227855472,-9.606932120800002,2.613927736,1.60016621,2.15284007,-3.4216129,,,
imu,197.709271,0.5138132552000001,-9.597959828800002,2.6157221944,1.35342818,2.07059406,-3.45152054,,,
imu,197.71773,0.5150095608,-9.599156134400001,2.6145258888,1.09921324,1.98834805,-3.46647436,,,
imu,197.72619,0.499457588,-9.6051376624,2.613927736,0.77770611,1.96591732,-3.496382,,,
imu,197.73465,0.49347606,-9.600352440000002,2.625890792,0.7403215599999999,2.05564024,-3.45152054,,,
imu,197.74311,0.5000557408,-9.608128426400002,2.6306760144,0.65807555,2.13788625,-3.37675144,,,
imu,197.751569,0.505439116,-9.609324732000001,2.6282834032,0.41133752,2.24256299,-3.36179762,,,
imu,197.760029,0.5150095608,-9.597959828800002,2.634264931200001,0.36647606,2.24256299,-3.39918217,,,
imu,197.768489,0.5257763112000001,-9.583604161600002,2.6546021264,0.36647606,2.19022462,-3.47395127,,,
imu,197.776948,0.5347486032000001,-9.5800152448,2.6569947376,0.30666078,2.18274771,-3.46647436,,,
imu,197.785408,0.5341504504000001,-9.578220786400001,2.659387348800001,0.26179932,2.01077878,-3.69825857,,,
imu,197.793868,0.5431227424,-9.558481744000002,2.6641725712,0.3963837,1.94348659,-3.73564312,,,
imu,197.802328,0.5473098120000001,-9.553696521600001,2.6701540992,0.49358353,1.8014253,-3.75059694,,,
imu,197.810787,0.5443190480000001,-9.554892827200002,2.661779960000001,0.4861066199999999,1.59954873,-3.80293531,,,
imu,197.819247,0.5359449088000001,-9.551902063200002,2.667163335200001,0.60573718,1.64441019,-3.81788913,,,
imu,197.827689,0.5389356728,-9.5172092008,2.6659670296,0.7253677399999999,1.55468727,-3.71321239,,,
imu,197.836131,0.5317578392000001,-9.536350090400001,2.670752252,0.78518302,1.45001053,-3.66087402,,,
imu,197.844573,0.5090280328000001,-9.557883591200001,2.673743016,0.65059864,1.29299542,-3.84031986,,,
imu,197.853015,0.520392936,-9.556089132800002,2.6833134608,0.60573718,1.11354958,-3.87770441,,,
imu,197.861457,0.5030465048,-9.539939007200001,2.6755374744,0.80013684,1.11354958,-3.8702275,,,
imu,197.869899,0.4880926848000001,-9.5489112992,2.6821171552,0.97958268,1.12102649,-3.78050458,,,
imu,197.878341,0.4827093096,-9.569248494400002,2.6743411688,0.9048135799999999,0.98644211,-3.72816621,,,
imu,197.886782,0.4659610312,-9.569248494400002,2.6779300856,1.08425942,1.06868812,-3.4216129,,,
imu,197.895224,0.4569887392,-9.560874355200001,2.6761356272,1.13659779,1.24813396,-3.42908981,,,
imu,197.903666,0.4486146000000001,-9.560874355200001,2.6623781128,1.12912088,1.38271834,-3.35432071,,,
imu,197.912108,0.4581850448000001,-9.5632669664,2.6581910432,1.27118217,1.64441019,-3.25712088,,,
imu,197.92055,0.4605776560000001,-9.564463272000001,2.6516113624,1.39081273,1.8014253,-3.26459779,,,
imu,197.928992,0.4707462536000001,-9.5489112992,2.645629834400001,1.34595127,1.79394839,-3.50385891,,,
imu,197.937434,0.472540712,-9.551303910400001,2.634264931200001,1.13659779,1.89114822,-3.71321239,,,
imu,197.945876,0.4713444064,-9.5423316184,2.637853848,1.37585891,1.99582496,-3.6459202,,,
imu,197.954318,0.4845037680000001,-9.553098368800002,2.6324704728,1.40576655,2.12293243,-3.54124346,,,
imu,197.96276,0.4958686712000001,-9.555490980000002,2.6294797088,1.27865908,2.06311715,-3.55619728,,,
imu,197.971202,0.5066354216000001,-9.5638651192,2.6282834032,1.24127453,2.16031698,-3.41413599,,,
imu,197.979644,0.4982612824000001,-9.567454036,2.6300778616,1.36090509,2.27247063,-3.2720747,,,
imu,197.988086,0.5138132552000001,-9.5668558832,2.6270870976,1.35342818,2.0257326,-3.21225942,,,
imu,197.996528,0.5281689224000001,-9.581809703200001,2.615124041600001,1.18893616,1.92853277,-3.21973633,,,
imu,198.004969,0.5383375200000001,-9.569248494400002,2.613927736,1.20388998,1.86124058,-3.09262886,,,
imu,198.013411,0.5329541448,-9.566257730400002,2.6217037224,1.22632071,1.85376367,-2.87579847,,,
imu,198.021853,0.5150095608,-9.5800152448,2.6127314304,1.20388998,1.69674856,-2.73373718,,,
imu,198.030342,0.5072335744,-9.5877912312,2.6097406664,1.21136689,1.59207182,-2.61410662,,,
imu,198.038831,0.5018501992000001,-9.584800467200001,2.6091425136,1.28613599,1.59954873,-2.69635263,,,
imu,198.04732,0.4976631296000001,-9.595567217600001,2.6187129584,1.16650543,1.71170238,-2.65896808,,,
imu,198.055809,0.4982612824000001,-9.597959828800002,2.6217037224,1.12912088,1.79394839,-2.68887572,,,
imu,198.064298,0.4857000736000001,-9.602745051200001,2.613329583200001,0.9347212199999999,1.82385603,-2.71130645,,,
imu,198.072787,0.499457588,-9.612315496,2.6264889448,0.9272443100000001,1.94348659,-2.75616791,,,
imu,198.081276,0.5048409632,-9.614708107200002,2.625890792,0.78518302,2.06311715,-2.92065993,,,
imu,198.089765,0.5066354216000001,-9.612315496,2.6217037224,0.65807555,2.14536316,-3.0477674,,,
imu,198.098254,0.5150095608,-9.602745051200001,2.610936972000001,0.47862971,2.27247063,-2.9729983,,,
imu,198.106743,0.5180003248000001,-9.588987536800001,2.6187129584,0.35899915,2.40705501,-2.98047521,,,
imu,198.115232,0.5269726168000001,-9.585996772800002,2.6211055696,0.35152224,2.3995781,-2.98047521,,,
imu,198.123721,0.5221873944000001,-9.571042952800001,2.610936972000001,0.26927623,2.6238854,-3.13001341,,,
imu,198.13221,0.5269726168000001,-9.562668813600002,2.6127314304,0.4861066199999999,2.5491163,-3.07019813,,,
imu,198.140699,0.5347486032000001,-9.562070660800002,2.6115351248,0.23189168,2.39210119,-3.1225365,,,
imu,198.149188,0.5473098120000001,-9.569248494400002,2.6240963336,0.41881443,2.50425484,-3.09262886,,,
imu,198.157677,0.5479079648000001,-9.574631869600001,2.6372556952,0.5010604399999999,2.60145467,-2.99542903,,,
imu,198.166166,0.5544876456000001,-9.578220786400001,2.643835376000001,0.38142988,2.58650085,-3.07767504,,,
imu,198.174655,0.5592728680000001,-9.6009505928,2.6504150568,0.41133752,2.50425484,-3.04029049,,,
imu,198.183144,0.5700396184000001,-9.5877912312,2.640844612,0.32909151,2.51920866,-2.96552139,,,
imu,198.191633,0.5664507016000001,-9.5865949256,2.6474242928,0.32909151,2.34723973,-2.94309066,,,
imu,198.200122,0.565254396,-9.590183842400002,2.6486205984,0.33656842,2.21265535,-2.98795212,,,
imu,198.208611,0.5730303824,-9.574631869600001,2.6599855016,0.02253820000000001,2.01077878,-3.05524431,,,
imu,196.794995,,,,,,,88.0261084,-18.40238440000002,119.7831648
imu,196.896557,,,,,,,87.98948680000001,-18.5854924,118.8065888
imu,196.99815,,,,,,,88.1725948,-18.57328520000001,120.039516
imu,197.099713,,,,,,,90.32106200000001,-19.110402,117.9154632
imu,197.201275,,,,,,,88.001694,-18.71977160000002,120.3691104
imu,197.302991,,,,,,,90.77272839999999,-19.6353116,117.9154632
imu,197.404461,,,,,,,87.7209284,-18.85405080000002,120.100552
imu,197.505932,,,,,,,88.0749372,-19.0127444,118.5990664
imu,198.2171,0.5658525488000001,-9.558481744000002,2.6635744184,-0.07466163,1.89862513,-2.99542903,,,
imu,198.225589,0.550300576,-9.5489112992,2.671350404800001,-0.11952309,1.98834805,-2.88327538,,,
imu,198.234024,0.5359449088000001,-9.5698466472,2.6743411688,-0.08213854000000001,2.01077878,-2.77112173,,,
imu,198.24246,0.5341504504000001,-9.5800152448,2.6725467104,-0.13447691,2.07059406,-2.60662971,,,
imu,198.250895,0.5311596864,-9.551303910400001,2.6629762656,-0.11952309,2.07059406,-2.48699915,,,
imu,198.259331,0.5377393672000002,-9.540537160000001,2.6725467104,-0.04475399000000001,2.01825569,-2.46456842,,,
imu,198.267766,0.5497024232000001,-9.543527924000001,2.667163335200001,0.03749201999999999,2.16779389,-2.25521494,,,
imu,198.276202,0.5479079648000001,-9.553696521600001,2.667761488,0.14964567,2.22760917,-2.16549202,,,
imu,198.284638,0.5658525488000001,-9.5423316184,2.6611818072,0.36647606,2.48182411,-2.14306129,,,
imu,198.293073,0.5778156048000002,-9.527975951200002,2.673144863200001,0.5010604399999999,2.6238854,-2.06829219,,,
imu,198.301509,0.5933675776,-9.545322382400002,2.6629762656,0.46367589,2.6238854,-2.20287657,,,
imu,198.309944,0.6041343280000001,-9.553098368800002,2.678528238400001,0.53096808,2.60145467,-2.31503022,,,
imu,198.31838,0.6166955368000001,-9.534555632000002,2.6821171552,0.43376825,2.73603905,-2.51690679,,,
imu,198.326815,0.631051204,-9.530368562400001,2.6851079192,0.3963837,2.87062343,-2.59167589,,,
imu,198.335251,0.6501920936000001,-9.531564868,2.6821171552,0.35899915,2.83323888,-2.80850628,,,
imu,198.343687,0.6513883992,-9.517807353600002,2.6928839056,0.38142988,2.68370068,-2.85336774,,,
imu,198.352122,0.6645477608,-9.505246144800001,2.6940802112,0.17955331,2.63883922,-3.01038285,,,
imu,198.360558,0.6573699272000001,-9.503451686400002,2.700659892,0.29918387,2.6238854,-3.09262886,,,
imu,198.368993,0.6812960392000001,-9.499862769600002,2.6970709752,0.41881443,2.40705501,-3.01785976,,,
imu,198.377429,0.6836886504,-9.4944793944,2.6892949888,0.4861066199999999,2.34723973,-3.14496723,,,
imu,198.385864,0.6872775672000001,-9.4831144912,2.6773319328,0.5982602699999999,2.05564024,-3.33936689,,,
imu,198.3943,0.6783052752000002,-9.502853533600002,2.679724544,0.81509066,1.98834805,-3.39918217,,,
imu,198.402736,0.6824923448,-9.5010590752,2.686902377600001,1.06182869,1.8761944,-3.50385891,,,
imu,198.411171,0.6806978864000002,-9.5184055064,2.6928839056,1.19641307,1.62197946,-3.61601256,,,
imu,198.419607,0.6657440664000001,-9.5237888816,2.6988654336,1.25622835,1.4275798,-3.77302767,,,
imu,198.428042,0.6561736216000001,-9.5393408544,2.682715308000001,1.43567419,1.38271834,-3.84779677,,,
imu,198.43686,0.6358364264000002,-9.550705757600001,2.686902377600001,1.54782784,1.37524143,-3.71321239,,,
imu,198.445679,0.6424161072,-9.5704448,2.6910894472,1.5179202,1.2032725,-3.7206893,,,
imu,198.454497,0.6154992312,-9.572239258400002,2.6815190024,1.65998149,1.24065705,-3.58610492,,,
imu,198.463315,0.5957601888000001,-9.567454036,2.670752252,1.50296638,1.28551851,-3.51881273,,,
imu,198.472134,0.5915731192000001,-9.567454036,2.6719485576,1.43567419,1.23318014,-3.61601256,,,
imu,198.480952,0.5891805080000001,-9.5865949256,2.679724544,1.48801256,1.16588795,-3.63096638,,,
imu,198.489857,0.5885823552,-9.592576453600001,2.664770724000001,1.22632071,1.10607267,-3.77302767,,,
imu,198.498675,0.5694414656000001,-9.5668558832,2.673144863200001,1.24875144,1.09111885,-3.81788913,,,
imu,198.507493,0.5562821040000001,-9.573435564,2.679724544,1.22632071,1.06121121,-3.75807385,,,
imu,198.516311,0.5377393672000002,-9.5740337168,2.668957793600001,1.20388998,1.25561087,-3.54124346,,,
imu,198.52513,0.5377393672000002,-9.5656595776,2.6653688768,1.16650543,1.33037997,-3.31693616,,,
imu,198.533948,0.5317578392000001,-9.553696521600001,2.6534058208,1.0693056,1.49487199,-3.21973633,,,
imu,198.542766,0.5413282840000001,-9.550705757600001,2.6540039736,1.18893616,1.85376367,-3.05524431,,,
imu,198.551584,0.5544876456000001,-9.548313146400002,2.6599855016,1.18145925,1.98834805,-3.07767504,,,
imu,198.560403,0.56824516,-9.551902063200002,2.6629762656,1.24127453,2.20517844,-3.10010577,,,
imu,198.569221,0.5772174520000001,-9.538742701600002,2.657592890400001,1.33847436,2.34723973,-3.16739796,,,
imu,198.578039,0.5945638832000001,-9.533359326400001,2.6605836544,1.2188438,2.4743472,-3.28702852,,,
imu,198.586857,0.5999472584000001,-9.5291722568,2.6599855016,1.37585891,2.73603905,-3.32441307,,,
imu,198.595676,0.6101158560000001,-9.535153784800002,2.6581910432,1.39081273,2.68370068,-3.30945925,,,
imu,198.604494,0.6149010784000001,-9.527975951200002,2.6366575424,1.27865908,2.59397776,-3.4216129,,,
imu,198.613312,0.6226770648,-9.5327611736,2.64682614,1.43567419,2.58650085,-3.2720747,,,
imu,198.622131,0.6352382736000001,-9.539939007200001,2.643835376000001,1.35342818,2.66874686,-3.22721324,,,
imu,198.630949,0.6424161072,-9.5423316184,2.6450316816,1.39828964,2.66126995,-3.10010577,,,
imu,198.639425,0.6477994824000001,-9.5357519376,2.6336667784,1.36090509,2.66874686,-3.14496723,,,
imu,198.647901,0.6711274416,-9.553098368800002,2.6336667784,1.5179202,2.67622377,-3.11505959,,,
imu,198.656378,0.681894192,-9.554294674400001,2.6336667784,1.45062801,2.57902394,-3.00290594,,,
imu,198.664854,0.6962498592000002,-9.5590798968,2.6360593896,1.48801256,2.44443956,-3.10758268,,,
imu,197.607739,,,,,,,88.184802,-18.51224920000001,120.4301464
imu,197.709057,,,,,,,88.56322519999999,-18.5854924,119.795372
imu,197.810772,,,,,,,88.3801172,-18.62211400000002,119.8808224
imu,197.913159,,,,,,,88.28245960000001,-19.17143800000001,119.7221288
imu,198.013745,,,,,,,88.57543240000001,-18.75639320000002,119.1361832
imu,198.115307,,,,,,,88.45336040000001,-18.79301480000002,120.1371736
imu,198.217206,,,,,,,90.7116924,-19.39116760000001,118.3060936
imu,198.318463,,,,,,,88.489982,-18.57328520000001,119.8930296
imu,198.419941,,,,,,,90.6994852,-19.09819480000001,117.720148
imu,198.529285,,,,,,,88.5998468,-18.37797000000001,119.8930296
imu,198.623035,,,,,,,88.40453159999998,-18.17044760000002,118.1840216
