Type,Timestamp,Data Accelerometer X,Data Accelerometer Y,Data Accelerometer Z,Data Gyroscope X,Data Gyroscope Y,Data Gyroscope Z,Data Magnetometer X,Data Magnetometer Y,Data Magnetometer Z
imu,40.183495,-0.4868963792000001,-9.7056273328,2.106694161600001,0.5010604399999999,1.8014253,-3.01038285,,,
imu,40.192305,-0.4773259344000001,-9.690075360000002,2.111479384,0.52349117,1.84628676,-2.84589083,,,
imu,40.201115,-0.4827093096,-9.684093832000002,2.1072923144,0.44872207,1.84628676,-2.8234601,,,
imu,40.209926,-0.4719425592000001,-9.6876827488,2.1150683008,0.3739529699999999,1.83133294,-2.98795212,,,
imu,40.218736,-0.4647647256,-9.6799067624,2.1090867728,0.30666078,1.75656384,-2.87579847,,,
imu,40.227546,-0.4593813504000001,-9.681103068,2.1348073432,0.3963837,1.77899457,-2.92813684,,,
imu,40.236357,-0.4605776560000001,-9.696655040800001,2.1258350512,0.4861066199999999,1.8014253,-2.92065993,,,
imu,40.245167,-0.4486146000000001,-9.702636568800001,2.1222461344,0.56087572,1.88367131,-2.80102937,,,
imu,40.253977,-0.4378478496000001,-9.696655040800001,2.1288258152,0.68798319,1.95844041,-2.76364482,,,
imu,40.262788,-0.4330626272,-9.700243957600001,2.1371999544,0.70293701,1.89862513,-2.91318302,,,
imu,40.271598,-0.4300718632,-9.702636568800001,2.1360036488,0.5459219,1.85376367,-3.02533667,,,
imu,40.280408,-0.4187069600000001,-9.710412555200001,2.1246387456,0.70293701,1.8761944,-3.11505959,,,
imu,40.289218,-0.4240903352000001,-9.723571916800001,2.1318165792,0.79265993,1.78647148,-3.31693616,,,
imu,40.298029,-0.4163143488000001,-9.722375611200002,2.1407888712,0.8973366700000001,1.7266562,-3.50385891,,,
imu,40.306839,-0.4187069600000001,-9.724170069600001,2.1270313568,0.97210577,1.76404075,-3.87770441,,,
imu,40.315649,-0.4360533912000001,-9.725964528,2.135405496,0.9571519499999999,1.67431783,-4.06462716,,,
imu,40.32446,-0.4354552384000001,-9.723571916800001,2.1228442872,1.18145925,1.66684092,-4.20668845,,,
imu,40.33327,-0.43366078,-9.7283571392,2.130022120800001,1.26370526,1.51730272,-4.52819558,,,
imu,40.34208,-0.442633072,-9.7953502528,2.147368552000001,1.24875144,1.49487199,-4.78988743,,,
imu,40.35089,-0.4456238360000001,-9.794752100000002,2.1276295096,1.09921324,1.41262598,-4.87213344,,,
imu,40.359371,-0.4450256832000001,-9.7492924872,2.1180590648,0.9048135799999999,1.28551851,-4.81231816,,,
imu,40.367851,-0.4539979752000001,-9.745105417600001,2.1306202736,0.94967504,1.18084177,-4.74502597,,,
imu,40.376331,-0.4522035168,-9.727758986400001,2.111479384,0.77770611,0.9640113799999996,-4.670256869999999,,,
imu,40.384811,-0.4755314760000001,-9.7074217912,2.1246387456,0.77770611,0.7172733499999997,-4.715118329999999,,,
imu,40.393291,-0.5156077136000001,-9.724768222400002,2.129423968,0.7702292,0.6798887999999996,-4.74502597,,,
imu,40.401771,-0.520392936,-9.737927584000001,2.1270313568,0.79265993,0.6125966099999998,-4.7674567,,,
imu,40.410251,-0.535346756,-9.764246307200002,2.1318165792,0.60573718,0.4929660499999997,-4.93942563,,,
imu,40.418731,-0.5640580904000001,-9.743310959200002,2.1216479816,0.38142988,0.5976427899999996,-4.89456417,,,
imu,40.427211,-0.5778156048000002,-9.696655040800001,2.1210498288,0.3216146,0.70231953,-4.72259524,,,
imu,40.435691,-0.5927694248,-9.6709344704,2.1162646064,0.29170696,0.8518577299999999,-4.49828794,,,
imu,40.444171,-0.6047324808000001,-9.669738164800002,2.105497856,0.46367589,1.00887284,-3.98985806,,,
imu,40.452651,-0.5975546472000001,-9.663158484000002,2.1001144808,0.49358353,1.24065705,-3.61601256,,,
imu,40.461131,-0.5921712720000001,-9.647606511200001,2.102507092,0.41881443,1.50982581,-3.39918217,,,
imu,40.469611,-0.5879842024,-9.635045302400002,2.0941329528,0.59078336,1.83880985,-3.31693616,,,
imu,40.478092,-0.5855915912,-9.617100718400001,2.0935348,0.49358353,2.13788625,-3.42908981,,,
imu,40.486572,-0.5676470072,-9.626671163200001,2.0983200224,0.45619898,2.34723973,-3.3468438,,,
imu,40.495052,-0.5520950344000001,-9.620091482400001,2.090544036,0.40386061,2.43696265,-3.37675144,,,
imu,40.503532,-0.535346756,-9.596763523200002,2.0803754384,0.23189168,2.63883922,-3.54124346,,,
imu,40.512012,-0.5287670752,-9.574631869600001,2.0803754384,0.35152224,2.58650085,-3.56367419,,,
imu,40.520492,-0.5012520464000001,-9.568650341600001,2.087553272,0.31413769,2.66126995,-3.46647436,,,
imu,40.528972,-0.4833074624000001,-9.559678049600002,2.0773846744,0.50853735,2.75846978,-3.45152054,,,
imu,40.537452,-0.4575868920000001,-9.575828175200002,2.0833662024,0.81509066,2.72108523,-3.36179762,,,
imu,40.545932,-0.454596128,-9.592576453600001,2.084562508,0.9347212199999999,2.6238854,-3.33936689,,,
imu,40.554412,-0.4444275304,-9.602745051200001,2.0737957576,1.12912088,2.44443956,-3.13001341,,,
imu,40.562873,-0.4486146000000001,-9.621287788000002,2.0827680496,1.09173633,2.21265535,-3.05524431,,,
imu,40.571334,-0.4539979752000001,-9.633848996800001,2.0737957576,1.15155161,2.10797861,-2.96552139,,,
imu,40.579795,-0.4677554896000001,-9.659569567200002,2.0935348,1.17398234,1.83880985,-3.14496723,,,
imu,40.588256,-0.4785222400000001,-9.675719692800001,2.0947311056,0.94219813,1.77899457,-2.9729983,,,
imu,40.596717,-0.4880926848000001,-9.6918698184,2.0911421888,0.7104139199999999,1.64441019,-2.94309066,,,
imu,40.605178,-0.5012520464000001,-9.699047652,2.0881514248,0.32909151,1.82385603,-2.92813684,,,
imu,40.613639,-0.502448352,-9.693664276800002,2.1019089392,0.17955331,2.01825569,-2.83093701,,,
imu,40.6221,-0.4964668240000001,-9.703234721600001,2.1102830784,-0.26158438,2.11545552,-2.5991528,,,
imu,40.630561,-0.4833074624000001,-9.680504915200002,2.1246387456,-0.5681376899999999,2.27994754,-2.48699915,,,
imu,40.639022,-0.4785222400000001,-9.6709344704,2.1318165792,-0.94198319,2.38462428,-2.54681443,,,
imu,40.647483,-0.46356842,-9.652989886400002,2.13839626,-1.36069015,2.54163939,-2.65896808,,,
imu,40.655944,-0.4330626272,-9.6499991224,2.1467703992,-1.51022835,2.61640849,-2.74121409,,,
imu,40.664405,-0.4121272792,-9.641624983200002,2.1629205248,-1.51022835,2.74351596,-2.56924516,,,
imu,40.672866,-0.4079402096,-9.673925234400002,2.1838558728,-1.73453565,2.87810034,-2.71130645,,,
imu,40.681327,-0.3941826952,-9.706225485600001,2.2137635128,-2.06351969,2.90053107,-2.94309066,,,
imu,40.689788,-0.3804251808,-9.721179305600002,2.2185487352,-2.0709966,2.8481927,-3.0477674,,,
imu,40.698249,-0.367863972,-9.709814402400001,2.231109944,-2.16819643,2.71360832,-3.16739796,,,
imu,40.70671,-0.3648732080000001,-9.682299373600001,2.2376896248,-2.2953039,2.49677793,-3.40665908,,,
imu,40.715171,-0.3594898328000001,-9.690673512800002,2.2556342088,-2.16819643,2.30237827,-3.63844329,,,
imu,40.723632,-0.3714528888,-9.686486443200002,2.2592231256,-1.98875059,2.24256299,-3.6459202,,,
imu,40.732093,-0.3756399584,-9.709814402400001,2.266999112000001,-1.8466893,2.06311715,-3.66087402,,,
imu,40.740554,-0.3690602776000001,-9.709814402400001,2.2801584736,-1.57004363,1.92105586,-3.45899745,,,
imu,40.749015,-0.3624805968,-9.706823638400001,2.2795603208,-1.29339796,1.89862513,-3.38422835,,,
imu,40.757476,-0.3505175408000001,-9.672728928800002,2.2915233768,-1.18124431,1.6518871,-3.42908981,,,
imu,40.765937,-0.3971734592000001,-9.641624983200002,2.2855418488,-1.00927538,1.46496435,-3.51881273,,,
imu,40.774398,-0.4097346680000001,-9.621287788000002,2.2687935704,-0.5756146,1.30047233,-3.57862801,,,
imu,40.782859,-0.4073420568000001,-9.6326526912,2.278962168,-0.25410747,1.26308778,-3.76555076,,,
imu,40.79132,-0.4151180432000001,-9.6087265792,2.2771677096,-0.0522309,1.24813396,-3.86275059,,,
imu,40.799781,-0.4151180432000001,-9.596763523200002,2.286738154400001,0.17955331,1.33785688,-3.90013514,,,
imu,40.808242,-0.4222958768,-9.593772759200002,2.286738154400001,0.20198404,1.19579559,-4.08705789,,,
imu,40.816703,-0.4258847936,-9.575828175200002,2.2771677096,0.29170696,1.16588795,-4.15435008,,,
imu,40.825164,-0.4324644744,-9.5590798968,2.2777658624,0.34404533,1.2780416,-4.22911918,,,
imu,40.833625,-0.4504090584,-9.5381445488,2.2801584736,0.29170696,1.23318014,-4.37118047,,,
imu,40.842086,-0.4492127528000001,-9.5249851872,2.2861400016,0.4861066199999999,1.3528107,-4.25902682,,,
imu,40.850547,-0.4587831976000001,-9.5357519376,2.286738154400001,0.3216146,1.28551851,-4.15435008,,,
imu,40.859008,-0.4695499480000001,-9.519601812000001,2.2861400016,0.28423005,1.2780416,-4.11696553,,,
imu,40.867469,-0.4797185456,-9.519601812000001,2.2855418488,0.35899915,1.47244126,-4.13191935,,,
imu,40.87593,-0.4791203928000001,-9.519601812000001,2.2897289184,0.31413769,1.46496435,-4.02724261,,,
imu,40.884391,-0.4833074624000001,-9.514218436800002,2.2873363072,0.3963837,1.51730272,-4.04219643,,,
imu,40.892852,-0.4982612824000001,-9.5213962704,2.2873363072,0.64312173,1.62945637,-4.23659609,,,
imu,40.901313,-0.4892889904,-9.516611048000001,2.278962168,0.7403215599999999,1.62945637,-4.19173463,,,
imu,40.909774,-0.4964668240000001,-9.536350090400001,2.2735787928,1.13659779,1.62197946,-4.124442439999999,,,
imu,40.918235,-0.4940742128000001,-9.5632669664,2.2891307656,1.2936129,1.60702564,-4.23659609,,,
imu,40.926696,-0.4910834488,-9.573435564,2.2693917232,1.72727368,1.75656384,-4.244073,,,
imu,40.935157,-0.4928779072000001,-9.571641105600001,2.2681954176,2.04878081,1.73413311,-4.13191935,,,
imu,40.943618,-0.4928779072000001,-9.591978300800001,2.266999112000001,2.3403803,1.74161002,-3.98238115,,,
imu,40.952079,-0.4928779072000001,-9.613511801600001,2.2628120424,2.63197979,1.86871749,-3.99733497,,,
imu,40.96054,-0.4868963792000001,-9.6499991224,2.2526434448,2.68431816,1.83880985,-4.10948862,,,
imu,40.969007,-0.4946723656000001,-9.679308609600001,2.2502508336,3.22265568,1.95844041,-3.83284295,,,
imu,40.977475,-0.4952705184000001,-9.6984494992,2.2358951664,3.1628404,1.7266562,-4.0197657,,,
imu,40.985942,-0.4952705184000001,-9.702636568800001,2.22811918,3.17031731,1.62945637,-4.0197657,,,
imu,40.99441,-0.502448352,-9.701440263200002,2.2185487352,3.26004023,1.70422547,-3.89265823,,,
imu,41.002877,-0.502448352,-9.710412555200001,2.2023986096,3.26004023,1.75656384,-3.86275059,,,
imu,41.011344,-0.5084298800000001,-9.7122070136,2.2023986096,3.34976315,1.83133294,-3.89265823,,,
imu,41.019812,-0.5108224912,-9.7128051664,2.1994078456,3.28994787,1.98834805,-3.88518132,,,
imu,41.028279,-0.5108224912,-9.714599624800002,2.1940244704,3.13293276,2.04068642,-3.84779677,,,
imu,41.036746,-0.5084298800000001,-9.7122070136,2.1820614144,2.97591765,2.18274771,-3.67582784,,,
imu,41.045214,-0.5180003248000001,-9.722375611200002,2.1671075944,2.70674889,2.27994754,-3.7954584,,,
imu,41.053681,-0.5042428104000001,-9.722973764,2.162322372,2.80394872,2.31733209,-3.73564312,,,
imu,41.062148,-0.4982612824000001,-9.709814402400001,2.1581353024,2.407672489999999,2.34723973,-3.95995042,,,
imu,41.070616,-0.49347606,-9.708019944000002,2.1521537744,2.15345755,2.56407012,-3.98238115,,,
imu,41.079083,-0.4851019208000001,-9.709814402400001,2.1479667048,1.97401171,2.52668557,-3.89265823,,,
imu,41.08755,-0.4719425592000001,-9.7056273328,2.1635186776,1.78708896,2.51920866,-4.00481188,,,
imu,41.096018,-0.4593813504000001,-9.708019944000002,2.1479667048,1.65250458,2.72108523,-3.99733497,,,
imu,41.104485,-0.4581850448000001,-9.717590388800001,2.1497611632,1.45810492,2.57902394,-4.13939626,,,
imu,41.112953,-0.4623721144,-9.720581152800001,2.150359316,1.27118217,2.49677793,-4.13191935,,,
imu,41.12142,-0.4498109056,-9.7122070136,2.1569389968,1.12912088,2.33976282,-4.079580979999999,,,
imu,41.129887,-0.4510072112,-9.717590388800001,2.171294664,1.03192105,2.27994754,-4.02724261,,,
imu,41.138355,-0.4581850448000001,-9.7295534448,2.1677057472,1.03939796,2.20517844,-3.98985806,,,
imu,41.146822,-0.4557924336,-9.744507264800001,2.1730891224,0.8823828499999999,2.07059406,-4.124442439999999,,,
imu,41.155289,-0.4647647256,-9.7403201952,2.1748835808,0.79265993,1.98834805,-3.98238115,,,
imu,41.163757,-0.4599795032,-9.7128051664,2.162322372,0.74779847,2.07059406,-3.74312003,,,
imu,41.172647,-0.4683536424000001,-9.7008421104,2.1754817336,0.70293701,1.96591732,-3.61601256,,,
imu,41.18147,-0.4677554896000001,-9.687084596000002,2.1718928168,0.70293701,2.01825569,-3.57862801,,,
imu,41.190292,-0.4719425592000001,-9.682299373600001,2.1599297608,0.73284465,2.04816333,-3.69078166,,,
imu,41.199114,-0.4671573368000001,-9.669738164800002,2.159331608,0.80013684,2.01077878,-3.74312003,,,
imu,41.207936,-0.4665591840000001,-9.642223136000002,2.1665094416,0.80013684,1.95844041,-3.88518132,,,
imu,41.216758,-0.4707462536000001,-9.626671163200001,2.1718928168,0.8973366700000001,2.04068642,-3.81788913,,,
imu,41.225581,-0.4701481008,-9.6009505928,2.1575371496,0.9272443100000001,1.90610204,-3.9449966,,,
imu,41.234403,-0.4671573368000001,-9.603343204000002,2.170696511200001,0.8823828499999999,1.95844041,-4.26650373,,,
imu,41.243225,-0.4605776560000001,-9.597959828800002,2.1700983584,0.94219813,1.90610204,-4.34874974,,,
imu,41.252047,-0.4713444064,-9.6117173432,2.1635186776,1.06182869,1.95844041,-4.244073,,,
imu,41.26087,-0.4587831976000001,-9.617698871200002,2.1569389968,1.17398234,1.98834805,-4.124442439999999,,,
imu,41.269692,-0.4611758088,-9.608128426400002,2.1730891224,0.94219813,1.92853277,-4.11696553,,,
imu,41.278514,-0.4605776560000001,-9.6009505928,2.1689020528,0.9945364999999999,1.78647148,-4.26650373,,,
imu,41.287336,-0.4593813504000001,-9.6117173432,2.1820614144,0.8449983,1.68927165,-4.430995749999999,,,
imu,41.296159,-0.4641665728000001,-9.637437913600001,2.186248484,0.68798319,1.59954873,-4.74502597,,,
imu,41.304981,-0.4862982264000001,-9.679308609600001,2.1904355536,0.76275229,1.48739508,-4.84970271,,,
imu,41.313803,-0.4755314760000001,-9.700243957600001,2.207183832,0.68798319,1.36028761,-4.85717962,,,
imu,41.322625,-0.4857000736000001,-9.6912716656,2.2029967624,0.47862971,1.22570323,-4.976810179999999,,,
imu,41.331447,-0.505439116,-9.689477207200001,2.2125672072,0.21693786,1.16588795,-4.86465653,,,
imu,41.34027,-0.5251781584,-9.697253193600002,2.2035949152,0.17955331,0.9939190199999999,-4.75250288,,,
imu,41.349092,-0.5359449088000001,-9.709216249600003,2.2077819848,0.34404533,0.98644211,-4.28893446,,,
imu,41.357914,-0.5305615336,-9.725964528,2.2035949152,0.40386061,1.18831868,-3.83284295,,,
imu,41.366736,-0.5437208952000001,-9.696056888000001,2.208978290400001,0.45619898,1.28551851,-3.5711511,,,
imu,41.375049,-0.5383375200000001,-9.667345553600002,2.2119690544,0.4861066199999999,1.21822632,-3.39918217,,,
imu,41.383362,-0.5425245896,-9.675121540000001,2.1994078456,0.5459219,1.36028761,-3.55619728,,,
imu,41.391675,-0.5473098120000001,-9.675719692800001,2.1964170816,0.74779847,1.41262598,-3.51881273,,,
imu,41.399988,-0.5508987288,-9.647606511200001,2.208978290400001,0.80013684,1.52477963,-3.53376655,,,
imu,41.408301,-0.5574784096000001,-9.641026830400001,2.216156124,0.94967504,1.59207182,-3.45899745,,,
imu,41.416614,-0.5508987288,-9.638634219200002,2.2023986096,0.8449983,1.81637912,-3.30198234,,,
imu,41.424927,-0.5443190480000001,-9.620091482400001,2.1898374008,0.9646288599999999,2.1005017,-3.29450543,,,
imu,41.43324,-0.5245800056000001,-9.606932120800002,2.2083801376,0.8823828499999999,2.22013226,-3.17487487,,,
imu,41.441553,-0.5180003248000001,-9.6039413568,2.2047912208,1.0693056,2.35471664,-3.05524431,,,
imu,40.210456,,,,,,,17.7248436,-29.59638680000001,42.65807519999999
imu,40.312049,,,,,,,18.03002360000001,-30.03584600000002,43.85438079999999
imu,40.413642,,,,,,,17.46849240000001,-29.81611640000001,44.6356416
imu,40.515174,,,,,,,17.138898,-30.13350360000002,44.6478488
imu,40.616767,,,,,,,16.95579,-30.08467480000001,43.75672319999999
imu,40.718299,,,,,,,17.12669080000001,-29.65742280000001,44.0619032
imu,41.449866,-0.5066354216000001,-9.606333968000001,2.1940244704,1.22632071,2.53416248,-2.99542903,,,
imu,41.458179,-0.5042428104000001,-9.620689635200002,2.1988096928,1.31604363,2.52668557,-3.15992105,,,
imu,41.466492,-0.4874945320000001,-9.6260730104,2.195220776,1.23379762,2.49677793,-3.36927453,,,
imu,41.474805,-0.4737370176,-9.633848996800001,2.207183832,1.33847436,2.59397776,-3.46647436,,,
imu,41.483118,-0.4761296288000001,-9.635045302400002,2.1934263176,1.35342818,2.58650085,-3.58610492,,,
imu,41.491431,-0.4653628784000001,-9.645213900000002,2.2065856792,1.28613599,2.60145467,-3.69078166,,,
imu,41.499744,-0.4647647256,-9.644017594400001,2.2029967624,1.35342818,2.61640849,-3.46647436,,,
imu,41.508057,-0.454596128,-9.6494009696,2.201202304,1.18893616,2.42948574,-3.59358183,,,
imu,41.51637,-0.4432312248,-9.654186192000001,2.2077819848,1.12912088,2.4743472,-3.74312003,,,
imu,41.524683,-0.4450256832000001,-9.664952942400001,2.1970152344,1.00201341,2.34723973,-3.7206893,,,
imu,41.532996,-0.4330626272,-9.669738164800002,2.1970152344,1.04687487,2.33976282,-3.77302767,,,
imu,41.541309,-0.4282774048000001,-9.6667474008,2.1976133872,1.18145925,2.27247063,-3.84779677,,,
imu,41.549622,-0.4228940296000001,-9.669140012000002,2.1964170816,1.18893616,2.15284007,-3.87770441,,,
imu,41.557935,-0.4276792520000001,-9.679308609600001,2.2029967624,1.13659779,1.89114822,-4.102011709999999,,,
imu,41.566248,-0.4205014184,-9.672728928800002,2.188042942400001,1.2188438,1.82385603,-4.08705789,,,
imu,41.574561,-0.4402404608,-9.678112304,2.205389373600001,1.2188438,1.47244126,-4.04219643,,,
imu,41.583228,-0.43366078,-9.702038416,2.2137635128,1.18145925,1.19579559,-4.32631901,,,
imu,41.591895,-0.4510072112,-9.718786694400002,2.2203431936,1.00949032,1.08364194,-4.37865738,,,
imu,41.600562,-0.4653628784000001,-9.7122070136,2.208978290400001,0.8449983,0.80699627,-4.4683803,,,
imu,41.609229,-0.4785222400000001,-9.680504915200002,2.2107727488,0.7702292,0.76213481,-4.49828794,,,
imu,41.617896,-0.4940742128000001,-9.660765872800003,2.2149598184,0.97958268,0.7920424499999998,-4.49081103,,,
imu,41.626563,-0.5012520464000001,-9.667943706400001,2.208978290400001,0.8375213899999999,0.6350273399999997,-4.49081103,,,
imu,41.63523,-0.5144114080000001,-9.669140012000002,2.2006041512,0.9197674,0.58268897,-4.15435008,,,
imu,41.643897,-0.5257763112000001,-9.6505972752,2.204193068,0.9945364999999999,0.70231953,-4.012288789999999,,,
imu,41.652564,-0.5347486032000001,-9.635045302400002,2.1910337064,1.02444414,0.78456554,-3.81788913,,,
imu,41.661231,-0.5407301312,-9.637437913600001,2.2035949152,1.02444414,0.8518577299999999,-3.86275059,,,
imu,41.669898,-0.5425245896,-9.631456385600002,2.1886410952,1.08425942,0.8369039099999998,-3.99733497,,,
imu,41.678565,-0.5514968816000001,-9.697253193600002,2.2137635128,1.16650543,0.9341037399999998,-4.057150249999999,,,
imu,41.687232,-0.5580765624000001,-9.626671163200001,2.195220776,1.26370526,1.11354958,-3.93004278,,,
imu,41.695899,-0.5640580904000001,-9.6039413568,2.1850521784,1.17398234,1.21822632,-3.98238115,,,
imu,41.704566,-0.5610673264,-9.6428212888,2.188042942400001,1.41324346,1.49487199,-4.08705789,,,
imu,41.713233,-0.565254396,-9.638634219200002,2.177276192,1.58521239,1.71170238,-4.124442439999999,,,
imu,41.7219,-0.5610673264,-9.640428677600001,2.189239248,1.57025857,1.83133294,-4.16182699,,,
imu,41.730567,-0.5592728680000001,-9.669738164800002,2.1766780392,1.60764312,1.9509635,-3.99733497,,,
imu,41.739234,-0.5491042704000001,-9.6709344704,2.162322372,1.60016621,2.15284007,-3.67582784,,,
imu,41.747901,-0.5449172008000001,-9.678112304,2.1856503312,1.52539711,2.16779389,-3.57862801,,,
imu,41.756568,-0.5215892416000001,-9.696655040800001,2.1940244704,1.42072037,2.19022462,-3.54872037,,,
imu,41.765235,-0.5227855472,-9.696655040800001,2.1844540256,1.33847436,2.08554788,-3.46647436,,,
imu,41.773902,-0.502448352,-9.6954587352,2.1886410952,1.15902852,2.00330187,-3.39918217,,,
imu,41.782335,-0.5233837000000001,-9.694860582400002,2.2077819848,0.9571519499999999,2.01077878,-3.25712088,,,
imu,41.790768,-0.520392936,-9.682897526400001,2.1928281648,0.77770611,1.89862513,-3.15244414,,,
imu,41.799201,-0.5180003248000001,-9.682299373600001,2.1970152344,0.63564482,1.84628676,-3.13749032,,,
imu,41.807634,-0.5239818528000001,-9.6775141512,2.1904355536,0.50853735,1.79394839,-3.04029049,,,
imu,41.816067,-0.5371412144000001,-9.665551095200001,2.1970152344,0.6132140899999999,1.98834805,-2.76364482,,,
imu,41.8245,-0.5359449088000001,-9.655980650400002,2.2029967624,0.35152224,1.90610204,-2.5243837,,,
imu,41.832933,-0.5239818528000001,-9.648802816800002,2.2107727488,0.38142988,1.92105586,-2.59167589,,,
imu,41.841366,-0.502448352,-9.641026830400001,2.2047912208,0.31413769,1.89862513,-2.5991528,,,
imu,41.849799,-0.4916816016,-9.631456385600002,2.2107727488,0.53096808,1.98834805,-2.60662971,,,
imu,41.858232,-0.4874945320000001,-9.624278552000002,2.2113709016,0.56835263,2.03320951,-2.86084465,,,
imu,41.866665,-0.4839056152000001,-9.6296619272,2.2173524296,0.5982602699999999,2.07059406,-2.84589083,,,
imu,41.875098,-0.4767277816000001,-9.636241608,2.216156124,0.79265993,2.01825569,-2.83093701,,,
imu,41.883531,-0.4731388648000001,-9.6428212888,2.207183832,1.03939796,2.04068642,-2.8234601,,,
imu,41.891964,-0.4707462536000001,-9.642223136000002,2.2143616656,1.15155161,2.04816333,-3.03281358,,,
imu,41.900397,-0.4695499480000001,-9.638036066400002,2.210174596,1.24875144,1.98834805,-3.22721324,,,
imu,41.90883,-0.4665591840000001,-9.640428677600001,2.2000059984,1.33099745,1.96591732,-3.17487487,,,
imu,41.917263,-0.4629702672000001,-9.652989886400002,2.2029967624,1.6674584,2.08554788,-3.16739796,,,
imu,41.925696,-0.4683536424000001,-9.654784344800001,2.1976133872,1.67493531,2.00330187,-3.1973056,,,
imu,41.934129,-0.4617739616000001,-9.6535880392,2.1964170816,1.70484295,2.06311715,-3.15992105,,,
imu,41.942562,-0.4641665728000001,-9.667943706400001,2.1838558728,1.8169966,1.91357895,-3.21225942,,,
imu,41.950995,-0.4611758088,-9.667345553600002,2.18325772,1.83942733,2.04816333,-3.21225942,,,
imu,41.959428,-0.4563905864000001,-9.6637566368,2.1850521784,1.73475059,2.09302479,-3.36927453,,,
imu,41.967862,-0.4474182944000001,-9.682897526400001,2.1790706504,1.62259694,1.99582496,-3.37675144,,,
imu,41.976295,-0.4402404608,-9.676915998400002,2.1790706504,1.60016621,2.06311715,-3.15992105,,,
imu,41.984757,-0.4408386136,-9.6775141512,2.189239248,1.63755076,2.18274771,-3.03281358,,,
imu,41.993219,-0.4300718632,-9.6775141512,2.1814632616,1.62259694,2.04816333,-3.10758268,,,
imu,42.001681,-0.430670016,-9.675719692800001,2.1790706504,1.37585891,1.96591732,-3.14496723,,,
imu,42.010144,-0.4193051128000001,-9.669140012000002,2.1730891224,1.0693056,1.84628676,-3.1973056,,,
imu,42.018606,-0.4270810992000001,-9.6535880392,2.1766780392,0.94219813,1.77899457,-3.20478251,,,
imu,42.027068,-0.4175106544000001,-9.663158484000002,2.1778743448,1.00201341,1.8761944,-3.24964397,,,
imu,42.03553,-0.406743904,-9.6667474008,2.1826595672,0.97210577,1.92105586,-3.18235178,,,
imu,42.043993,-0.4133235848,-9.671532623200001,2.201202304,0.9197674,1.73413311,-3.33936689,,,
imu,42.052455,-0.4115291264,-9.669738164800002,2.1898374008,0.7702292,1.71917929,-3.40665908,,,
imu,42.060917,-0.4222958768,-9.6799067624,2.189239248,0.83004448,1.75656384,-3.44404363,,,
imu,42.06938,-0.4163143488000001,-9.683495679200002,2.1964170816,0.8674290299999999,1.69674856,-3.37675144,,,
imu,42.077842,-0.4133235848,-9.675121540000001,2.1946226232,0.85995212,1.68927165,-3.42908981,,,
imu,42.086304,-0.4091365152000001,-9.6745233872,2.1874447896,0.91229049,1.84628676,-3.45899745,,,
imu,42.094766,-0.4025568344,-9.667943706400001,2.1886410952,0.9870595899999999,1.78647148,-3.4216129,,,
imu,42.103229,-0.3989679176000001,-9.669140012000002,2.1838558728,0.9945364999999999,1.69674856,-3.42908981,,,
imu,42.111691,-0.3989679176000001,-9.6667474008,2.186248484,1.04687487,1.59954873,-3.54872037,,,
imu,42.120153,-0.3965753064,-9.668541859200001,2.1868466368,1.08425942,1.49487199,-3.59358183,,,
imu,42.128615,-0.406743904,-9.669738164800002,2.1874447896,1.15902852,1.4275798,-3.74312003,,,
imu,42.137078,-0.4097346680000001,-9.661364025600001,2.1778743448,1.13659779,1.52477963,-3.78798149,,,
imu,42.14554,-0.4193051128000001,-9.655980650400002,2.178472497600001,1.20388998,1.44253362,-3.90013514,,,
imu,42.154002,-0.4264829464000001,-9.658373261600001,2.1850521784,1.15902852,1.45001053,-3.89265823,,,
imu,42.162464,-0.4294737104000001,-9.666149248000002,2.1898374008,1.15155161,1.39019525,-3.93751969,,,
imu,42.170927,-0.4372496968000001,-9.669140012000002,2.1820614144,1.25622835,1.34533379,-3.96742733,,,
imu,42.179389,-0.4480164472000001,-9.678710456800001,2.1820614144,1.11416706,1.3528107,-3.83284295,,,
imu,42.188229,-0.4498109056,-9.6799067624,2.1838558728,0.9646288599999999,1.41262598,-3.7954584,,,
imu,42.197068,-0.4402404608,-9.676915998400002,2.189239248,0.9571519499999999,1.33785688,-3.97490424,,,
imu,42.205907,-0.4420349192,-9.675719692800001,2.1988096928,0.74779847,1.41262598,-4.17678081,,,
imu,42.214747,-0.4432312248,-9.683495679200002,2.1970152344,0.8375213899999999,1.45001053,-4.35622665,,,
imu,42.223586,-0.4551942808000001,-9.6912716656,2.2035949152,0.58330645,1.38271834,-4.52819558,,,
imu,42.232426,-0.4498109056,-9.662560331200002,2.1868466368,0.56835263,1.18831868,-4.59548777,,,
imu,42.241265,-0.4504090584,-9.636839760800001,2.1940244704,0.63564482,1.15841104,-4.737549059999999,,,
imu,42.250105,-0.4581850448000001,-9.630260080000001,2.1874447896,0.74779847,1.14345722,-4.715118329999999,,,
imu,42.258944,-0.4689517952000001,-9.6434194416,2.1796688032,0.8823828499999999,1.09111885,-4.52819558,,,
imu,40.819822,,,,,,,16.894754,-29.81611640000001,44.84316399999999
imu,40.921354,,,,,,,19.36060840000001,-30.70724200000001,43.7323088
imu,41.022947,,,,,,,17.1144836,-30.43868360000002,44.6844704
imu,41.124479,,,,,,,19.22632920000001,-31.11007960000001,42.47496719999999
imu,41.226072,,,,,,,17.2975916,-29.95039560000001,44.3426688
imu,41.327604,,,,,,,17.1144836,-30.8171068,42.218616
imu,41.437528,,,,,,,16.8215108,-30.18233240000001,44.6722632
imu,41.538572,,,,,,,16.7360604,-30.32881880000002,44.29384
imu,42.26771,-0.4737370176,-9.6434194416,2.164714983200001,1.09173633,1.11354958,-4.08705789,,,
imu,42.27655,-0.4761296288000001,-9.655382497600002,2.1671075944,1.2936129,1.18084177,-3.92256587,,,
imu,42.285389,-0.4743351704000001,-9.6470083584,2.1718928168,1.30856672,1.13598031,-3.80293531,,,
imu,42.294229,-0.4827093096,-9.6535880392,2.177276192,1.39828964,1.13598031,-3.68330475,,,
imu,42.303068,-0.4922797544,-9.659569567200002,2.1551445384,1.52539711,1.0537343,-3.66087402,,,
imu,42.311908,-0.4970649768000001,-9.6643547896,2.1635186776,1.47305874,1.00887284,-3.90761205,,,
imu,42.320747,-0.5108224912,-9.666149248000002,2.1718928168,1.53287402,1.04625739,-4.0197657,,,
imu,42.329587,-0.5120187968000001,-9.654186192000001,2.1760798864,1.43567419,1.26308778,-4.034719519999999,,,
imu,42.338426,-0.5012520464000001,-9.654784344800001,2.1629205248,1.30856672,1.33785688,-4.10948862,,,
imu,42.347265,-0.4940742128000001,-9.6535880392,2.1611260664,1.21136689,1.44253362,-4.146873169999999,,,
imu,42.356105,-0.5066354216000001,-9.6505972752,2.1575371496,1.27118217,1.74161002,-4.04967334,,,
imu,42.364944,-0.4839056152000001,-9.657775108800001,2.1617242192,1.17398234,1.7266562,-3.98238115,,,
imu,42.373784,-0.4857000736000001,-9.675121540000001,2.164714983200001,1.24875144,1.85376367,-3.99733497,,,
imu,42.382623,-0.472540712,-9.694860582400002,2.1814632616,1.09921324,1.74908693,-4.102011709999999,,,
imu,42.391092,-0.4629702672000001,-9.7217774584,2.1844540256,0.83004448,1.70422547,-4.17678081,,,
imu,42.399561,-0.4647647256,-9.715795930400002,2.1844540256,0.70293701,1.577118,-4.08705789,,,
imu,42.408029,-0.4528016696000001,-9.711010708000002,2.1904355536,0.32909151,1.53225654,-4.034719519999999,,,
imu,42.416498,-0.4551942808000001,-9.7163940832,2.1886410952,0.23936859,1.38271834,-4.057150249999999,,,
imu,42.424967,-0.4462219888000001,-9.714001472000001,2.1988096928,0.14216876,1.24813396,-3.91508896,,,
imu,42.433435,-0.4569887392,-9.706225485600001,2.2059875264,0.03749201999999999,1.19579559,-3.78798149,,,
imu,42.441904,-0.4605776560000001,-9.681103068,2.1994078456,-0.11204618,1.10607267,-3.63844329,,,
imu,42.450372,-0.4563905864000001,-9.682299373600001,2.2059875264,-0.32139966,1.13598031,-3.6459202,,,
imu,42.458841,-0.4474182944000001,-9.6709344704,2.210174596,-0.2765382,1.03878048,-3.63844329,,,
imu,42.46731,-0.4557924336,-9.661364025600001,2.2095764432,-0.23915365,1.11354958,-3.69078166,,,
imu,42.475778,-0.4665591840000001,-9.644615747200001,2.2185487352,-0.2017691,1.04625739,-3.80293531,,,
imu,42.484247,-0.4701481008,-9.624278552000002,2.2167542768,-0.03727708,1.07616503,-3.93751969,,,
imu,42.492716,-0.4653628784000001,-9.609324732000001,2.204193068,0.14964567,1.16588795,-4.012288789999999,,,
imu,42.501184,-0.4689517952000001,-9.592576453600001,2.210174596,0.35152224,1.24813396,-4.07210407,,,
imu,42.509653,-0.4779240872000001,-9.578220786400001,2.2406803888,0.41881443,1.30794924,-4.25154991,,,
imu,42.518121,-0.4731388648000001,-9.599754287200001,2.2263247216,0.59078336,1.27056469,-4.48333412,,,
imu,42.52659,-0.4647647256,-9.621287788000002,2.222735804800001,0.63564482,1.21074941,-4.647826139999999,,,
imu,42.535059,-0.4647647256,-9.593772759200002,2.2233339576,0.63564482,1.32290306,-4.70764142,,,
imu,42.543527,-0.4569887392,-9.5776226336,2.2388859304,0.66555246,1.31542615,-4.692687599999999,,,
imu,42.551996,-0.4647647256,-9.594370912,2.2346988608,0.8449983,1.21822632,-4.56558013,,,
imu,42.560465,-0.4510072112,-9.6248767048,2.2299136384,1.04687487,1.12102649,-4.5431494,,,
imu,42.568933,-0.4480164472000001,-9.626671163200001,2.232306249600001,1.08425942,0.9714882899999999,-4.453426479999999,,,
imu,42.577402,-0.4581850448000001,-9.634447149600001,2.2454656112,1.15902852,0.9415806499999997,-4.386134289999999,,,
imu,42.58587,-0.454596128,-9.648204664000001,2.2388859304,1.26370526,0.8369039099999998,-4.25902682,,,
imu,42.594344,-0.4551942808000001,-9.669738164800002,2.2394840832,1.2188438,0.7471809899999999,-4.33379592,,,
imu,42.602818,-0.4809148512,-9.6733270816,2.2364933192,1.43567419,0.5901658799999998,-4.363703559999999,,,
imu,42.611292,-0.490485296,-9.6709344704,2.2376896248,1.54035093,0.4929660499999997,-4.46090339,,,
imu,42.619765,-0.5006538936,-9.672728928800002,2.240082236,1.65998149,0.4705353199999998,-4.408565019999999,,,
imu,42.628239,-0.5114206440000001,-9.675719692800001,2.222735804800001,1.61512003,0.6873657099999999,-4.53567249,,,
imu,42.636713,-0.5257763112000001,-9.6775141512,2.228717332800001,1.63007385,0.6873657099999999,-4.44594957,,,
imu,42.645186,-0.5383375200000001,-9.682897526400001,2.2215394992,1.8169966,0.70231953,-4.50576485,,,
imu,42.65366,-0.5365430616000001,-9.6745233872,2.2149598184,1.73475059,0.9415806499999997,-4.59548777,,,
imu,42.662134,-0.5401319784,-9.6709344704,2.2167542768,1.84690424,1.08364194,-4.46090339,,,
imu,42.670608,-0.5389356728,-9.662560331200002,2.2065856792,1.6674584,1.30047233,-4.44594957,,,
imu,42.679081,-0.5317578392000001,-9.6709344704,2.205389373600001,1.5179202,1.47244126,-4.40108811,,,
imu,42.687555,-0.5257763112000001,-9.666149248000002,2.1958189288,1.46558183,1.61450255,-4.48333412,,,
imu,42.696029,-0.5180003248000001,-9.661962178400001,2.192230012,1.4431511,1.7266562,-4.49828794,,,
imu,42.704502,-0.5156077136000001,-9.6667474008,2.1970152344,1.25622835,1.76404075,-4.602964679999999,,,
imu,42.712976,-0.5168040192000001,-9.661364025600001,2.1898374008,1.23379762,1.78647148,-4.64034923,,,
imu,42.72145,-0.5036446576000001,-9.657775108800001,2.1754817336,1.19641307,1.77151766,-4.47585721,,,
imu,42.729924,-0.5006538936,-9.638634219200002,2.174285428,1.24127453,1.76404075,-4.55062631,,,
imu,42.738397,-0.4928779072000001,-9.636241608,2.178472497600001,1.33099745,1.86124058,-4.52071867,,,
imu,42.746871,-0.4946723656000001,-9.641026830400001,2.18325772,1.28613599,1.88367131,-4.5431494,,,
imu,42.755345,-0.4892889904,-9.6470083584,2.180266956,1.26370526,1.7266562,-4.57305704,,,
imu,42.763818,-0.4857000736000001,-9.6499991224,2.1826595672,1.48801256,1.76404075,-4.49081103,,,
imu,42.772292,-0.490485296,-9.654186192000001,2.1820614144,1.51044329,1.59207182,-4.48333412,,,
imu,42.780766,-0.4880926848000001,-9.6535880392,2.1718928168,1.4431511,1.48739508,-4.55810322,,,
imu,42.78924,-0.5030465048,-9.658971414400002,2.1838558728,1.49548947,1.42010289,-4.65530305,,,
imu,42.797679,-0.5096261856000001,-9.668541859200001,2.1754817336,1.48801256,1.21074941,-4.81979507,,,
imu,42.806118,-0.5191966304000001,-9.668541859200001,2.1814632616,1.60016621,1.27056469,-4.6179185,,,
imu,42.814558,-0.5209910888,-9.6643547896,2.1760798864,1.5179202,1.16588795,-4.692687599999999,,,
imu,42.822997,-0.5227855472,-9.655382497600002,2.1874447896,1.49548947,1.15841104,-4.66277996,,,
imu,42.831437,-0.5299633808,-9.657775108800001,2.19821154,1.42819728,1.07616503,-4.56558013,,,
imu,42.839876,-0.5419264368000001,-9.6745233872,2.171294664,1.54782784,1.01634975,-4.647826139999999,,,
imu,42.848315,-0.5538894928000001,-9.6876827488,2.1778743448,1.57773548,0.84438082,-4.55810322,,,
imu,42.856755,-0.571235924,-9.668541859200001,2.1928281648,1.28613599,0.7546578999999998,-4.647826139999999,,,
imu,42.865194,-0.5670488544000001,-9.662560331200002,2.201202304,1.51044329,0.80699627,-4.56558013,,,
imu,42.873633,-0.5754229936,-9.672130776000001,2.1850521784,1.4431511,0.8593346399999997,-4.430995749999999,,,
imu,42.882073,-0.5885823552,-9.673925234400002,2.1874447896,1.53287402,0.9565344699999998,-4.27398064,,,
imu,42.890512,-0.5903768136,-9.669738164800002,2.195220776,1.48053565,0.94905756,-4.169303899999999,,,
imu,42.898952,-0.5963583416000001,-9.669738164800002,2.1838558728,1.36090509,0.9415806499999997,-4.18425772,,,
imu,42.907391,-0.5945638832000001,-9.671532623200001,2.1808651088,1.19641307,0.9939190199999999,-4.07210407,,,
imu,42.91583,-0.6023398696000001,-9.668541859200001,2.1766780392,1.33847436,1.11354958,-4.00481188,,,
imu,42.92427,-0.5903768136,-9.656578803200002,2.174285428,1.43567419,1.48739508,-3.84031986,,,
imu,42.932709,-0.5861897440000001,-9.657775108800001,2.1700983584,1.25622835,1.39767216,-3.99733497,,,
imu,42.941148,-0.5778156048000002,-9.669140012000002,2.178472497600001,1.38333582,1.55468727,-3.95995042,,,
imu,42.949588,-0.5748248408000001,-9.6667474008,2.1748835808,1.35342818,1.71917929,-3.99733497,,,
imu,42.958027,-0.5640580904000001,-9.6523917336,2.1695002056,1.36090509,1.70422547,-3.96742733,,,
imu,42.966467,-0.5556839512000001,-9.651793580800001,2.1808651088,1.17398234,1.68927165,-4.11696553,,,
imu,42.974906,-0.5544876456000001,-9.657176956,2.178472497600001,1.09173633,1.83133294,-4.22164227,,,
imu,42.983345,-0.550300576,-9.666149248000002,2.1838558728,1.1440747,1.86871749,-3.98985806,,,
imu,42.991785,-0.5371412144000001,-9.665551095200001,2.1808651088,1.2936129,1.76404075,-3.95995042,,,
imu,43.000604,-0.5359449088000001,-9.661364025600001,2.1736872752,1.1440747,1.70422547,-3.96742733,,,
imu,43.009424,-0.5311596864,-9.661364025600001,2.1826595672,1.08425942,1.62197946,-3.90761205,,,
imu,43.018244,-0.5263744640000001,-9.6667474008,2.1718928168,1.15902852,1.577118,-3.88518132,,,
imu,43.027063,-0.5126169496,-9.667943706400001,2.171294664,1.19641307,1.42010289,-3.99733497,,,
imu,43.035883,-0.5156077136000001,-9.6643547896,2.1695002056,1.1440747,1.29299542,-3.95247351,,,
imu,43.044702,-0.5180003248000001,-9.669140012000002,2.1641168304,1.40576655,1.24813396,-3.81041222,,,
imu,43.053522,-0.5197947832,-9.675719692800001,2.162322372,1.48801256,1.10607267,-3.9449966,,,
imu,43.062341,-0.5347486032000001,-9.6846919848,2.1641168304,1.48053565,1.06868812,-4.04219643,,,
imu,43.071161,-0.5395338256000001,-9.6918698184,2.1569389968,1.368382,0.8219500899999996,-4.18425772,,,
imu,43.079981,-0.5395338256000001,-9.6846919848,2.1724909696,1.27118217,0.6873657099999999,-4.31136519,,,
imu,41.640226,,,,,,,16.5163308,-30.24336840000002,44.9042
imu,41.741667,,,,,,,16.6628172,-30.46309800000002,44.3792904
imu,41.84326,,,,,,,16.9435828,-30.80489960000001,43.48816479999999
imu,41.944822,,,,,,,16.6628172,-29.7672876,44.61122719999999
imu,42.046354,,,,,,,18.969978,-31.18332280000002,44.01307439999999
imu,42.147917,,,,,,,16.7360604,-30.13350360000002,44.7455064
imu,42.24951,,,,,,,19.4216444,-30.8171068,42.218616
imu,42.351042,,,,,,,17.0290332,-29.91377400000001,44.782128
imu,43.0888,-0.5538894928000001,-9.702038416,2.1683039,1.10669015,0.7995193599999997,-4.32631901,,,
imu,43.09762,-0.5628617848,-9.709814402400001,2.1659112888,0.97958268,0.8518577299999999,-4.318842099999999,,,
imu,43.106439,-0.5736285352000001,-9.7086180968,2.1659112888,0.81509066,0.80699627,-4.22911918,,,
imu,43.115259,-0.5658525488000001,-9.694860582400002,2.1683039,0.41133752,0.84438082,-4.18425772,,,
imu,43.124079,-0.5700396184000001,-9.686486443200002,2.1826595672,0.38142988,1.04625739,-4.057150249999999,,,
imu,43.132898,-0.5580765624000001,-9.6745233872,2.1736872752,0.2468455,0.9191499199999997,-4.079580979999999,,,
imu,43.141718,-0.5592728680000001,-9.66016772,2.188042942400001,0.16459949,1.03130357,-4.28893446,,,
imu,43.150537,-0.5748248408000001,-9.656578803200002,2.204193068,-0.06718472,1.09111885,-4.40108811,,,
imu,43.159357,-0.5843952856000001,-9.660765872800003,2.188042942400001,-0.127,0.9415806499999997,-4.55810322,,,
imu,43.168176,-0.5873860496000001,-9.639830524800002,2.195220776,-0.127,0.84438082,-4.66277996,,,
imu,43.176996,-0.5897786608000001,-9.617698871200002,2.191631859200001,-0.10456927,0.8294269999999999,-4.79736434,,,
imu,43.185816,-0.6053306336000001,-9.597361676,2.180266956,0.2468455,0.8144731799999998,-4.647826139999999,,,
imu,43.194635,-0.6160973840000001,-9.610521037600002,2.178472497600001,0.5459219,0.8967191899999998,-4.318842099999999,,,
imu,43.203114,-0.6220789120000001,-9.619493329600001,2.1868466368,0.7403215599999999,0.92662683,-3.91508896,,,
imu,43.211593,-0.6256678288,-9.631456385600002,2.1898374008,1.04687487,1.03878048,-3.54872037,,,
imu,43.220072,-0.6250696760000001,-9.6326526912,2.1844540256,1.36090509,1.17336486,-3.36179762,,,
imu,43.22855,-0.6178918424000002,-9.633848996800001,2.191631859200001,1.42072037,1.39767216,-3.28702852,,,
imu,43.237029,-0.6238733704,-9.654186192000001,2.1868466368,1.54035093,1.46496435,-3.36179762,,,
imu,43.245508,-0.6196863008000001,-9.658373261600001,2.189239248,1.65250458,1.65936401,-3.37675144,,,
imu,43.253987,-0.6154992312,-9.6499991224,2.18325772,1.65998149,1.80890221,-3.53376655,,,
imu,43.262466,-0.6107140088,-9.6505972752,2.1844540256,1.48801256,2.04816333,-3.63844329,,,
imu,43.270944,-0.6125084672000001,-9.651793580800001,2.1808651088,1.368382,1.98834805,-3.56367419,,,
imu,43.279423,-0.6077232448000001,-9.667943706400001,2.1844540256,1.28613599,2.10797861,-3.54124346,,,
imu,43.287902,-0.5957601888000001,-9.676317845600002,2.1838558728,1.2188438,2.21265535,-3.60105874,,,
imu,43.296381,-0.58319898,-9.678112304,2.1910337064,1.18145925,2.26499372,-3.48890509,,,
imu,43.30486,-0.5706377712,-9.696655040800001,2.1850521784,1.10669015,2.45939338,-3.52628964,,,
imu,43.313338,-0.5700396184000001,-9.6984494992,2.191631859200001,1.00949032,2.36967046,-3.61601256,,,
imu,43.321817,-0.5550857984,-9.708019944000002,2.2083801376,0.88985976,2.22760917,-3.60853565,,,
imu,43.330296,-0.5586747152,-9.7074217912,2.2083801376,0.8524752099999999,2.19770153,-3.6459202,,,
imu,43.338775,-0.5580765624000001,-9.702038416,2.2113709016,0.67302937,2.01825569,-3.75059694,,,
imu,43.347254,-0.5586747152,-9.699645804800001,2.201202304,0.77770611,1.83880985,-3.66835093,,,
imu,43.355732,-0.5562821040000001,-9.675719692800001,2.2065856792,0.7702292,1.63693328,-3.74312003,,,
imu,43.364109,-0.5574784096000001,-9.678112304,2.21316536,0.66555246,1.45001053,-3.66835093,,,
imu,43.372588,-0.56824516,-9.6667474008,2.2083801376,0.53096808,1.36776452,-3.47395127,,,
imu,43.381067,-0.5688433128,-9.646410205600002,2.2119690544,0.47862971,1.3528107,-3.36927453,,,
imu,43.389545,-0.5766192992000001,-9.637437913600001,2.204193068,0.47862971,1.21822632,-3.44404363,,,
imu,43.398024,-0.5873860496000001,-9.645213900000002,2.2077819848,0.6132140899999999,1.04625739,-3.46647436,,,
imu,43.406489,-0.5939657304000001,-9.627269316000001,2.2006041512,0.5982602699999999,1.08364194,-3.40665908,,,
imu,43.414954,-0.5861897440000001,-9.612913648800001,2.2006041512,0.80761375,1.15093413,-3.26459779,,,
imu,43.423419,-0.5945638832000001,-9.609922884800001,2.195220776,0.9870595899999999,1.21074941,-3.26459779,,,
imu,43.431883,-0.6095177032000001,-9.620689635200002,2.1994078456,0.9197674,1.28551851,-3.4216129,,,
imu,43.440348,-0.6119103144000001,-9.638634219200002,2.21316536,1.0693056,1.34533379,-3.38422835,,,
imu,43.448813,-0.6119103144000001,-9.690075360000002,2.2059875264,1.09173633,1.56964109,-3.36927453,,,
imu,43.457278,-0.5999472584000001,-9.675719692800001,2.2029967624,1.00949032,1.71917929,-3.53376655,,,
imu,43.465743,-0.6077232448000001,-9.646410205600002,2.2125672072,1.06182869,1.97339423,-3.41413599,,,
imu,43.474208,-0.6089195504,-9.636839760800001,2.2239321104,0.91229049,2.03320951,-3.39918217,,,
imu,43.482672,-0.5999472584000001,-9.6505972752,2.2173524296,0.8749059399999999,2.25751681,-3.39170526,,,
imu,43.491137,-0.6113121616,-9.657775108800001,2.2263247216,0.60573718,2.24256299,-3.3468438,,,
imu,43.499602,-0.5766192992000001,-9.627867468800002,2.205389373600001,0.56087572,2.38462428,-3.1973056,,,
imu,43.508067,-0.5526931872,-9.623082246400001,2.2173524296,0.5982602699999999,2.59397776,-3.09262886,,,
imu,43.516532,-0.5377393672000002,-9.620091482400001,2.2143616656,0.74779847,2.6986545,-3.13749032,,,
imu,43.524996,-0.5305615336,-9.618297024,2.219146888,0.7403215599999999,2.59397776,-3.1973056,,,
imu,43.533461,-0.5132151024,-9.614708107200002,2.2095764432,1.00949032,2.58650085,-3.16739796,,,
imu,43.541926,-0.5215892416000001,-9.626671163200001,2.2167542768,1.16650543,2.63136231,-3.27955161,,,
imu,43.550391,-0.517402172,-9.6326526912,2.2137635128,1.45062801,2.66874686,-3.27955161,,,
imu,43.558856,-0.5090280328000001,-9.6470083584,2.2083801376,1.63007385,2.60893158,-3.48890509,,,
imu,43.56732,-0.5197947832,-9.655980650400002,2.207183832,1.83942733,2.60893158,-3.47395127,,,
imu,43.575785,-0.5156077136000001,-9.664952942400001,2.207183832,1.93662716,2.57154703,-3.7206893,,,
imu,43.58425,-0.5084298800000001,-9.669738164800002,2.1994078456,1.9665348,2.57154703,-3.68330475,,,
imu,43.592715,-0.5197947832,-9.6703363176,2.188042942400001,2.14598064,2.45939338,-3.63844329,,,
imu,43.60118,-0.5144114080000001,-9.676915998400002,2.1940244704,1.95158098,2.40705501,-3.66087402,,,
imu,43.60976,-0.5197947832,-9.6733270816,2.1838558728,1.92167334,2.46687029,-3.61601256,,,
imu,43.618341,-0.5126169496,-9.678710456800001,2.191631859200001,1.88428879,2.44443956,-3.69078166,,,
imu,43.626921,-0.5036446576000001,-9.671532623200001,2.1868466368,1.78708896,2.324809,-3.63096638,,,
imu,43.635502,-0.5084298800000001,-9.6799067624,2.1904355536,1.77213514,2.19022462,-3.57862801,,,
imu,43.644082,-0.5060372688000001,-9.6817012208,2.178472497600001,1.61512003,2.07059406,-3.66835093,,,
imu,43.652663,-0.5078317272000001,-9.671532623200001,2.1820614144,1.53287402,1.94348659,-3.67582784,,,
imu,43.661243,-0.5096261856000001,-9.665551095200001,2.1778743448,1.51044329,1.71917929,-3.7954584,,,
imu,43.669824,-0.5335522976000001,-9.6667474008,2.1778743448,1.25622835,1.50982581,-3.7954584,,,
imu,43.678404,-0.5347486032000001,-9.664952942400001,2.1814632616,1.30108981,1.48739508,-3.76555076,,,
imu,43.686985,-0.5443190480000001,-9.658971414400002,2.1826595672,1.12912088,1.30047233,-3.7206893,,,
imu,43.695565,-0.5556839512000001,-9.6535880392,2.1814632616,1.27118217,1.33785688,-3.53376655,,,
imu,43.704146,-0.5640580904000001,-9.669738164800002,2.1689020528,1.27865908,1.44253362,-3.41413599,,,
imu,43.712727,-0.5706377712,-9.669140012000002,2.1868466368,1.18893616,1.60702564,-3.35432071,,,
imu,43.721307,-0.5688433128,-9.673925234400002,2.1826595672,1.10669015,1.53973345,-3.25712088,,,
imu,43.729888,-0.5580765624000001,-9.665551095200001,2.1994078456,1.09921324,1.74161002,-3.1973056,,,
imu,43.738468,-0.5592728680000001,-9.6709344704,2.1910337064,1.09173633,1.75656384,-3.27955161,,,
imu,43.747049,-0.5574784096000001,-9.665551095200001,2.1874447896,1.00949032,1.83133294,-3.23469015,,,
imu,43.755629,-0.5461135064000001,-9.665551095200001,2.180266956,1.09173633,1.91357895,-3.24964397,,,
imu,43.76421,-0.5425245896,-9.671532623200001,2.189239248,1.15902852,1.92105586,-3.36927453,,,
imu,43.77279,-0.5419264368000001,-9.682299373600001,2.1886410952,1.23379762,2.09302479,-3.42908981,,,
imu,43.781371,-0.5341504504000001,-9.6745233872,2.1820614144,1.22632071,1.99582496,-3.55619728,,,
imu,43.789951,-0.5425245896,-9.6523917336,2.178472497600001,1.31604363,2.03320951,-3.5711511,,,
imu,43.798532,-0.5443190480000001,-9.6434194416,2.1868466368,1.34595127,2.14536316,-3.75807385,,,
imu,43.807112,-0.5359449088000001,-9.645213900000002,2.1695002056,1.42072037,2.10797861,-3.83284295,,,
imu,43.815455,-0.5377393672000002,-9.6470083584,2.1677057472,1.63007385,2.06311715,-3.75059694,,,
imu,43.823798,-0.5323559920000001,-9.6458120528,2.1689020528,1.53287402,2.1752708,-3.81788913,,,
imu,43.832141,-0.5347486032000001,-9.641026830400001,2.1677057472,1.64502767,2.16779389,-3.93751969,,,
imu,43.840483,-0.5263744640000001,-9.663158484000002,2.1635186776,1.68988913,2.07807097,-3.9449966,,,
imu,43.848826,-0.5341504504000001,-9.667345553600002,2.1551445384,1.7422275,2.04068642,-4.04219643,,,
imu,43.857169,-0.5269726168000001,-9.672130776000001,2.156340844,1.7422275,1.9509635,-3.98238115,,,
imu,43.865512,-0.5341504504000001,-9.676317845600002,2.1521537744,1.83195042,1.96591732,-4.07210407,,,
imu,43.873854,-0.5479079648000001,-9.6733270816,2.1467703992,1.83195042,1.8761944,-4.0945348,,,
imu,43.882197,-0.5401319784,-9.6745233872,2.1497611632,1.67493531,1.53225654,-4.13939626,,,
imu,43.89054,-0.5479079648000001,-9.676317845600002,2.1425833296,1.51044329,1.55468727,-4.102011709999999,,,
imu,43.898882,-0.5556839512000001,-9.686486443200002,2.144377788,1.5926893,1.52477963,-3.92256587,,,
imu,42.452505,,,,,,,17.1755196,-30.35323320000001,42.645868
imu,42.554098,,,,,,,17.4562852,-29.8649452,44.59902
imu,42.65563,,,,,,,17.016826,-29.84053080000002,44.5501912
imu,42.757193,,,,,,,17.3097988,-30.31661160000001,45.14834399999999
imu,42.858786,,,,,,,17.2121412,-30.43868360000002,44.56239839999999
imu,42.960318,,,,,,,17.26097,-30.18233240000001,44.59902
imu,43.06188,,,,,,,17.8225012,-30.56075560000002,44.6722632
imu,43.166403,,,,,,,16.74826760000001,-30.7194492,44.415912
imu,43.907225,-0.5598710208000001,-9.6918698184,2.1377981072,1.65250458,1.40514907,-3.78798149,,,
imu,43.915568,-0.5748248408000001,-9.693066124000001,2.1371999544,1.48801256,1.34533379,-3.74312003,,,
imu,43.923911,-0.5772174520000001,-9.685290137600001,2.135405496,1.38333582,1.24065705,-3.76555076,,,
imu,43.932253,-0.5826008272000001,-9.688280901600002,2.129423968,1.32352054,1.30794924,-3.71321239,,,
imu,43.940596,-0.5897786608000001,-9.685290137600001,2.132414732,1.30856672,1.33037997,-3.5711511,,,
imu,43.948939,-0.5951620360000001,-9.682897526400001,2.1318165792,1.21136689,1.38271834,-3.41413599,,,
imu,43.957282,-0.6083213976,-9.676317845600002,2.129423968,1.22632071,1.45001053,-3.35432071,,,
imu,43.965624,-0.5999472584000001,-9.672130776000001,2.1198535232,1.07678251,1.54721036,-3.43656672,,,
imu,43.973967,-0.6041343280000001,-9.672728928800002,2.1276295096,1.00949032,1.84628676,-3.36927453,,,
imu,43.98231,-0.5975546472000001,-9.661364025600001,2.1270313568,0.8674290299999999,1.99582496,-3.1973056,,,
imu,43.990653,-0.5867878968000001,-9.66016772,2.12344244,0.79265993,2.13788625,-3.36179762,,,
imu,43.998995,-0.5766192992000001,-9.6745233872,2.13839626,0.80761375,2.33976282,-3.37675144,,,
imu,44.007338,-0.5622636320000001,-9.692467971200001,2.1371999544,0.7403215599999999,2.43696265,-3.30198234,,,
imu,44.01616,-0.5479079648000001,-9.678112304,2.1377981072,0.7403215599999999,2.61640849,-3.06272122,,,
imu,44.024983,-0.5377393672000002,-9.672728928800002,2.1431814824,0.7104139199999999,2.90053107,-2.91318302,,,
imu,44.033805,-0.5251781584,-9.672130776000001,2.1461722464,0.45619898,2.87810034,-2.95804448,,,
imu,44.042627,-0.5132151024,-9.6637566368,2.147368552000001,0.22441477,2.90053107,-3.15244414,,,
imu,44.051449,-0.499457588,-9.648204664000001,2.1659112888,0.22441477,2.82576197,-3.27955161,,,
imu,44.060272,-0.4940742128000001,-9.672130776000001,2.1796688032,0.13469185,2.66874686,-3.43656672,,,
imu,44.069094,-0.4916816016,-9.6775141512,2.1760798864,0.02253820000000001,2.49677793,-3.55619728,,,
imu,44.077916,-0.4952705184000001,-9.666149248000002,2.1796688032,0.13469185,2.26499372,-3.54872037,,,
imu,44.086738,-0.49347606,-9.644615747200001,2.1856503312,0.14964567,2.13040934,-3.5711511,,,
imu,44.09556,-0.49347606,-9.644615747200001,2.178472497600001,0.28423005,2.11545552,-3.38422835,,,
imu,44.104383,-0.4868963792000001,-9.644017594400001,2.1754817336,0.34404533,2.09302479,-3.15992105,,,
imu,44.113205,-0.4773259344000001,-9.644017594400001,2.1754817336,0.44124516,2.07807097,-2.63653735,,,
imu,44.122027,-0.4647647256,-9.638634219200002,2.174285428,0.68798319,2.06311715,-2.20287657,,,
imu,44.130849,-0.4617739616000001,-9.635643455200002,2.1730891224,1.11416706,2.1005017,-2.04586146,,,
imu,44.139672,-0.4641665728000001,-9.6434194416,2.1683039,1.24875144,1.86124058,-2.2253073,,,
imu,44.148494,-0.4611758088,-9.6523917336,2.1730891224,1.26370526,1.71170238,-2.61410662,,,
imu,44.157316,-0.46356842,-9.671532623200001,2.1814632616,1.40576655,1.65936401,-2.92813684,,,
imu,44.166138,-0.4779240872000001,-9.6733270816,2.1724909696,1.41324346,1.47244126,-3.11505959,,,
imu,44.174961,-0.4922797544,-9.672728928800002,2.1748835808,1.2936129,1.49487199,-3.39918217,,,
imu,44.183783,-0.5066354216000001,-9.669738164800002,2.1796688032,1.36090509,1.49487199,-3.63844329,,,
imu,44.192605,-0.5012520464000001,-9.663158484000002,2.1683039,1.31604363,1.49487199,-3.76555076,,,
imu,44.201427,-0.5042428104000001,-9.657176956,2.1796688032,1.41324346,1.68179474,-3.81788913,,,
imu,44.21025,-0.4982612824000001,-9.644017594400001,2.1844540256,1.2936129,1.70422547,-4.07210407,,,
imu,44.2188,-0.499457588,-9.6709344704,2.1689020528,1.26370526,1.62945637,-4.102011709999999,,,
imu,44.22735,-0.4970649768000001,-9.6918698184,2.1671075944,1.30856672,1.49487199,-4.079580979999999,,,
imu,44.2359,-0.4922797544,-9.6775141512,2.1730891224,1.33099745,1.46496435,-4.0197657,,,
imu,44.24445,-0.4988594352000001,-9.665551095200001,2.1904355536,1.27118217,1.36028761,-3.95247351,,,
imu,44.253,-0.5066354216000001,-9.676915998400002,2.1874447896,1.12912088,1.06121121,-4.02724261,,,
imu,44.26155,-0.5132151024,-9.675121540000001,2.1766780392,1.22632071,0.9939190199999999,-3.84779677,,,
imu,44.2701,-0.5287670752,-9.673925234400002,2.177276192,1.17398234,0.7471809899999999,-3.72816621,,,
imu,44.27865,-0.5419264368000001,-9.664952942400001,2.1820614144,1.05435178,0.5079198699999998,-3.76555076,,,
imu,44.2872,-0.5634599376000001,-9.659569567200002,2.1796688032,1.08425942,0.58268897,-3.54124346,,,
imu,44.29575,-0.5867878968000001,-9.6667474008,2.1796688032,1.12164397,0.7546578999999998,-3.21973633,,,
imu,44.3043,-0.5969564944000001,-9.669140012000002,2.189239248,0.9945364999999999,0.80699627,-3.10758268,,,
imu,44.31285,-0.61310662,-9.672130776000001,2.186248484,0.91229049,0.9714882899999999,-3.02533667,,,
imu,44.3214,-0.6059287864000001,-9.6667474008,2.1820614144,0.8524752099999999,1.33785688,-2.87579847,,,
imu,44.32995,-0.6029380224,-9.6494009696,2.1730891224,0.88985976,1.55468727,-3.01038285,,,
imu,44.3385,-0.6017417168000001,-9.635045302400002,2.1635186776,1.18145925,1.84628676,-2.98047521,,,
imu,44.34705,-0.5909749664,-9.635045302400002,2.1599297608,1.19641307,2.04068642,-3.07767504,,,
imu,44.3556,-0.5808063688,-9.644017594400001,2.1695002056,1.37585891,2.2500399,-3.15244414,,,
imu,44.36415,-0.5754229936,-9.6709344704,2.1617242192,1.45062801,2.41453192,-3.26459779,,,
imu,44.3727,-0.5634599376000001,-9.671532623200001,2.1587334552,1.35342818,2.42948574,-3.33936689,,,
imu,44.38125,-0.5592728680000001,-9.651793580800001,2.1527519272,1.36090509,2.50425484,-3.35432071,,,
imu,44.3898,-0.5473098120000001,-9.657775108800001,2.1689020528,1.42072037,2.56407012,-3.2720747,,,
imu,44.39835,-0.5311596864,-9.699047652,2.1575371496,1.23379762,2.324809,-3.20478251,,,
imu,44.4069,-0.5132151024,-9.709814402400001,2.162322372,1.13659779,2.34723973,-2.96552139,,,
imu,44.41545,-0.5132151024,-9.709814402400001,2.1605279136,1.03192105,2.33976282,-2.56176825,,,
imu,44.423848,-0.5084298800000001,-9.6703363176,2.165313136,1.00201341,2.35471664,-2.36736859,,,
imu,44.432247,-0.5102243384,-9.6535880392,2.150957468800001,1.00201341,2.22760917,-2.27016876,,,
imu,44.440646,-0.4922797544,-9.668541859200001,2.1425833296,1.03192105,2.05564024,-2.30755331,,,
imu,44.449044,-0.5036446576000001,-9.6667474008,2.1371999544,0.94219813,2.03320951,-2.44213769,,,
imu,44.457656,-0.4970649768000001,-9.6505972752,2.1437796352,1.27865908,2.06311715,-2.32998404,,,
imu,44.466055,-0.5096261856000001,-9.668541859200001,2.1497611632,1.32352054,2.00330187,-2.24026112,,,
imu,44.474454,-0.5006538936,-9.679308609600001,2.1455740936,1.368382,2.06311715,-2.19539966,,,
imu,44.482852,-0.4952705184000001,-9.6745233872,2.1491630104,1.36090509,2.19770153,-2.41223005,,,
imu,44.491251,-0.4821111568000001,-9.683495679200002,2.1467703992,1.23379762,2.16779389,-2.46456842,,,
imu,44.49965,-0.4797185456,-9.687084596000002,2.147368552000001,1.04687487,2.15284007,-2.61410662,,,
imu,44.508048,-0.4713444064,-9.683495679200002,2.1377981072,1.02444414,2.34723973,-2.57672207,,,
imu,44.516447,-0.4623721144,-9.678710456800001,2.1521537744,0.8973366700000001,2.29490136,-2.80102937,,,
imu,44.524846,-0.4629702672000001,-9.683495679200002,2.1437796352,0.70293701,2.20517844,-2.8234601,,,
imu,44.533244,-0.4647647256,-9.6912716656,2.150359316,0.7403215599999999,2.07059406,-2.8982292,,,
imu,44.541643,-0.4605776560000001,-9.6876827488,2.1449759408,0.78518302,2.11545552,-2.80850628,,,
imu,44.550042,-0.4581850448000001,-9.6817012208,2.1419851768,0.8973366700000001,2.01077878,-2.83841392,,,
imu,44.55844,-0.4779240872000001,-9.6799067624,2.13839626,0.8449983,1.92105586,-2.71130645,,,
imu,44.566839,-0.4803166984,-9.6745233872,2.1437796352,0.91229049,1.8761944,-2.5243837,,,
imu,44.575238,-0.4713444064,-9.678710456800001,2.1389944128,0.94967504,1.92105586,-2.14306129,,,
imu,44.583637,-0.4605776560000001,-9.692467971200001,2.1479667048,0.8674290299999999,1.9509635,-2.001,,,
imu,44.592035,-0.4623721144,-9.7056273328,2.1455740936,0.6954601,1.95844041,-2.001,,,
imu,44.600434,-0.4647647256,-9.706225485600001,2.1407888712,0.60573718,1.9509635,-2.02343073,,,
imu,44.608833,-0.454596128,-9.7086180968,2.1479667048,0.47862971,2.07059406,-1.83650798,,,
imu,44.617231,-0.4522035168,-9.708019944000002,2.1605279136,0.38142988,2.0257326,-1.81407725,,,
imu,44.625682,-0.4324644744,-9.706225485600001,2.1581353024,0.17955331,2.09302479,-1.86641562,,,
imu,44.634133,-0.4264829464000001,-9.6918698184,2.1479667048,0.05992275,2.20517844,-1.94866163,,,
imu,44.642584,-0.4258847936,-9.675121540000001,2.1467703992,-0.14195382,2.24256299,-1.93370781,,,
imu,44.651035,-0.4145198904,-9.6703363176,2.1629205248,-0.17186146,2.33228591,-2.03838455,,,
imu,44.659485,-0.4109309736,-9.692467971200001,2.165313136,-0.13447691,2.39210119,-2.13558438,,,
imu,44.667936,-0.4115291264,-9.6817012208,2.1718928168,-0.17933837,2.45939338,-2.17296893,,,
imu,44.676387,-0.4079402096,-9.672130776000001,2.1695002056,-0.10456927,2.52668557,-2.24773803,,,
imu,44.684838,-0.4019586816,-9.669738164800002,2.1826595672,-0.31392275,2.48182411,-2.41970696,,,
imu,44.693289,-0.3899956256000001,-9.661962178400001,2.1874447896,-0.37373803,2.4743472,-2.45709151,,,
imu,44.70174,-0.391790084,-9.657176956,2.18325772,-0.33635348,2.45939338,-2.55429134,,,
imu,44.71019,-0.3780325696000001,-9.651195428000001,2.192230012,-0.4260764,2.42200883,-2.61410662,,,
imu,44.718641,-0.3816214864,-9.630260080000001,2.1946226232,-0.51579932,2.42200883,-2.63653735,,,
imu,43.265005,,,,,,,19.8488964,-31.26877320000001,41.974472
imu,43.366568,,,,,,,17.6638076,-30.64620600000001,44.3670832
imu,43.46813,,,,,,,17.1877268,-30.68282760000001,42.32848079999999
imu,43.569693,,,,,,,17.46849240000001,-30.27999000000001,44.91640719999999
imu,43.671255,,,,,,,17.0046188,-30.32881880000002,45.1117224
imu,43.772818,,,,,,,16.5529524,-30.26778280000002,44.30604719999999
imu,43.874411,,,,,,,16.6017812,-30.18233240000001,44.7455064
imu,43.975973,,,,,,,17.016826,-30.47530520000002,44.39149759999999
imu,44.727092,-0.376836264,-9.633250844,2.2065856792,-0.61299915,2.35471664,-2.73373718,,,
imu,44.735543,-0.3798270280000001,-9.6458120528,2.210174596,-0.50832241,2.36967046,-2.71878336,,,
imu,44.743994,-0.3720510416,-9.656578803200002,2.2119690544,-0.4260764,2.31733209,-2.83093701,,,
imu,44.752445,-0.3612842912,-9.672130776000001,2.2197450408,-0.4260764,2.19022462,-2.84589083,,,
imu,44.760895,-0.3696584304000001,-9.654186192000001,2.2299136384,-0.41859949,2.08554788,-2.94309066,,,
imu,44.769346,-0.3744436528,-9.651793580800001,2.2305117912,-0.45598404,2.19022462,-2.8982292,,,
imu,44.777797,-0.3642750552,-9.658971414400002,2.2406803888,-0.3513073,2.12293243,-2.8982292,,,
imu,44.786248,-0.3570972216000001,-9.651195428000001,2.2472600696,-0.41859949,1.90610204,-2.88327538,,,
imu,44.794699,-0.3624805968,-9.651793580800001,2.2472600696,-0.22419983,1.83133294,-2.89075229,,,
imu,44.80315,-0.3564990688,-9.634447149600001,2.246063764000001,-0.30644584,1.69674856,-2.92813684,,,
imu,44.8116,-0.3576953744,-9.633848996800001,2.2436711528,-0.38869185,1.69674856,-2.87579847,,,
imu,44.820051,-0.3541064576,-9.635643455200002,2.255036056,-0.32887657,1.56964109,-2.95056757,,,
imu,44.828516,-0.3547046104000001,-9.632054538400002,2.252045292,-0.29896893,1.52477963,-2.92813684,,,
imu,44.836981,-0.3594898328000001,-9.6458120528,2.2598212784,-0.18681528,1.51730272,-2.98047521,,,
imu,44.845446,-0.361882444,-9.637437913600001,2.2562323616,0.04496892999999999,1.55468727,-2.92065993,,,
imu,44.85391,-0.3582935272000001,-9.634447149600001,2.2598212784,-0.01484635000000001,1.51730272,-3.01785976,,,
imu,44.862375,-0.34393786,-9.634447149600001,2.2568305144,0.14216876,1.59954873,-3.06272122,,,
imu,44.87084,-0.3451341656,-9.630858232800001,2.2586249728,0.40386061,1.66684092,-3.15992105,,,
imu,44.879305,-0.3433397072,-9.635643455200002,2.25802682,0.49358353,1.65936401,-3.18235178,,,
imu,44.88777,-0.3457323184,-9.627867468800002,2.2514471392,0.6132140899999999,1.62197946,-3.22721324,,,
imu,44.896234,-0.3337692624,-9.614708107200002,2.2484563752,0.74779847,1.6518871,-3.3468438,,,
imu,44.904699,-0.3367600264,-9.621287788000002,2.2478582224,0.9048135799999999,1.577118,-3.58610492,,,
imu,44.913164,-0.3475267768,-9.6218859408,2.2574286672,0.9870595899999999,1.62197946,-3.67582784,,,
imu,44.921629,-0.3397507904000001,-9.645213900000002,2.2526434448,1.13659779,1.45748744,-3.90013514,,,
imu,44.930094,-0.3355637208,-9.6505972752,2.2526434448,1.05435178,1.36776452,-4.13191935,,,
imu,44.938559,-0.3427415544,-9.6499991224,2.263410195200001,1.07678251,1.47991817,-4.0945348,,,
imu,44.947023,-0.3397507904000001,-9.661364025600001,2.2562323616,1.10669015,1.42010289,-3.97490424,,,
imu,44.955488,-0.331974804,-9.6709344704,2.2472600696,0.9646288599999999,1.34533379,-3.93751969,,,
imu,44.963953,-0.3355637208,-9.6709344704,2.249054528,0.9347212199999999,1.37524143,-3.90761205,,,
imu,44.972418,-0.3337692624,-9.655382497600002,2.2502508336,0.7253677399999999,1.37524143,-4.057150249999999,,,
imu,44.980883,-0.3295821928000001,-9.6535880392,2.261017584,0.55339881,1.1285034,-4.25902682,,,
imu,44.989347,-0.3487230824000001,-9.6703363176,2.2532415976,0.40386061,1.06121121,-4.34874974,,,
imu,44.997812,-0.3553027632,-9.668541859200001,2.2544379032,0.20946095,0.9415806499999997,-4.48333412,,,
imu,45.006277,-0.3487230824000001,-9.658373261600001,2.249652680800001,0.15712258,0.78456554,-4.51324176,,,
imu,45.014742,-0.361882444,-9.636839760800001,2.249652680800001,0.11226112,0.7471809899999999,-4.64034923,,,
imu,45.023207,-0.3726491944000001,-9.636839760800001,2.2586249728,0.09730729999999999,0.62007352,-4.61044159,,,
imu,45.032001,-0.382817792,-9.651793580800001,2.2532415976,0.12721494,0.5752120599999997,-4.32631901,,,
imu,45.040795,-0.3816214864,-9.655980650400002,2.2574286672,0.33656842,0.62007352,-3.90013514,,,
imu,45.049589,-0.3834159448,-9.655382497600002,2.263410195200001,0.34404533,0.5527813299999997,-3.71321239,,,
imu,45.058383,-0.3792288752000001,-9.640428677600001,2.253839750400001,0.44124516,0.52287369,-3.55619728,,,
imu,45.067177,-0.3876030144000001,-9.648802816800002,2.2454656112,0.52349117,0.5901658799999998,-3.54872037,,,
imu,45.075972,-0.3929863896,-9.636241608,2.2466619168,0.63564482,0.6724118899999998,-3.496382,,,
imu,45.084766,-0.3953790008,-9.631456385600002,2.2448674584,0.65059864,0.64250425,-3.61601256,,,
imu,45.09356,-0.4085383624000001,-9.633848996800001,2.2436711528,0.70293701,0.7770886299999997,-3.84779677,,,
imu,45.102354,-0.4169125016,-9.636241608,2.2388859304,0.67302937,0.8518577299999999,-4.13191935,,,
imu,45.111148,-0.4109309736,-9.630260080000001,2.2466619168,0.65807555,1.00139593,-4.13939626,,,
imu,45.119942,-0.3995660704000001,-9.639232372,2.2514471392,0.7552753799999999,1.09859576,-4.21416536,,,
imu,45.128736,-0.3959771536000001,-9.638634219200002,2.249652680800001,0.64312173,1.19579559,-4.27398064,,,
imu,45.137531,-0.3893974728000001,-9.635045302400002,2.2556342088,0.57582954,1.24813396,-4.22164227,,,
imu,45.146325,-0.3852104032000001,-9.644615747200001,2.2466619168,0.76275229,1.33037997,-4.25154991,,,
imu,45.155119,-0.3732473472,-9.638036066400002,2.2472600696,0.7403215599999999,1.37524143,-4.363703559999999,,,
imu,45.163913,-0.367863972,-9.6458120528,2.2532415976,0.8524752099999999,1.33785688,-4.43847266,,,
imu,45.172707,-0.3750418056000001,-9.665551095200001,2.2556342088,0.64312173,1.15841104,-4.56558013,,,
imu,44.077428,,,,,,,16.98020440000001,-30.43868360000002,44.2572184
imu,44.178991,,,,,,,19.3728156,-30.84152120000001,43.98866
imu,44.280553,,,,,,,16.9191684,-30.59737720000002,44.7455064
imu,44.382116,,,,,,,19.03101400000001,-30.92697160000002,42.43834559999999
imu,44.483678,,,,,,,16.77268200000001,-29.73066600000001,44.6844704
imu,44.585241,,,,,,,16.6628172,-30.6217916,41.86460719999999
imu,44.686803,,,,,,,17.26097,-29.92598120000001,44.5746056
imu,44.788396,,,,,,,16.9924116,-29.58417960000002,43.93983119999999
imu,44.889928,,,,,,,16.3576372,-29.24237800000002,44.24501119999999
imu,44.991491,,,,,,,16.6628172,-29.47431480000002,44.61122719999999
imu,45.093053,,,,,,,16.9924116,-29.59638680000001,44.4525336
