Type,Timestamp,Data Accelerometer X,Data Accelerometer Y,Data Accelerometer Z,Data Gyroscope X,Data Gyroscope Y,Data Gyroscope Z,Data Magnetometer X,Data Magnetometer Y,Data Magnetometer Z
imu,331.948977,0.128602852,-9.706823638400001,1.7352412728,1.5926893,1.80890221,-3.26459779,,,
imu,331.957507,0.1339862272,-9.688879054400001,1.7370357312,1.61512003,1.82385603,-3.42908981,,,
imu,331.966036,0.1274065464,-9.7056273328,1.7388301896,1.85438115,1.79394839,-3.51133582,,,
imu,331.974566,0.1321917688,-9.7331423616,1.7274652864,1.93662716,1.75656384,-3.48142818,,,
imu,331.983096,0.13458438,-9.743310959200002,1.7442135648,1.8917657,1.74161002,-3.63844329,,,
imu,331.991625,0.1274065464,-9.749890640000002,1.737633884,1.95158098,1.68927165,-3.57862801,,,
imu,332.000155,0.1268083936,-9.7570684736,1.7262689808,1.89924261,1.68179474,-3.60105874,,,
imu,332.008685,0.1357806856,-9.768433376800001,1.7334468144,1.82447351,1.79394839,-3.61601256,,,
imu,332.017214,0.1297991576,-9.762451848800001,1.7382320368,1.76465823,1.78647148,-3.53376655,,,
imu,332.025744,0.131593616,-9.768433376800001,1.7340449672,1.67493531,1.82385603,-3.62348947,,,
imu,332.034274,0.1274065464,-9.770825988000002,1.7400264952,1.37585891,1.75656384,-3.6459202,,,
imu,332.042803,0.1363788384,-9.762451848800001,1.7352412728,1.35342818,1.68179474,-3.65339711,,,
imu,332.051333,0.1411640608,-9.7540777096,1.7232782168,1.27118217,1.68179474,-3.63844329,,,
imu,332.059863,0.140565908,-9.741516500800001,1.737633884,1.2936129,1.67431783,-3.57862801,,,
imu,332.068249,0.1471455888,-9.744507264800001,1.7412228008,1.30856672,1.65936401,-3.58610492,,,
imu,332.076635,0.1423603664,-9.748096181600001,1.7298578976,1.33099745,1.65936401,-3.54872037,,,
imu,332.085021,0.137575144,-9.745703570400002,1.7280634392,1.26370526,1.40514907,-3.48142818,,,
imu,332.093408,0.1381732968,-9.730749750400001,1.7292597448,1.2936129,1.53225654,-3.45899745,,,
imu,332.101794,0.137575144,-9.739722042400002,1.7250726752,1.368382,1.5023489,-3.45152054,,,
imu,332.11018,0.125612088,-9.719983000000001,1.7161003832,1.368382,1.62945637,-3.57862801,,,
imu,332.118566,0.1148453376,-9.713403319200001,1.710717008,1.45062801,1.63693328,-3.54124346,,,
imu,332.126953,0.1244157824,-9.734936820000001,1.7101188552,1.54782784,1.6518871,-3.63096638,,,
imu,332.135339,0.1082656568,-9.723571916800001,1.7125114664,1.45810492,1.73413311,-3.75059694,,,
imu,332.143725,0.1010878232,-9.745703570400002,1.7119133136,1.50296638,1.88367131,-3.73564312,,,
imu,332.152111,0.1130508792,-9.7474980288,1.716698536,1.5179202,1.98087114,-3.90761205,,,
imu,332.160498,0.1148453376,-9.7474980288,1.7155022304,1.41324346,2.13040934,-3.91508896,,,
imu,332.168884,0.1232194768,-9.756470320800002,1.7143059248,1.53287402,2.20517844,-3.91508896,,,
imu,332.17727,0.1274065464,-9.746899876,1.7023428688,1.5179202,2.22760917,-3.90013514,,,
imu,332.185656,0.1369769912,-9.7504887928,1.7089225496,1.37585891,2.09302479,-3.96742733,,,
imu,332.194042,0.13458438,-9.7612555432,1.7220819112,1.31604363,2.0257326,-3.88518132,,,
imu,332.202429,0.1423603664,-9.756470320800002,1.7095207024,1.49548947,2.04068642,-3.75807385,,,
imu,332.210649,0.1309954632,-9.762451848800001,1.7023428688,1.33099745,1.89114822,-3.70573548,,,
imu,332.219035,0.1411640608,-9.746301723200002,1.7119133136,1.30108981,1.86124058,-3.68330475,,,
imu,332.227421,0.1303973104,-9.746301723200002,1.7196893,1.28613599,1.80890221,-3.58610492,,,
imu,332.235807,0.1321917688,-9.7474980288,1.7131096192,1.27865908,1.80890221,-3.60105874,,,
imu,332.244194,0.1238176296,-9.743310959200002,1.7155022304,1.30108981,1.75656384,-3.48142818,,,
imu,332.25258,0.1208268656,-9.727758986400001,1.7101188552,1.23379762,1.75656384,-3.61601256,,,
imu,332.260966,0.1100601152,-9.7295534448,1.7059317856,1.2188438,1.74908693,-3.60853565,,,
imu,332.269352,0.107667504,-9.738525736800002,1.7005484104,1.15902852,1.77899457,-3.50385891,,,
imu,332.27813,0.1118545736,-9.727160833600001,1.7029410216,1.22632071,1.83880985,-3.496382,,,
imu,332.286908,0.1124527264,-9.727160833600001,1.7184929944,1.07678251,1.97339423,-3.59358183,,,
imu,332.295685,0.1154434904,-9.722973764,1.7178948416,1.00201341,1.93600968,-3.80293531,,,
imu,332.304463,0.1082656568,-9.723571916800001,1.7071280912,1.10669015,1.77899457,-3.80293531,,,
imu,332.31324,0.1112564208,-9.741516500800001,1.7071280912,1.13659779,1.8014253,-3.90013514,,,
imu,332.322018,0.1130508792,-9.737329431200001,1.7196893,1.43567419,1.97339423,-3.69078166,,,
imu,332.330796,0.1154434904,-9.746301723200002,1.7184929944,1.39081273,2.0257326,-3.66087402,,,
imu,332.339573,0.1303973104,-9.777405668800002,1.7178948416,1.39828964,2.01077878,-3.75059694,,,
imu,332.348351,0.1363788384,-9.749890640000002,1.7220819112,1.27118217,2.03320951,-3.83284295,,,
imu,332.357129,0.13458438,-9.7474980288,1.7274652864,1.22632071,1.84628676,-3.88518132,,,
imu,332.365906,0.13458438,-9.759461084800002,1.7280634392,1.16650543,1.68179474,-3.84031986,,,
imu,332.374684,0.1321917688,-9.7540777096,1.7334468144,1.12912088,1.49487199,-3.90761205,,,
imu,332.383461,0.125612088,-9.755872168000002,1.7268671336,0.9197674,1.32290306,-3.93004278,,,
imu,332.392239,0.1040785872,-9.737927584000001,1.7274652864,0.8375213899999999,1.28551851,-4.057150249999999,,,
imu,332.401017,0.1052748928,-9.734338667200001,1.7262689808,0.97958268,1.38271834,-3.93004278,,,
imu,332.409794,0.1004896704,-9.7217774584,1.7298578976,0.9272443100000001,1.36776452,-3.78798149,,,
imu,332.418572,0.0933118368,-9.716992236000001,1.7412228008,0.83004448,1.42010289,-3.76555076,,,
imu,332.427349,0.08374139200000001,-9.706823638400001,1.7304560504,0.94967504,1.56216418,-3.50385891,,,
imu,332.436127,0.09211553120000002,-9.703832874400002,1.7190911472,0.8823828499999999,1.63693328,-3.36927453,,,
imu,332.444905,0.0855358504,-9.697253193600002,1.737633884,0.9048135799999999,1.89862513,-3.29450543,,,
imu,332.453682,0.0747691,-9.741516500800001,1.743615412,1.04687487,2.16031698,-3.23469015,,,
imu,332.46246,0.09510629520000001,-9.779200127200001,1.7394283424,1.22632071,2.35471664,-3.16739796,,,
imu,332.471238,0.08972292000000001,-9.794752100000002,1.7352412728,1.04687487,2.49677793,-3.4216129,,,
imu,332.480015,0.1034804344,-9.7361331256,1.7418209536,0.82256757,2.5491163,-3.74312003,,,
imu,332.488466,0.1130508792,-9.703832874400002,1.7262689808,1.02444414,2.55659321,-3.90013514,,,
imu,332.496917,0.110658268,-9.7283571392,1.7220819112,1.31604363,2.88557725,-3.62348947,,,
imu,332.505368,0.13458438,-9.7474980288,1.6909779656,1.58521239,3.10240764,-3.4216129,,,
imu,332.513819,0.152528964,-9.734936820000001,1.698753952,1.50296638,3.01268472,-3.60853565,,,
imu,332.52227,0.1758569232,-9.730749750400001,1.6879872016,1.71231986,2.90053107,-3.88518132,,,
imu,332.530721,0.1866236736,-9.742114653600002,1.6766222984,1.84690424,2.7734236,-4.169303899999999,,,
imu,332.539172,0.182436604,-9.746899876,1.6885853544,1.75718132,2.48182411,-4.30388828,,,
imu,332.547623,0.1740624648,-9.743909112,1.6736315344,1.68241222,2.22760917,-4.34874974,,,
imu,332.556074,0.1662864784,-9.743310959200002,1.6700426176,1.62259694,2.0257326,-4.386134289999999,,,
imu,332.564524,0.1668846312,-9.7427128064,1.6754259928,1.6674584,2.00330187,-4.244073,,,
imu,332.572975,0.1626975616,-9.745703570400002,1.6682481592,1.56278166,1.88367131,-3.84031986,,,
imu,332.581426,0.1513326584,-9.7576666264,1.6706407704,1.50296638,1.65936401,-3.69825857,,,
imu,332.589877,0.1369769912,-9.763050001600002,1.6843982848,1.33099745,1.46496435,-3.59358183,,,
imu,332.598328,0.1148453376,-9.772022293600001,1.6826038264,1.19641307,1.24813396,-3.58610492,,,
imu,332.606779,0.1070693512,-9.783985349600002,1.6694444648,1.00201341,1.17336486,-3.5711511,,,
imu,332.61523,0.0903210728,-9.779200127200001,1.6849964376,0.80761375,1.23318014,-3.6459202,,,
imu,332.623681,0.08314323920000001,-9.770825988000002,1.7005484104,0.68050628,1.4275798,-3.66835093,,,
imu,332.632132,0.06400234960000001,-9.768433376800001,1.6909779656,0.53096808,1.53973345,-3.74312003,,,
imu,332.640583,0.06519865520000001,-9.764246307200002,1.6915761184,0.5010604399999999,1.55468727,-3.84779677,,,
imu,332.649034,0.07656355840000001,-9.772620446400001,1.701744716,0.57582954,1.74908693,-3.7954584,,,
imu,332.657485,0.0693857248,-9.763050001600002,1.7089225496,0.47862971,1.97339423,-4.034719519999999,,,
imu,332.665936,0.068787572,-9.766638918400002,1.7155022304,0.41133752,2.16031698,-4.012288789999999,,,
imu,332.674387,0.0903210728,-9.756470320800002,1.7202874528,0.26179932,2.33976282,-3.99733497,,,
imu,332.682837,0.09989151760000002,-9.763050001600002,1.7280634392,0.38142988,2.51920866,-3.90761205,,,
imu,332.691288,0.1100601152,-9.745703570400002,1.7352412728,0.44872207,2.57902394,-3.78050458,,,
imu,332.699737,0.1124527264,-9.7265626808,1.7322505088,0.11226112,2.53416248,-3.8702275,,,
imu,332.708185,0.11963056,-9.739722042400002,1.7364375784,0.08235347999999998,2.5491163,-3.91508896,,,
imu,332.716633,0.1303973104,-9.746301723200002,1.73464312,0.30666078,2.46687029,-3.92256587,,,
imu,332.725082,0.1327899216,-9.714001472000001,1.73464312,0.20198404,2.34723973,-4.16182699,,,
imu,332.73353,0.1262102408,-9.690673512800002,1.7489987872,0.32909151,2.30237827,-4.11696553,,,
imu,332.741978,0.107667504,-9.7193848472,1.752587704,0.6132140899999999,2.23508608,-3.80293531,,,
imu,332.750426,0.1082656568,-9.735534972800002,1.7454098704,0.71789083,2.22013226,-3.43656672,,,
imu,332.758875,0.1112564208,-9.711010708000002,1.7478024816,0.82256757,2.20517844,-3.23469015,,,
imu,332.767323,0.1184342544,-9.711010708000002,1.7382320368,0.82256757,2.20517844,-3.30945925,,,
imu,332.775771,0.1262102408,-9.734936820000001,1.7460080232,0.82256757,2.07807097,-3.40665908,,,
imu,332.784219,0.1160416432,-9.727160833600001,1.7364375784,1.00201341,1.96591732,-3.39170526,,,
imu,332.792668,0.1082656568,-9.711010708000002,1.7442135648,1.0693056,1.80890221,-3.496382,,,
imu,332.801116,0.09690075360000001,-9.7193848472,1.7489987872,1.0693056,1.73413311,-3.57862801,,,
imu,332.809564,0.08673215600000002,-9.7265626808,1.7400264952,1.03939796,1.83133294,-3.65339711,,,
imu,332.818013,0.08194693360000001,-9.719983000000001,1.7448117176,1.12912088,2.03320951,-3.51881273,,,
imu,332.826461,0.08015247520000002,-9.721179305600002,1.7412228008,1.00949032,2.06311715,-3.43656672,,,
imu,332.834909,0.0813487808,-9.728955292000002,1.752587704,1.22632071,2.19022462,-3.16739796,,,
imu,332.843357,0.09869521200000002,-9.741516500800001,1.752587704,1.15902852,2.29490136,-3.13749032,,,
imu,332.851806,0.09091922560000001,-9.746301723200002,1.7501950928,1.2188438,2.42200883,-3.20478251,,,
imu,332.860254,0.09390998960000001,-9.7474980288,1.7484006344,1.27118217,2.39210119,-3.2720747,,,
imu,332.868702,0.09450814240000002,-9.746899876,1.7460080232,1.28613599,2.51173175,-3.26459779,,,
imu,332.877151,0.110658268,-9.745105417600001,1.7394283424,1.34595127,2.43696265,-3.27955161,,,
imu,332.885599,0.128602852,-9.741516500800001,1.7507932456,1.4431511,2.57902394,-3.2720747,,,
imu,332.894047,0.1297991576,-9.755872168000002,1.7448117176,1.2936129,2.59397776,-3.21973633,,,
imu,332.902513,0.1244157824,-9.755872168000002,1.7364375784,1.18145925,2.40705501,-3.4216129,,,
imu,332.910979,0.1238176296,-9.755274015200001,1.7364375784,1.10669015,2.44443956,-3.27955161,,,
imu,332.919445,0.1441548248,-9.746899876,1.7304560504,1.23379762,2.40705501,-3.24964397,,,
imu,332.927912,0.1399677552,-9.743310959200002,1.710717008,1.24875144,2.30237827,-3.20478251,,,
imu,332.936378,0.1483418944,-9.734338667200001,1.7101188552,1.1440747,2.24256299,-3.15244414,,,
imu,332.944844,0.146547436,-9.7301515976,1.7125114664,1.17398234,2.08554788,-2.93561375,,,
imu,332.95331,0.1417622136,-9.7325442088,1.6999502576,1.27118217,2.06311715,-2.92813684,,,
imu,332.961776,0.1453511304,-9.744507264800001,1.6975576464,1.18893616,2.07807097,-2.88327538,,,
imu,332.970242,0.1411640608,-9.736731278400002,1.7035391744,1.31604363,2.05564024,-2.98047521,,,
imu,332.978708,0.140565908,-9.738525736800002,1.6993521048,1.33099745,2.18274771,-3.07019813,,,
imu,332.987174,0.1321917688,-9.746301723200002,1.6993521048,1.30108981,2.1005017,-3.18982869,,,
imu,332.99564,0.1381732968,-9.7504887928,1.7041373272,1.31604363,2.07807097,-3.17487487,,,
imu,333.004106,0.1333880744,-9.744507264800001,1.7023428688,1.25622835,2.16779389,-3.37675144,,,
imu,333.012572,0.1381732968,-9.741516500800001,1.6933705768,1.08425942,2.19770153,-3.57862801,,,
imu,333.021038,0.1453511304,-9.743909112,1.6826038264,1.17398234,2.27994754,-3.52628964,,,
imu,331.948633,,,,,,,68.64107479999998,-4.315275600000024,13.6903896
imu,332.050043,,,,,,,70.8261636,-4.559419600000014,12.57953439999999
imu,332.151605,,,,,,,68.68990360000001,-4.327482800000015,12.90912879999999
imu,332.261011,,,,,,,70.9482356,-4.998878800000006,10.68741839999999
imu,332.370386,,,,,,,69.0561196,-4.193203600000017,13.20210159999999
imu,333.029505,0.1423603664,-9.7504887928,1.686790896,1.11416706,2.38462428,-3.5711511,,,
imu,333.037971,0.1591086448,-9.748096181600001,1.695763188,1.06182869,2.3995781,-3.81788913,,,
imu,333.046437,0.1609031032,-9.749890640000002,1.6945668824,1.03939796,2.39210119,-3.78798149,,,
imu,333.054903,0.1752587704,-9.760059237600002,1.695763188,1.17398234,2.42200883,-3.78050458,,,
imu,333.063369,0.1770532288,-9.755274015200001,1.6981557992,1.12912088,2.324809,-3.86275059,,,
imu,333.071835,0.1752587704,-9.7606573904,1.7101188552,1.02444414,2.22760917,-3.95995042,,,
imu,333.080301,0.1716698536,-9.764246307200002,1.7065299384,1.15155161,2.1752708,-3.83284295,,,
imu,333.088767,0.1710717008,-9.7540777096,1.7023428688,0.9272443100000001,2.03320951,-3.86275059,,,
imu,333.097233,0.1656883256,-9.76484446,1.6981557992,0.9571519499999999,1.86124058,-3.76555076,,,
imu,333.106054,0.1579123392,-9.7534795568,1.7035391744,0.8524752099999999,1.80890221,-3.66835093,,,
imu,333.114875,0.1459492832,-9.746301723200002,1.701744716,0.7403215599999999,1.82385603,-3.66835093,,,
imu,333.123696,0.140565908,-9.755274015200001,1.6969594936,0.71789083,1.80890221,-3.58610492,,,
imu,333.132517,0.1357806856,-9.7474980288,1.6945668824,0.64312173,1.77151766,-3.54872037,,,
imu,333.141338,0.128602852,-9.731946056000002,1.70473548,0.6281679099999999,1.75656384,-3.69825857,,,
imu,333.150159,0.11963056,-9.7295534448,1.707726244,0.53844499,1.90610204,-3.78798149,,,
imu,333.15898,0.1094619624,-9.715795930400002,1.7023428688,0.47862971,2.03320951,-3.95995042,,,
imu,333.1678,0.1040785872,-9.716992236000001,1.710717008,0.58330645,2.08554788,-3.93751969,,,
imu,333.176621,0.1190324072,-9.710412555200001,1.7220819112,0.56087572,2.24256299,-4.02724261,,,
imu,333.185442,0.1214250184,-9.723571916800001,1.7149040776,0.63564482,2.324809,-4.16182699,,,
imu,333.194263,0.1262102408,-9.730749750400001,1.7184929944,0.67302937,2.34723973,-4.244073,,,
imu,333.203084,0.1333880744,-9.709814402400001,1.7328486616,0.6954601,2.37714737,-4.08705789,,,
imu,333.211905,0.1357806856,-9.731946056000002,1.737633884,0.7552753799999999,2.324809,-4.15435008,,,
imu,333.220726,0.140565908,-9.7361331256,1.7298578976,0.78518302,2.24256299,-4.00481188,,,
imu,333.229547,0.1626975616,-9.734936820000001,1.7460080232,0.70293701,2.16779389,-3.89265823,,,
imu,333.238368,0.1507345056,-9.7504887928,1.7531858568,0.97210577,2.13040934,-3.60105874,,,
imu,333.247189,0.1417622136,-9.761853696000001,1.77950458,0.9197674,1.9509635,-3.53376655,,,
imu,333.25601,0.1423603664,-9.786377960800001,1.752587704,0.91229049,1.78647148,-3.44404363,,,
imu,333.26483,0.1423603664,-9.7714241408,1.7507932456,0.63564482,1.70422547,-3.3468438,,,
imu,333.273651,0.1441548248,-9.727160833600001,1.7388301896,0.71789083,1.61450255,-3.47395127,,,
imu,333.282472,0.1309954632,-9.6876827488,1.7334468144,0.67302937,1.36028761,-3.63096638,,,
imu,333.291293,0.1142471848,-9.6703363176,1.728661592,0.80013684,1.49487199,-3.54124346,,,
imu,333.300114,0.1088638096,-9.692467971200001,1.725670828,1.0693056,1.60702564,-3.46647436,,,
imu,333.30859,0.1082656568,-9.702038416,1.7053336328,1.28613599,1.74161002,-3.36927453,,,
imu,333.317063,0.116639796,-9.7217774584,1.7113151608,1.47305874,1.74161002,-3.54124346,,,
imu,333.325537,0.1184342544,-9.734338667200001,1.7011465632,1.62259694,1.86871749,-3.70573548,,,
imu,333.334011,0.1184342544,-9.727758986400001,1.7035391744,1.71979677,1.97339423,-3.84779677,,,
imu,333.342485,0.1154434904,-9.739123889600002,1.710717008,1.68988913,1.96591732,-4.02724261,,,
imu,333.350958,0.113649032,-9.746899876,1.7053336328,1.60016621,1.96591732,-4.00481188,,,
imu,333.359432,0.1118545736,-9.759461084800002,1.6891835072,1.49548947,1.9509635,-4.0197657,,,
imu,333.367906,0.1208268656,-9.766040765600001,1.6873890488,1.45062801,2.05564024,-3.82536604,,,
imu,333.376379,0.131593616,-9.7702278352,1.6754259928,1.38333582,2.04068642,-3.75059694,,,
imu,333.384853,0.131593616,-9.766638918400002,1.680809368,1.20388998,2.07059406,-3.73564312,,,
imu,333.393327,0.1453511304,-9.7714241408,1.6772204512,1.09173633,1.92105586,-3.52628964,,,
imu,333.401801,0.1411640608,-9.773816752000002,1.6766222984,0.9646288599999999,1.74161002,-3.46647436,,,
imu,333.410274,0.1393696024,-9.772022293600001,1.6724352288,0.7702292,1.58459491,-3.75807385,,,
imu,333.418748,0.1327899216,-9.7780038216,1.6814075208,0.76275229,1.65936401,-3.66087402,,,
imu,333.427222,0.1303973104,-9.766638918400002,1.692772424,0.47862971,1.76404075,-3.69825857,,,
imu,333.435695,0.122621324,-9.769031529600001,1.6921742712,0.19450713,1.6518871,-3.8702275,,,
imu,333.444169,0.1274065464,-9.785779808000001,1.6939687296,0.30666078,1.74908693,-3.7206893,,,
imu,333.452643,0.1363788384,-9.767237071200002,1.7035391744,-0.10456927,1.62945637,-3.72816621,,,
imu,333.461117,0.1292010048,-9.7534795568,1.7005484104,0.05992275,1.81637912,-3.60105874,,,
imu,333.46959,0.1280046992,-9.7492924872,1.7083243968,0.03749201999999999,1.90610204,-3.66087402,,,
imu,333.478064,0.131593616,-9.7427128064,1.7113151608,0.11226112,1.9509635,-3.54872037,,,
imu,333.486538,0.131593616,-9.716992236000001,1.7232782168,0.23189168,1.99582496,-3.31693616,,,
imu,333.495011,0.1321917688,-9.711010708000002,1.722680064,0.23189168,2.07059406,-3.09262886,,,
imu,333.503485,0.1363788384,-9.7325442088,1.7262689808,0.11226112,2.07807097,-3.14496723,,,
imu,333.51195,0.1357806856,-9.7570684736,1.7274652864,0.1720764,2.13040934,-3.29450543,,,
imu,333.520415,0.1543234224,-9.746301723200002,1.7202874528,0.25432241,1.99582496,-3.59358183,,,
imu,333.52888,0.1638938672,-9.7086180968,1.7304560504,0.20198404,1.83133294,-4.04219643,,,
imu,333.537344,0.1381732968,-9.7265626808,1.7597655376,0.28423005,1.83133294,-4.26650373,,,
imu,333.545809,0.1190324072,-9.768433376800001,1.7573729264,0.46367589,1.91357895,-4.16182699,,,
imu,333.554274,0.113649032,-9.765442612800001,1.7609618432,0.34404533,1.98087114,-3.89265823,,,
imu,333.562739,0.116639796,-9.744507264800001,1.7818971912,0.20946095,2.07807097,-3.81041222,,,
imu,333.571204,0.1232194768,-9.737329431200001,1.7693359824,0.22441477,2.14536316,-3.70573548,,,
imu,333.579669,0.137575144,-9.714599624800002,1.7729248992,0.02253820000000001,2.12293243,-3.84031986,,,
imu,333.588133,0.1363788384,-9.683495679200002,1.7711304408,0.08235347999999998,2.12293243,-3.81041222,,,
imu,333.596598,0.125612088,-9.6667474008,1.7699341352,0.22441477,2.24256299,-3.84779677,,,
imu,333.605063,0.1160416432,-9.6709344704,1.7687378296,0.34404533,2.07059406,-4.04219643,,,
imu,333.613528,0.1190324072,-9.678112304,1.7627563016,0.41133752,2.0257326,-4.13191935,,,
imu,333.621993,0.1202287128,-9.668541859200001,1.7699341352,0.58330645,1.88367131,-4.17678081,,,
imu,333.630457,0.1130508792,-9.6733270816,1.7567747736,0.9272443100000001,1.98834805,-3.97490424,,,
imu,333.638922,0.1172379488,-9.685290137600001,1.7747193576,1.06182869,1.96591732,-3.87770441,,,
imu,333.647387,0.1094619624,-9.703832874400002,1.7723267464,1.15155161,1.95844041,-3.67582784,,,
imu,333.655852,0.101685976,-9.708019944000002,1.773523052,1.24127453,1.77151766,-3.57862801,,,
imu,333.664317,0.0980970592,-9.7331423616,1.7687378296,1.35342818,1.81637912,-3.60105874,,,
imu,333.672781,0.09450814240000002,-9.737927584000001,1.7639526072,1.45062801,1.89114822,-3.57862801,,,
imu,333.681246,0.1028822816,-9.741516500800001,1.7633544544,1.43567419,1.92105586,-3.45152054,,,
imu,333.689711,0.09929336480000002,-9.737927584000001,1.7567747736,1.46558183,1.9509635,-3.54124346,,,
imu,333.698176,0.1064711984,-9.7403201952,1.7519895512,1.48053565,1.91357895,-3.59358183,,,
imu,333.706641,0.1022841288,-9.7325442088,1.7519895512,1.47305874,1.99582496,-3.57862801,,,
imu,333.715112,0.1082656568,-9.745703570400002,1.7478024816,1.30856672,2.01077878,-3.60105874,,,
imu,333.723583,0.122621324,-9.7534795568,1.7478024816,1.368382,2.1752708,-3.59358183,,,
imu,333.732054,0.1292010048,-9.724170069600001,1.7430172592,1.45810492,2.15284007,-3.54872037,,,
imu,333.740525,0.1220231712,-9.7283571392,1.7388301896,1.30856672,2.08554788,-3.63844329,,,
imu,333.748997,0.128602852,-9.7301515976,1.7334468144,1.30856672,2.09302479,-3.69825857,,,
imu,333.757468,0.128602852,-9.7295534448,1.7412228008,1.368382,2.14536316,-3.69078166,,,
imu,333.765939,0.1250139352,-9.743310959200002,1.7472043288,1.43567419,2.15284007,-3.56367419,,,
imu,333.77441,0.1274065464,-9.748694334400001,1.7370357312,1.54782784,1.99582496,-3.58610492,,,
imu,333.782881,0.131593616,-9.748096181600001,1.7238763696,1.47305874,2.04816333,-3.5711511,,,
imu,333.791352,0.1321917688,-9.742114653600002,1.7310542032,1.32352054,2.08554788,-3.60853565,,,
imu,333.799824,0.13458438,-9.7337405144,1.722680064,1.33099745,2.00330187,-3.70573548,,,
imu,333.808295,0.1327899216,-9.743909112,1.7178948416,1.38333582,2.01077878,-3.68330475,,,
imu,333.816766,0.1363788384,-9.748096181600001,1.7161003832,1.45810492,2.16031698,-3.65339711,,,
imu,333.825237,0.1399677552,-9.7474980288,1.710717008,1.30856672,2.10797861,-3.65339711,,,
imu,333.833708,0.131593616,-9.748694334400001,1.7113151608,1.24875144,2.22760917,-3.62348947,,,
imu,333.842179,0.143556672,-9.754675862400001,1.7184929944,1.15902852,2.13788625,-3.72816621,,,
imu,332.471918,,,,,,,69.2270204,-5.120950800000013,11.090256
imu,332.581293,,,,,,,68.7265252,-3.839194800000012,13.043408
imu,332.682947,,,,,,,68.4335524,-4.339690000000007,13.08002959999999
imu,332.784418,,,,,,,68.4213452,-4.473969200000005,12.9701648
imu,332.886011,,,,,,,68.7265252,-4.681491600000021,12.738228
imu,332.987573,,,,,,,68.04292199999999,-4.388518800000019,12.62836319999999
imu,333.089105,,,,,,,68.1894084,-4.30306840000001,12.7626424
imu,333.190698,,,,,,,68.2504444,-4.315275600000024,12.92133599999999
imu,333.850651,0.1501363528,-9.748694334400001,1.713707772,1.20388998,1.89114822,-3.85527368,,,
imu,333.859122,0.1507345056,-9.7534795568,1.7244745224,1.12912088,2.03320951,-3.74312003,,,
imu,333.867593,0.1573141864,-9.754675862400001,1.7155022304,1.05435178,2.01825569,-3.93004278,,,
imu,333.876064,0.1483418944,-9.749890640000002,1.7161003832,1.17398234,2.01825569,-3.90013514,,,
imu,333.884535,0.1501363528,-9.743909112,1.7095207024,1.12164397,1.90610204,-3.81041222,,,
imu,333.893006,0.1453511304,-9.736731278400002,1.7149040776,0.97210577,1.7266562,-3.75059694,,,
imu,333.901478,0.1489400472,-9.737927584000001,1.7125114664,1.03939796,1.70422547,-3.77302767,,,
imu,333.909949,0.1447529776,-9.7474980288,1.716698536,1.00949032,1.56216418,-3.61601256,,,
imu,333.918407,0.1339862272,-9.746899876,1.7214837584,0.82256757,1.58459491,-3.62348947,,,
imu,333.926866,0.1268083936,-9.7325442088,1.707726244,0.7403215599999999,1.47991817,-3.71321239,,,
imu,333.935324,0.1142471848,-9.739123889600002,1.713707772,0.8674290299999999,1.577118,-3.71321239,,,
imu,333.943783,0.110658268,-9.743310959200002,1.7161003832,0.71789083,1.61450255,-3.69078166,,,
imu,333.952241,0.10467674,-9.748694334400001,1.7155022304,0.6281679099999999,1.69674856,-3.75059694,,,
imu,333.9607,0.107667504,-9.7504887928,1.713707772,0.58330645,1.66684092,-3.81788913,,,
imu,333.969158,0.08792846160000001,-9.746899876,1.7208856056,0.44124516,1.58459491,-4.0197657,,,
imu,333.977616,0.09151737840000002,-9.7427128064,1.722680064,0.6281679099999999,1.77899457,-3.92256587,,,
imu,333.986075,0.09869521200000002,-9.744507264800001,1.7262689808,0.5010604399999999,1.97339423,-3.90013514,,,
imu,333.994533,0.101685976,-9.7361331256,1.7334468144,0.56835263,2.11545552,-3.92256587,,,
imu,334.002992,0.1052748928,-9.7331423616,1.725670828,0.6281679099999999,2.09302479,-3.8702275,,,
imu,334.01145,0.1082656568,-9.734936820000001,1.7298578976,0.6132140899999999,2.01825569,-3.99733497,,,
imu,334.019909,0.1178361016,-9.743310959200002,1.7448117176,0.620691,2.00330187,-3.99733497,,,
imu,334.028367,0.110658268,-9.748096181600001,1.7388301896,0.7403215599999999,2.04816333,-3.7954584,,,
imu,334.036826,0.125612088,-9.7504887928,1.74959694,0.7702292,2.18274771,-3.63096638,,,
imu,334.045284,0.125612088,-9.743310959200002,1.7543821624,0.620691,2.05564024,-3.7206893,,,
imu,334.053743,0.107667504,-9.735534972800002,1.7579710792,0.65059864,1.93600968,-3.61601256,,,
imu,334.062201,0.1130508792,-9.739722042400002,1.7531858568,0.47862971,1.92105586,-3.5711511,,,
imu,334.070659,0.0980970592,-9.7540777096,1.7549803152,0.43376825,1.8761944,-3.51881273,,,
imu,334.079118,0.10467674,-9.740918348000001,1.7472043288,0.3216146,1.83133294,-3.52628964,,,
imu,334.087576,0.1082656568,-9.7056273328,1.7531858568,0.4711528,1.77899457,-3.5711511,,,
imu,334.096035,0.08852661440000001,-9.6918698184,1.7633544544,0.36647606,1.8014253,-3.43656672,,,
imu,334.104493,0.08433954480000001,-9.7086180968,1.7549803152,0.59078336,1.91357895,-3.17487487,,,
imu,334.112952,0.07716171120000001,-9.731347903200001,1.7531858568,0.77770611,2.06311715,-2.88327538,,,
imu,334.121769,0.09091922560000001,-9.734338667200001,1.752587704,0.82256757,2.30237827,-2.748691,,,
imu,334.130586,0.107667504,-9.737927584000001,1.7549803152,0.9272443100000001,2.46687029,-2.76364482,,,
imu,334.139403,0.1262102408,-9.730749750400001,1.7543821624,0.9571519499999999,2.57902394,-3.07019813,,,
imu,334.148219,0.1280046992,-9.727758986400001,1.7472043288,0.9197674,2.5491163,-3.36927453,,,
imu,334.157036,0.1214250184,-9.7151977776,1.7364375784,0.9197674,2.64631613,-3.66835093,,,
imu,334.165853,0.110658268,-9.713403319200001,1.7364375784,1.09173633,2.70613141,-3.78050458,,,
imu,334.17467,0.1280046992,-9.7283571392,1.7143059248,0.94967504,2.80333124,-4.02724261,,,
imu,334.183487,0.1357806856,-9.715795930400002,1.7244745224,1.11416706,2.83323888,-4.02724261,,,
imu,334.192304,0.1453511304,-9.7295534448,1.7292597448,1.12164397,2.87810034,-4.057150249999999,,,
imu,334.201121,0.1537252696,-9.745703570400002,1.7364375784,1.15902852,2.80333124,-4.146873169999999,,,
imu,334.209938,0.1501363528,-9.7576666264,1.7334468144,1.21136689,2.60893158,-4.124442439999999,,,
imu,334.218755,0.1363788384,-9.7540777096,1.7412228008,0.9571519499999999,2.56407012,-4.16182699,,,
imu,334.227572,0.1351825328,-9.7570684736,1.746606176,0.88985976,2.48182411,-4.124442439999999,,,
imu,334.236389,0.1429585192,-9.7540777096,1.7537840096,0.67302937,2.37714737,-4.18425772,,,
imu,334.245206,0.1471455888,-9.7534795568,1.7460080232,0.46367589,2.33228591,-4.15435008,,,
imu,334.254023,0.1471455888,-9.728955292000002,1.7609618432,0.38142988,2.24256299,-4.06462716,,,
imu,334.26284,0.1363788384,-9.715795930400002,1.767541524,0.29170696,2.19022462,-3.95995042,,,
imu,334.271656,0.1309954632,-9.7128051664,1.7687378296,0.23189168,2.18274771,-3.97490424,,,
imu,334.280473,0.1172379488,-9.724768222400002,1.776513816,0.14216876,2.1005017,-3.98985806,,,
imu,334.28929,0.113649032,-9.720581152800001,1.7842898024,0.26179932,2.07059406,-4.02724261,,,
imu,334.298107,0.1118545736,-9.7361331256,1.7926639416,0.46367589,2.08554788,-3.97490424,,,
imu,334.306924,0.1112564208,-9.7295534448,1.7860842608,0.50853735,2.11545552,-3.84031986,,,
imu,334.315741,0.1142471848,-9.723571916800001,1.7807008856,0.5010604399999999,2.10797861,-3.80293531,,,
imu,334.324217,0.110658268,-9.703832874400002,1.8028325392,0.7253677399999999,1.98087114,-3.7206893,,,
imu,334.332694,0.11963056,-9.706823638400001,1.788476872,0.9048135799999999,2.11545552,-3.52628964,,,
imu,334.34117,0.1292010048,-9.714001472000001,1.7932620944,0.97210577,1.97339423,-3.48142818,,,
imu,334.349646,0.1118545736,-9.7331423616,1.7920657888,1.03192105,1.83133294,-3.58610492,,,
imu,334.358122,0.1190324072,-9.702038416,1.785486108,0.91229049,1.77151766,-3.6459202,,,
imu,334.366599,0.1064711984,-9.672728928800002,1.7998417752,1.03939796,1.76404075,-3.66835093,,,
imu,334.375075,0.09151737840000002,-9.686486443200002,1.8016362336,1.20388998,1.83880985,-3.51881273,,,
imu,334.383551,0.08912476720000001,-9.696655040800001,1.7848879552,1.2188438,2.06311715,-3.25712088,,,
imu,334.392027,0.0933118368,-9.7056273328,1.7848879552,1.27865908,2.13788625,-3.07019813,,,
imu,334.400393,0.1010878232,-9.693066124000001,1.77950458,1.36090509,2.21265535,-3.15244414,,,
imu,334.408869,0.11963056,-9.7056273328,1.7681396768,1.368382,2.19770153,-3.11505959,,,
imu,334.417345,0.116639796,-9.70502918,1.7579710792,1.4431511,2.33228591,-3.10010577,,,
imu,334.425822,0.1238176296,-9.700243957600001,1.7513913984,1.61512003,2.42200883,-3.24216706,,,
imu,334.434298,0.1393696024,-9.714001472000001,1.743615412,1.87681188,2.44443956,-3.45899745,,,
imu,334.442774,0.140565908,-9.7283571392,1.737633884,1.99644244,2.4743472,-3.57862801,,,
imu,334.45125,0.1519308112,-9.745703570400002,1.7292597448,2.03382699,2.56407012,-3.65339711,,,
imu,334.459727,0.16449202,-9.748694334400001,1.7274652864,2.02635008,2.42948574,-3.69825857,,,
imu,334.468203,0.1872218264,-9.735534972800002,1.7161003832,1.95905789,2.42948574,-3.60105874,,,
imu,334.476679,0.1902125904,-9.739722042400002,1.7208856056,1.8917657,2.27247063,-3.54124346,,,
imu,334.485155,0.185427368,-9.754675862400001,1.7119133136,1.93662716,1.98834805,-3.69078166,,,
imu,334.493632,0.17944584,-9.769629682400002,1.7083243968,1.86933497,1.77899457,-3.77302767,,,
imu,334.502108,0.1626975616,-9.766040765600001,1.7059317856,1.84690424,1.66684092,-3.6459202,,,
imu,334.510584,0.1519308112,-9.763050001600002,1.7029410216,1.75718132,1.52477963,-3.54872037,,,
imu,334.51906,0.143556672,-9.7636481544,1.6963613408,1.63007385,1.24065705,-3.47395127,,,
imu,334.527523,0.1303973104,-9.779798280000001,1.6951650352,1.46558183,1.15841104,-3.5711511,,,
imu,334.535985,0.1064711984,-9.763050001600002,1.6939687296,1.35342818,1.08364194,-3.54872037,,,
imu,334.544447,0.09570444800000001,-9.752881404000002,1.6909779656,1.2936129,1.14345722,-3.496382,,,
imu,334.552909,0.08433954480000001,-9.760059237600002,1.6760241456,1.06182869,1.1285034,-3.36927453,,,
imu,334.561372,0.06519865520000001,-9.7534795568,1.7023428688,1.12912088,1.26308778,-3.24964397,,,
imu,334.569834,0.05443190480000001,-9.758862932000001,1.701744716,1.19641307,1.63693328,-3.08515195,,,
imu,334.578296,0.06160973840000001,-9.764246307200002,1.6951650352,1.01696723,1.74908693,-3.08515195,,,
imu,334.586759,0.0675912664,-9.7786019744,1.6945668824,0.8375213899999999,1.95844041,-3.0477674,,,
imu,334.595221,0.0675912664,-9.7809945856,1.695763188,0.59078336,1.98834805,-3.10758268,,,
imu,334.603683,0.068787572,-9.772022293600001,1.7071280912,0.3963837,2.20517844,-3.10010577,,,
imu,334.612145,0.08673215600000002,-9.766040765600001,1.7101188552,0.53844499,2.37714737,-3.02533667,,,
imu,334.620608,0.09151737840000002,-9.7534795568,1.710717008,0.33656842,2.42948574,-3.08515195,,,
imu,334.62907,0.092713684,-9.7492924872,1.7101188552,0.35152224,2.63883922,-3.10010577,,,
imu,334.637532,0.1022841288,-9.743909112,1.7083243968,0.49358353,2.63136231,-3.16739796,,,
imu,334.645994,0.11963056,-9.745703570400002,1.70473548,0.51601426,2.57154703,-3.14496723,,,
imu,334.654457,0.1303973104,-9.758264779200001,1.7304560504,0.68798319,2.6238854,-3.10010577,,,
imu,334.662919,0.137575144,-9.7570684736,1.7268671336,0.52349117,2.68370068,-3.16739796,,,
imu,333.292328,,,,,,,70.83837079999999,-5.084329200000015,9.857328799999998
imu,333.393707,,,,,,,68.56783159999999,-4.278654000000004,12.46966959999999
imu,333.495239,,,,,,,70.1425604,-4.852392400000016,10.4676888
imu,333.596802,,,,,,,68.68990360000001,-4.058924400000019,12.7870568
imu,333.698364,,,,,,,68.68990360000001,-4.473969200000005,12.56732719999999
imu,333.800049,,,,,,,68.6044532,-4.571626800000006,12.61615599999999
imu,333.901733,,,,,,,68.4213452,-3.39973560000002,12.8847144
imu,334.003204,,,,,,,68.92184040000001,-3.997888400000016,12.6893992
imu,334.671381,0.143556672,-9.7612555432,1.7202874528,0.43376825,2.6238854,-3.15992105,,,
imu,334.679843,0.1513326584,-9.789368724800001,1.7214837584,0.49358353,2.60893158,-2.96552139,,,
imu,334.688306,0.161501256,-9.785779808000001,1.710717008,0.19450713,2.46687029,-2.92065993,,,
imu,334.696768,0.170473548,-9.749890640000002,1.7262689808,0.0001074699999999984,2.46687029,-3.02533667,,,
imu,334.70523,0.1812402984,-9.738525736800002,1.7328486616,-0.25410747,2.36219355,-2.96552139,,,
imu,334.713693,0.1788476872,-9.748694334400001,1.7358394256,-0.32139966,2.19022462,-2.94309066,,,
imu,334.722155,0.1782495344,-9.751685098400001,1.7430172592,-0.29149202,2.16031698,-2.95804448,,,
imu,334.730621,0.1842310624,-9.724170069600001,1.7573729264,-0.26906129,2.14536316,-2.98795212,,,
imu,334.739087,0.1830347568,-9.710412555200001,1.758569232,-0.26906129,1.98834805,-2.99542903,,,
imu,334.747553,0.1860255208,-9.7056273328,1.7627563016,-0.35878421,1.96591732,-3.10758268,,,
imu,334.756019,0.1788476872,-9.701440263200002,1.7848879552,-0.2765382,1.98087114,-3.17487487,,,
imu,334.764485,0.1848292152,-9.697851346400002,1.7878787192,-0.09709236,1.98834805,-3.08515195,,,
imu,334.772951,0.1716698536,-9.70502918,1.8016362336,-0.11204618,2.01825569,-3.22721324,,,
imu,334.781417,0.17944584,-9.711608860800002,1.8016362336,-0.06718472,2.01825569,-3.30198234,,,
imu,334.789884,0.1860255208,-9.7151977776,1.8052251504,-0.11952309,2.04816333,-3.39918217,,,
imu,334.79835,0.1812402984,-9.718786694400002,1.8267586512,-0.14195382,1.8761944,-3.67582784,,,
imu,334.806816,0.1752587704,-9.716992236000001,1.8297494152,0.1720764,1.97339423,-3.76555076,,,
imu,334.815282,0.1776513816,-9.711608860800002,1.8297494152,0.0001074699999999984,1.96591732,-3.85527368,,,
imu,334.823748,0.182436604,-9.703832874400002,1.8470958464,-0.02980017,1.98087114,-3.90013514,,,
imu,334.832214,0.1770532288,-9.685290137600001,1.8524792216,0.07487657,2.08554788,-4.10948862,,,
imu,334.84068,0.176455076,-9.672130776000001,1.8470958464,0.20198404,2.10797861,-4.08705789,,,
imu,334.849146,0.191408896,-9.648802816800002,1.8488903048,0.3889067899999999,2.2500399,-3.93751969,,,
imu,334.857612,0.197390424,-9.654784344800001,1.8464976936,0.63564482,2.16779389,-3.91508896,,,
imu,334.866078,0.206362716,-9.644615747200001,1.8518810688,0.81509066,2.09302479,-3.81041222,,,
imu,334.874544,0.2009793408,-9.640428677600001,1.851282916,1.09173633,2.08554788,-3.80293531,,,
imu,334.88301,0.2195220776,-9.633848996800001,1.8536755272,1.31604363,1.85376367,-3.81041222,,,
imu,334.891477,0.2177276192,-9.633848996800001,1.8357309432,1.46558183,1.67431783,-3.78050458,,,
imu,334.899943,0.2081571744,-9.6087265792,1.8464976936,1.70484295,1.49487199,-3.69825857,,,
imu,334.908409,0.1932033544,-9.664952942400001,1.8285531096,1.85438115,1.32290306,-3.63844329,,,
imu,334.916875,0.173464312,-9.711608860800002,1.830347568,2.16841137,1.17336486,-3.61601256,,,
imu,334.925341,0.1668846312,-9.7331423616,1.8261604984,2.21327283,0.9565344699999998,-3.75059694,,,
imu,334.933804,0.1656883256,-9.734338667200001,1.8112066784,2.10859609,0.7696117199999999,-3.95247351,,,
imu,334.942268,0.1333880744,-9.711010708000002,1.800439928,2.28804193,0.6873657099999999,-3.95247351,,,
imu,334.950732,0.1148453376,-9.713403319200001,1.8058233032,2.46748777,0.9939190199999999,-3.44404363,,,
imu,334.959195,0.1124527264,-9.7576666264,1.7711304408,2.55721069,1.2032725,-3.21225942,,,
imu,334.967659,0.1184342544,-9.766040765600001,1.7501950928,2.57216451,1.4275798,-3.28702852,,,
imu,334.976122,0.1429585192,-9.7474980288,1.7412228008,2.66936434,1.53225654,-3.41413599,,,
imu,334.984586,0.1459492832,-9.752283251200002,1.725670828,2.61702597,1.65936401,-3.72816621,,,
imu,334.993049,0.1399677552,-9.7534795568,1.6939687296,2.54225687,1.69674856,-4.146873169999999,,,
imu,335.001513,0.1363788384,-9.743310959200002,1.6885853544,2.6394567,1.66684092,-4.32631901,,,
imu,335.009976,0.1417622136,-9.7510869456,1.6861927432,2.63197979,1.74161002,-4.47585721,,,
imu,335.01844,0.1321917688,-9.758264779200001,1.677818604,2.60207215,1.7266562,-4.57305704,,,
imu,335.026903,0.152528964,-9.761853696000001,1.6754259928,2.38524176,1.71917929,-4.57305704,,,
imu,335.035367,0.161501256,-9.768433376800001,1.6694444648,2.17588828,1.75656384,-4.30388828,,,
imu,335.04383,0.1632957144,-9.762451848800001,1.6664537008,1.95158098,1.66684092,-4.27398064,,,
imu,335.052294,0.1543234224,-9.767835224,1.668846312,1.8169966,1.61450255,-4.11696553,,,
imu,335.060758,0.1387714496,-9.762451848800001,1.6652573952,1.70484295,1.47991817,-3.9449966,,,
imu,335.069221,0.125612088,-9.7809945856,1.6664537008,1.48801256,1.32290306,-3.88518132,,,
imu,335.077685,0.113649032,-9.777405668800002,1.6760241456,1.40576655,1.2780416,-3.7954584,,,
imu,335.086148,0.113649032,-9.779200127200001,1.67482784,1.1440747,1.24813396,-3.89265823,,,
imu,335.094612,0.1088638096,-9.802528086400002,1.6814075208,0.97210577,1.32290306,-3.86275059,,,
imu,335.103075,0.09690075360000001,-9.803126239200001,1.6909779656,0.80013684,1.47244126,-3.86275059,,,
imu,335.111539,0.08673215600000002,-9.803126239200001,1.710717008,0.7253677399999999,1.56964109,-3.81788913,,,
imu,335.120002,0.08433954480000001,-9.8144911424,1.7083243968,0.65807555,1.80890221,-3.78798149,,,
imu,335.128466,0.08733030880000002,-9.8132948368,1.7184929944,0.51601426,1.96591732,-3.75807385,,,
imu,335.137279,0.08912476720000001,-9.802528086400002,1.7172966888,0.31413769,2.12293243,-3.77302767,,,
imu,335.146092,0.09749890640000002,-9.767237071200002,1.7280634392,0.02253820000000001,2.324809,-3.63096638,,,
imu,335.154905,0.113649032,-9.7492924872,1.7418209536,-0.03727708,2.51173175,-3.48142818,,,
imu,335.163718,0.13458438,-9.727758986400001,1.74959694,-0.19429219,2.63136231,-3.44404363,,,
imu,335.172531,0.1423603664,-9.737329431200001,1.7424191064,-0.09709236,2.6986545,-3.44404363,,,
imu,335.181344,0.1710717008,-9.721179305600002,1.7370357312,-0.14195382,2.56407012,-3.57862801,,,
imu,335.190157,0.1812402984,-9.663158484000002,1.7489987872,-0.17933837,2.31733209,-3.76555076,,,
imu,335.198969,0.16449202,-9.632054538400002,1.7717285936,0.007584380000000002,2.14536316,-3.7954584,,,
imu,335.207782,0.155519728,-9.665551095200001,1.758569232,0.2468455,2.12293243,-3.59358183,,,
imu,335.216595,0.1513326584,-9.676317845600002,1.7681396768,0.34404533,1.98087114,-3.30945925,,,
imu,335.225408,0.1519308112,-9.690673512800002,1.7747193576,0.56835263,1.91357895,-3.09262886,,,
imu,335.234221,0.155519728,-9.693066124000001,1.785486108,0.6132140899999999,1.91357895,-2.98047521,,,
imu,335.243034,0.1591086448,-9.694860582400002,1.7860842608,0.7104139199999999,1.74908693,-3.08515195,,,
imu,335.251847,0.1471455888,-9.704431027200002,1.7801027328,0.80761375,1.59954873,-3.13749032,,,
imu,335.26066,0.1238176296,-9.710412555200001,1.7836916496,0.91229049,1.60702564,-3.27955161,,,
imu,335.269473,0.122621324,-9.730749750400001,1.7848879552,0.9048135799999999,1.59954873,-3.51881273,,,
imu,335.278286,0.1112564208,-9.7265626808,1.7866824136,1.09921324,1.77899457,-3.5711511,,,
imu,335.287099,0.113649032,-9.722973764,1.7920657888,1.08425942,1.94348659,-3.48142818,,,
imu,335.295912,0.1178361016,-9.723571916800001,1.7842898024,1.10669015,2.06311715,-3.44404363,,,
imu,335.304725,0.128602852,-9.721179305600002,1.7848879552,1.03192105,2.12293243,-3.37675144,,,
imu,335.313538,0.1363788384,-9.744507264800001,1.7663452184,1.09173633,2.2500399,-3.31693616,,,
imu,335.322351,0.1453511304,-9.743310959200002,1.7639526072,1.0693056,2.33976282,-3.3468438,,,
imu,335.331164,0.155519728,-9.745703570400002,1.7669433712,1.09921324,2.44443956,-3.28702852,,,
imu,335.339639,0.1567160336,-9.725964528,1.7663452184,1.09173633,2.37714737,-3.48890509,,,
imu,335.348114,0.1686790896,-9.724768222400002,1.7609618432,0.97210577,2.3995781,-3.56367419,,,
imu,335.356589,0.170473548,-9.724170069600001,1.7597655376,0.97210577,2.37714737,-3.50385891,,,
imu,335.365064,0.170473548,-9.722375611200002,1.7543821624,1.08425942,2.324809,-3.4216129,,,
imu,335.373539,0.1716698536,-9.7074217912,1.7460080232,0.97958268,2.33228591,-3.45152054,,,
imu,335.382014,0.1788476872,-9.719983000000001,1.7549803152,1.15902852,2.23508608,-3.35432071,,,
imu,335.390489,0.182436604,-9.7295534448,1.7501950928,1.18145925,2.1752708,-3.24964397,,,
imu,335.398964,0.182436604,-9.727160833600001,1.7501950928,1.23379762,2.16031698,-3.26459779,,,
imu,335.407439,0.1818384512,-9.727160833600001,1.7484006344,1.30108981,2.12293243,-3.18982869,,,
imu,335.415913,0.1782495344,-9.725964528,1.7567747736,1.0693056,2.03320951,-3.32441307,,,
imu,335.424388,0.1668846312,-9.7295534448,1.7603636904,1.19641307,2.0257326,-3.36179762,,,
imu,335.432863,0.1662864784,-9.730749750400001,1.76455076,1.30108981,1.89114822,-3.36179762,,,
imu,335.441338,0.155519728,-9.7265626808,1.7681396768,1.20388998,1.95844041,-3.39918217,,,
imu,335.449813,0.1543234224,-9.710412555200001,1.76455076,1.1440747,2.01077878,-3.38422835,,,
imu,335.458288,0.161501256,-9.706225485600001,1.7711304408,1.28613599,2.06311715,-3.39918217,,,
imu,335.466763,0.1632957144,-9.719983000000001,1.758569232,1.45810492,2.14536316,-3.26459779,,,
imu,335.475238,0.1716698536,-9.727758986400001,1.7597655376,1.40576655,2.1005017,-3.39918217,,,
imu,335.483713,0.1752587704,-9.731347903200001,1.7591673848,1.30108981,2.09302479,-3.66087402,,,
imu,334.104645,,,,,,,68.16499400000001,-4.058924400000019,12.433048
imu,334.206177,,,,,,,70.74071319999999,-4.034510000000013,12.46966959999999
imu,334.307739,,,,,,,68.4213452,-3.753744400000003,12.54291279999999
imu,334.409393,,,,,,,70.8749924,-4.803563600000005,9.53994159999999
imu,334.510864,,,,,,,68.6044532,-4.449554800000022,12.84809279999999
imu,334.61264,,,,,,,70.8871996,-4.840185200000002,10.6996256
imu,334.713989,,,,,,,68.4213452,-3.643879600000011,13.1166512
imu,334.815552,,,,,,,68.2382372,-3.436357200000018,12.92133599999999
imu,335.492051,0.1812402984,-9.7474980288,1.7633544544,1.42072037,2.33228591,-3.57862801,,,
imu,335.500526,0.1812402984,-9.7576666264,1.7663452184,1.27118217,2.11545552,-3.62348947,,,
imu,335.509001,0.1848292152,-9.756470320800002,1.7597655376,1.15902852,2.06311715,-3.5711511,,,
imu,335.517476,0.1878199792,-9.752881404000002,1.7597655376,1.27118217,2.16779389,-3.73564312,,,
imu,335.525951,0.191408896,-9.754675862400001,1.7567747736,1.35342818,2.10797861,-3.67582784,,,
imu,335.534426,0.1932033544,-9.7612555432,1.76455076,1.37585891,1.97339423,-3.71321239,,,
imu,335.542891,0.1866236736,-9.764246307200002,1.76455076,1.33099745,2.13788625,-3.78798149,,,
imu,335.551356,0.1949978128,-9.794153947200002,1.767541524,1.03939796,2.00330187,-3.76555076,,,
imu,335.55982,0.185427368,-9.776209363200001,1.770532288,0.9048135799999999,1.93600968,-3.81041222,,,
imu,335.568285,0.1848292152,-9.772620446400001,1.7567747736,0.81509066,1.79394839,-3.93004278,,,
imu,335.57675,0.1800439928,-9.7821908912,1.7430172592,0.76275229,1.6518871,-3.98238115,,,
imu,335.585215,0.1776513816,-9.767237071200002,1.7358394256,0.6281679099999999,1.54721036,-3.99733497,,,
imu,335.59368,0.1656883256,-9.727758986400001,1.7370357312,0.53844499,1.6518871,-4.0945348,,,
imu,335.602145,0.1609031032,-9.708019944000002,1.7513913984,0.3963837,1.68927165,-4.20668845,,,
imu,335.610609,0.1501363528,-9.708019944000002,1.7388301896,0.6281679099999999,1.64441019,-4.13939626,,,
imu,335.619074,0.1459492832,-9.702038416,1.7424191064,0.6954601,1.69674856,-4.15435008,,,
imu,335.627539,0.131593616,-9.6775141512,1.7484006344,0.68798319,1.78647148,-3.93004278,,,
imu,335.636004,0.122621324,-9.660765872800003,1.755578468,0.7253677399999999,1.83880985,-3.74312003,,,
imu,335.644469,0.1309954632,-9.672728928800002,1.7442135648,0.9571519499999999,1.86871749,-3.496382,,,
imu,335.652933,0.131593616,-9.680504915200002,1.7537840096,0.94219813,1.90610204,-3.40665908,,,
imu,335.661398,0.1178361016,-9.704431027200002,1.7687378296,1.16650543,1.92105586,-3.40665908,,,
imu,335.669863,0.1088638096,-9.7331423616,1.7723267464,1.25622835,2.01825569,-3.24964397,,,
imu,335.678328,0.1124527264,-9.7612555432,1.7729248992,1.11416706,2.1005017,-3.14496723,,,
imu,335.686793,0.1130508792,-9.793555794400001,1.770532288,1.00949032,2.16031698,-3.18982869,,,
imu,335.695257,0.1178361016,-9.785181655200002,1.7543821624,0.9048135799999999,2.14536316,-3.20478251,,,
imu,335.703722,0.1202287128,-9.746899876,1.7549803152,0.8449983,2.16031698,-3.37675144,,,
imu,335.712187,0.1250139352,-9.7325442088,1.7501950928,0.8524752099999999,2.22760917,-3.46647436,,,
imu,335.720652,0.09989151760000002,-9.728955292000002,1.7460080232,1.09173633,2.29490136,-3.41413599,,,
imu,335.729117,0.1070693512,-9.738525736800002,1.7394283424,1.24875144,2.51173175,-3.33936689,,,
imu,335.737582,0.1154434904,-9.7474980288,1.7178948416,1.48801256,2.63136231,-3.42908981,,,
imu,335.746044,0.1238176296,-9.728955292000002,1.7274652864,1.57025857,2.63136231,-3.60853565,,,
imu,335.754506,0.1369769912,-9.739123889600002,1.7322505088,1.56278166,2.50425484,-3.68330475,,,
imu,335.762968,0.1309954632,-9.756470320800002,1.7262689808,1.41324346,2.54163939,-3.75807385,,,
imu,335.771431,0.1369769912,-9.748096181600001,1.7202874528,1.33099745,2.68370068,-3.63096638,,,
imu,335.779893,0.1537252696,-9.728955292000002,1.7202874528,1.07678251,2.74351596,-3.62348947,,,
imu,335.788355,0.1603049504,-9.725366375200002,1.7089225496,0.94219813,2.72856214,-3.63096638,,,
imu,335.796817,0.1740624648,-9.7122070136,1.7143059248,0.9347212199999999,2.66874686,-3.42908981,,,
imu,335.80528,0.1752587704,-9.70502918,1.7143059248,1.03939796,2.67622377,-3.25712088,,,
imu,335.813742,0.1806421456,-9.703832874400002,1.716698536,1.04687487,2.72108523,-3.29450543,,,
imu,335.822204,0.1896144376,-9.716992236000001,1.728661592,1.03939796,2.60145467,-3.4216129,,,
imu,335.830666,0.182436604,-9.7325442088,1.7472043288,0.91229049,2.45939338,-3.40665908,,,
imu,335.839129,0.1812402984,-9.727758986400001,1.7567747736,0.8749059399999999,2.36967046,-3.32441307,,,
imu,335.847591,0.1908107432,-9.7540777096,1.74959694,1.05435178,2.2500399,-3.41413599,,,
imu,335.856053,0.17944584,-9.7786019744,1.7489987872,0.9048135799999999,2.13788625,-3.48142818,,,
imu,335.864516,0.1878199792,-9.7923594888,1.7412228008,0.7702292,2.22760917,-3.28702852,,,
imu,335.872978,0.1788476872,-9.7953502528,1.7358394256,0.59078336,2.09302479,-3.38422835,,,
imu,335.88144,0.170473548,-9.759461084800002,1.752587704,0.52349117,2.11545552,-3.39918217,,,
imu,335.889902,0.1758569232,-9.800135475200001,1.731652356,0.620691,2.16031698,-3.48890509,,,
imu,335.898365,0.1836329096,-9.775611210400001,1.752587704,0.5982602699999999,2.26499372,-3.31693616,,,
imu,335.906827,0.1890162848,-9.727160833600001,1.7663452184,0.53844499,2.33976282,-3.04029049,,,
imu,335.915289,0.188418132,-9.731946056000002,1.752587704,0.29918387,2.25751681,-2.98047521,,,
imu,335.923751,0.1878199792,-9.7492924872,1.7573729264,0.11226112,2.2500399,-3.11505959,,,
imu,335.932214,0.2051664104,-9.730749750400001,1.7579710792,0.14216876,2.22760917,-3.17487487,,,
imu,335.940676,0.2177276192,-9.679308609600001,1.7657470656,0.07487657,2.07059406,-3.42908981,,,
imu,335.949468,0.2069608688,-9.6799067624,1.7741212048,0.09730729999999999,1.9509635,-3.7206893,,,
imu,335.958259,0.2039701048,-9.709216249600003,1.7549803152,0.34404533,1.97339423,-3.63844329,,,
imu,335.967051,0.1949978128,-9.723571916800001,1.758569232,0.5010604399999999,1.88367131,-3.46647436,,,
imu,335.975842,0.206362716,-9.709216249600003,1.776513816,0.58330645,1.96591732,-3.41413599,,,
imu,335.984634,0.2045682576000001,-9.708019944000002,1.7830934968,0.5982602699999999,1.98087114,-3.63096638,,,
imu,335.993426,0.2099516328,-9.734936820000001,1.7771119688,0.65807555,1.92853277,-3.6459202,,,
imu,336.002217,0.2117460912,-9.722973764,1.7579710792,0.7104139199999999,1.9509635,-3.5711511,,,
imu,336.011009,0.1949978128,-9.692467971200001,1.7537840096,0.55339881,1.96591732,-3.92256587,,,
imu,336.0198,0.1926052016,-9.692467971200001,1.7597655376,0.7253677399999999,1.91357895,-4.012288789999999,,,
imu,336.028592,0.1908107432,-9.694860582400002,1.7543821624,0.76275229,1.89114822,-4.06462716,,,
imu,336.037384,0.1872218264,-9.7128051664,1.7567747736,0.9646288599999999,1.90610204,-4.057150249999999,,,
imu,336.046175,0.2039701048,-9.7128051664,1.7639526072,1.07678251,1.88367131,-4.02724261,,,
imu,336.054967,0.2117460912,-9.730749750400001,1.767541524,1.08425942,1.83133294,-4.06462716,,,
imu,336.063758,0.2159331608,-9.7427128064,1.7621581488,1.16650543,1.73413311,-4.13191935,,,
imu,336.07255,0.2243073,-9.746301723200002,1.7783082744,1.11416706,1.62197946,-4.17678081,,,
imu,336.081342,0.2111479384,-9.746899876,1.7639526072,0.9197674,1.53973345,-4.19921154,,,
imu,336.090133,0.1997830352,-9.738525736800002,1.7753175104,0.8524752099999999,1.42010289,-4.07210407,,,
imu,336.098925,0.2021756464,-9.728955292000002,1.767541524,0.91229049,1.28551851,-4.16182699,,,
imu,336.107717,0.1872218264,-9.724768222400002,1.7693359824,1.09921324,1.21074941,-4.10948862,,,
imu,336.116508,0.1722680064,-9.7283571392,1.7711304408,1.28613599,1.09111885,-4.06462716,,,
imu,336.1253,0.1656883256,-9.718188541600002,1.7830934968,1.20388998,1.09111885,-4.13191935,,,
imu,336.134091,0.1459492832,-9.7283571392,1.7789064272,1.19641307,1.03878048,-4.079580979999999,,,
imu,336.142883,0.1411640608,-9.745105417600001,1.773523052,1.20388998,1.10607267,-4.057150249999999,,,
imu,336.151675,0.128602852,-9.740918348000001,1.7807008856,1.07678251,1.07616503,-4.04967334,,,
imu,336.160136,0.1280046992,-9.724170069600001,1.7848879552,1.09173633,1.34533379,-3.84031986,,,
imu,336.168597,0.1274065464,-9.7265626808,1.785486108,0.9571519499999999,1.48739508,-3.69078166,,,
imu,336.177058,0.1357806856,-9.725964528,1.7717285936,0.97210577,1.71917929,-3.73564312,,,
imu,336.185519,0.1477437416,-9.711010708000002,1.7777101216,1.00201341,1.80890221,-3.78050458,,,
imu,336.19398,0.1471455888,-9.7074217912,1.7747193576,0.9870595899999999,1.63693328,-3.80293531,,,
imu,336.202441,0.1567160336,-9.7128051664,1.785486108,1.15155161,1.88367131,-3.75807385,,,
imu,336.210902,0.1591086448,-9.709216249600003,1.7807008856,1.06182869,1.89862513,-3.91508896,,,
imu,336.219363,0.1591086448,-9.704431027200002,1.7860842608,1.05435178,1.89114822,-3.95995042,,,
imu,336.227824,0.1662864784,-9.708019944000002,1.7789064272,1.2188438,1.8014253,-3.9449966,,,
imu,336.236285,0.1710717008,-9.7086180968,1.7753175104,1.27118217,1.56216418,-4.04219643,,,
imu,336.244746,0.1561178808,-9.6984494992,1.785486108,1.24127453,1.56964109,-4.10948862,,,
imu,336.253207,0.155519728,-9.7008421104,1.7783082744,1.42072037,1.56216418,-3.95247351,,,
imu,336.261668,0.1393696024,-9.689477207200001,1.7741212048,1.57773548,1.58459491,-3.89265823,,,
imu,336.270129,0.1339862272,-9.6846919848,1.7729248992,1.6674584,1.63693328,-3.81788913,,,
imu,336.27859,0.1220231712,-9.680504915200002,1.7687378296,1.82447351,1.49487199,-3.73564312,,,
imu,336.287051,0.1088638096,-9.685290137600001,1.7537840096,1.90671952,1.45001053,-3.76555076,,,
imu,336.295512,0.09151737840000002,-9.711608860800002,1.7484006344,2.13102682,1.47244126,-3.6459202,,,
imu,336.303973,0.08254508640000002,-9.717590388800001,1.7597655376,2.19831901,1.39767216,-3.62348947,,,
imu,334.917033,,,,,,,68.3603092,-3.424150000000004,13.09223679999999
imu,335.018596,,,,,,,68.73873239999999,-3.509600400000012,12.60394879999999
imu,335.12025,,,,,,,68.7021108,-3.619465200000005,12.87250719999999
imu,335.222667,,,,,,,68.3725164,-3.570636400000016,13.25093039999999
imu,335.323222,,,,,,,70.36229,-3.375321200000014,13.15327279999999
imu,335.424815,,,,,,,68.04292199999999,-3.521807600000004,12.89692159999999
imu,335.526378,,,,,,,70.6552628,-4.58383400000002,10.4310672
imu,335.627971,,,,,,,68.2504444,-3.424150000000004,13.043408
imu,336.312434,0.07118018320000001,-9.7265626808,1.7657470656,2.24318047,1.64441019,-3.33936689,,,
imu,336.320895,0.07895616960000001,-9.745703570400002,1.7549803152,2.31047266,1.73413311,-3.10758268,,,
imu,336.329356,0.0675912664,-9.7510869456,1.752587704,2.28056502,1.8014253,-3.05524431,,,
imu,336.337817,0.0747691,-9.748694334400001,1.7448117176,2.1908421,1.89862513,-2.99542903,,,
imu,336.346278,0.080750628,-9.723571916800001,1.7424191064,1.9665348,2.03320951,-3.1225365,,,
imu,336.354738,0.1034804344,-9.711608860800002,1.7478024816,1.83195042,2.10797861,-3.16739796,,,
imu,336.363205,0.1052748928,-9.7128051664,1.746606176,1.83942733,2.07059406,-3.24216706,,,
imu,336.371671,0.1333880744,-9.727160833600001,1.7699341352,1.93662716,2.16779389,-3.30945925,,,
imu,336.380137,0.146547436,-9.734936820000001,1.7573729264,2.17588828,1.98087114,-3.40665908,,,
imu,336.388603,0.1232194768,-9.743310959200002,1.76455076,2.10111918,1.77151766,-3.496382,,,
imu,336.397069,0.1303973104,-9.755274015200001,1.782495344,2.24318047,1.42010289,-3.43656672,,,
imu,336.405535,0.1632957144,-9.822267128800002,1.8225715816,2.3403803,1.04625739,-3.29450543,,,
imu,336.414001,0.1716698536,-9.866530436000001,1.8297494152,2.07868845,0.3060432999999998,-3.31693616,,,
imu,336.422467,0.1603049504,-9.8264541984,1.8315438736,1.56278166,-0.4416477000000003,-3.68330475,,,
imu,336.430933,0.0855358504,-9.740918348000001,1.8566662912,1.0693056,-0.9725083100000003,-3.85527368,,,
imu,336.439399,0.0263187232,-9.608128426400002,1.872218264,0.83004448,-1.52579965,-3.50385891,,,
imu,336.447865,0.0382817792,-9.527377798400002,1.866236736,0.97210577,-1.43607673,-2.6739219,,,
imu,336.456332,0.11963056,-9.481918185600001,1.8895646952,1.48053565,-1.15195415,-1.69444669,,,
imu,336.464798,0.17944584,-9.4663662128,1.8883683896,2.2656112,-1.07718505,-0.6775869299999999,,,
imu,336.473264,0.2996745528,-9.5213962704,1.878199792,2.98339456,-1.16690797,0.21964227,,,
imu,336.48173,0.4647647256,-9.5740337168,1.8554699856,3.7609932,-1.50336892,0.7205952400000002,,,
imu,336.490196,0.6519865520000001,-9.6296619272,1.8399180128,4.31428454,-2.29592138,0.2271191799999999,,,
imu,336.498662,0.8697141712000002,-9.708019944000002,1.842310624,4.80028369,-3.76887265,-0.7897405799999999,,,
imu,336.507128,1.0150653016,-9.775611210400001,1.8082159144,4.74046841,-6.07176093,-2.32998404,,,
imu,336.515594,1.1191438888,-9.803724392000001,1.77950458,4.658222400000001,-8.98027892,-3.57862801,,,
imu,336.52406,1.1622108904,-9.801929933600002,1.773523052,4.54606875,-11.96356601,-4.33379592,,,
imu,336.532526,1.1981000584,-9.803724392000001,1.7531858568,4.38157673,-15.19359113,-4.7674567,,,
imu,336.540992,1.3948923296,-9.83961356,1.7011465632,4.50120729,-18.55820063,-4.887087259999999,,,
imu,336.549458,1.6604721728,-9.8820824088,1.6592758672,4.18717707,-22.55087057,-5.14877911,,,
imu,336.557925,1.9368187664,-9.910793743200001,1.65987402,3.76847011,-27.69498465,-5.79927028,,,
imu,336.566384,2.419528076,-10.0184612472,1.6335552968,3.140409669999999,-33.77371248,-6.315177069999999,,,
imu,336.574844,2.9859787776,-10.1614197664,1.552206516,2.69927198,-41.25809939,-5.94880848,,,
imu,336.583196,3.3095794424,-10.2026923096,1.4780355688,1.45810492,-50.70891363,-5.17868675,,,
imu,336.591655,3.3592261248,-10.1333065848,1.4343704144,0.20946095,-61.31864891999999,-4.25154991,,,
imu,336.600115,3.2431844816,-10.0423873592,1.36079762,-0.64290679,-72.24989133999999,-1.96361545,,,
imu,336.608575,3.054168196800001,-9.9550570504,1.2944026592,-1.45041307,-82.76990371,1.32622495,,,
imu,336.617035,2.905228149600001,-9.7989391696,1.178361016,-1.95136604,-92.79644001999999,4.83289574,,,
imu,336.625494,2.8495999392,-9.519601812000001,1.073684276,-1.79435093,-102.59119212,7.748890640000001,,,
imu,336.633954,2.831655355200001,-9.268377636,0.9133793256000001,-0.71767589,-112.43080568,9.27418028,,,
imu,336.642414,2.6522095152,-9.1224283528,0.8380120728000001,0.78518302,-122.17321941,8.98258079,,,
imu,336.650873,2.3082716552,-9.020742376800001,0.7931506128000001,2.90862546,-131.49692618,7.614306260000001,,,
imu,336.659333,1.7729248992,-9.0045922512,0.7339334856000002,5.1816061,-139.08598983,6.477815940000001,,,
imu,336.667793,1.1167512776,-9.1475507704,0.7650374312,7.69384786,-144.15533481,7.10587638,,,
imu,336.676253,0.4420349192,-9.3419504304,0.7470928472,10.00421305,-146.57785365,8.95267315,,,
imu,336.684712,-0.2159331608,-9.51062952,0.8015247520000001,11.55193342,-146.21148506,11.10602323,,,
imu,336.693172,-0.7919543072000002,-9.5704448,0.8846679912000001,13.00245396,-143.51979746,14.13417178,,,
imu,336.701632,-0.9373054376000002,-9.6117173432,1.0246357464,13.97445226,-138.95140545,17.05016668,,,
imu,336.710092,-0.5796100632000001,-9.7128051664,1.094619624,14.34082085,-134.18113687,18.7100407,,,
imu,336.718551,-0.1591086448,-9.912588201600002,1.1370884728,13.96697535,-130.97354248,17.62588875,,,
imu,336.727011,-0.04545961280000001,-10.201496004,1.2656913248,13.37629946,-129.91182126,13.79023392,,,
imu,336.735471,-0.1363788384,-10.37795108,1.2932063536,11.74633308,-129.43329902,9.35642629,,,
imu,336.74393,-0.4043512928,-10.3857270664,1.2453541296,9.174276039999999,-128.46130072,7.16569166,,,
imu,336.75239,-0.7351297912000001,-10.1727846696,1.154434904,6.59474209,-126.58459631,8.249843610000001,,,
imu,336.76085,-1.0683009008,-9.754675862400001,1.0276265104,5.27880593,-123.65364759,10.40319369,,,
imu,336.769335,-1.4212110528,-9.4424401008,1.0180560656,5.80966654,-119.548824,12.0555908,,,
imu,336.77782,-1.6694444648,-9.115250519200002,1.0114763848,7.58917112,-114.4645252,13.25937331,,,
imu,336.786305,-1.710717008,-9.1684861184,0.6723237472000001,10.81919624,-108.68487377,14.73980149,,,
imu,336.794791,-1.384723732,-9.044070336,1.0748805816,13.08469997,-103.12205273,14.91177042,,,
imu,336.803276,-1.3655828424,-9.2797425392,1.1556312096,16.20257144,-98.80787566,14.14164869,,,
imu,336.811761,-1.4899986248,-9.633250844,1.2333910736,17.58579979,-94.63575988,10.16393257,,,
imu,336.820246,-1.6162088656,-9.834828337600001,1.250139352,17.9671222,-90.17204460999999,7.80122901,,,
imu,336.828731,-1.65987402,-10.0112834136,1.297991576,17.33158485,-84.96811525,8.00310558,,,
imu,336.837216,-1.6353497552,-10.0567430264,1.2896174368,16.12780234,-79.75670898,8.9152886,,,
imu,336.845701,-1.7358394256,-9.9789831624,1.2465504352,14.84177382,-74.26865704,9.49101067,,,
imu,336.854187,-1.737633884,-9.788770572,1.2028852808,13.75762187,-68.90023565999999,10.05177892,,,
imu,336.862672,-1.6802112152,-9.654784344800001,1.1610145848,13.54079148,-63.22526097,11.37519199,,,
imu,336.871157,-1.5785252392,-9.5698466472,1.2058760448,13.59312985,-57.93160869,12.16774445,,,
imu,336.879642,-1.5175136536,-9.5800152448,1.1969037528,13.80248333,-52.89217135,11.73408367,,,
imu,336.888127,-1.4529131512,-9.647606511200001,1.1652016544,14.28100557,-48.16676423,10.80694683,,,
imu,336.896612,-1.3721625232,-9.7576666264,1.1687905712,14.72962017,-43.74791042,9.87980999,,,
imu,336.905098,-1.2507375048,-9.861147060800002,1.1741739464,14.89411219,-39.14213386,9.2891341,,,
imu,336.913583,-1.1520422928,-9.9783850096,1.1885296136,14.34082085,-35.06721791,9.102211350000001,,,
imu,336.922068,-0.9983170232,-10.084856208,1.193314836,13.45106856,-31.23156308,9.56577977,,,
imu,336.930553,-0.6089195504,-10.1967107816,1.2154464896,12.20242459,-27.83704594,10.69479318,,,
imu,336.939038,-0.1573141864,-10.2517408392,1.2136520312,10.49768911,-25.55658839,11.50229946,,,
imu,335.729472,,,,,,,71.094722,-4.229825200000015,11.06584159999999
imu,335.832622,,,,,,,68.4335524,-4.229825200000015,13.043408
imu,335.932597,,,,,,,68.2992732,-3.411942800000012,12.46966959999999
imu,336.03416,,,,,,,68.3114804,-3.643879600000011,12.39642639999999
imu,336.143596,,,,,,,68.7265252,-3.863609200000018,12.37201199999999
imu,336.245189,,,,,,,68.68990360000001,-3.863609200000018,12.8114712
imu,336.34666,,,,,,,69.5199932,-3.717122800000006,12.67719199999999
imu,336.448222,,,,,,,68.714318,-3.436357200000018,13.3730024
imu,336.549725,,,,,,,71.4853524,-4.937842800000003,11.24894959999999
imu,336.651257,,,,,,,73.5117476,-5.43833800000002,16.94971199999999
imu,336.75282,,,,,,,88.4167388,-8.23378680000002,17.13281999999999
imu,336.854413,,,,,,,94.7278612,-8.087300400000007,16.8398472
