Type,Timestamp,Data Accelerometer X,Data Accelerometer Y,Data Accelerometer Z,Data Gyroscope X,Data Gyroscope Y,Data Gyroscope Z,Data Magnetometer X,Data Magnetometer Y,Data Magnetometer Z
imu,252.731205,-0.5036446576000001,-9.3628857784,2.471567369600001,0.85995212,3.07997691,-4.56558013,,,
imu,252.739669,-0.4892889904,-9.33118368,2.4960916344,0.9272443100000001,2.36219355,-6.135731229999999,,,
imu,252.748134,-0.5395338256000001,-9.363483931200001,2.500278704,1.36090509,1.42010289,-7.429236659999999,,,
imu,252.756599,-0.6472013296000001,-9.372456223200002,2.4984842456,1.75718132,0.6350273399999997,-8.348896589999999,,,
imu,252.765064,-0.8416009896000001,-9.367671000800001,2.5110454544,1.95905789,-0.05284837999999992,-9.23117197,,,
imu,252.773529,-1.0443747888,-9.3479319584,2.5146343712,2.07868845,-0.5837089900000003,-10.27046246,,,
imu,252.781994,-1.235185532,-9.3006778872,2.509250996,2.18336519,-0.7257702800000003,-11.62378317,,,
imu,252.790458,-1.411640608,-9.2271050928,2.5194195936,2.31794957,-0.6061397200000003,-12.86495023,,,
imu,252.798923,-1.5480194464,-9.229497704000002,2.5493272336,2.7889949,-0.08275602000000015,-13.76965634,,,
imu,252.807388,-1.6891835072,-9.325800304800001,2.560093984,3.12545585,0.76213481,-14.32294768,,,
imu,252.815853,-1.7908694832,-9.402962016000002,2.5565050672,3.4619168,1.90610204,-14.37528605,,,
imu,252.824348,-1.842310624,-9.475936657600002,2.5726551928,3.62640882,3.16969983,-14.20331712,,,
imu,252.832843,-1.8889665424,-9.5327611736,2.5463364696,4.03016196,4.70246638,-13.60516432,,,
imu,252.841339,-1.8710219584,-9.553696521600001,2.491306412,4.53111493,6.160463829999999,-12.79765804,,,
imu,252.849834,-1.8189826648,-9.504647992000002,2.4159391592,5.13674464,7.43153853,-12.02753631,,,
imu,252.858329,-1.7621581488,-9.459786532,2.338777448000001,5.99658929,8.530644299999999,-11.15273784,,,
imu,252.866825,-1.692772424,-9.488497866400001,2.296906752,7.09569506,9.48768878,-10.33027774,,,
imu,252.87532,-1.638938672,-9.574631869600001,2.2843455432,8.037785719999999,10.28024124,-9.462956179999999,,,
imu,252.883815,-1.5976661288,-9.693664276800002,2.2652046536,8.583600149999999,10.9980246,-8.49843479,,,
imu,252.892311,-1.528280404,-9.8049206976,2.266999112000001,8.628461609999999,11.51393139,-7.8329898,,,
imu,252.900806,-1.4206129,-9.916177118400002,2.2987012104,8.449015769999999,11.96254599,-7.37689829,,,
imu,252.909301,-1.3093564792,-10.0268353864,2.2711861816,7.85833988,12.02236127,-7.0852988,,,
imu,252.917797,-1.2274095456,-10.06392086,2.2269228744,6.9760645,11.90273071,-6.80117622,,,
imu,252.926292,-1.1215365,-9.9628330368,2.1730891224,5.99658929,11.35691628,-6.180592689999999,,,
imu,252.934787,-1.0031022456,-9.766040765600001,2.1419851768,5.15169846,10.30267197,-5.84413174,,,
imu,252.943283,-0.9283331456000001,-9.591380148,2.1168627592,4.69560695,8.97178199,-5.53757843,,,
imu,252.951778,-0.8996218112000001,-9.565061424800001,2.0935348,4.69560695,7.528738359999999,-4.94690254,,,
imu,252.960273,-0.9145756312000002,-9.5776226336,2.0558511736,4.81523751,6.13055619,-4.31136519,,,
imu,252.968769,-0.9361091320000001,-9.5459205352,2.0199620056,4.94234498,4.75480475,-3.44404363,,,
imu,252.977264,-1.00190594,-9.4944793944,2.0283361448,5.14422155,3.86505246,-2.58419898,,,
imu,252.985759,-1.070693512,-9.4316733504,2.0056063384,5.19655992,2.73603905,-2.35989168,,,
imu,252.994255,-1.0880399432,-9.391597112800001,1.9996248104,5.44329795,2.01825569,-2.25521494,,,
imu,253.00275,-1.1167512776,-9.389204501600002,2.0199620056,5.91434328,1.54721036,-2.51690679,,,
imu,253.011245,-1.139481084,-9.4346641144,2.0343176728,6.51249608,1.33785688,-2.87579847,,,
imu,253.019741,-1.1807536272,-9.5327611736,2.024747228,7.08074124,1.37524143,-2.64401426,,,
imu,253.028167,-1.1777628632,-9.603343204000002,2.0271398392,7.32000236,1.53225654,-2.39727623,,,
imu,253.036594,-1.1472570704,-9.635045302400002,1.9864654488,7.23027944,1.7266562,-2.35989168,,,
imu,253.045021,-1.1382847784,-9.6218859408,1.9816802264,7.39477146,1.78647148,-2.45709151,,,
imu,253.053447,-1.15144414,-9.577024480800002,1.9882599072,7.21532562,1.91357895,-2.69635263,,,
imu,253.061874,-1.1640053488,-9.596763523200002,2.0283361448,7.25271017,1.83880985,-2.77859864,,,
imu,253.070301,-1.1789591688,-9.70502918,2.0851606608,7.23027944,1.67431783,-2.9729983,,,
imu,253.078727,-1.1652016544,-9.818080059200001,2.1306202736,7.08821815,1.76404075,-2.84589083,,,
imu,253.087154,-1.1329014032,-9.903615909600001,2.1108812312,6.72184956,1.74161002,-2.31503022,,,
imu,253.095581,-1.1382847784,-9.9269438688,2.0564493264,6.01902002,1.64441019,-1.99352309,,,
imu,253.104007,-1.1717813352,-9.8647359776,2.045084423200001,5.4059134,1.81637912,-1.36546265,,,
imu,253.112434,-1.1957074472,-9.760059237600002,2.0169712416,5.09188318,1.94348659,-0.63272547,,,
imu,253.120861,-1.1986982112,-9.693664276800002,2.0193638528,5.27132902,2.16779389,-0.3037414299999999,,,
imu,253.129287,-1.208268656,-9.682299373600001,2.0115878664,5.57040542,2.31733209,-0.4458027199999999,,,
imu,253.137714,-1.2100631144,-9.706823638400001,2.0020174216,6.0788353,2.30237827,-0.96918642,,,
imu,253.146141,-1.2357836848,-9.7540777096,1.9272483216,6.49006535,2.45939338,-1.55986231,,,
imu,253.154567,-1.2776543808,-9.7403201952,1.8536755272,6.81904939,2.64631613,-1.95613854,,,
imu,253.162994,-1.2764580752,-9.657176956,1.800439928,7.0508336,2.84071579,-2.31503022,,,
imu,253.171421,-1.2668876304,-9.654186192000001,1.7842898024,7.5742173,3.13979219,-2.8982292,,,
imu,253.179847,-1.2728691584,-9.718786694400002,1.7962528584,8.426585039999999,3.76037572,-2.95056757,,,
imu,253.188274,-1.2662894776,-9.802528086400002,1.803430692,8.740615259999998,3.95477538,-2.56924516,,,
imu,253.196701,-1.2256150872,-9.827650504000003,1.7956547056,9.03221475,4.13422122,-2.10567674,,,
imu,253.205127,-1.1891277664,-9.8683248944,1.7489987872,8.852768909999998,4.22394414,-1.86641562,,,
imu,253.213554,-1.1580238208,-9.899428840000002,1.7101188552,8.434061949999998,4.11179049,-1.76921579,,,
imu,253.22234,-1.1317050976,-9.868923047200001,1.656883256,7.82095533,3.8949601,-1.74678506,,,
imu,253.231158,-1.1101715968,-9.779798280000001,1.6096291848,7.22280253,3.58092988,-1.39537029,,,
imu,253.239976,-1.1083771384,-9.6817012208,1.5593843496,6.94615686,3.3715764,-1.1785399,,,
imu,253.248795,-1.1490515288,-9.647606511200001,1.5390471544,6.9760645,3.18465365,-1.05890934,,,
imu,253.257613,-1.1801554744,-9.702636568800001,1.5300748624,7.26018708,2.96034635,-0.7299252999999999,,,
imu,253.266431,-1.1927166832,-9.731946056000002,1.5354582376,7.48449438,2.9229618,-0.3934643499999999,,,
imu,253.275249,-1.1819499328,-9.703832874400002,1.546224988,7.39477146,2.94539253,-0.2439261499999998,,,
imu,253.284068,-1.1699868768,-9.703234721600001,1.5378508488,7.40224837,2.93043871,-0.2065416,,,
imu,253.292886,-1.1496496816,-9.739123889600002,1.5079432088,7.51440202,3.07997691,-0.1691570499999999,,,
imu,253.301704,-1.1376866256,-9.731946056000002,1.5001672224,7.48449438,3.19213056,0.1299193500000002,,,
imu,253.310522,-1.1113679024,-9.696655040800001,1.477437416,7.37981764,3.28185348,0.3168421000000001,,,
imu,253.319341,-1.0964140824,-9.646410205600002,1.4732503464,7.41720219,3.19960747,0.3691804699999999,,,
imu,253.328159,-1.0688990536,-9.635045302400002,1.4571002208,7.76861696,3.20708438,0.6009646800000001,,,
imu,253.336977,-1.022841288,-9.7265626808,1.477437416,8.172370099999998,2.9977309,0.8551796199999999,,,
imu,253.345795,-0.9905410368000002,-9.859950755200002,1.474446652,8.40415431,2.81828506,1.16920984,,,
imu,253.354614,-0.9642223136000001,-9.920962340800001,1.4553057624,8.277046839999999,2.5491163,1.38604023,,,
imu,253.363432,-0.9534555632000001,-9.874306422400002,1.4696614296,8.04526263,2.22760917,1.63277826,,,
imu,253.37225,-0.9355109792000001,-9.836024643200002,1.4941856944,7.77609387,1.92105586,1.90942393,,,
imu,253.381068,-0.9008181168,-9.895241770400002,1.498372764,7.82843224,1.3528107,2.05896213,,,
imu,253.389887,-0.8798827688,-9.920364188,1.489400472,7.71627859,0.7696117199999999,2.24588488,,,
imu,253.398705,-0.8768920048000002,-9.876699033600001,1.4798300272,7.23775635,0.19388965,2.40289999,,,
imu,253.407523,-0.8493769760000001,-9.874306422400002,1.48042818,7.20784871,-0.4042631500000002,2.83656077,,,
imu,253.416341,-0.8350213088000001,-9.947879216800002,1.4870078608,7.22280253,-0.9500775800000003,3.27022155,,,
imu,253.42516,-0.840404684,-9.982572079200002,1.4648762072,6.76671102,-1.47346128,3.74126688,,,
imu,253.433635,-0.8421991424,-9.923354952,1.4439408592,6.16855822,-2.05666026,4.21978912,,,
imu,253.44211,-0.8200674888,-9.80970592,1.459492832,5.7049898,-2.59499778,4.406711870000001,,,
imu,253.450585,-0.8296379336000002,-9.803724392000001,1.4852134024,5.69751289,-3.00622783,4.54877316,,,
imu,253.45906,-0.8260490168000001,-9.883876867200001,1.4762411104,5.98163547,-3.37259642,4.72074209,,,
imu,253.467535,-0.8643307960000001,-9.927542021600003,1.4547076096,5.94425092,-3.73896501,5.0272954,,,
imu,253.47601,-0.8948365888000002,-9.897036228800001,1.4660725128,5.66760525,-3.91841085,5.580586739999999,,,
imu,253.484485,-0.8487788232000001,-9.934719855200001,1.4810263328,5.24142138,-4.09785669,5.760032580000001,,,
imu,253.49296,-0.8445917536,-9.923354952,1.474446652,5.05449863,-4.37450236,5.580586739999999,,,
imu,253.501435,-0.7991321408000002,-9.88447502,1.5127284312,4.59093021,-4.46422528,5.670309659999999,,,
imu,253.50991,-0.8888550608000001,-9.686486443200002,1.3105527848,4.15726943,-4.56890202,6.36566229,,,
imu,253.518385,-0.9181645480000001,-9.686486443200002,1.402668316,4.10493106,-4.64367112,7.090922560000001,,,
imu,253.52686,-0.8553585040000001,-9.680504915200002,1.4140332192,4.16474634,-4.48665601,7.66664463,,,
imu,253.535335,-0.8308342392000001,-9.5842023144,1.3063657152,4.359146,-4.39693309,7.92833648,,,
imu,253.543809,-0.7674300424000001,-9.651793580800001,1.3326844384,4.7329915,-4.38197927,7.78627519,,,
imu,253.552284,-0.7219704296,-9.661364025600001,1.3087583264,5.4059134,-4.41188691,8.00310558,,,
imu,253.560759,-0.7363260968000002,-9.658971414400002,1.2405689072,5.91434328,-4.56142511,8.182551420000001,,,
imu,253.569234,-0.6872775672000001,-9.737329431200001,1.2519338104,6.51997299,-4.47170219,8.06292086,,,
imu,253.577709,-0.7141944432000001,-9.752283251200002,1.214250184,6.93867995,-4.43431764,8.23488979,,,
imu,253.586184,-0.6687348304,-9.841408018400001,1.2154464896,6.90877231,-4.35954854,8.73584276,,,
imu,253.594659,-0.5790119104,-9.853969227200002,1.1777628632,6.51249608,-4.16514888,9.19941118,,,
imu,253.603134,-0.5544876456000001,-9.813892989600001,1.1616127376,6.0040662,-3.92588776,9.31156483,,,
imu,253.611609,-0.5538894928000001,-9.780396432800002,1.1197420416,5.75732817,-3.62681136,9.58073359,,,
imu,253.620084,-0.5461135064000001,-9.7750130576,1.0790676512,5.7049898,-3.35016569,10.0368251,,,
imu,253.628559,-0.5162058664000001,-9.734936820000001,1.0354024968,5.71246671,-2.76696671,10.47048588,,,
imu,253.637024,-0.4689517952000001,-9.7361331256,1.004896704,5.86200491,-2.04170644,10.67236245,,,
imu,253.645489,-0.4761296288000001,-9.796546558400001,0.9977188704000002,6.0788353,-1.24167707,11.03125413,,,
imu,253.653954,-0.4438293776000001,-9.8330338792,0.9618297024000001,6.04892766,-0.23229422,11.33780744,,,
imu,253.662419,-0.4181088072000001,-9.83961356,0.9708019944000001,6.0040662,0.84438082,11.25556143,,,
imu,253.670883,-0.3505175408000001,-9.869521200000003,0.9432869656,6.07135839,2.01077878,11.09854632,,,
imu,253.679348,-0.2578038568000001,-9.922756799200002,0.9462777296000001,5.89938946,2.97530017,10.62750099,,,
imu,253.687813,-0.206362716,-9.983768384800001,0.9480721880000001,5.69751289,3.72299117,10.08916347,,,
imu,253.696278,-0.1650901728,-10.0172649416,0.9498666464000002,5.23394447,4.26132869,9.35642629,,,
imu,253.704743,-0.09690075360000001,-9.9933388296,0.9390998960000001,4.55354566,4.73237402,8.48162782,,,
imu,253.713207,-0.05562821040000001,-9.9813757736,0.9390998960000001,3.91800831,5.19594244,7.84609047,,,
imu,253.721672,-0.0281131816,-9.953860744800002,0.9564463272000002,3.23013259,5.48754193,7.62926008,,,
imu,253.730137,0.008972292000000002,-9.9167752712,0.9845595088000001,2.72917962,5.64455704,7.4946757,,,
imu,253.738602,0.05203929360000001,-9.964029342400002,1.0306172744,2.40019558,5.66698777,7.09839947,,,
imu,253.747067,0.09570444800000001,-10.07887468,1.0683009008,2.29551884,5.659510859999999,6.918953630000001,,,
imu,253.755532,0.128602852,-10.1063897088,1.0563378448,1.92915025,5.681941589999999,6.85913835,,,
imu,253.763996,0.116639796,-9.995133288000002,1.0491600112,1.48053565,5.65203395,7.09839947,,,
imu,253.772461,0.1160416432,-9.9197660352,1.0982085408,1.04687487,5.65203395,7.47224497,,,
imu,253.780926,0.140565908,-9.897036228800001,1.1209383472,1.02444414,5.67446468,7.591875530000001,,,
imu,253.789391,0.1453511304,-9.8946436176,1.1352940144,1.09173633,5.614649399999999,7.36009132,,,
imu,253.797856,0.11963056,-9.928140174400001,1.1520422928,0.9197674,5.53240339,6.92643054,,,
imu,253.80632,0.1561178808,-9.9580478144,1.1765665576,0.63564482,5.49501884,6.918953630000001,,,
imu,253.814785,0.2009793408,-9.935318008000001,1.184342544,0.2468455,5.36791137,6.61987723,,,
imu,253.82325,0.191408896,-9.865932283200001,1.1861370024,-0.35878421,5.27818845,6.32080083,,,
imu,253.831715,0.185427368,-9.752881404000002,1.1819499328,-0.50832241,5.22585008,6.47033903,,,
imu,253.84018,0.1967922712,-9.706225485600001,1.1628090432,-0.49336859,5.158557889999999,6.260985550000001,,,
imu,253.848645,0.2189239248,-9.688280901600002,1.1287143336,-0.26158438,5.25575772,5.932001509999999,,,
imu,253.857109,0.2368685088,-9.655382497600002,1.1149568192,0.03749201999999999,5.49501884,5.94695533,,,
imu,253.865574,0.2554112456,-9.641624983200002,1.10658268,0.32909151,5.80904906,5.99181679,,,
imu,253.874039,0.2907022608000001,-9.648204664000001,1.1077789856,0.7702292,6.28009439,6.089016620000001,,,
imu,253.882504,0.3212080536,-9.669738164800002,1.100601152,1.33099745,6.74366281,6.11892426,,,
imu,253.890969,0.3415452488,-9.679308609600001,1.0545433864,1.77961205,7.14741595,5.864709319999999,,,
imu,253.899433,0.3840140976,-9.703234721600001,1.0383932608,2.0413039,7.59603055,5.580586739999999,,,
imu,252.807685,,,,,,,-92.1033348,169.5152524,116.7924008
imu,252.909247,,,,,,,-90.17459720000001,167.6231364,113.142448
imu,253.010901,,,,,,,-92.99446040000001,167.8672804,115.4251944
imu,253.112372,,,,,,,-93.275226,167.0005692,114.9857352
imu,253.213904,,,,,,,-92.9334244,166.4634524,114.0335736
imu,253.907898,0.4420349192,-9.711010708000002,1.0479637056,2.46748777,8.06707588,5.37871017,,,
imu,253.916363,0.5084298800000001,-9.7606573904,1.0509544696,2.91610237,8.32876773,5.08711068,,,
imu,253.924828,0.5826008272000001,-9.8228652816,1.0724879704,3.31985551,8.56802885,4.49643479,,,
imu,253.933293,0.6172936896000001,-9.8653341304,1.0820584152,3.18527113,8.74747469,3.80108216,,,
imu,253.941757,0.6633514552,-9.885671325600002,1.0485618584,2.87124091,8.79233615,3.56182104,,,
imu,253.950222,0.7297464160000001,-9.885671325600002,1.055739692,2.75908726,8.6801825,3.41975975,,,
imu,253.958687,0.7997302936000001,-9.828248656800001,1.0401877192,2.25065738,8.29886009,3.30012919,,,
imu,253.967152,0.8368157672000002,-9.7809945856,1.0383932608,1.89924261,7.767999479999999,3.20292936,,,
imu,253.975617,0.8320305448000002,-9.803126239200001,1.0515526224,1.85438115,7.13993904,2.9337606,,,
imu,253.984082,0.8421991424,-9.821668976000002,1.03181358,1.65250458,6.30252512,2.40289999,,,
imu,253.992546,0.8481806704000001,-9.782789044000001,0.9684093832000001,1.54035093,5.41277283,1.63277826,,,
imu,254.001011,0.8571529624000002,-9.690075360000002,0.9498666464000002,1.45062801,4.29123633,0.7430259700000001,,,
imu,254.009476,0.8427972952,-9.6709344704,0.9797742864000001,1.94410407,3.38653022,0.05515025000000007,,,
imu,254.017941,0.8242545584000001,-9.706225485600001,0.9839613560000001,2.44505704,2.34723973,-0.49066418,,,
imu,254.026406,0.7931506128000001,-9.7815927384,0.9767835224000002,2.90114855,1.42010289,-0.9841402399999999,,,
imu,254.03487,0.7554669864000001,-9.923354952,1.028822816,3.24508641,0.6948426199999997,-1.29069355,,,
imu,254.043336,0.7345316384000001,-10.0645190128,1.103591916,3.51425517,0.04435144999999974,-1.23087827,,,
imu,254.051803,0.6908664840000001,-10.1877384896,1.1233309584,3.43948607,-0.5612782599999999,-1.31312428,,,
imu,254.060269,0.6322475096000001,-10.2559279088,1.1412755424,2.78151799,-0.9725083100000003,-1.73930815,,,
imu,254.068735,0.5664507016000001,-10.2541334504,1.1526404456,2.10111918,-1.286538530000001,-2.13558438,,,
imu,254.077201,0.5180003248000001,-10.2260202688,1.1969037528,1.01696723,-1.5631842,-2.56176825,,,
imu,254.085667,0.4719425592000001,-10.099810028,1.2100631144,-0.07466163,-1.80992223,-3.25712088,,,
imu,254.094133,0.4773259344000001,-9.844398782400003,1.187333308,-0.77001426,-1.9370297,-4.0945348,,,
imu,254.102599,0.4821111568000001,-9.631456385600002,1.187333308,-0.74758353,-2.21367537,-4.715118329999999,,,
imu,254.111065,0.4139217376000001,-9.444234559200002,1.163407196,-0.18681528,-2.28096756,-5.18616366,,,
imu,254.119531,0.35889168,-9.368269153600002,1.1287143336,0.68798319,-2.50527486,-5.55253225,,,
imu,254.127997,0.3295821928000001,-9.342548583200001,1.1508459872,2.17588828,-2.77444362,-5.8142241,,,
imu,254.136463,0.31403022,-9.3443430416,1.15144414,3.611455,-2.78939744,-5.86656247,,,
imu,254.144929,0.2625890792,-9.456197615200002,1.1257235696,5.36105194,-2.80435126,-5.61982444,,,
imu,254.153396,0.2087553272,-9.6434194416,1.1113679024,6.57231136,-2.77444362,-5.1413022,,,
imu,254.161862,0.1722680064,-9.850380310400002,1.1640053488,7.40224837,-2.75201289,-4.6179185,,,
imu,254.170328,0.17944584,-9.8916528536,1.0760768872,7.47701747,-2.61742851,-4.31136519,,,
imu,254.178794,0.11963056,-9.925747563200002,0.9235479232000001,7.69384786,-2.46789031,-4.13191935,,,
imu,254.18726,0.2009793408,-10.309163508,0.9121830200000002,7.73870932,-2.34078284,-3.77302767,,,
imu,254.195726,0.2356722032,-10.3468471344,0.771617112,6.72184956,-2.19872155,-3.13749032,,,
imu,254.204192,0.2865151912,-10.3588101904,0.5389356728,5.27132902,-2.25853683,-2.36736859,,,
imu,254.212658,0.3092449976000001,-10.2170479768,0.62806044,3.61893191,-2.303398290000001,-1.80660034,,,
imu,254.221124,0.3152265256,-10.3205284112,0.76264482,1.86933497,-2.46789031,-1.95613854,,,
imu,254.22959,0.2877114968,-10.2864337016,0.7249611936,0.07487657,-2.28844447,-1.76921579,,,
imu,254.238056,0.3594898328000001,-10.1404844184,0.7010350816000002,-1.86164312,-1.8622606,-1.05143243,,,
imu,254.246869,0.3774344168000001,-9.870717505600002,0.7770004872000001,-3.98508556,-1.68281476,-0.8495558599999999,,,
imu,254.255682,0.5042428104000001,-9.810902225600001,0.7135962904,-5.70477486,-1.50336892,-0.8346020399999998,,,
imu,254.264495,0.5461135064000001,-9.554892827200002,0.6585662328000002,-6.96089574,-1.63047639,-0.5953409199999999,,,
imu,254.273308,0.5431227424,-9.591380148,0.7357279440000001,-7.60391,-1.63047639,-1.09629389,,,
imu,254.282121,0.5419264368000001,-9.305463109600002,0.7279519576000001,-8.10486297,-1.47346128,-1.44023175,,,
imu,254.290934,0.5837971328000001,-9.249236746400001,0.7793930984000002,-7.708586739999999,-1.48093819,-1.42527793,,,
imu,254.299747,0.6388271904000001,-9.4962738528,0.8021229048,-6.57957333,-1.39869218,-1.55986231,,,
imu,254.30856,0.6382290376000002,-9.8132948368,0.8009265992000001,-5.8094516,-1.49589201,-1.96361545,,,
imu,254.317278,0.6005454112,-9.870717505600002,0.8619381848000001,-6.190774009999999,-1.89964515,-2.43466078,,,
imu,254.326091,0.601143564,-9.777405668800002,0.8804809216,-6.84874209,-2.15386009,-3.08515195,,,
imu,254.334904,0.7435039304000001,-9.630858232800001,0.8081044328000001,-7.110433939999999,-2.49032104,-3.68330475,,,
imu,254.343717,0.7464946944,-9.426289975200001,0.7243630408,-6.572096419999999,-3.07352002,-4.37865738,,,
imu,254.35253,0.6920627896000001,-9.457393920800001,0.7746078760000001,-5.15896043,-3.92588776,-5.15625602,,,
imu,254.361343,0.6789034280000001,-9.5985579816,0.8625363376,-3.64862461,-4.86797842,-5.829177919999999,,,
imu,254.370156,0.6220789120000001,-9.752283251200002,0.8816772272000001,-2.79625687,-5.727823069999999,-6.793699309999999,,,
imu,254.378969,0.6477994824000001,-9.794153947200002,0.900219964,-2.37754991,-6.39326806,-7.35446756,,,
imu,254.387782,0.6382290376000002,-9.740918348000001,0.9379035904000002,-2.10838115,-7.021328499999999,-7.429236659999999,,,
imu,254.396595,0.6005454112,-9.760059237600002,0.8697141712000002,-1.6971511,-7.44751237,-7.13016026,,,
imu,254.405408,0.5508987288,-9.793555794400001,0.8792846160000001,-1.37564397,-8.00080371,-6.54696128,,,
imu,254.414221,0.4581850448000001,-9.828846809600002,0.9331183680000001,-1.36069015,-8.41203376,-6.098346680000001,,,
imu,254.423034,0.3983697648000001,-9.8982325344,0.9893447312000001,-1.2485365,-8.41951067,-5.634778259999999,,,
imu,254.431846,0.3887993200000001,-10.0088908024,0.9875502728000001,-1.18124431,-8.40455685,-5.14877911,,,
imu,254.440659,0.3433397072,-10.1769717392,1.0042985512,-1.3233056,-8.2176341,-4.77493361,,,
imu,254.449137,0.3343674152,-10.2128609072,0.9953262592000002,-1.87659694,-8.33726466,-4.887087259999999,,,
imu,254.457615,0.3415452488,-10.0633227072,1.0054948568,-2.51213429,-8.33726466,-5.1413022,,,
imu,254.466092,0.35889168,-9.944290300000002,0.9995133288000001,-2.75887232,-8.47932595,-5.48524006,,,
imu,254.47457,0.3212080536,-9.993936982400001,1.03181358,-2.7439185,-8.75597162,-6.203023419999999,,,
imu,254.483047,0.3367600264,-10.0166667888,1.052748928,-2.72148777,-9.15224785,-6.905852959999999,,,
imu,254.491525,0.3236006648,-10.0597337904,1.0988066936,-3.14019473,-9.3391706,-7.0852988,,,
imu,254.500002,0.3092449976000001,-9.990946218400001,1.1203401944,-4.0149932,-9.36160133,-6.75631476,,,
imu,254.50848,0.281131816,-9.892849159200003,1.0760768872,-4.747730379999999,-9.06252493,-5.851608649999999,,,
imu,254.516957,0.2865151912,-9.825856045600002,1.0994048464,-5.42812919,-8.62138724,-4.40108811,,,
imu,254.525435,0.3337692624,-9.779798280000001,1.1059845272,-5.839359239999999,-7.97837298,-3.01038285,,,
imu,254.533912,0.4115291264,-9.772022293600001,1.0964140824,-6.06366654,-7.484896920000001,-1.99352309,,,
imu,254.54239,0.5018501992000001,-9.789966877600001,1.1203401944,-6.25058929,-7.462466190000001,-1.67949287,,,
imu,254.550867,0.5485061176,-9.744507264800001,1.1257235696,-5.98889744,-7.589573659999999,-1.6271545,,,
imu,254.559345,0.6029380224,-9.692467971200001,1.124527264,-5.764590139999999,-7.851265509999999,-2.03838455,,,
imu,254.567822,0.6262659816,-9.6799067624,1.2357836848,-5.03932987,-8.24006483,-2.75616791,,,
imu,254.5763,0.6244715232,-9.6876827488,1.2818414504,-4.35893106,-8.554095049999999,-3.88518132,,,
imu,254.584777,0.6023398696000001,-9.746301723200002,1.2674857832,-3.64862461,-8.79335617,-4.85717962,,,
imu,254.593255,0.6250696760000001,-9.935318008000001,1.3027767984,-2.72148777,-9.122340209999999,-5.612347529999999,,,
imu,254.601732,0.6107140088,-9.987357301600001,1.3601994672,-2.6691494,-9.36160133,-5.739455,,,
imu,254.61021,0.565254396,-9.915578965600002,1.4062572328,-2.885979789999999,-9.57095481,-6.06096213,,,
imu,254.618688,0.5215892416000001,-9.7923594888,1.3829292736,-3.09533327,-9.31673987,-6.43480763,,,
imu,254.627165,0.4839056152000001,-9.783387196800001,1.384723732,-3.25982529,-9.31673987,-6.59182274,,,
imu,254.635643,0.4910834488,-9.800733628000001,1.4080516912,-3.1925331,-9.21206313,-6.42733072,,,
imu,254.64412,0.4181088072000001,-9.694860582400002,1.3422548832,-3.37197894,-9.08495566,-6.67406875,,,
imu,254.652584,0.4468201416000001,-9.519003659200001,1.3362733552,-3.50656332,-9.13729403,-6.80117622,,,
imu,254.661047,0.4456238360000001,-9.3622876256,1.4032664688,-3.2673022,-9.34664751,-7.100252619999999,,,
imu,254.669511,0.430670016,-9.393989724,1.381732968,-2.11585806,-9.76535447,-7.66102087,,,
imu,254.677974,0.3612842912,-9.485507102400002,1.3661809952,-1.01675229,-10.25135362,-8.4311426,,,
imu,254.686438,0.3044597752,-9.5184055064,1.3655828424,-0.14195382,-10.7597835,-9.23117197,,,
imu,254.694901,0.2715613712,-9.502853533600002,1.3619939256,0.58330645,-11.60467433,-9.98633988,,,
imu,254.703365,0.1991848824,-9.5213962704,1.3775458984,1.368382,-12.03833511,-10.4499083,,,
imu,254.711828,0.1154434904,-9.544126076800001,1.3284973688,2.10111918,-12.3299346,-10.27046246,,,
imu,254.720292,0.0376836264,-9.539939007200001,1.309954632,2.64693361,-12.38227297,-9.88914005,,,
imu,253.315449,,,,,,,-92.86018120000001,166.0850292,113.081412
imu,253.416981,,,,,,,-92.8113524,166.7564252,112.6907816
imu,253.518544,,,,,,,-92.8845956,167.0982268,111.921728
imu,253.620137,,,,,,,-90.4797772,167.6231364,112.2391152
imu,253.72353,,,,,,,-91.92022680000001,169.1490364,111.4212328
imu,253.823262,,,,,,,-89.2346428,168.819442,108.4915048
imu,253.924824,,,,,,,-91.016894,170.4552068,110.8108728
imu,254.026356,,,,,,,-90.52860600000001,170.2720988,107.9055592
imu,254.728756,-0.004785222400000001,-9.597959828800002,1.318926924,3.59650118,-11.91122764,-9.3283718,,,
imu,254.737219,0.0101685976,-9.671532623200001,1.318926924,4.24699235,-11.18596737,-8.33394277,,,
imu,254.745683,0.011963056,-9.820472670400001,1.3416567304,4.52363802,-10.30369199,-7.578774859999999,,,
imu,254.754146,-0.0023926112,-9.994535135200001,1.3781440512,4.14979252,-9.72796992,-7.07034498,,,
imu,254.76261,0.0143556672,-10.1063897088,1.4403519424,3.46939371,-9.27935532,-6.65163802,,,
imu,254.771073,0.04545961280000001,-10.2571242144,1.4762411104,2.35533412,-8.67372561,-6.703976389999999,,,
imu,254.779537,0.0681894192,-10.3366785368,1.4768392632,0.9048135799999999,-8.2924032,-7.00305279,,,
imu,254.788,0.06101158560000001,-10.2918170768,1.4523149984,-0.88964482,-8.01575753,-7.04791425,,,
imu,254.796464,0.07775986400000001,-10.1494567104,1.4044627744,-2.31025772,-7.43255855,-6.73388403,,,
imu,254.804927,0.1274065464,-9.9131863544,1.3566105504,-3.5663786,-6.804498110000001,-6.247884879999999,,,
imu,254.813391,0.1070693512,-9.7474980288,1.3374696608,-4.231823589999999,-6.056807109999999,-5.67963972,,,
imu,254.821855,0.107667504,-9.6284656216,1.3284973688,-4.43370016,-5.496038860000001,-5.044102369999999,,,
imu,254.830318,0.188418132,-9.5842023144,1.31593616,-3.78320899,-5.09228572,-5.01419473,,,
imu,254.838782,0.2542149400000001,-9.621287788000002,1.36079762,-2.77382614,-4.75582477,-5.238502029999999,,,
imu,254.847245,0.3128339144,-9.6637566368,1.3679754536,-1.90650458,-4.75582477,-5.72450118,,,
imu,254.855794,0.3331711096,-9.6912716656,1.3990793992,-1.21115195,-5.077331900000001,-6.621730379999999,,,
imu,254.864343,0.3026653168,-9.709216249600003,1.411640608,-0.41112258,-5.69791543,-7.795605249999999,,,
imu,254.872891,0.2942911776,-9.676317845600002,1.4092479968,0.12721494,-6.49046789,-9.23117197,,,
imu,254.88144,0.2320832864,-9.566257730400002,1.387714496,0.46367589,-7.34283563,-10.70412324,,,
imu,254.889989,0.1399677552,-9.529770409600001,1.4068553856,1.2936129,-8.09800354,-12.01258249,,,
imu,254.898538,0.023926112,-9.551303910400001,1.4074535384,2.15345755,-8.93541746,-13.12664208,,,
imu,254.907086,-0.0747691,-9.588389384000001,1.4164258304,2.7142258,-9.54852408,-14.00891746,,,
imu,254.915635,-0.1333880744,-9.6159044128,1.4367630256,3.11050203,-9.96723104,-14.66688554,,,
imu,254.924184,-0.1776513816,-9.588987536800001,1.4457353176,3.26751714,-10.14667688,-15.01830031,,,
imu,254.932733,-0.2769447464000001,-9.631456385600002,1.4331741088,3.49930135,-10.40089182,-14.89119284,,,
imu,254.941281,-0.3798270280000001,-9.800135475200001,1.459492832,3.85819303,-10.65510676,-14.79399301,,,
imu,254.94983,-0.4785222400000001,-9.912588201600002,1.4995690696,3.41705534,-10.55043002,-14.71922391,,,
imu,254.958379,-0.517402172,-10.0232464696,1.4816244856,3.18527113,-10.32612272,-14.44257824,,,
imu,254.966927,-0.5526931872,-10.066911624,1.4810263328,2.53477996,-10.41584564,-14.65940863,,,
imu,254.975476,-0.6143029256000001,-9.984366537600001,1.48042818,1.80204278,-10.56538384,-14.96596194,,,
imu,254.984025,-0.6944554008000001,-9.957449661600002,1.4768392632,1.1440747,-10.86446024,-15.05568486,,,
imu,254.992574,-0.7524762224000001,-9.963431189600001,1.4343704144,0.6132140899999999,-11.12615209,-15.03325413,,,
imu,255.001122,-0.7722152648000001,-9.9448884528,1.3799385096,0.15712258,-11.03642917,-14.67436245,,,
imu,255.009671,-0.8063099744000001,-9.900625145600001,1.3865181904,-0.08213854000000001,-10.99156771,-13.94162527,,,
imu,255.01822,-0.8523677400000002,-9.894045464800001,1.351825328,-0.07466163,-10.93175243,-13.10421135,,,
imu,255.026769,-0.9295294512000001,-10.0118815664,1.3691717592,-0.14195382,-10.59529148,-12.3191358,,,
imu,255.035317,-0.9486703408000001,-10.0525559568,1.3613957728,-0.20924601,-10.11676924,-11.09292256,,,
imu,255.043866,-0.9379035904000002,-9.995133288000002,1.3171324656,-0.28401511,-9.43637043,-9.64240202,,,
imu,255.052415,-0.9319220624000001,-9.859950755200002,1.2932063536,-0.25410747,-8.74849471,-8.41618878,,,
imu,255.060812,-0.9690075360000001,-9.8270523512,1.277056228,0.27675314,-8.03071135,-7.70588233,,,
imu,255.06921,-1.0300191216,-9.857558144000002,1.30098234,0.64312173,-7.3204049,-7.37689829,,,
imu,255.077607,-1.0204486768,-9.872511964000001,1.318926924,1.0693056,-6.43812952,-7.18249863,,,
imu,255.086005,-0.9797742864000001,-9.919167882400002,1.3356752024,1.25622835,-5.466131219999999,-7.04791425,,,
imu,255.094402,-1.0150653016,-9.9879554544,1.3506290224,1.18145925,-4.48665601,-6.9357606,,,
imu,255.102799,-0.9857558144000002,-9.922158646400002,1.3273010632,0.77770611,-3.37259642,-6.49462291,,,
imu,255.111197,-0.8912476720000001,-9.8497821576,1.3261047576,0.14216876,-2.19872155,-5.82170101,,,
imu,255.119594,-0.8290397808000001,-9.789966877600001,1.3225158408,-0.36626112,-1.29401544,-5.29831731,,,
imu,255.127992,-0.7961413768000002,-9.61530626,1.2806451448,-0.69524516,-0.8454008399999999,-4.715118329999999,,,
imu,255.136389,-0.7357279440000001,-9.458590226400002,1.2686820888,-0.67281443,-0.3294940500000001,-4.10948862,,,
imu,255.144786,-0.6358364264000002,-9.396980488,1.2716728528,-0.44103022,0.06678217999999969,-3.84031986,,,
imu,255.153184,-0.5646562432000001,-9.4316733504,1.3476382584,0.11973803,0.0368745399999999,-3.50385891,,,
imu,255.161581,-0.5664507016000001,-9.588987536800001,1.369769912,0.41881443,-0.15004821,-3.21973633,,,
imu,255.169979,-0.5670488544000001,-9.6494009696,1.363788384,0.40386061,-0.4491246100000001,-3.21973633,,,
imu,255.178376,-0.5431227424,-9.5327611736,1.3470401056,0.19450713,-0.7482010100000003,-3.37675144,,,
imu,255.186774,-0.5323559920000001,-9.4729458936,1.36079762,0.56835263,-0.9201699400000001,-3.39918217,,,
imu,255.195171,-0.5640580904000001,-9.667345553600002,1.4571002208,1.00201341,-1.27906162,-3.65339711,,,
imu,255.203568,-0.5700396184000001,-9.806715156000001,1.444539012,0.9347212199999999,-1.413646,-3.92256587,,,
imu,255.211966,-0.5909749664,-9.8013317808,1.4319778032,0.59078336,-1.34635381,-3.84031986,,,
imu,255.220363,-0.5837971328000001,-9.557285438400001,1.4433427064,0.26179932,-1.2641078,-4.27398064,,,
imu,255.228761,-0.5766192992000001,-9.6087265792,1.5199062648,0.7104139199999999,-1.38373836,-5.05157928,,,
imu,255.237158,-0.6513883992,-9.861147060800002,1.5922827536,1.43567419,-1.09961578,-5.26840967,,,
imu,255.245555,-0.6388271904000001,-9.945486605600001,1.5545991272,1.15155161,-0.8977392100000001,-5.3656095,,,
imu,255.253953,-0.5772174520000001,-9.807313308800001,1.573141864,0.4861066199999999,-0.82297011,-5.53010152,,,
imu,255.262759,-0.5646562432000001,-9.746899876,1.6305645328,0.35152224,-0.59866281,-5.829177919999999,,,
imu,255.271566,-0.6149010784000001,-9.746899876,1.5946753648,0.23189168,-0.6883857300000003,-5.97123921,,,
imu,255.280372,-0.6149010784000001,-9.772620446400001,1.5898901424,0.4861066199999999,-0.76315483,-5.97123921,,,
imu,255.289178,-0.6041343280000001,-9.880287950400001,1.60005874,0.53096808,-0.6659550000000003,-6.068439039999999,,,
imu,255.297984,-0.5909749664,-9.828846809600002,1.5689547944,0.38142988,-0.57623208,-6.135731229999999,,,
imu,255.306791,-0.5808063688,-9.758264779200001,1.5683566416,0.4711528,-0.4192169699999999,-5.9637623,,,
imu,255.315597,-0.6172936896000001,-9.783387196800001,1.528280404,0.9272443100000001,-0.23229422,-5.500193879999999,,,
imu,255.324403,-0.6412198016000001,-9.802528086400002,1.5157191952,1.28613599,0.05930526999999985,-4.86465653,,,
imu,255.33321,-0.631051204,-9.802528086400002,1.5426360712,1.2188438,0.5079198699999998,-4.82727198,,,
imu,255.342016,-0.5993491056000001,-9.8162856008,1.5486175992,1.31604363,0.9341037399999998,-4.81979507,,,
imu,255.350822,-0.5927694248,-9.856959991200002,1.5486175992,1.17398234,1.14345722,-4.909517989999999,,,
imu,255.359629,-0.5676470072,-9.837220948800002,1.5019616808,1.04687487,1.44253362,-5.021671639999999,,,
imu,255.368435,-0.5724322296000001,-9.836024643200002,1.4559039152,0.94219813,1.68927165,-5.4403786,,,
imu,255.377241,-0.5718340768000001,-9.8461932408,1.5001672224,0.68798319,1.91357895,-5.69459354,,,
imu,255.386048,-0.5574784096000001,-9.8264541984,1.5498139048,0.44124516,1.83133294,-5.94133157,,,
imu,255.394854,-0.5598710208000001,-9.797742864000002,1.5504120576,0.08983038999999998,1.77151766,-6.352561619999999,,,
imu,255.40366,-0.5843952856000001,-9.791761336000002,1.5755344752,-0.23915365,1.74161002,-6.73388403,,,
imu,255.412365,-0.6113121616,-9.783387196800001,1.5755344752,-0.29149202,1.78647148,-6.60677656,,,
imu,255.421171,-0.6334438152,-9.766040765600001,1.5569917384,-0.34383039,1.99582496,-6.352561619999999,,,
imu,255.429978,-0.6483976352,-9.745703570400002,1.564169572,-0.11952309,2.40705501,-5.74693191,,,
imu,255.438784,-0.6495939408000001,-9.7163940832,1.5468231408,0.33656842,3.04259236,-5.02914855,,,
imu,255.44759,-0.6119103144000001,-9.724170069600001,1.4995690696,0.66555246,3.42391477,-4.87213344,,,
imu,255.456396,-0.5461135064000001,-9.7474980288,1.4846152496,1.30856672,3.85757555,-4.49081103,,,
imu,255.464892,-0.4916816016,-9.737329431200001,1.4738484992,1.68988913,4.20151341,-4.35622665,,,
imu,255.473387,-0.4701481008,-9.681103068,1.4104443024,2.01139626,4.149175039999999,-4.58801086,,,
imu,255.481882,-0.4605776560000001,-9.676915998400002,1.4032664688,2.4151494,3.97720611,-4.92447181,,,
imu,255.490378,-0.4629702672000001,-9.7265626808,1.4212110528,2.84881018,3.71551426,-5.23102512,,,
imu,255.498873,-0.4761296288000001,-9.779798280000001,1.4307814976,2.92357928,3.26689966,-5.95628539,,,
imu,255.507368,-0.4438293776000001,-9.803724392000001,1.4092479968,2.92357928,2.80333124,-6.689022570000001,,,
imu,255.515864,-0.430670016,-9.839015407200002,1.3805366624,2.78151799,2.44443956,-7.39185211,,,
imu,255.524359,-0.4539979752000001,-9.828846809600002,1.3117490904,2.51982614,2.10797861,-7.556344129999999,,,
imu,255.532854,-0.4414367664,-9.7953502528,1.3135435488,2.30299575,1.71170238,-7.578774859999999,,,
imu,255.54135,-0.4402404608,-9.7995373224,1.333880744,2.57216451,1.32290306,-7.451667389999999,,,
imu,254.127919,,,,,,,-90.98027239999999,170.955702,110.8108728
imu,254.229603,,,,,,,-90.833786,170.4185852,110.0662336
imu,254.331044,,,,,,,-91.1023444,170.5162428,110.2005128
imu,254.432606,,,,,,,-90.85820040000002,170.6261076,110.2615488
imu,254.534199,,,,,,,-90.833786,170.3331348,110.578936
imu,254.635731,,,,,,,-90.5774348,170.6871436,111.1648816
imu,254.737294,,,,,,,-88.23365240000001,169.2222796,111.0916384
imu,254.838856,,,,,,,-90.4431556,169.4786308,112.9837544
imu,255.549845,-0.4665591840000001,-9.809107767200002,1.3147398544,2.66188743,0.8892422799999999,-7.294652279999999,,,
imu,255.55834,-0.4587831976000001,-9.7989391696,1.2698783944,2.5646876,0.3434278499999999,-7.272221549999999,,,
imu,255.566836,-0.4797185456,-9.8432024768,1.2483448936,2.57964142,-0.1051867500000001,-6.87594532,,,
imu,255.575331,-0.5162058664000001,-9.837220948800002,1.235185532,2.51234923,-0.6510011800000002,-6.711453300000001,,,
imu,255.583826,-0.5574784096000001,-9.803126239200001,1.2160446424,2.30299575,-1.24915398,-6.965668239999999,,,
imu,255.592322,-0.5341504504000001,-9.844996935200001,1.1927166832,2.53477996,-1.79496841,-7.167544809999999,,,
imu,255.600817,-0.6908664840000001,-9.856959991200002,1.2190354064,2.64693361,-2.19124464,-7.34699065,,,
imu,255.609312,-0.7554669864000001,-9.754675862400001,1.1849406968,2.60207215,-2.28844447,-8.03486637,,,
imu,255.617808,-0.7811875568000001,-9.810902225600001,1.1532385984,2.82637945,-2.0117988,-8.25169676,,,
imu,255.626303,-0.8110951968000001,-9.9048122152,1.1466589176,2.863764,-1.570661110000001,-7.930189629999999,,,
imu,255.634798,-0.8756956992000001,-9.9197660352,1.1412755424,2.46001086,-1.07718505,-7.52643649,,,
imu,255.643294,-0.9325202152000002,-9.866530436000001,1.1149568192,1.98148862,-0.23229422,-7.0852988,,,
imu,255.651789,-0.9498666464000002,-9.836024643200002,1.1287143336,1.63755076,0.7546578999999998,-6.65163802,,,
imu,255.660284,-0.9708019944000001,-9.754675862400001,1.1137605136,1.41324346,1.69674856,-6.30770016,,,
imu,255.668725,-0.9905410368000002,-9.6709344704,1.10658268,0.9945364999999999,2.52668557,-6.180592689999999,,,
imu,255.677166,-1.0162616072,-9.613511801600001,1.10658268,1.21136689,3.23699202,-6.53948437,,,
imu,255.685606,-1.0623193728,-9.658971414400002,1.0491600112,1.5179202,3.55102224,-7.563821040000001,,,
imu,255.694047,-1.0336080384,-9.683495679200002,1.064711984,1.76465823,3.61083752,-8.610588439999999,,,
imu,255.702488,-1.0001114816,-9.634447149600001,1.0790676512,2.07868845,3.58092988,-9.23117197,,,
imu,255.710928,-1.010878232,-9.652989886400002,1.0874417904,2.76656417,3.24446893,-9.53772528,,,
imu,255.719369,-1.0383932608,-9.789368724800001,1.1496496816,3.50677826,2.85566961,-9.769509489999999,,,
imu,255.72781,-1.0545433864,-9.935318008000001,1.1771647104,3.925485220000001,2.11545552,-9.67230966,,,
imu,255.73625,-1.0730861232,-10.0465744288,1.190324072,4.14979252,1.53973345,-8.90218793,,,
imu,255.744691,-1.097610388,-10.10878232,1.1975019056,4.18717707,0.9714882899999999,-7.87785126,,,
imu,255.753132,-1.0970122352,-10.1398862656,1.1915203776,3.70865483,0.3808123999999999,-7.0852988,,,
imu,255.761572,-1.1239291112,-10.2170479768,1.1986982112,2.89367164,-0.06780220000000003,-6.16563887,,,
imu,255.770013,-1.1568275152,-10.2475537696,1.2166427952,2.116073,-0.2696787700000001,-5.20111748,,,
imu,255.778454,-1.1909222248,-10.195514476,1.2477467408,1.24875144,-0.37435551,-4.363703559999999,,,
imu,255.786894,-1.1975019056,-10.1380918072,1.2632987136,0.27675314,-0.03789456000000024,-3.66087402,,,
imu,255.795335,-1.2040815864,-10.0615282488,1.277056228,-0.48589168,0.35838167,-2.99542903,,,
imu,255.803776,-1.1998945168,-10.0005166632,1.2908137424,-0.874691,1.06868812,-2.48699915,,,
imu,255.812216,-1.1711831824,-9.971207176000002,1.2579153384,-1.36069015,2.04068642,-2.38232241,,,
imu,255.820657,-1.1299106392,-9.906008520800002,1.265093172,-1.80182784,3.11736146,-2.65896808,,,
imu,255.829097,-1.1029937632,-9.83961356,1.2686820888,-2.13081188,4.28375942,-2.95804448,,,
imu,255.837538,-1.0509544696,-9.7576666264,1.2764580752,-2.45979592,5.74175687,-2.87579847,,,
imu,255.845979,-0.9600352440000001,-9.714599624800002,1.2710747,-2.53456502,7.177323589999999,-2.83093701,,,
imu,255.854419,-0.8834716856000001,-9.630260080000001,1.214250184,-2.65419558,8.22409099,-3.1225365,,,
imu,255.86286,-0.8613400320000001,-9.554892827200002,1.1699868768,-2.5196112,9.08393564,-3.48142818,,,
imu,255.871418,-0.8374139200000001,-9.523190728800001,1.1640053488,-2.36259609,9.779288269999999,-3.93751969,,,
imu,255.879975,-0.8081044328000001,-9.486703408,1.16639796,-2.08595042,10.26528742,-4.5431494,,,
imu,255.888533,-0.7925524600000001,-9.435262267200002,1.202287128,-1.6971511,10.60922528,-5.2908404,,,
imu,255.897091,-0.7279519576000001,-9.451412392800002,1.2357836848,-1.18124431,10.72885584,-6.120777410000001,,,
imu,255.905648,-0.6795015808000001,-9.553696521600001,1.2698783944,-0.66533752,10.28771815,-7.42175975,,,
imu,255.914206,-0.7123999848000001,-9.672728928800002,1.28602852,-0.46346095,9.30824294,-8.66292681,,,
imu,255.922764,-0.7542706808000001,-9.693066124000001,1.2656913248,-0.5681376899999999,8.29886009,-9.65735584,,,
imu,255.931321,-0.8236564056000001,-9.6775141512,1.2926082008,-0.83730645,7.28947724,-10.33775465,,,
imu,255.939879,-0.9008181168,-9.730749750400001,1.327899216,-0.60552224,6.45206332,-10.03120134,,,
imu,255.948436,-0.9797742864000001,-9.7989391696,1.3392641192,-0.36626112,5.66698777,-8.97695703,,,
imu,255.956994,-1.0491600112,-9.83961356,1.381732968,-0.32887657,5.12117334,-8.01243564,,,
imu,255.965552,-1.1299106392,-9.882680561600003,1.4104443024,-0.5756146,4.62022037,-7.518959579999999,,,
imu,255.974109,-1.205277892,-9.904214062400001,1.4493242344,-0.8522602699999999,3.99215993,-7.429236659999999,,,
imu,255.982667,-1.2806451448,-9.941897688800001,1.4780355688,-1.00927538,3.56597606,-7.37689829,,,
imu,255.991225,-1.3147398544,-9.983768384800001,1.474446652,-1.21115195,3.17717674,-7.39932902,,,
imu,255.999782,-1.3883126488,-9.977188704000001,1.4559039152,-1.42798234,2.99025399,-7.39932902,,,
imu,256.00834,-1.4917930832,-9.855763685600001,1.4313796504,-1.55508981,3.31176112,-6.98062206,,,
imu,256.016898,-1.5211025704,-9.838417254400001,1.4283888864,-1.39059779,3.85757555,-6.15068505,,,
imu,256.025455,-1.5318693208,-9.900625145600001,1.3805366624,-0.95693701,4.784712389999999,-5.00671782,,,
imu,256.034013,-1.5109339728,-9.851576616000001,1.3596013144,-0.37373803,6.05578709,-3.66835093,,,
imu,256.04257,-1.4553057624,-9.856959991200002,1.387714496,0.14216876,7.22966196,-2.41970696,,,
imu,256.051128,-1.3625920784,-9.962234884,1.3960886352,0.47862971,8.351198459999999,-1.33555501,,,
imu,256.059686,-1.2507375048,-10.0525559568,1.4068553856,0.6954601,9.211043109999999,-0.4233719899999999,,,
imu,256.068243,-1.154434904,-10.087846972,1.378742204,0.14964567,9.5026426,-0.55047946,,,
imu,256.076622,-1.040785872,-10.0746876104,1.3763495928,-0.34383039,9.48021187,-1.09629389,,,
imu,256.085,-0.9839613560000001,-10.0920340416,1.381732968,-1.12142903,9.18113547,-1.74678506,,,
imu,256.093378,-0.9522592576000002,-10.1004081808,1.4391556368,-1.80182784,8.76242851,-2.23278421,,,
imu,256.101757,-0.9648204664000001,-10.00410558,1.4588946792,-2.69158013,8.1567988,-2.65896808,,,
imu,256.110135,-1.0090837736,-9.831837573600001,1.411640608,-3.43927113,7.79790712,-2.61410662,,,
imu,256.118513,-1.0443747888,-9.721179305600002,1.3482364112,-3.6411477,7.693230379999999,-2.32250713,,,
imu,256.126892,-1.0156634544,-9.652989886400002,1.3171324656,-3.36450203,7.954922229999999,-2.06829219,,,
imu,256.13527,-0.9995133288000001,-9.704431027200002,1.3111509376,-2.91588743,8.373629189999999,-1.65706214,,,
imu,256.143649,-0.9654186192,-9.7540777096,1.3320862856,-2.82616451,8.49325975,-1.14863226,,,
imu,256.152027,-0.9379035904000002,-9.727160833600001,1.3452456472,-3.12524091,8.44839829,-0.8196482199999999,,,
imu,256.160405,-0.9145756312000002,-9.669738164800002,1.3691717592,-3.43179422,8.440921379999999,-0.4757103599999999,,,
imu,256.168784,-0.8433954480000001,-9.658971414400002,1.4242018168,-3.62619388,8.23904481,-0.3859874399999998,,,
imu,256.177162,-0.7656355840000001,-9.642223136000002,1.4672688184,-3.7159168,7.64089201,-0.8046943999999998,,,
imu,256.18554,-0.7781967928000002,-9.624278552000002,1.4870078608,-3.82059354,7.06516994,-1.22340136,,,
imu,256.193919,-0.8344231560000002,-9.583604161600002,1.498372764,-3.70843989,6.37729422,-1.05143243,,,
imu,256.202297,-0.9534555632000001,-9.4412437952,1.5127284312,-3.70843989,5.92867962,-0.9617095099999999,,,
imu,256.210675,-0.9169682424000002,-9.526779645600001,1.5019616808,-3.11028709,5.659510859999999,-1.24583209,,,
imu,256.219054,-0.900219964,-9.658373261600001,1.522298876,-2.41493446,5.420249739999999,-1.3280781,,,
imu,256.227432,-0.9193608536000001,-9.647606511200001,1.5306730152,-2.11585806,5.20341935,-0.7897405799999999,,,
imu,256.23581,-0.8936402832000001,-9.585996772800002,1.4959801528,-1.71958183,5.03145042,-0.9766633299999998,,,
imu,256.244189,-0.8792846160000001,-9.5812115504,1.4672688184,-1.25601341,4.59778964,-1.78416961,,,
imu,256.252567,-0.8601437264,-9.6799067624,1.462483596,-0.05970781,4.23889796,-2.39727623,,,
imu,256.260945,-0.8625363376,-9.727758986400001,1.4588946792,0.6132140899999999,3.93234465,-2.57672207,,,
imu,256.269324,-0.9073977976000001,-9.7056273328,1.4331741088,0.97210577,3.5958837,-2.83841392,,,
imu,256.278131,-0.9319220624000001,-9.642223136000002,1.4104443024,1.4431511,3.33419185,-3.05524431,,,
imu,256.286939,-0.9038088808000001,-9.647606511200001,1.3691717592,1.98148862,3.02016163,-3.22721324,,,
imu,256.295747,-0.9097904088000002,-9.769031529600001,1.351825328,2.64693361,2.72108523,-3.45899745,,,
imu,256.304554,-0.9367072848000002,-9.8719138112,1.3673773008,2.863764,2.63136231,-3.67582784,,,
imu,256.313362,-0.9187627008000002,-9.85456738,1.3261047576,2.58711833,2.45939338,-3.74312003,,,
imu,256.32217,-0.9145756312000002,-9.764246307200002,1.3105527848,2.28804193,2.34723973,-3.92256587,,,
imu,256.330977,-0.9486703408000001,-9.727160833600001,1.2728691584,2.21327283,2.22760917,-4.08705789,,,
imu,256.339785,-0.9953262592000002,-9.697253193600002,1.2746636168,2.5646876,2.28742445,-4.19921154,,,
imu,256.348592,-1.0102800792,-9.6733270816,1.2268113928,2.89367164,2.30237827,-4.25154991,,,
imu,256.3574,-0.9941299536000001,-9.6984494992,1.1675942656,3.20022495,2.23508608,-4.408565019999999,,,
imu,254.940332,,,,,,,-87.87964360000001,168.1358388,110.762044
imu,255.041895,,,,,,,-89.429958,168.0137668,114.2166816
imu,255.143457,,,,,,,-89.3200932,166.9029116,113.2401056
imu,255.24502,,,,,,,-89.3567148,167.293542,116.4872208
imu,255.347315,,,,,,,-89.17360679999999,167.2813348,116.4017704
imu,255.448328,,,,,,,-89.17360679999999,167.7452084,116.7069504
imu,255.549738,,,,,,,-89.21022840000002,167.3179564,116.31632
imu,255.65127,,,,,,,-88.46558920000001,165.8530924,116.0843832
imu,256.366208,-0.963026008,-9.786377960800001,1.1819499328,3.731085559999999,2.22760917,-4.670256869999999,,,
imu,256.375015,-0.9923354952000002,-9.825856045600002,1.223222476,3.90305449,2.1005017,-5.2908404,,,
imu,256.383823,-0.9791761336000001,-9.7504887928,1.1969037528,3.61893191,2.06311715,-5.634778259999999,,,
imu,256.392631,-0.9408943544,-9.6494009696,1.1699868768,3.39462461,1.77899457,-5.545055339999999,,,
imu,256.401438,-0.980970592,-9.672130776000001,1.1580238208,3.59650118,1.62945637,-5.26840967,,,
imu,256.410246,-1.0485618584,-9.711010708000002,1.1340977088,3.94043904,1.68179474,-4.98428709,,,
imu,256.419054,-1.0635156784,-9.7074217912,1.1161531248,4.18717707,1.74161002,-4.6179185,,,
imu,256.427861,-1.0970122352,-9.716992236000001,1.1047882216,4.15726943,1.8014253,-4.10948862,,,
imu,256.436669,-1.0982085408,-9.780396432800002,1.1011993048,4.63579167,2.13788625,-3.5711511,,,
imu,256.445476,-1.0988066936,-9.901821451200002,1.109573444,4.92739116,2.61640849,-3.03281358,,,
imu,256.454284,-1.1029937632,-9.983170232,1.1239291112,4.71056077,3.2220382,-2.56924516,,,
imu,256.463092,-1.1083771384,-10.013077872,1.09162886,4.2096078,3.6706528,-2.01595382,,,
imu,256.471899,-1.0748805816,-9.995731440800002,1.097610388,3.66379337,4.16412886,-1.67201596,,,
imu,256.480374,-1.0683009008,-9.998124052,1.1191438888,3.23013259,4.85948149,-1.18601681,,,
imu,256.488849,-1.0240375936,-9.987357301600001,1.1113679024,2.75908726,5.4651112,-0.9318018699999999,,,
imu,256.497324,-1.0090837736,-10.0124797192,1.1077789856,2.47496468,6.010925629999999,-0.90937114,,,
imu,256.505824,-0.9737927584000001,-10.084856208,1.1221346528,1.82447351,6.444586409999999,-0.90937114,,,
imu,256.514299,-0.9432869656,-10.1219416816,1.1472570704,1.56278166,6.98292393,-0.57291019,,,
imu,256.522774,-0.9151737840000002,-10.1051934032,1.193314836,0.9272443100000001,7.341815609999999,-0.63272547,,,
imu,256.531249,-0.8918458248000001,-10.066911624,1.2100631144,0.2468455,7.790430209999999,-0.4981410899999998,,,
imu,256.539724,-0.8625363376,-10.0872488192,1.232194768,0.0001074699999999984,8.0820297,0.02524261000000028,,,
imu,256.548199,-0.8224601,-10.1303158208,1.3003841872,-0.41859949,8.31381391,-0.1317724999999998,,,
imu,256.556674,-0.7871690848,-10.057939332,1.3296936744,-1.08404448,8.6054134,-0.57291019,,,
imu,256.565149,-0.7919543072000002,-9.962234884,1.3482364112,-1.78687402,8.575505759999999,-0.99161715,,,
imu,256.573624,-0.7859727792000001,-9.919167882400002,1.3841255792,-2.2205348,8.34372155,-1.48509321,,,
imu,256.582099,-0.7889635432000001,-9.923354952,1.4582965264,-2.63924176,8.12689116,-1.76921579,,,
imu,256.590574,-0.7728134176000001,-9.9131863544,1.5049524448,-3.06542563,7.887630039999999,-2.03838455,,,
imu,256.599049,-0.7907580016000001,-9.8270523512,1.54024346,-3.59628624,7.648368919999999,-2.34493786,,,
imu,256.607524,-0.8433954480000001,-9.667345553600002,1.5659640304,-4.24677741,7.49135381,-2.44213769,,,
imu,256.615999,-0.8697141712000002,-9.4980683112,1.5408416128,-4.299115779999999,7.23713887,-2.10567674,,,
imu,256.624474,-0.8834716856000001,-9.398774946400001,1.5264859456,-3.58133242,7.057693029999999,-1.67949287,,,
imu,256.632949,-0.9241460760000001,-9.374250681600001,1.507345056,-2.33268845,6.97544702,-1.51500085,,,
imu,256.641424,-0.9085941032000001,-9.309052026400002,1.4899986248,-1.24105959,6.59412461,-1.59724686,,,
imu,256.649899,-0.9175663952000002,-9.2964908176,1.4816244856,0.02253820000000001,6.30252512,-1.6271545,,,
imu,256.658374,-0.9528574104000002,-9.3628857784,1.45052054,1.18893616,6.01840254,-1.46266248,,,
imu,256.666849,-0.9540537160000001,-9.401167557600001,1.4421464008,2.33290339,5.79409524,-1.64958523,,,
imu,256.675324,-0.9702038416000002,-9.436458572800001,1.4206129,3.282470959999999,5.53240339,-1.86641562,,,
imu,256.683799,-1.0240375936,-9.5501076048,1.43556672,3.88062376,5.263234629999999,-2.48699915,,,
imu,256.692274,-1.0276265104,-9.682897526400001,1.4331741088,4.41896128,5.22585008,-2.748691,,,
imu,256.700749,-1.0473655528,-9.743310959200002,1.3835274264,4.27689999,5.18098862,-2.78607555,,,
imu,256.709224,-1.1119660552,-9.709216249600003,1.4020701632,4.0600696,5.56231103,-2.51690679,,,
imu,256.717699,-1.0635156784,-9.685290137600001,1.384723732,4.14979252,5.88381816,-2.19539966,,,
imu,256.726174,-0.9911391896000001,-9.714599624800002,1.3715643704,4.02268505,6.317478939999999,-1.87389253,,,
imu,256.734649,-0.9899428840000002,-9.812098531200002,1.387714496,4.01520814,6.68384753,-1.35798574,,,
imu,256.743124,-0.9875502728000001,-9.914382660000001,1.3805366624,3.86566994,7.02030848,-0.88694041,,,
imu,256.751598,-0.9558481744000001,-10.0543504152,1.351825328,3.48434753,7.199754319999999,-0.1093417699999999,,,
imu,256.760073,-0.9379035904000002,-9.9269438688,1.3320862856,2.66936434,7.51378454,0.2794575500000001,,,
imu,256.768548,-0.9097904088000002,-9.6039413568,1.339862272,2.30299575,7.625938189999999,0.5112417599999999,,,
imu,256.777023,-0.9085941032000001,-9.614109954400002,1.318926924,2.87871782,7.71566111,0.7205952400000002,,,
imu,256.785498,-0.8996218112000001,-10.201496004,1.2788506864,3.82080848,7.77547639,0.4589033900000001,,,
imu,256.793973,-0.8200674888,-10.3067708968,1.2603079496,3.0880713,7.865199309999999,0.4589033900000001,,,
imu,256.802448,-0.7452983888000001,-10.0770802216,1.2585134912,1.70484295,7.932491499999999,1.07948692,,,
imu,256.810923,-0.7040258456,-9.876699033600001,1.3261047576,0.64312173,7.625938189999999,0.81031816,,,
imu,256.819398,-0.7285501104000001,-9.828248656800001,1.3033749512,0.29918387,7.19227741,0.5187186700000002,,,
imu,256.827873,-0.726755652,-9.852174768800001,1.2728691584,0.3739529699999999,6.78104736,0.4888110299999999,,,
imu,256.836348,-0.6998387760000001,-9.9401032304,1.2908137424,0.46367589,6.22027911,0.6233954100000001,,,
imu,256.844823,-0.6525847048000001,-9.9819739264,1.2489430464,-0.09709236,5.4651112,0.9000410799999998,,,
imu,256.853298,-0.6472013296000001,-9.940701383200002,1.2728691584,-0.39616876,5.113696429999999,1.29631731,,,
imu,256.861773,-0.6747163584000001,-9.880886103200002,1.327899216,-0.65786061,4.784712389999999,1.48324006,,,
imu,256.870248,-0.6765108168000001,-9.881484256,1.2914118952,-0.83730645,4.433297619999999,1.62530135,,,
imu,256.878723,-0.681894192,-9.9789831624,1.2878229784,-0.74758353,4.22394414,2.23840797,,,
imu,256.887174,-0.6842868032,-10.147662252,1.3003841872,-0.94198319,4.08188285,2.57486892,,,
imu,256.895625,-0.7016332344,-10.2212350464,1.2967952704,-2.00370441,4.03702139,2.76179167,,,
imu,256.904076,-0.6705292888000001,-10.2026923096,1.3440493416,-3.50656332,4.20151341,2.90385296,,,
imu,256.912527,-0.6149010784000001,-10.2547316032,1.4289870392,-4.8374533,4.28375942,2.94123751,,,
imu,256.920977,-0.7052221512000001,-10.4060642616,1.5264859456,-6.60948097,4.33609779,2.56739201,,,
imu,256.929428,-0.7925524600000001,-10.590295324,1.6413312832,-8.96470762,4.35105161,2.0365314,,,
imu,256.937879,-0.7704208064000001,-10.6626718128,1.5797215448,-11.82836415,4.807143119999999,1.91690084,,,
imu,256.94633,-0.6675385248000001,-10.4204199288,1.4182202888,-14.96118944,5.330526819999999,2.12625432,,,
imu,256.954781,-0.5197947832,-9.815089295200002,1.3422548832,-17.03977042,5.69689541,2.2608387,,,
imu,256.963232,-0.5329541448,-9.283331456,1.3829292736,-17.33884682,5.90624889,2.10382359,,,
imu,256.971682,-0.5000557408,-8.9980125704,1.4140332192,-15.93318774,5.73427996,2.14120814,,,
imu,256.980133,-0.5042428104000001,-9.1828417856,1.3901071072,-13.45833053,5.67446468,2.55243819,,,
imu,256.988584,-0.4121272792,-9.153532298400002,1.303973104,-11.08815006,5.876341249999999,2.91132987,,,
imu,256.997035,-0.35889168,-9.2312921624,1.4014720104,-8.822646330000001,5.79409524,2.91132987,,,
imu,257.005486,-0.3786307224000001,-9.298285276000001,1.4361648728,-7.17772613,5.22585008,2.45523836,,,
imu,257.013936,-0.3505175408000001,-9.325800304800001,1.3835274264,-5.82440542,4.96415823,2.12625432,,,
imu,257.022387,-0.3553027632,-9.3838211264,1.43556672,-4.351454149999999,4.72489711,2.19354651,,,
imu,257.030838,-0.400762376,-9.468758824,1.4487260816,-3.32711748,4.523020539999999,1.78231646,,,
imu,257.039289,-0.3720510416,-9.495675700000001,1.5019616808,-2.24296553,4.455728349999999,1.18416366,,,
imu,257.04774,-0.2942911776,-9.436458572800001,1.4529131512,-1.36069015,4.171605769999999,0.6832106900000001,,,
imu,257.056191,-0.3313766512,-9.5118258256,1.4289870392,-0.44850713,4.216467229999999,0.36170356,,,
imu,257.064641,-0.2930948720000001,-9.448421628800002,1.399677552,0.67302937,4.1192674,0.05515025000000007,,,
imu,257.073092,-0.3104413032000001,-9.524387034400002,1.4529131512,1.64502767,3.87252937,-0.5579563699999999,,,
imu,257.081543,-0.3947808480000001,-9.573435564,1.4541094568,2.55721069,3.94729847,-0.9318018699999999,,,
imu,257.090007,-0.3738455000000001,-9.554892827200002,1.4397537896,3.43948607,3.9697292,-0.8645096799999998,,,
imu,257.09847,-0.34393786,-9.693664276800002,1.4128369136,4.32176145,3.80523718,-1.253309,,,
imu,257.106934,-0.3810233336,-9.3592968616,1.2686820888,5.18908301,4.00711375,-1.55986231,,,
imu,257.115397,-0.3523119992,-9.408345391200001,1.4098461496,6.48258844,4.410866889999999,-1.64210832,,,
imu,257.123861,-0.3134320672,-9.4980683112,1.399677552,7.85086297,4.739850929999999,-1.37293956,,,
imu,257.132324,-0.2966837888,-9.885671325600002,1.4816244856,8.94249183,4.74732784,-1.17106299,,,
imu,257.140788,-0.3696584304000001,-9.861147060800002,1.4158276776,8.88267655,4.96415823,-1.27573973,,,
imu,257.149251,-0.3493212352000001,-9.815089295200002,1.366779148,8.46396959,5.18098862,-1.13367844,,,
imu,257.157715,-0.3283858872000001,-9.226506940000002,1.2435596712,8.68827689,5.59969558,-0.5280487299999999,,,
imu,257.166179,-0.2889078024000001,-8.626559681600002,1.1317050976,10.80424242,5.95858726,-0.3934643499999999,,,
imu,257.174642,-0.2099516328,-8.5613610264,1.2459522824,15.28291151,5.853910519999999,-0.6775869299999999,,,
imu,255.752832,,,,,,,-85.9997348,164.485886,115.1322216
imu,255.854425,,,,,,,-88.3435172,164.5957508,115.9745184
imu,255.956018,,,,,,,-86.1095996,163.997598,114.3875824
imu,256.057611,,,,,,,-89.21022840000002,164.241742,116.4505992
imu,256.159113,,,,,,,-89.124778,164.6201652,115.2298792
imu,256.260675,,,,,,,-88.99049880000001,164.668994,116.2186624
imu,256.362207,,,,,,,-89.05153480000001,164.3149852,116.5970856
imu,256.46377,,,,,,,-89.490994,164.4126428,116.2430768
imu,257.183106,-0.158510492,-9.0476592528,1.4259962752,19.75410369,5.56231103,-1.06638625,,,
imu,257.191569,-0.1112564208,-9.895241770400002,1.5390471544,22.76729842,5.32304991,-0.9542325999999999,,,
imu,257.200033,-0.152528964,-10.883390196,1.5001672224,22.6775755,5.09874261,-0.5056179999999999,,,
imu,257.208496,-0.218325772,-11.3954089928,1.4277907336,19.21576617,4.6426511,-0.05700339999999993,,,
imu,257.21696,-0.170473548,-11.5515268736,1.4230055112,13.7052835,4.30619015,0.0626271599999999,,,
imu,257.225423,-0.1961941184,-11.1890462768,1.2662894776,7.69384786,4.15665195,0.09253480000000014,,,
imu,257.233887,-0.1878199792,-10.3851289136,1.2214280176,2.65441052,3.85009864,0.1149655300000001,,,
imu,257.24235,-0.1202287128,-9.689477207200001,1.2824396032,0.29918387,3.64822207,-0.07943412999999988,,,
imu,257.250814,-0.08493769760000001,-9.451412392800002,1.3081601736,0.11973803,3.50616078,-0.4308489,,,
imu,257.259277,-0.08912476720000001,-9.5877912312,1.2573171856,0.78518302,2.91548489,-0.8420789499999999,,,
imu,257.267741,-0.1148453376,-9.7403201952,1.193314836,1.65250458,2.60893158,-1.0290017,,,
imu,257.276205,-0.200381188,-9.779200127200001,1.1998945168,1.86933497,2.43696265,-1.29069355,,,
imu,257.284668,-0.2141387024,-9.776807516000002,1.2118575728,2.116073,2.04816333,-1.39537029,,,
imu,257.293505,-0.2278962168,-9.789966877600001,1.2274095456,1.98896553,1.79394839,-1.58976995,,,
imu,257.302342,-0.2207183832,-9.812696684000002,1.21125942,2.07121154,1.51730272,-1.8514618,,,
imu,257.311179,-0.2141387024,-9.824659740000001,1.1867351552,1.80204278,1.13598031,-2.35989168,,,
imu,257.320015,-0.2105497856,-9.821668976000002,1.1550330568,1.83942733,0.84438082,-2.74121409,,,
imu,257.328852,-0.1961941184,-9.867128588800002,1.1520422928,1.70484295,0.4929660499999997,-2.91318302,,,
imu,257.337689,-0.2189239248,-9.937710619200002,1.1795573216,1.57025857,0.4331507699999997,-2.89075229,,,
imu,257.346526,-0.2398592728,-9.971207176000002,1.1861370024,1.25622835,0.4481045899999998,-2.79355246,,,
imu,257.355363,-0.2111479384,-9.964029342400002,1.1729776408,0.88985976,0.4854891399999999,-2.30755331,,,
imu,257.3642,-0.1961941184,-9.935318008000001,1.1538367512,0.2468455,0.4630584099999999,-1.9262309,,,
imu,257.373036,-0.17944584,-9.895839923200002,1.1705850296,0.03749201999999999,0.5677351499999999,-1.88136944,,,
imu,257.381873,-0.1698753952,-9.9000269928,1.1831462384,-0.23167674,0.7920424499999998,-1.9262309,,,
imu,257.39071,-0.152528964,-9.9365143136,1.1741739464,-0.2765382,0.9415806499999997,-2.06081528,,,
imu,257.399547,-0.1609031032,-9.907204826400001,1.1538367512,-0.47093786,0.9415806499999997,-2.25521494,,,
imu,257.408384,-0.1626975616,-9.885671325600002,1.1448644592,-0.5756146,0.7920424499999998,-2.66644499,,,
imu,257.417221,-0.1800439928,-9.886269478400003,1.1388829312,-0.61299915,0.3509047599999997,-3.22721324,,,
imu,257.426057,-0.17944584,-9.935318008000001,1.124527264,-0.47093786,-0.0603252900000002,-4.20668845,,,
imu,257.434894,-0.1812402984,-9.9137845072,1.118545736,-0.60552224,-0.4266938800000002,-4.8422258,,,
imu,257.443731,-0.2135405496,-9.877297186400002,1.1400792368,-0.83730645,-1.00241595,-5.3656095,,,
imu,257.452568,-0.2859170384,-9.876100880800003,1.1586219736,-1.13638285,-1.45103055,-5.62730135,,,
imu,257.461405,-0.3331711096,-9.881484256,1.1657998072,-1.3233056,-1.64543021,-5.37308641,,,
imu,257.470242,-0.3852104032000001,-9.9430939944,1.1687905712,-1.8466893,-1.74263004,-4.954379449999999,,,
imu,257.479078,-0.4354552384000001,-10.0190594,1.1807536272,-2.39250373,-1.57813802,-4.6179185,,,
imu,257.487915,-0.4868963792000001,-9.950869980800002,1.1592201264,-2.87850288,-1.22672325,-4.363703559999999,,,
imu,257.496388,-0.5000557408,-9.815687448000002,1.1789591688,-3.40188658,-0.8902623000000003,-4.08705789,,,
imu,257.50486,-0.4857000736000001,-9.770825988000002,1.1986982112,-3.54394787,-0.2995864100000003,-3.75059694,,,
imu,257.513332,-0.4378478496000001,-9.7821908912,1.178361016,-3.57385551,0.2910894799999997,-3.57862801,,,
imu,257.521805,-0.385808556,-9.782789044000001,1.1998945168,-3.53647096,0.92662683,-3.50385891,,,
imu,257.530277,-0.3642750552,-9.794153947200002,1.2315966152,-3.39440967,1.39019525,-3.30945925,,,
imu,257.53875,-0.3822196392,-9.756470320800002,1.2226243232,-3.34954821,1.75656384,-3.4216129,,,
imu,257.547222,-0.3672658192000001,-9.741516500800001,1.2507375048,-3.09533327,2.10797861,-3.51133582,,,
imu,257.555695,-0.3218062064,-9.70502918,1.2519338104,-2.92336434,2.44443956,-3.36927453,,,
imu,257.564167,-0.2727576768,-9.706225485600001,1.2615042552,-2.60185721,2.48182411,-3.10010577,,,
imu,257.57264,-0.2524204816,-9.718786694400002,1.2722710056,-2.16071952,2.50425484,-2.95804448,,,
imu,257.581112,-0.2434481896,-9.760059237600002,1.303973104,-1.93641222,2.28742445,-3.25712088,,,
imu,257.589584,-0.218325772,-9.755274015200001,1.2967952704,-1.622382,1.80890221,-3.35432071,,,
imu,257.59799,-0.2009793408,-9.758264779200001,1.3464419528,-1.44293616,1.34533379,-3.51881273,,,
imu,257.606462,-0.2404574256,-9.7612555432,1.372760676,-1.27844414,0.7995193599999997,-3.96742733,,,
imu,257.614935,-0.2918985664000001,-9.754675862400001,1.37575144,-0.92702937,0.2836125699999998,-4.20668845,,,
imu,257.623407,-0.3008708584000001,-9.758862932000001,1.3380678136,-0.91955246,-0.1874327600000001,-4.33379592,,,
imu,257.631879,-0.3134320672,-9.788172419200002,1.3422548832,-0.6279529699999999,-0.6435242699999999,-4.25902682,,,
imu,257.640352,-0.34393786,-9.769031529600001,1.3243102992,-0.39616876,-0.7108164600000002,-4.37118047,,,
imu,257.648824,-0.3852104032000001,-9.7845835024,1.3087583264,-0.19429219,-0.80053938,-4.408565019999999,,,
imu,257.657297,-0.3887993200000001,-9.779200127200001,1.2878229784,0.1720764,-1.05475432,-4.50576485,,,
imu,257.665769,-0.4181088072000001,-9.800733628000001,1.2824396032,0.23936859,-0.9276468500000004,-4.80484125,,,
imu,257.674242,-0.4378478496000001,-9.8402117128,1.3087583264,0.16459949,-0.8080162900000003,-4.90204108,,,
imu,257.682714,-0.4593813504000001,-9.892251006400002,1.3296936744,0.02253820000000001,-0.4865091600000002,-4.999240909999999,,,
imu,257.691187,-0.4282774048000001,-9.901821451200002,1.3392641192,-0.31392275,-0.1575251200000003,-5.10391765,,,
imu,257.69964,-0.4378478496000001,-9.821668976000002,1.3350770496,-0.44103022,0.3209971199999999,-5.14877911,,,
imu,257.708093,-0.4288755576000001,-9.783985349600002,1.3404604248,-0.68029134,0.9191499199999997,-5.01419473,,,
imu,257.716547,-0.3971734592000001,-9.794153947200002,1.31593616,-0.79244499,1.24813396,-4.70016451,,,
imu,256.565311,,,,,,,-89.77175960000001,164.607958,115.278708
imu,256.666874,,,,,,,-90.0647324,165.3648044,115.339744
imu,256.768436,,,,,,,-90.3699124,165.2427324,115.6083024
imu,256.87009,,,,,,,-88.3679316,165.2915612,113.2523128
imu,256.971531,,,,,,,-90.6140564,166.5733172,115.1444288
imu,257.073124,,,,,,,-88.68531880000002,166.4756596,112.0560072
imu,257.174625,,,,,,,-91.3464884,167.1836772,113.447628
imu,257.276218,,,,,,,-90.8826148,168.0992172,112.6663672
imu,257.377842,,,,,,,-91.07793,167.537686,113.7406008
imu,257.479343,,,,,,,-91.05351560000001,167.5621004,114.1556456
imu,257.580906,,,,,,,-90.8459932,167.6963796,114.302132
imu,257.682499,,,,,,,-90.68729959999999,168.0015596,113.813844
