Type,Timestamp,Data Accelerometer X,Data Accelerometer Y,Data Accelerometer Z,Data Gyroscope X,Data Gyroscope Y,Data Gyroscope Z,Data Magnetometer X,Data Magnetometer Y,Data Magnetometer Z
imu,184.390312,0.3044597752,-9.372456223200002,2.8298608968,-17.59306176,131.29402959,-17.46324988,,,
imu,184.39877,0.4037531400000001,-9.420906600000002,2.9291542616,-17.70521541,127.20415982,-15.9828217,,,
imu,184.407229,0.5018501992000001,-9.446627170400001,3.0260550152,-18.09401473,122.72549073,-15.25008452,,,
imu,184.415687,0.6364345792000001,-9.409541696800002,3.0816832256,-18.60992152,118.05989889,-14.7865161,,,
imu,184.424145,0.6896701784000001,-9.348530111200002,3.142694811200001,-18.87909028,113.22981503,-14.5622088,,,
imu,184.432604,0.7123999848000001,-9.338959666400001,3.214473147200001,-19.14078213,108.20533151,-14.23322476,,,
imu,184.441062,0.7542706808000001,-9.326398457600002,3.296420080800001,-19.27536651,103.36029383,-13.5154414,,,
imu,184.449521,0.8015247520000001,-9.344941194400002,3.4022931264,-19.25293578,98.50777924,-12.74531967,,,
imu,184.457979,0.8445917536,-9.373652528800001,3.489025282400001,-19.33518179,93.98424869,-11.83313665,,,
imu,184.466447,0.9014162696000001,-9.318622471200001,3.528503367200001,-19.55201218,89.25884157,-11.03310728,,,
imu,184.474914,0.9791761336000001,-9.184038091200001,3.54405534,-19.70902729,84.60820355,-10.16578572,,,
imu,184.483381,1.0162616072,-9.055435239200001,3.5895149528,-19.36508943,79.91270407,-9.38071017,,,
imu,184.491849,1.0712916648,-8.994423653600002,3.678639720000001,-18.60992152,75.08262021,-8.34141968,,,
imu,184.500316,1.1317050976,-8.978871680800001,3.754006972800001,-17.45847738,70.34973618000001,-7.26474464,,,
imu,184.508783,1.1646035016,-8.971693847200001,3.8180093224,-16.37432543,65.51217541,-6.315177069999999,,,
imu,184.517251,1.1741739464,-8.917261942400001,3.844328045600001,-15.22288129,60.75686064999999,-5.27588658,,,
imu,184.525718,1.1460607648,-8.863428190400002,3.861076324,-14.1088217,56.37539139,-4.17678081,,,
imu,184.534185,1.118545736,-8.785070173600001,3.8897876584,-12.83027009,52.09859887,-3.30945925,,,
imu,184.542653,1.1089752912,-8.736619796800001,3.90294702,-11.37227264,47.82180635,-2.60662971,,,
imu,184.55112,1.0629175256,-8.698338017600001,3.912517464800001,-9.72735244,44.30765865,-1.82903107,,,
imu,184.559588,0.9480721880000001,-8.723460435200002,3.9729308976,-8.01514005,41.23464864,-0.85703277,,,
imu,184.568055,0.7692245008,-8.771312659200001,3.988482870400001,-6.385173669999999,38.60277632,0.2570268200000001,,,
imu,184.576522,0.6089195504,-8.837109467200001,4.0189886632,-5.20382189,36.71111809,1.35613259,,,
imu,184.58499,0.5209910888,-8.861633732000001,4.0309517192,-4.48603853,35.44004339,2.12625432,,,
imu,184.593457,0.490485296,-8.870007871200002,4.0297554136,-3.7159168,34.65496784,2.36551544,,,
imu,184.601924,0.4874945320000001,-8.871802329600001,4.037531400000001,-2.93084125,34.21383015,2.17111578,,,
imu,184.610392,0.4348570856000001,-8.823351952800001,4.022577580000001,-1.98127368,33.92223066,1.8122241,,,
imu,184.618859,0.3505175408000001,-8.770714506400001,4.013007135200001,-0.85973718,33.93718448,1.5879168,,,
imu,184.627326,0.236270356,-8.715684448800001,3.983099495200001,0.45619898,34.48299891,1.30379422,,,
imu,184.635794,0.08314323920000001,-8.672019294400002,3.9573789248,1.85438115,35.5222894,1.01967164,,,
imu,184.644261,-0.1303973104,-8.6486913352,3.928069437600001,3.25256332,37.30927089,0.9374256299999999,,,
imu,184.652728,-0.3403489432000001,-8.663645155200001,3.887395047200001,4.71056077,40.10563523,1.2888404,,,
imu,184.661196,-0.4713444064,-8.712095532000001,3.851505879200001,5.99658929,43.70202894,1.71502427,,,
imu,184.669654,-0.4569887392,-8.792248007200001,3.8473188096,6.98354141,47.81432943999999,1.8869932,,,
imu,184.678113,-0.3307784984000001,-8.8604374264,3.855094796,7.71627859,51.75466101,1.28136349,,,
imu,184.686571,-0.1070693512,-8.905897039200001,3.871244921600001,8.57612324,55.22394724999999,0.1523500800000002,,,
imu,184.695215,0.1262102408,-8.9429825128,3.8981617976,9.18175295,57.88572721,-1.68696978,,,
imu,184.703673,0.3253951232,-8.914271178400002,3.8772264496,9.892059399999999,59.65027797,-3.83284295,,,
imu,184.712132,0.5287670752,-8.921449012000002,3.859880018400001,10.46030456,60.5699379,-5.67216281,,,
imu,184.72059,0.7279519576000001,-8.960328944,3.8263834616,11.33510303,60.83162975,-7.33203683,,,
imu,184.729049,0.9157719368000001,-9.027322057600001,3.8078407248,12.14260931,60.44283042999999,-8.83489574,,,
imu,184.737507,1.0724879704,-9.038088808000001,3.786307224000001,12.74076211,59.72504707,-10.09849353,,,
imu,184.745966,1.2399707544,-9.055435239200001,3.7779330848,13.23423817,58.25957270999999,-11.23498385,,,
imu,184.754424,1.4068553856,-9.065603836800001,3.746829139200001,13.83986788,56.36791448,-12.3191358,,,
imu,184.762883,1.549215752,-9.082950268000001,3.703762137600001,14.34082085,54.07998001999999,-13.11168826,,,
imu,184.771341,1.680809368,-9.106876380000001,3.6642840528,15.08851185,51.46306152,-13.4406723,,,
imu,184.7798,1.7573729264,-9.131400644800001,3.608655842400001,15.79134139,48.4573437,-13.52291831,,,
imu,184.788258,1.8141974424,-9.155326756800001,3.5667851464,16.27734054,45.24974931,-13.41076466,,,
imu,184.796716,1.8656385832,-9.221721717600001,3.5823371192,16.72595514,41.86270907999999,-13.20141118,,,
imu,184.805175,1.9069111264,-9.322211388000001,3.570374063200001,16.95773935,38.16163863,-13.05934989,,,
imu,184.813633,1.9206686408,-9.439449336800001,3.562598076800001,16.81567806,34.54281419,-12.63316602,,,
imu,184.822092,1.9266501688,-9.501657228000001,3.5548220904,16.2474329,30.86417447,-12.06492086,,,
imu,184.83055,1.9099018904,-9.532163020800002,3.5087643248,15.32029606,27.17805784,-11.5714448,,,
imu,184.839009,1.8746108752,-9.524387034400002,3.460912100800001,14.37072849,23.73867924,-10.85366144,,,
imu,184.847467,1.803430692,-9.5213962704,3.4202377104,13.49593002,20.40397738,-10.02372443,,,
imu,184.855926,1.7412228008,-9.493283088800002,3.3628150416,12.79310048,17.41321338,-8.94704939,,,
imu,184.864384,1.7005484104,-9.472347740800002,3.3035979144,12.17999386,14.6617105,-7.72083615,,,
imu,184.87322,1.6670518536,-9.453805004000001,3.270699510400001,11.54445651,11.94759217,-6.80865313,,,
imu,184.882055,1.6275737688,-9.439449336800001,3.2324177312,10.91639607,9.1287971,-6.24040797,,,
imu,184.890891,1.5809178504,-9.416719530400002,3.1785839792,10.69208877,6.48197096,-5.72450118,,,
imu,184.899726,1.5414397656,-9.3664746952,3.1516671032,10.43787383,3.98468302,-5.6646859,,,
imu,184.908562,1.4959801528,-9.3413522776,3.1229557688,10.38553546,1.68179474,-6.16563887,,,
imu,184.917397,1.453511304,-9.344941194400002,3.1026185736,10.50516602,-0.4939860700000001,-6.80865313,,,
imu,184.926233,1.426594428,-9.348530111200002,3.0511774328,10.87153461,-2.52022868,-7.39185211,,,
imu,184.935068,1.4128369136,-9.346735652800001,3.0182790288,11.20051865,-4.35954854,-8.26665058,,,
imu,184.943904,1.4206129,-9.3335762912,3.003325208800001,11.71642544,-6.43812952,-9.05920304,,,
imu,184.952739,1.4349685672,-9.328192916,2.990764,12.31457824,-8.42698758,-9.64240202,,,
imu,184.961575,1.4493242344,-9.343146736000001,3.001530750400001,12.71833138,-10.56538384,-10.17326263,,,
imu,184.97041,1.5157191952,-9.402962016000002,3.0398125296,13.05479233,-12.95051813,-10.66673869,,,
imu,184.979246,1.6461165056,-9.509433214400001,3.0912536704,13.39873019,-15.66463646,-11.15273784,,,
imu,184.988081,1.851282916,-9.6075302736,3.1480781864,13.57817603,-18.90213849,-11.42938351,,,
imu,184.996917,2.1222461344,-9.680504915200002,3.1714061456,13.87725243,-22.98453135,-11.33966059,,,
imu,185.005752,2.4213225344,-9.633848996800001,3.1414985056,13.9295908,-28.27070672,-11.05553801,,,
imu,185.014588,2.718604476,-9.529770409600001,3.078094308800001,13.8548217,-34.97749499,-10.75646161,,,
imu,185.023423,2.975810180000001,-9.406550932800002,2.962052665600001,14.28100557,-42.99274251,-10.24803173,,,
imu,185.032259,3.128339144,-9.263592413600001,2.8214867576,15.09598876,-52.09961889,-9.14144905,,,
imu,185.041094,3.121759463200001,-9.114652366400001,2.6300778616,16.30724818,-61.78969425,-7.54886722,,,
imu,185.04993,2.987773236,-9.024331293600001,2.467380300000001,17.8923531,-71.44238505999999,-5.29831731,,,
imu,185.058765,2.761671477600001,-9.015359001600002,2.3734703104,19.75410369,-80.42215397,-2.45709151,,,
imu,185.067601,2.500278704,-9.045266641600001,2.2717843344,21.54108518,-88.57946277999999,0.7355490599999999,,,
imu,185.076076,2.2436711528,-9.066201989600001,2.165313136,23.2009592,-95.43578925,4.06277401,,,
imu,185.084551,2.012784172,-9.086539184800001,2.0654216184,24.59914137,-101.1556254,7.25541458,,,
imu,185.093026,1.7681396768,-9.138578478400001,1.9571559616,25.5935704,-105.89598634,10.22374785,,,
imu,185.101501,1.5205044176,-9.265386872,1.9069111264,26.52818415,-109.57462606,13.34161932,,,
imu,185.109976,1.25612088,-9.432869656000001,1.8967425288,27.00670639,-112.19902147,16.25761422,,,
imu,185.118451,0.9791761336000001,-9.580613397600002,1.9087055848,26.90950656,-114.11311043,19.28576277,,,
imu,185.126926,0.7094092208000001,-9.766040765600001,1.9033222096,26.40855359,-115.16735474,21.82791217,,,
imu,185.135401,0.4539979752000001,-9.959842272800001,1.926052016,25.15243271,-115.34680058,23.71209349,,,
imu,185.143876,0.2045682576000001,-10.1674012944,1.9792876152,23.52994324,-114.64397104,24.98316819,,,
imu,185.15235,-0.0562263632,-10.3235191752,2.0211583112,21.20462423,-113.35046561,25.35701369,,,
imu,185.160825,-0.3481249296000001,-10.3827363024,2.0612345488,18.69238247,-111.37656137,24.59436887,,,
imu,185.1693,-0.6783052752000002,-10.3803436912,2.1102830784,16.18014071,-108.41570501,22.77747974,,,
imu,185.177775,-0.9893447312000001,-10.3576138848,2.1778743448,13.87725243,-104.16134322,20.54188365,,,
imu,185.18625,-1.175370252,-10.34804344,2.2658028064,11.75380999,-99.03218295999999,17.61841184,,,
imu,185.194725,-1.1945111416,-10.3043782856,2.3429645176,9.592982999999998,-93.43945427999999,13.81266465,,,
imu,185.2032,-1.0958159296,-10.2236276576,2.3848352136,7.85086297,-87.69718739999999,10.01439437,,,
imu,185.211675,-0.9815687448000001,-10.0687060824,2.3908167416,6.36295788,-82.32128911,6.103970440000001,,,
imu,185.22015,-0.8990236584000001,-9.8563618384,2.3609091016,5.12179082,-77.90991220999999,2.20850033,,,
imu,185.228625,-0.8421991424,-9.699047652,2.3274125448,4.29933072,-74.00696518999999,-0.7523560299999998,,,
imu,185.2371,-0.8559566568000001,-9.644017594400001,2.3232254752,4.08250033,-70.05915671,-2.93561375,,,
imu,185.245575,-0.8703123240000001,-9.630858232800001,2.335786684,4.09745415,-66.29079406999999,-4.37865738,,,
imu,185.25405,-0.8834716856000001,-9.614708107200002,2.3525349624,4.07502342,-62.47756997,-5.4403786,,,
imu,185.262525,-0.8798827688,-9.595567217600001,2.3573201848,3.97782359,-58.39517711,-5.94133157,,,
imu,185.271,-0.8906495192000001,-9.557285438400001,2.3591146432,4.01520814,-54.58942992,-5.99366994,,,
imu,185.279469,-0.8912476720000001,-9.546518688,2.3824426024,4.11988488,-50.71639054,-5.9637623,,,
imu,185.287938,-0.8768920048000002,-9.553696521600001,2.4123502424,4.25446926,-47.04522773,-5.57496298,,,
imu,185.296406,-0.8631344904,-9.593174606400002,2.4350800488,4.32923836,-43.46378784,-5.20859439,,,
imu,185.304875,-0.8589474208000002,-9.613511801600001,2.443454188,4.26942308,-40.08422452,-4.954379449999999,,,
imu,185.313343,-0.8481806704000001,-9.6218859408,2.446444952,3.95539286,-37.04112215,-4.73007215,,,
imu,185.321812,-0.8296379336000002,-9.639830524800002,2.461398772,3.82080848,-33.87091231,-4.52071867,,,
imu,185.330281,-0.8015247520000001,-9.651793580800001,2.4631932304,3.65631646,-31.05211724,-4.37865738,,,
imu,185.338749,-0.7668318896,-9.654186192000001,2.473959980800001,3.40210152,-28.31556818,-4.47585721,,,
imu,185.347218,-0.7285501104000001,-9.6643547896,2.4817359672,3.34228624,-25.84818788,-4.70764142,,,
imu,185.355687,-0.6992406232000001,-9.669140012000002,2.4859230368,3.0133022,-23.73222235,-5.09644074,,,
imu,185.364155,-0.6442105656,-9.652989886400002,2.469772911200001,2.76656417,-21.8256103,-5.522624609999999,,,
imu,185.372624,-0.6029380224,-9.6248767048,2.471567369600001,2.60207215,-19.97133662,-6.01610067,,,
imu,185.381092,-0.5664507016000001,-9.597361676,2.4889138008,2.43010322,-18.71521574,-6.56939201,,,
imu,185.389561,-0.5197947832,-9.588389384000001,2.5050639264,2.38524176,-17.54134087,-7.10772953,,,
imu,185.39803,-0.4785222400000001,-9.594370912,2.5104473016,2.5646876,-16.56186566,-7.518959579999999,,,
imu,185.406498,-0.4480164472000001,-9.624278552000002,2.5038676208,2.66936434,-15.89642067,-7.85542053,,,
imu,185.414967,-0.4175106544000001,-9.612913648800001,2.5200177464,2.79647181,-15.41042152,-8.17692766,,,
imu,185.423436,-0.3923882368,-9.606333968000001,2.522410357600001,2.83385636,-15.01414529,-8.41618878,,,
imu,185.431904,-0.4169125016,-9.5949690648,2.5421494,2.84133327,-14.77488417,-8.304035129999999,,,
imu,185.440373,-0.4294737104000001,-9.593772759200002,2.57205704,2.90862546,-14.58048451,-8.22178912,,,
imu,185.448841,-0.4462219888000001,-9.635643455200002,2.6169185,2.97591765,-14.22159283,-8.10215856,,,
imu,185.45731,-0.4719425592000001,-9.7008421104,2.6563965848,2.75908726,-13.99728553,-7.713359239999999,,,
imu,185.465779,-0.4976631296000001,-9.7403201952,2.6988654336,2.22822665,-13.83279351,-7.39932902,,,
imu,185.474247,-0.5168040192000001,-9.766638918400002,2.733558296,1.63007385,-13.70568604,-6.988098969999999,,,
imu,185.482689,-0.5610673264,-9.760059237600002,2.7233896984,1.17398234,-13.44399419,-6.382469260000001,,,
imu,185.491131,-0.5873860496000001,-9.743909112,2.6982672808,0.46367589,-13.27202526,-5.896470109999999,,,
imu,185.499573,-0.5945638832000001,-9.676915998400002,2.6563965848,-0.13447691,-13.02528723,-5.3656095,,,
imu,185.508015,-0.5987509528,-9.5949690648,2.613927736,-0.28401511,-12.69630319,-4.670256869999999,,,
imu,185.516457,-0.6077232448000001,-9.527975951200002,2.5756459568,-0.26158438,-12.1803964,-3.97490424,,,
imu,185.524899,-0.6149010784000001,-9.485507102400002,2.5594958312,0.02253820000000001,-11.72430489,-3.21225942,,,
imu,185.533341,-0.5987509528,-9.475936657600002,2.52719558,0.4711528,-11.01399844,-2.17296893,,,
imu,185.541783,-0.5796100632000001,-9.478927421600002,2.518223288000001,0.8823828499999999,-10.43827637,-1.4028472,,,
imu,185.550225,-0.5640580904000001,-9.481320032800001,2.524204816,1.17398234,-9.81021593,-0.62524856,,,
imu,185.558667,-0.5562821040000001,-9.4753385048,2.5236066632,1.58521239,-8.9653251,0.2570268200000001,,,
imu,185.567109,-0.520392936,-9.492086783200001,2.521214052,1.84690424,-8.12791118,1.11687147,,,
imu,185.57555,-0.4970649768000001,-9.5249851872,2.5343734136,2.07121154,-7.41012782,1.737455,,,
imu,185.583992,-0.4719425592000001,-9.5698466472,2.5439438584,2.18336519,-6.520375530000001,2.43280763,,,
imu,185.592434,-0.439642308,-9.597361676,2.554112456,2.23570356,-5.466131219999999,2.91880678,,,
imu,185.600876,-0.3935845424,-9.612315496,2.570860734400001,2.12354991,-4.47170219,3.19545245,,,
imu,185.609318,-0.3487230824000001,-9.661962178400001,2.5905997768,1.92915025,-3.52213462,3.32255992,,,
imu,185.61776,-0.2763465936,-9.710412555200001,2.6175166528,1.80204278,-2.88659727,3.50948267,,,
imu,185.626202,-0.1961941184,-9.7295534448,2.6091425136,1.43567419,-2.20619846,3.13563717,,,
imu,185.634644,-0.113649032,-9.717590388800001,2.6240963336,1.11416706,-1.66786094,2.76179167,,,
imu,185.643086,-0.04845037680000001,-9.7217774584,2.6336667784,0.53844499,-1.59309184,2.35056162,,,
imu,185.651528,0.011963056,-9.673925234400002,2.6193111112,0.20946095,-1.47346128,2.05896213,,,
imu,185.65997,0.05682451600000001,-9.611119190400002,2.583421943200001,-0.04475399000000001,-1.39869218,1.77483955,,,
imu,184.458116,,,,,,,75.1719268,-29.35224280000002,113.935916
imu,184.559678,,,,,,,75.916566,-28.53436040000001,107.5637576
imu,184.661241,,,,,,,73.54836920000001,-26.42251480000002,106.3430376
imu,184.762834,,,,,,,76.99079959999999,-26.77652360000003,100.7887616
imu,184.864396,,,,,,,74.98881879999999,-25.11634440000001,102.522184
imu,184.965928,,,,,,,75.367242,-25.23841640000002,99.4581768
imu,185.786853,-0.0305057928,-9.665551095200001,2.5618884424,2.91610237,-2.29592138,-5.47028624,,,
imu,185.795318,-0.0514411408,-9.694860582400002,2.5696644288,2.69179507,-2.26601374,-5.739455,,,
imu,185.803783,-0.0681894192,-9.710412555200001,2.560093984,2.65441052,-1.90712206,-5.851608649999999,,,
imu,185.812248,-0.09390998960000001,-9.709216249600003,2.557103220000001,2.31047266,-1.66786094,-5.739455,,,
imu,185.820713,-0.110658268,-9.7074217912,2.5565050672,1.89924261,-1.40616909,-5.806747189999999,,,
imu,185.829177,-0.1309954632,-9.711010708000002,2.5792348736,1.54035093,-1.33139999,-5.9637623,,,
imu,185.837642,-0.128602852,-9.7074217912,2.5732533456,1.06182869,-1.24915398,-6.14320814,,,
imu,185.846107,-0.1447529776,-9.690673512800002,2.5678699704,0.45619898,-1.15195415,-6.36751544,,,
imu,185.854572,-0.1597067976,-9.659569567200002,2.5612902896,0.08983038999999998,-1.06970814,-6.4123769,,,
imu,185.863037,-0.1866236736,-9.613511801600001,2.545140164,-0.10456927,-0.9949390400000002,-6.38994617,,,
imu,185.871501,-0.191408896,-9.566257730400002,2.5104473016,-0.07466163,-1.12952342,-6.47219218,,,
imu,185.879966,-0.1878199792,-9.5154147424,2.4817359672,0.14216876,-1.21924634,-6.554438189999999,,,
imu,185.88879,-0.1949978128,-9.478329268800001,2.471567369600001,0.14964567,-1.25663089,-6.82360695,,,
imu,185.897613,-0.1961941184,-9.4526086984,2.4667821472,0.49358353,-1.35383072,-7.02548352,,,
imu,185.906437,-0.2111479384,-9.479525574400002,2.4727636752,1.08425942,-1.43607673,-7.167544809999999,,,
imu,185.915261,-0.2374666616,-9.519601812000001,2.491306412,1.368382,-1.45103055,-7.28717537,,,
imu,185.924084,-0.2703650656,-9.5566872856,2.5056620792,1.55530475,-1.6379533,-7.37689829,,,
imu,185.932908,-0.2865151912,-9.572239258400002,2.5134380656,1.71979677,-1.83235296,-7.48157503,,,
imu,185.941731,-0.3074505392,-9.61530626,2.5355697192,2.04878081,-1.75010695,-7.30212919,,,
imu,185.950555,-0.3337692624,-9.658971414400002,2.5565050672,2.03382699,-1.570661110000001,-7.19745245,,,
imu,185.959378,-0.3600879856,-9.676317845600002,2.554112456,1.86933497,-1.39869218,-7.10772953,,,
imu,185.968202,-0.3624805968,-9.685290137600001,2.5636829008,1.48801256,-1.32392308,-6.89837605,,,
imu,185.977025,-0.3702565832000001,-9.687084596000002,2.5714588872,1.38333582,-1.1145696,-6.50209982,,,
imu,185.985849,-0.3702565832000001,-9.676317845600002,2.566075512,1.17398234,-0.8977392100000001,-6.24040797,,,
imu,185.994673,-0.3600879856,-9.6912716656,2.5905997768,0.7104139199999999,-0.88278539,-5.98619303,,,
imu,186.003496,-0.3612842912,-9.693664276800002,2.5911979296,0.44124516,-0.88278539,-5.71702427,,,
imu,186.01232,-0.3612842912,-9.689477207200001,2.578038568,0.03749201999999999,-0.9126930300000002,-5.88151629,,,
imu,186.021143,-0.3553027632,-9.663158484000002,2.5756459568,-0.23915365,-0.9575544899999997,-5.806747189999999,,,
imu,186.029967,-0.367863972,-9.668541859200001,2.5965813048,-0.55318387,-0.88278539,-5.57496298,,,
imu,186.03879,-0.3804251808,-9.672728928800002,2.606749902400001,-0.60552224,-0.8977392100000001,-5.34317877,,,
imu,186.047614,-0.3870048616000001,-9.6942624296,2.6240963336,-0.6279529699999999,-0.90521612,-5.15625602,,,
imu,186.056437,-0.3887993200000001,-9.743909112,2.6504150568,-0.8522602699999999,-0.9201699400000001,-4.999240909999999,,,
imu,186.065261,-0.406743904,-9.812696684000002,2.7024543504,-1.21115195,-0.9799852200000005,-4.87213344,,,
imu,186.074085,-0.4091365152000001,-9.9167752712,2.769447464,-1.81678166,-1.06970814,-4.931948719999999,,,
imu,186.082908,-0.3899956256000001,-9.983768384800001,2.783204978400001,-3.00561035,-1.55570729,-5.42542478,,,
imu,186.091386,-0.3564990688,-9.926345716,2.7371472128,-4.28416196,-1.8622606,-5.83665483,,,
imu,186.099863,-0.3642750552,-9.809107767200002,2.6880986832,-5.66739031,-1.95198352,-6.16563887,,,
imu,186.108341,-0.4199032656,-9.722375611200002,2.6653688768,-7.05061866,-2.15386009,-6.292746339999999,,,
imu,186.116818,-0.4539979752000001,-9.636241608,2.638452000800001,-7.775878929999999,-1.9370297,-5.918900839999999,,,
imu,186.125296,-0.5185984776000001,-9.599156134400001,2.640844612,-8.21701662,-1.31644617,-5.350655679999999,,,
imu,186.133773,-0.6274622872000001,-9.645213900000002,2.6665651824,-8.299262630000001,-0.5164168,-4.70016451,,,
imu,186.142251,-0.7758041816000001,-9.725366375200002,2.7144174064,-8.41889319,0.8742884599999998,-3.93751969,,,
imu,186.150728,-0.9624278552000001,-9.748096181600001,2.7299693792,-8.76283105,3.02763854,-3.24216706,,,
imu,186.159206,-1.1400792368,-9.755872168000002,2.70664142,-9.51799896,5.78661833,-2.83093701,,,
imu,186.167683,-1.312945396,-9.744507264800001,2.685706072000001,-10.09372103,9.45778114,-2.72626027,,,
imu,186.176161,-1.4038646216,-9.714599624800002,2.6641725712,-10.60962782,13.52522018,-3.2720747,,,
imu,186.184638,-1.3984812464,-9.6458120528,2.6240963336,-10.93861186,17.86182798,-4.28893446,,,
imu,186.193116,-1.3392641192,-9.567454036,2.6001702216,-11.2675959,22.19843578,-5.77683955,,,
imu,186.201594,-1.2417652128,-9.4938812416,2.60196468,-11.32741118,26.15372117,-7.54886722,,,
imu,186.210071,-1.127518028,-9.451412392800002,2.628881556000001,-10.95356568,29.63796123,-9.14892596,,,
imu,186.218549,-1.0001114816,-9.425691822400001,2.6510132096,-10.31802833,32.56143304,-10.60692341,,,
imu,186.227026,-0.8750975464000001,-9.393989724,2.6845097664,-9.60024497,34.9241366,-11.83313665,,,
imu,186.235504,-0.7530743752000001,-9.368269153600002,2.712622948,-8.822646330000001,36.73354882,-12.70045821,,,
imu,186.243981,-0.6483976352,-9.3557079448,2.7443250464,-8.08990915,38.1392079,-13.23879573,,,
imu,186.252459,-0.5413282840000001,-9.335968902400001,2.7826068256,-7.327264329999999,38.99905254999999,-13.39581084,,,
imu,186.260936,-0.4563905864000001,-9.325202152000001,2.8095237016,-6.53471187,39.5598208,-13.11168826,,,
imu,186.269414,-0.3750418056000001,-9.323407693600002,2.8340479664,-5.71225177,39.76169737,-12.46119709,,,
imu,186.277891,-0.2996745528,-9.308453873600001,2.85617962,-4.822499479999999,39.87385102,-11.47424497,,,
imu,186.286369,-0.212344244,-9.3006778872,2.8866854128,-4.3140696,39.46262097,-10.3751392,,,
imu,186.294834,-0.122621324,-9.280340692000001,2.8926669408,-3.4916095,38.72240687999999,-9.00686467,,,
imu,186.303298,-0.02990764000000001,-9.260003496800001,2.892068788,-2.75887232,37.63825493,-7.6834516,,,
imu,186.311763,0.04605776560000001,-9.252227510400001,2.9159949,-1.86912003,36.56157989,-6.24040797,,,
imu,186.320228,0.08972292000000001,-9.252227510400001,2.9321450256,-1.06161375,35.18582845,-4.87213344,,,
imu,186.328693,0.1280046992,-9.280340692000001,2.9500896096,-0.38869185,33.48856988,-3.59358183,,,
imu,186.337158,0.1758569232,-9.322809540800002,2.9680341936,0.34404533,31.79131131,-2.43466078,,,
imu,186.345623,0.2111479384,-9.3628857784,2.9811935552,0.97210577,30.03423746,-1.39537029,,,
imu,186.354087,0.263187232,-9.370661764800001,2.9871750832,1.52539711,28.13510232,-0.6701100199999999,,,
imu,186.362552,0.2936930248,-9.389204501600002,2.9925584584,1.86185806,26.13876735,-0.2065416,,,
imu,186.371017,0.2972819416,-9.415523224800001,2.996745528,2.07868845,23.91812508,0.1448731699999999,,,
imu,186.379482,0.3032634696000001,-9.4496179344,3.0218679456,2.27308811,21.99655921,0.3691804699999999,,,
imu,186.387947,0.3331711096,-9.498666464000001,3.014690112,2.3403803,20.0450857,0.5561032200000002,,,
imu,186.396411,0.3642750552,-9.528574104,3.008708584,2.31047266,18.16838129,0.60844159,,,
imu,186.404876,0.3720510416,-9.5590798968,3.011699348,2.1908421,16.17204632,0.60844159,,,
imu,186.413341,0.3732473472,-9.595567217600001,3.0302420848,1.98896553,14.2130959,0.54862631,,,
imu,186.421806,0.3570972216000001,-9.632054538400002,3.0493829744,1.5179202,12.15694565,0.2719806400000002,,,
imu,186.430271,0.3511156936,-9.635643455200002,3.071514628,1.1440747,10.45221017,0.2121653600000002,,,
imu,186.438735,0.3283858872000001,-9.672130776000001,3.086468448,0.63564482,8.85962834,-0.18411087,,,
imu,186.4472,0.2733558296,-9.706823638400001,3.089459212,0.15712258,7.386677069999999,-0.5355256399999999,,,
imu,186.455665,0.2135405496,-9.685290137600001,3.0852721424,-0.5756146,6.37729422,-0.68506384,,,
imu,186.46413,0.1567160336,-9.663158484000002,3.0739072392,-1.27096723,5.48754193,-0.8645096799999998,,,
imu,186.472595,0.1154434904,-9.634447149600001,3.071514628,-1.80182784,4.96415823,-1.14115535,,,
imu,186.48106,0.09510629520000001,-9.6117173432,3.075103544800001,-2.27287317,4.63517419,-1.51500085,,,
imu,186.489524,0.09630260080000001,-9.572837411200002,3.0667294056,-2.60185721,4.40338998,-1.81407725,,,
imu,186.497979,0.0855358504,-9.506442450400002,3.056560808,-2.68410322,4.40338998,-1.88884635,,,
imu,186.506434,0.07177833600000001,-9.441841948000002,3.0302420848,-2.56447266,4.246374869999999,-1.99352309,,,
imu,185.067491,,,,,,,74.98881879999999,-25.28724520000001,102.4123192
imu,185.169175,,,,,,,74.8545396,-26.69107320000002,108.2717752
imu,185.270616,,,,,,,76.9053492,-28.59539640000002,113.7039792
imu,185.372178,,,,,,,78.05282600000001,-29.95039560000001,116.7069504
imu,185.473832,,,,,,,78.77305080000001,-29.99922440000002,116.7313648
imu,185.575303,,,,,,,79.02940199999999,-30.63399880000002,118.696724
imu,185.676835,,,,,,,80.4088156,-29.87715240000002,119.246048
imu,185.778398,,,,,,,82.8624628,-31.18332280000002,115.8036176
imu,186.607889,0.281131816,-9.422701058400001,2.9752120272,3.12545585,1.33037997,-3.496382,,,
imu,186.616344,0.281131816,-9.427486280800002,2.966837888,3.22265568,0.6499811599999998,-3.36179762,,,
imu,186.624799,0.275150288,-9.437654878400002,2.966239735200001,3.36471697,0.01444380999999995,-3.20478251,,,
imu,186.633253,0.2847207328,-9.460982837600001,2.9811935552,3.73856247,-0.5837089900000003,-2.96552139,,,
imu,186.641708,0.3056560808,-9.481320032800001,2.989567694400001,3.95539286,-1.37626145,-2.90570611,,,
imu,186.650163,0.3265914288,-9.5148165896,3.0009325976,3.86566994,-2.28096756,-2.76364482,,,
imu,186.658617,0.3469286240000001,-9.544126076800001,3.0140919592,3.78342393,-3.33521187,-2.76364482,,,
imu,186.667072,0.3457323184,-9.524387034400002,3.0039233616,3.97782359,-4.35207163,-2.56176825,,,
imu,186.675526,0.3499193880000001,-9.5040498392,2.9853806248,3.82080848,-5.428746670000001,-2.46456842,,,
imu,186.683981,0.3421434016,-9.479525574400002,2.9542766792,3.70117792,-6.69982137,-2.04586146,,,
imu,186.692436,0.331974804,-9.4621791432,2.927957956,3.82080848,-7.97089607,-1.75426197,,,
imu,186.700898,0.3265914288,-9.438851184,2.9207801224,4.01520814,-9.15224785,-1.50752394,,,
imu,186.70936,0.3128339144,-9.413130613600002,2.9165930528,4.17222325,-10.34107654,-1.39537029,,,
imu,186.717823,0.2966837888,-9.438851184,2.9255653448,4.40400746,-11.61962815,-1.4028472,,,
imu,186.726285,0.2697669128,-9.495077547200001,2.9465006928,4.59840712,-12.91313358,-1.35050883,,,
imu,186.734747,0.2320832864,-9.554294674400001,2.951884068,4.54606875,-14.15430064,-1.50752394,,,
imu,186.743209,0.206362716,-9.5632669664,2.9506877624,4.44139201,-15.35060624,-1.63463141,,,
imu,186.751672,0.1710717008,-9.568650341600001,2.9423136232,4.63579167,-16.50952729,-1.60472377,,,
imu,186.760134,0.1303973104,-9.561472508000001,2.927957956,4.52363802,-17.32451048,-1.44770866,,,
imu,186.768596,0.08314323920000001,-9.571042952800001,2.9213782752,4.40400746,-18.06472457,-1.48509321,,,
imu,186.777058,0.03588916800000001,-9.565061424800001,2.9094152192,4.27689999,-18.74512338,-1.60472377,,,
imu,186.785521,0.005981528000000001,-9.554294674400001,2.8884798712,4.22456162,-19.30589163,-1.75426197,,,
imu,186.793983,-0.03588916800000001,-9.5632669664,2.895059552,4.21708471,-19.66478331,-1.86641562,,,
imu,186.802445,-0.0753672528,-9.5602762024,2.8813020376,4.10493106,-19.88909061,-1.94118472,,,
imu,186.810908,-0.1004896704,-9.535153784800002,2.8579740784,3.97034668,-20.09096718,-2.25521494,,,
imu,186.81937,-0.1214250184,-9.547116840800001,2.8519925504,3.9853005,-20.30032066,-2.56176825,,,
imu,186.827832,-0.1579123392,-9.545322382400002,2.838833188800001,3.91800831,-20.23302847,-2.83093701,,,
imu,186.836294,-0.188418132,-9.551303910400001,2.832253508,3.79837775,-20.13582864,-3.17487487,,,
imu,186.844757,-0.218325772,-9.536948243200001,2.8071310904,3.72360865,-19.93395207,-3.4216129,,,
imu,186.853219,-0.2428500368,-9.551303910400001,2.8184959936,3.66379337,-19.6573064,-3.57862801,,,
imu,186.861681,-0.2619909264,-9.566257730400002,2.8244775216,3.69370101,-19.20121489,-3.74312003,,,
imu,186.870143,-0.2865151912,-9.567454036,2.8190941464,3.46939371,-18.84980012,-3.98238115,,,
imu,186.878504,-0.3014690112,-9.565061424800001,2.8190941464,3.27499405,-18.28155496,-4.10948862,,,
imu,186.886967,-0.3194135952000001,-9.572837411200002,2.8035421736,2.998348379999999,-17.68340216,-4.29641137,,,
imu,186.895429,-0.3391526376000001,-9.576426328,2.8029440208,2.77404108,-17.03291099,-4.30388828,,,
imu,186.903988,-0.3493212352000001,-9.578220786400001,2.7981587984,2.62450288,-16.39737364,-4.29641137,,,
imu,186.912547,-0.3672658192000001,-9.581809703200001,2.804140326400001,2.64693361,-15.71697483,-4.15435008,,,
imu,186.921106,-0.3606861384,-9.597361676,2.81131816,2.39271867,-14.93189928,-4.02724261,,,
imu,186.929665,-0.3624805968,-9.593174606400002,2.81131816,2.34785721,-14.00476244,-3.7954584,,,
imu,186.938224,-0.3535083048,-9.596763523200002,2.805336632,2.15345755,-13.34679436,-3.77302767,,,
imu,186.946782,-0.3445360128,-9.602745051200001,2.7975606456,2.00391935,-12.54676499,-3.72816621,,,
imu,186.955341,-0.3367600264,-9.614109954400002,2.805934784800001,1.86933497,-11.89627382,-3.63096638,,,
imu,186.9639,-0.3146283728000001,-9.608128426400002,2.8137107712,1.65998149,-11.25325956,-3.56367419,,,
imu,186.972459,-0.3038616224,-9.610521037600002,2.801747715200001,1.51044329,-10.65510676,-3.70573548,,,
imu,186.981018,-0.2996745528,-9.614708107200002,2.8065329376,1.39081273,-10.10181542,-3.74312003,,,
imu,186.989577,-0.2829262744000001,-9.616502565600001,2.814308924,1.18893616,-9.60086245,-3.7954584,,,
imu,186.998136,-0.2877114968,-9.6087265792,2.8101218544,1.0693056,-8.95037128,-3.7954584,,,
imu,187.006695,-0.2978800944000001,-9.610521037600002,2.8161033824,1.00949032,-8.50175668,-3.72816621,,,
imu,187.015254,-0.3134320672,-9.619493329600001,2.819692299200001,0.80761375,-8.16529573,-3.83284295,,,
imu,187.023813,-0.290104108,-9.627269316000001,2.8310572024,0.45619898,-7.73911186,-3.99733497,,,
imu,187.032372,-0.2835244272,-9.621287788000002,2.8268701328,0.13469185,-7.395174000000001,-4.28145755,,,
imu,187.04093,-0.2793373576,-9.602146898400001,2.820290452000001,-0.17186146,-6.998897769999999,-4.55810322,,,
imu,187.049489,-0.2978800944000001,-9.5740337168,2.799355104,-0.25410747,-6.632529180000001,-4.85717962,,,
imu,187.058048,-0.3104413032000001,-9.543527924000001,2.793373576,-0.29896893,-6.22877604,-5.01419473,,,
imu,187.066607,-0.311039456,-9.538742701600002,2.7927754232,-0.31392275,-5.907268909999999,-5.328224949999999,,,
imu,187.075166,-0.3176191368,-9.534555632000002,2.801747715200001,-0.14943073,-5.578284869999999,-5.57496298,,,
imu,187.083725,-0.3247969704000001,-9.527377798400002,2.814308924,0.11226112,-5.383885210000001,-5.83665483,,,
imu,187.092284,-0.3343674152,-9.519601812000001,2.8226830632,0.44872207,-5.032470440000001,-6.16563887,,,
imu,187.100843,-0.3385544848000001,-9.543527924000001,2.8418239528,0.64312173,-4.80068623,-6.337607799999999,,,
imu,187.109564,-0.3475267768,-9.572837411200002,2.8723297456,0.8674290299999999,-4.48665601,-6.53948437,,,
imu,187.118286,-0.3576953744,-9.5776226336,2.8848909544,0.9048135799999999,-4.39693309,-6.659114929999999,,,
imu,187.127007,-0.3696584304000001,-9.554892827200002,2.899246621600001,0.83004448,-4.08290287,-6.771268579999999,,,
imu,187.135728,-0.3750418056000001,-9.527377798400002,2.895059552,0.81509066,-3.93336467,-6.62920729,,,
imu,187.14445,-0.3774344168000001,-9.491488630400001,2.8944613992,0.74779847,-3.70158046,-6.59182274,,,
imu,187.153171,-0.3929863896,-9.456197615200002,2.8926669408,0.6281679099999999,-3.53708844,-6.42733072,,,
imu,187.161893,-0.4097346680000001,-9.4424401008,2.8884798712,0.71789083,-3.26044277,-6.068439039999999,,,
imu,187.170614,-0.4073420568000001,-9.4322715032,2.873526051200001,1.0693056,-3.07352002,-5.74693191,,,
imu,187.179335,-0.4210995712,-9.374250681600001,2.8747223568,1.22632071,-2.9837971,-5.40299405,,,
imu,187.188057,-0.4276792520000001,-9.3592968616,2.859170384,1.69736604,-2.70715143,-5.09644074,,,
imu,187.196778,-0.4133235848,-9.324005846400002,2.838833188800001,2.09364227,-2.54265941,-4.931948719999999,,,
imu,187.2055,-0.4073420568000001,-9.3168280128,2.8406276472,2.58711833,-2.31835211,-4.81979507,,,
imu,187.214221,-0.4151180432000001,-9.349128264,2.8346461192,3.05816366,-2.24358301,-4.78988743,,,
imu,187.222942,-0.4240903352000001,-9.370661764800001,2.835244272,3.62640882,-2.28844447,-4.78988743,,,
imu,187.231664,-0.4175106544000001,-9.401167557600001,2.8346461192,3.89557758,-2.22115228,-4.70764142,,,
imu,187.240385,-0.4330626272,-9.4280844336,2.8484036336,4.17970016,-2.19872155,-4.61044159,,,
imu,187.249106,-0.4450256832000001,-9.470553282400001,2.8460110224,4.50120729,-1.96693734,-4.34874974,,,
imu,187.257828,-0.4528016696000001,-9.498666464000001,2.8460110224,4.61336094,-1.89964515,-4.17678081,,,
imu,187.266549,-0.4539979752000001,-9.534555632000002,2.845412869600001,4.71056077,-1.80244532,-3.96742733,,,
imu,187.275271,-0.4468201416000001,-9.5704448,2.8478054808,4.77785296,-1.62299948,-3.83284295,,,
imu,187.283992,-0.4444275304,-9.588389384000001,2.844216564,4.52363802,-1.52579965,-3.69078166,,,
imu,187.292713,-0.4390441552000001,-9.597361676,2.8543851616,4.59093021,-1.42112291,-3.39918217,,,
imu,187.301435,-0.4402404608,-9.6218859408,2.8537870088,4.47877656,-1.27158471,-3.33188998,,,
imu,187.309923,-0.4300718632,-9.642223136000002,2.8555814672,4.2843769,-1.22672325,-3.31693616,,,
imu,187.31841,-0.424688488,-9.641624983200002,2.847207328000001,4.02268505,-1.27158471,-3.41413599,,,
imu,187.326898,-0.4139217376000001,-9.630260080000001,2.825075674400001,3.73856247,-1.09213887,-3.36179762,,,
imu,187.335386,-0.4210995712,-9.599156134400001,2.8131126184,3.6862241,-1.04727741,-3.30198234,,,
imu,187.343873,-0.4103328208,-9.571042952800001,2.7879902008,3.50677826,-0.86035466,-3.21973633,,,
imu,187.352361,-0.4127254320000001,-9.5429297712,2.771241922400001,3.45443989,-0.7407241,-3.09262886,,,
imu,187.360849,-0.4043512928,-9.517807353600002,2.7491102688,3.41705534,-0.7407241,-3.02533667,,,
imu,187.369336,-0.4001642232,-9.505246144800001,2.7431287408,3.54416281,-0.6883857300000003,-3.1225365,,,
imu,187.377824,-0.3882011672000001,-9.489694172,2.7413342824,3.64883955,-0.53884753,-3.15992105,,,
imu,187.386312,-0.3810233336,-9.5148165896,2.7443250464,3.75351629,-0.4715553400000001,-3.36927453,,,
imu,187.3948,-0.3810233336,-9.519003659200001,2.748512116,3.88810067,-0.5164168,-3.38422835,,,
imu,187.403287,-0.385808556,-9.5154147424,2.736549060000001,4.00025432,-0.5164168,-3.55619728,,,
imu,187.411775,-0.3786307224000001,-9.526779645600001,2.7299693792,4.0600696,-0.4266938800000002,-3.59358183,,,
imu,187.420263,-0.3876030144000001,-9.526181492800001,2.715613712000001,4.1348387,-0.5164168,-3.76555076,,,
imu,185.879882,,,,,,,80.09142840000001,-30.36544040000002,119.5023992
imu,185.981475,,,,,,,80.4088156,-30.57296280000001,117.048752
imu,186.083038,,,,,,,80.38440120000001,-30.89035000000002,119.612264
imu,186.18457,,,,,,,80.51868040000001,-30.07246760000002,119.3314984
imu,186.286163,,,,,,,79.151474,-30.01143160000002,118.0985712
imu,186.387847,,,,,,,77.8330964,-29.16913480000001,116.4139776
imu,186.489257,,,,,,,77.6499884,-29.08368440000002,115.4129872
imu,186.59085,,,,,,,77.74764599999999,-29.25458520000002,114.851456
imu,187.42875,-0.3971734592000001,-9.519003659200001,2.7090340312,4.11988488,-0.3444478700000002,-3.70573548,,,
imu,187.437238,-0.4019586816,-9.519003659200001,2.7078377256,4.31428454,-0.1276174800000001,-3.54872037,,,
imu,187.445726,-0.4001642232,-9.517807353600002,2.699463586400001,4.56849948,-0.007986920000000008,-3.46647436,,,
imu,187.454213,-0.3923882368,-9.523190728800001,2.7000617392,4.56849948,0.06678217999999969,-3.62348947,,,
imu,187.462701,-0.3947808480000001,-9.5357519376,2.686902377600001,4.964775710000001,0.3284740299999998,-3.52628964,,,
imu,187.471189,-0.3929863896,-9.530966715200002,2.6839116136,5.06945245,0.3733354899999997,-3.60853565,,,
imu,187.479677,-0.3864067088000001,-9.5237888816,2.6725467104,5.09936009,0.4929660499999997,-3.54124346,,,
imu,187.488164,-0.3941826952,-9.539939007200001,2.679724544,5.37600576,0.5453044199999999,-3.60853565,,,
imu,187.496652,-0.3977716120000001,-9.5602762024,2.6665651824,5.84705109,0.5527813299999997,-3.69078166,,,
imu,187.50514,-0.415716196,-9.575230022400001,2.6743411688,6.08631221,0.3808123999999999,-3.84779677,,,
imu,187.513596,-0.4480164472000001,-9.591978300800001,2.678528238400001,6.13865058,0.1490281899999997,-4.17678081,,,
imu,187.522051,-0.499457588,-9.5985579816,2.688696836,6.17603513,0.05930526999999985,-4.5431494,,,
imu,187.530507,-0.5150095608,-9.614109954400002,2.6910894472,6.10874294,-0.15004821,-5.11139456,,,
imu,187.538963,-0.5341504504000001,-9.636839760800001,2.6910894472,5.93677401,-0.4416477000000003,-5.97123921,,,
imu,187.547419,-0.55329134,-9.6290637744,2.6803226968,5.92182019,-0.5014629800000003,-6.52453055,,,
imu,187.555875,-0.5843952856000001,-9.664952942400001,2.679724544,5.74237435,-0.6360473600000001,-7.07034498,,,
imu,187.564331,-0.5963583416000001,-9.6745233872,2.679724544,5.72742053,-0.4416477000000003,-7.227360089999999,,,
imu,187.572787,-0.6208826064000001,-9.668541859200001,2.655200279200001,5.72742053,-0.23229422,-7.010529699999999,,,
imu,187.581243,-0.6340419680000001,-9.635643455200002,2.6390501536,5.64517452,0.02939763000000006,-6.681545659999999,,,
imu,187.589699,-0.6364345792000001,-9.600352440000002,2.6103388192,5.77228199,0.3808123999999999,-6.19554651,,,
imu,187.598155,-0.6442105656,-9.559678049600002,2.576244109600001,5.74985126,0.7995193599999997,-5.65720899,,,
imu,187.606611,-0.6364345792000001,-9.552500216,2.5582995256,5.80966654,1.41262598,-5.01419473,,,
imu,187.615067,-0.6166955368000001,-9.537546396000002,2.5397567888,6.0788353,1.99582496,-4.102011709999999,,,
imu,187.623522,-0.6059287864000001,-9.535153784800002,2.5110454544,6.03397384,2.58650085,-3.46647436,,,
imu,187.631978,-0.5808063688,-9.555490980000002,2.4966897872,6.12369676,3.02016163,-2.80850628,,,
imu,187.640434,-0.5622636320000001,-9.578818939200001,2.4895119536,5.94425092,3.5958837,-2.28512258,,,
imu,187.64889,-0.5257763112000001,-9.630858232800001,2.4960916344,5.51806705,3.99215993,-1.84398489,,,
imu,187.657346,-0.5084298800000001,-9.6876827488,2.500278704,5.16665228,4.27628251,-1.58976995,,,
imu,187.665802,-0.4611758088,-9.722973764,2.4966897872,4.69560695,4.44825144,-1.51500085,,,
imu,187.674258,-0.4300718632,-9.745703570400002,2.4865211896,3.97782359,4.29871324,-1.28321664,,,
imu,187.682714,-0.406743904,-9.748096181600001,2.4805396616,3.282470959999999,4.25385178,-1.0290017,,,
imu,187.69117,-0.3846122504,-9.7510869456,2.4781470504,2.46001086,3.93982156,-0.91684805,,,
imu,187.699626,-0.370854736,-9.7606573904,2.485324884000001,1.73475059,3.77532954,-0.82712513,,,
imu,187.708082,-0.334965568,-9.7636481544,2.476352592,1.24127453,3.43886859,-0.55047946,,,
imu,187.71654,-0.3218062064,-9.734338667200001,2.4829322728,0.7253677399999999,3.01268472,-0.3560797999999998,,,
imu,187.724998,-0.3068523864000001,-9.6954587352,2.4596043136,0.3889067899999999,2.67622377,-0.1392494099999999,,,
imu,187.733457,-0.2829262744000001,-9.6667474008,2.4685766056,0.14964567,2.19770153,-0.04952648999999987,,,
imu,187.741915,-0.2835244272,-9.632054538400002,2.4590061608,0.1720764,1.94348659,0.09253480000000014,,,
imu,187.750374,-0.2739539824000001,-9.6075302736,2.4536227856,0.30666078,1.6518871,0.21964227,,,
imu,187.758832,-0.2733558296,-9.592576453600001,2.4500338688,0.50853735,1.2780416,0.08505788999999986,,,
imu,187.767291,-0.2835244272,-9.5704448,2.4476412576,0.74779847,0.8742884599999998,-0.1392494099999999,,,
imu,187.775749,-0.305057928,-9.582407856000001,2.4488375632,1.01696723,0.7172733499999997,-0.28878761,,,
imu,187.784208,-0.3098431504,-9.597361676,2.4649876888,1.56278166,0.64250425,-0.5579563699999999,,,
imu,187.792666,-0.3014690112,-9.5842023144,2.454819091200001,1.73475059,0.52287369,-0.8346020399999998,,,
imu,187.801125,-0.3128339144,-9.555490980000002,2.434481896,2.03382699,0.4107200399999997,-0.93927878,,,
imu,187.809583,-0.3236006648,-9.551303910400001,2.4231169928,2.37776485,0.47801223,-1.05890934,,,
imu,187.818041,-0.3241988176,-9.557883591200001,2.4009853392,2.85628709,0.8144731799999998,-0.7074945699999999,,,
imu,187.8265,-0.334965568,-9.562070660800002,2.3938075056,3.2376095,0.8817653699999997,-0.6177716499999999,,,
imu,187.834958,-0.3403489432000001,-9.557883591200001,2.3722740048,3.58154736,1.17336486,-0.60281783,,,
imu,187.843417,-0.323002512,-9.541135312800002,2.3615072544,3.97034668,1.34533379,-0.7224483899999998,,,
imu,187.851875,-0.3032634696000001,-9.532163020800002,2.33279592,4.17970016,1.77151766,-0.8645096799999998,,,
imu,187.860334,-0.2775428992,-9.545322382400002,2.331001461600001,4.46382274,1.83880985,-1.08134007,,,
imu,187.868792,-0.2763465936,-9.5740337168,2.3160476416,4.79280678,1.95844041,-1.43275484,,,
imu,187.877251,-0.275150288,-9.6039413568,2.3070753496,5.02459099,2.09302479,-1.67201596,,,
imu,187.885709,-0.2613927736,-9.627269316000001,2.3136550304,5.26385211,2.19022462,-1.8514618,,,
imu,187.894168,-0.2691687600000001,-9.667943706400001,2.329805156,5.46572868,2.3995781,-2.03090764,,,
imu,187.902626,-0.2673743016,-9.7056273328,2.329805156,5.32366739,2.51920866,-2.09072292,,,
imu,187.911084,-0.2817299688000001,-9.739123889600002,2.3315996144,5.15169846,2.51920866,-2.03838455,,,
imu,187.919904,-0.2835244272,-9.7702278352,2.3333940728,4.90496043,2.78837742,-2.12063056,,,
imu,187.928724,-0.287113344,-9.794752100000002,2.362105407200001,4.65074549,2.93791562,-2.21035348,,,
imu,187.937543,-0.2847207328,-9.803126239200001,2.3668906296,4.09745415,3.00520781,-2.47204533,,,
imu,187.946363,-0.2685706072,-9.807313308800001,2.3728721576,3.589024269999999,3.24446893,-2.61410662,,,
imu,187.955182,-0.2584020096,-9.825257892800002,2.3800499912,3.07311748,3.27437657,-2.87579847,,,
imu,187.964002,-0.2500278704,-9.833632032,2.3812462968,2.55721069,3.33419185,-3.17487487,,,
imu,187.973279,-0.2404574256,-9.8467913936,2.3973964224,2.01887317,3.31176112,-3.6459202,,,
imu,187.982099,-0.2326814392,-9.830641268,2.401583492,1.45062801,3.09493073,-3.90013514,,,
imu,187.990918,-0.233279592,-9.8049206976,2.4057705616,1.2188438,3.1472691,-4.0197657,,,
imu,187.999738,-0.2225128416,-9.7959484056,2.3950038112,0.68050628,3.07997691,-4.21416536,,,
imu,188.008557,-0.2099516328,-9.769629682400002,2.3944056584,0.57582954,2.90800798,-4.19921154,,,
imu,188.017377,-0.2159331608,-9.751685098400001,2.396798269600001,0.45619898,2.80333124,-4.17678081,,,
imu,188.026197,-0.19439966,-9.7086180968,2.3812462968,0.3739529699999999,2.57902394,-4.02724261,,,
imu,188.035016,-0.1830347568,-9.675121540000001,2.374666616,0.23936859,2.28742445,-4.08705789,,,
imu,188.043836,-0.1776513816,-9.678112304,2.3991908808,0.09730729999999999,2.01825569,-4.37865738,,,
imu,188.052655,-0.1842310624,-9.689477207200001,2.4093594784,-0.14195382,1.59954873,-4.3936112,,,
imu,188.061475,-0.1716698536,-9.673925234400002,2.414144700800001,-0.25410747,1.2032725,-4.26650373,,,
imu,188.070295,-0.173464312,-9.638036066400002,2.40756502,-0.41112258,0.9191499199999997,-4.04967334,,,
imu,188.079114,-0.1961941184,-9.636241608,2.409957631200001,-0.59056842,0.5677351499999999,-3.80293531,,,
imu,188.087934,-0.2021756464,-9.6159044128,2.401583492,-0.69524516,0.2312741999999997,-3.51881273,,,
imu,188.096753,-0.2147368552,-9.591978300800001,2.4039761032,-0.82982954,-0.09023292999999999,-3.18982869,,,
imu,188.105573,-0.2189239248,-9.5590798968,2.3997890336,-0.93450628,-0.25472495,-2.95804448,,,
imu,188.114392,-0.2326814392,-9.5501076048,2.3979945752,-0.71767589,-0.45660152,-3.06272122,,,
imu,188.122869,-0.227298064,-9.5429297712,2.4129483952,-0.79244499,-0.6285704500000002,-3.0477674,,,
imu,188.131345,-0.2625890792,-9.5501076048,2.4446504936,-0.8672140899999999,-0.9351237599999997,-3.24964397,,,
imu,186.692382,,,,,,,80.09142840000001,-29.81611640000001,114.7171768
imu,186.793914,,,,,,,77.82088920000001,-28.91278360000003,116.1820408
imu,186.895507,,,,,,,81.37318440000001,-30.49971960000002,115.1688432
imu,186.997924,,,,,,,79.16368119999998,-29.87715240000002,118.0619496
imu,187.098663,,,,,,,79.51769,-30.56075560000002,116.377356
imu,187.200195,,,,,,,79.3834108,-30.14571080000001,119.0873544
imu,187.301788,,,,,,,79.4810684,-29.98701720000001,119.4657776
imu,187.40335,,,,,,,80.21350039999999,-30.47530520000002,119.4657776
imu,188.250013,-0.5347486032000001,-9.711608860800002,2.3519368096,5.84705109,1.98834805,-2.78607555,,,
imu,188.258489,-0.4797185456,-9.8013317808,2.362105407200001,5.839574180000001,2.79585433,-1.99352309,,,
imu,188.266965,-0.4282774048000001,-9.8629415192,2.3728721576,5.42086722,3.46877623,-1.4776163,,,
imu,188.275441,-0.385808556,-9.889858395200001,2.3758629216,4.92739116,4.126744309999999,-1.00657097,,,
imu,188.283918,-0.3289840400000001,-9.883876867200001,2.3860315192,4.10493106,4.739850929999999,-0.7224483899999998,,,
imu,188.292394,-0.2643835376,-9.868923047200001,2.3638998656,3.10302512,5.068834969999999,-0.7224483899999998,,,
imu,188.30087,-0.206362716,-9.841408018400001,2.3471515872,2.15345755,5.30061918,-0.8046943999999998,,,
imu,188.309346,-0.1495382,-9.8043225448,2.3345903784,1.48801256,5.375388279999999,-0.9617095099999999,,,
imu,188.317823,-0.09690075360000001,-9.772620446400001,2.296906752,0.81509066,5.397819009999999,-1.12620153,,,
imu,188.326285,-0.04605776560000001,-9.710412555200001,2.2813547792,0.3216146,5.05388115,-1.35798574,,,
imu,188.334747,-0.0023926112,-9.6667474008,2.2592231256,0.14216876,4.739850929999999,-1.64210832,,,
imu,188.343209,0.0185427368,-9.632054538400002,2.2424748472,0.08983038999999998,4.20151341,-1.97856927,,,
imu,188.351672,0.03648732080000001,-9.609922884800001,2.222735804800001,0.29918387,3.61083752,-2.3000764,,,
imu,188.360134,0.05742266880000001,-9.61530626,2.219146888,0.5459219,2.96782326,-2.77859864,,,
imu,188.368596,0.0592171272,-9.639830524800002,2.2263247216,0.9571519499999999,2.27247063,-3.14496723,,,
imu,188.377058,0.0532355992,-9.6876827488,2.2352970136,1.09173633,1.577118,-3.75059694,,,
imu,188.385521,0.02990764000000001,-9.724170069600001,2.2466619168,1.26370526,0.9565344699999998,-4.04967334,,,
imu,188.393983,0.0023926112,-9.7510869456,2.2681954176,1.22632071,0.27613566,-4.341272829999999,,,
imu,188.402445,-0.0376836264,-9.7815927384,2.2975049048,1.12912088,-0.20986349,-4.453426479999999,,,
imu,188.410908,-0.06460050240000001,-9.8043225448,2.3256180864,0.67302937,-0.8379239300000001,-4.75250288,,,
imu,188.41937,-0.1034804344,-9.8228652816,2.350740504,0.23189168,-1.1145696,-4.909517989999999,,,
imu,188.427832,-0.1411640608,-9.820472670400001,2.3674887824,-0.26906129,-1.39121527,-4.9169949,,,
imu,188.436294,-0.1836329096,-9.8079114616,2.3997890336,-0.80739881,-1.64543021,-4.79736434,,,
imu,188.444757,-0.2099516328,-9.803724392000001,2.4243132984,-1.37564397,-1.80992223,-4.7674567,,,
imu,188.453219,-0.2326814392,-9.801929933600002,2.4446504936,-1.98875059,-1.95198352,-4.72259524,,,
imu,188.461681,-0.2524204816,-9.7845835024,2.4757544392,-2.61681103,-2.06413717,-4.70016451,,,
imu,188.470143,-0.2787392048,-9.752283251200002,2.494895328800001,-3.17757928,-2.019275710000001,-4.3936112,,,
imu,188.478606,-0.3104413032000001,-9.702636568800001,2.4978860928,-3.46170186,-2.04918335,-4.10948862,,,
imu,188.487068,-0.3517138464,-9.642223136000002,2.4984842456,-3.760778259999999,-2.12395245,-3.66835093,,,
imu,188.49553,-0.3696584304000001,-9.592576453600001,2.5026713152,-3.760778259999999,-2.02675262,-3.43656672,,,
imu,188.503993,-0.3822196392,-9.536948243200001,2.5038676208,-3.75330135,-1.92955279,-3.28702852,,,
imu,188.512455,-0.3911919312,-9.4735440464,2.5140362184,-3.7159168,-2.0117988,-3.39170526,,,
imu,188.520917,-0.4031549872,-9.443038253600001,2.5176251352,-3.25982529,-2.03422953,-3.45152054,,,
imu,188.529382,-0.4210995712,-9.4424401008,2.5325789552,-2.61681103,-2.07161408,-3.61601256,,,
imu,188.537847,-0.4372496968000001,-9.448421628800002,2.5588976784,-2.17567334,-2.28096756,-4.06462716,,,
imu,188.546311,-0.4629702672000001,-9.4663662128,2.566673664800001,-1.96631986,-2.36321357,-4.23659609,,,
imu,188.554776,-0.4821111568000001,-9.477731116000001,2.584020096,-1.56256672,-2.45293649,-4.408565019999999,,,
imu,188.563241,-0.4982612824000001,-9.48072188,2.6055535968,-1.18124431,-2.39312121,-4.58053395,,,
imu,188.571706,-0.5114206440000001,-9.513022131200001,2.6115351248,-0.77001426,-2.28096756,-4.670256869999999,,,
imu,188.580171,-0.5257763112000001,-9.516611048000001,2.6115351248,-0.58309151,-2.161337000000001,-4.7674567,,,
imu,188.588636,-0.5580765624000001,-9.492086783200001,2.592992388,-0.25410747,-1.95198352,-4.887087259999999,,,
imu,188.5971,-0.5670488544000001,-9.489694172,2.583421943200001,0.29170696,-1.80244532,-4.84970271,,,
imu,188.605565,-0.5784137576,-9.5040498392,2.5828237904,0.78518302,-1.40616909,-4.75250288,,,
imu,188.61403,-0.5718340768000001,-9.514218436800002,2.5702625816,1.07678251,-1.00989286,-4.692687599999999,,,
imu,188.622495,-0.5724322296000001,-9.544126076800001,2.564879206400001,1.34595127,-0.7033395499999999,-4.64034923,,,
imu,188.63096,-0.5820026744000001,-9.5590798968,2.569066276,1.80951969,-0.31454023,-4.58801086,,,
imu,188.639424,-0.5784137576,-9.5698466472,2.552916150400001,2.16841137,0.11164364,-4.68521069,,,
imu,188.647889,-0.5772174520000001,-9.584800467200001,2.5421494,2.37028794,0.5079198699999998,-4.64034923,,,
imu,188.656354,-0.571235924,-9.6009505928,2.5337752608,2.55721069,1.11354958,-4.66277996,,,
imu,188.664819,-0.5556839512000001,-9.630858232800001,2.520615899200001,2.74413344,1.47991817,-4.58801086,,,
imu,188.673284,-0.55329134,-9.633848996800001,2.5134380656,2.87124091,1.97339423,-4.318842099999999,,,
imu,188.681749,-0.5455153536,-9.610521037600002,2.494297176,2.72170271,2.28742445,-4.21416536,,,
imu,188.690213,-0.505439116,-9.597361676,2.4829322728,2.55721069,2.56407012,-4.341272829999999,,,
imu,188.698678,-0.4916816016,-9.639232372,2.5038676208,2.46748777,2.97530017,-4.25154991,,,
imu,188.707143,-0.4683536424000001,-9.683495679200002,2.5164288296,2.31794957,3.12483837,-4.19173463,,,
imu,188.715608,-0.4528016696000001,-9.672130776000001,2.500278704,1.95905789,3.2968073,-3.89265823,,,
imu,188.724073,-0.4438293776000001,-9.651793580800001,2.4745581336,1.79456587,3.46877623,-3.52628964,,,
imu,188.732541,-0.4384460024000001,-9.614109954400002,2.467380300000001,1.45810492,3.64822207,-3.16739796,,,
imu,188.74101,-0.4276792520000001,-9.6015487456,2.4452486464,1.22632071,3.65569898,-3.10010577,,,
imu,188.749478,-0.4270810992000001,-9.581809703200001,2.3944056584,1.21136689,3.57345297,-2.9729983,,,
imu,188.757947,-0.4222958768,-9.572837411200002,2.3950038112,1.12164397,3.68560662,-2.81598319,,,
imu,188.766416,-0.3983697648000001,-9.568650341600001,2.4362763544,1.27865908,3.75289881,-2.94309066,,,
imu,188.774884,-0.3780325696000001,-9.573435564,2.4231169928,1.58521239,3.90991392,-2.65149117,,,
imu,188.783353,-0.370854736,-9.6248767048,2.4207243816,1.79456587,3.88748319,-2.42718387,,,
imu,188.791822,-0.35889168,-9.6817012208,2.4530246328,1.8917657,3.80523718,-2.2253073,,,
imu,188.80029,-0.3457323184,-9.720581152800001,2.461398772,1.68241222,3.8949601,-2.001,,,
imu,188.808759,-0.3289840400000001,-9.7283571392,2.4721655224,1.368382,3.95477538,-1.53743158,,,
imu,188.817227,-0.3283858872000001,-9.754675862400001,2.4919045648,0.9347212199999999,3.88000628,-1.29817046,,,
imu,188.825696,-0.320011748,-9.7953502528,2.504465773600001,0.7104139199999999,4.03702139,-0.79721749,,,
imu,188.834165,-0.3152265256,-9.828846809600002,2.5230085104,0.20198404,4.11179049,-0.4981410899999998,,,
imu,188.842633,-0.3068523864000001,-9.842006171200001,2.5164288296,-0.39616876,4.194036499999999,-0.004665029999999959,,,
imu,188.851102,-0.272159524,-9.844996935200001,2.503269468,-1.10647521,4.29123633,0.3916112000000003,,,
imu,188.859571,-0.2613927736,-9.797144711200001,2.473361828,-1.9214584,4.09683667,0.7205952400000002,,,
imu,188.868039,-0.2506260232,-9.719983000000001,2.4476412576,-2.40745755,3.99215993,1.04957928,,,
imu,188.876508,-0.2434481896,-9.657176956,2.4290985208,-2.57194957,3.88748319,1.27388658,,,
imu,188.884976,-0.2554112456,-9.641026830400001,2.4362763544,-2.51213429,3.61083752,1.31874804,,,
imu,188.893445,-0.2314851336,-9.625474857600002,2.4458467992,-2.24296553,3.46129932,1.32622495,,,
imu,188.901914,-0.2308869808,-9.6009505928,2.4512301744,-1.98875059,3.20708438,1.15425602,,,
imu,188.910382,-0.2308869808,-9.594370912,2.4596043136,-1.57004363,3.08745382,0.97481018,,,
imu,188.918851,-0.2219146888,-9.590183842400002,2.4596043136,-1.3233056,2.97530017,0.66825687,,,
imu,188.92732,-0.227298064,-9.584800467200001,2.4566135496,-1.11395212,2.94539253,0.4364726600000002,,,
imu,188.936149,-0.2326814392,-9.5800152448,2.4709692168,-0.74758353,2.9977309,0.3542266500000002,,,
imu,188.944977,-0.2308869808,-9.5877912312,2.4805396616,-0.50832241,2.90800798,0.0177657,,,
imu,188.953806,-0.212344244,-9.6015487456,2.4901101064,-0.19429219,3.05754618,-0.14672632,,,
imu,187.505156,,,,,,,79.56651880000001,-30.56075560000002,119.2704624
imu,187.606475,,,,,,,79.7740412,-31.0490436,119.246048
imu,187.707915,,,,,,,79.944942,-31.378638,119.8319936
imu,187.809478,,,,,,,82.3009316,-31.94016920000002,118.7943816
imu,187.91104,,,,,,,79.8350772,-31.17111560000001,120.1493808
imu,188.012603,,,,,,,82.3741748,-32.14769160000002,116.4139776
imu,188.114165,,,,,,,79.78624839999999,-31.51291720000003,119.5878496
imu,188.215728,,,,,,,80.44543719999999,-31.86692600000001,117.5736616
imu,189.068468,-0.0376836264,-9.6015487456,2.5367660248,0.78518302,3.3715764,-3.7206893,,,
imu,189.077296,-0.04127254320000001,-9.627867468800002,2.531980802400001,0.6132140899999999,3.17717674,-3.76555076,,,
imu,189.086125,-0.0376836264,-9.6499991224,2.551121692,0.4711528,2.93791562,-3.9449966,,,
imu,189.094954,-0.0490485296,-9.678710456800001,2.57205704,0.26179932,2.49677793,-4.20668845,,,
imu,189.103783,-0.06220789120000001,-9.654784344800001,2.5702625816,-0.03727708,2.03320951,-4.56558013,,,
imu,189.112612,-0.0747691,-9.612315496,2.5774404152,-0.26906129,1.85376367,-4.65530305,,,
imu,189.121441,-0.09690075360000001,-9.569248494400002,2.5505235392,-0.19429219,1.59954873,-4.59548777,,,
imu,189.13027,-0.1184342544,-9.551902063200002,2.5343734136,0.08235347999999998,1.31542615,-4.58053395,,,
imu,189.138731,-0.1447529776,-9.526181492800001,2.518223288000001,0.40386061,1.26308778,-4.318842099999999,,,
imu,189.147192,-0.1620994088,-9.492684936000002,2.491306412,0.7702292,1.15841104,-4.19921154,,,
imu,189.155653,-0.1740624648,-9.4460290176,2.4871193424,1.32352054,1.09859576,-4.33379592,,,
imu,189.164114,-0.1746606176,-9.431075197600002,2.4787452032,2.02635008,1.11354958,-4.50576485,,,
imu,189.172575,-0.1932033544,-9.443636406400001,2.469772911200001,2.60954906,0.8593346399999997,-4.7674567,,,
imu,189.181036,-0.2051664104,-9.4699551296,2.4566135496,3.52920899,0.9116730099999999,-4.86465653,,,
imu,189.189497,-0.2099516328,-9.520798117600002,2.4667821472,4.20213089,1.02382666,-5.10391765,,,
imu,189.197958,-0.2290925224000001,-9.5501076048,2.464389536000001,4.47877656,0.98644211,-5.26840967,,,
imu,189.206419,-0.236270356,-9.578220786400001,2.4721655224,4.62083785,0.9640113799999996,-5.260932759999999,,,
imu,189.21488,-0.2446444952,-9.659569567200002,2.485324884000001,4.80028369,1.09859576,-5.32074804,,,
imu,189.223341,-0.2584020096,-9.731347903200001,2.485324884000001,4.68813004,1.25561087,-5.22354821,,,
imu,189.231802,-0.251224176,-9.7953502528,2.4805396616,4.00025432,1.16588795,-4.931948719999999,,,
imu,189.240263,-0.2278962168,-9.843800629600002,2.4661839944,3.3123786,0.9939190199999999,-4.81231816,,,
imu,189.248724,-0.1938015072,-9.845595088000001,2.4542209384,2.48244159,0.8518577299999999,-4.58053395,,,
imu,189.257185,-0.1997830352,-9.824061587200001,2.4320892848,1.63007385,0.70231953,-4.28145755,,,
imu,189.265646,-0.19439966,-9.7786019744,2.4243132984,0.67302937,0.3509047599999997,-4.124442439999999,,,
imu,189.274107,-0.1920070488,-9.7331423616,2.4111539368,0.02253820000000001,0.2237972899999998,-3.83284295,,,
imu,189.282568,-0.2207183832,-9.688280901600002,2.4111539368,-0.29896893,-0.1201405700000002,-3.6459202,,,
imu,189.291029,-0.2278962168,-9.667345553600002,2.4147428536,-0.5008455,-0.3594016900000003,-3.61601256,,,
imu,189.29949,-0.2416537312,-9.6428212888,2.419528076,-0.46346095,-0.4640784300000003,-3.50385891,,,
imu,189.307951,-0.2476352592,-9.6296619272,2.427304062400001,-0.48589168,-0.5687551700000002,-3.26459779,,,
imu,189.316412,-0.2590001624000001,-9.603343204000002,2.441061576800001,-0.45598404,-0.7332471900000002,-3.13749032,,,
imu,189.324873,-0.2847207328,-9.599754287200001,2.4542209384,-0.31392275,-0.6883857300000003,-2.86832156,,,
imu,189.333334,-0.3008708584000001,-9.597959828800002,2.4661839944,-0.127,-0.57623208,-2.63653735,,,
imu,189.341798,-0.2966837888,-9.599754287200001,2.4805396616,0.06739966,-0.4042631500000002,-2.62906044,,,
imu,189.350263,-0.3134320672,-9.608128426400002,2.51224176,0.21693786,-0.2622018600000002,-2.5991528,,,
imu,189.358728,-0.3218062064,-9.6039413568,2.5170269824,0.26179932,-0.20986349,-2.68887572,,,
imu,189.367193,-0.3224043592,-9.585398620000001,2.521214052,0.40386061,0.1789358299999999,-2.48699915,,,
imu,189.375658,-0.3427415544,-9.543527924000001,2.5110454544,0.59078336,0.44062768,-2.54681443,,,
imu,188.31729,,,,,,,80.6407524,-31.31760200000002,120.3324888
imu,188.418853,,,,,,,80.860482,-31.1467012,119.7587504
imu,188.520507,,,,,,,80.44543719999999,-30.92697160000002,119.2948768
imu,188.621978,,,,,,,80.61633800000001,-31.65940360000001,120.1493808
imu,188.72354,,,,,,,81.0557972,-31.40305240000001,119.490192
imu,188.825225,,,,,,,83.2042644,-32.18431320000001,119.2582552
imu,188.926726,,,,,,,80.4210228,-31.19553000000002,119.8319936
imu,189.028228,,,,,,,83.48503000000001,-31.61057480000002,116.9144728
imu,189.129869,,,,,,,80.921518,-31.42746680000002,119.5023992
imu,189.231492,,,,,,,81.95912999999999,-32.18431320000001,117.1830312
imu,189.333024,,,,,,,80.73840999999999,-31.21994440000002,120.344696
