Type,Timestamp,Data Accelerometer X,Data Accelerometer Y,Data Accelerometer Z,Data Gyroscope X,Data Gyroscope Y,Data Gyroscope Z,Data Magnetometer X,Data Magnetometer Y,Data Magnetometer Z
imu,248.326865,-0.840404684,-9.801929933600002,0.7303445688000001,7.06578742,44.93571909,4.84784956,,,
imu,248.335318,-0.6765108168000001,-9.7845835024,0.7518780696000001,7.06578742,44.63664269,4.077727830000001,,,
imu,248.343783,-0.5849934384000001,-9.841408018400001,0.7680281952000001,7.1256027,43.80670568,3.17302172,,,
imu,248.352248,-0.6125084672000001,-9.917373424,0.7865709320000001,6.87886467,42.65526154,2.58234583,,,
imu,248.360713,-0.6908664840000001,-9.9030177568,0.7985339880000002,6.55735754,41.98233964,2.7842224,,,
imu,248.369178,-0.7524762224000001,-9.897036228800001,0.8063099744000001,6.04145075,41.81784761999999,3.09825262,,,
imu,248.377642,-0.771617112,-9.902419604000002,0.771617112,5.74237435,42.28889295,4.010435640000001,,,
imu,248.386107,-0.708811068,-9.883278714400001,0.7536725280000001,5.12179082,43.0739685,4.601111530000001,,,
imu,248.394572,-0.61310662,-9.886867631200001,0.7411113192000001,5.0320679,43.64969057,4.82541883,,,
imu,248.403037,-0.5018501992000001,-9.842006171200001,0.7231667352000001,4.83019133,43.70950585,4.30951204,,,
imu,248.411502,-0.3385544848000001,-9.8264541984,0.7118018320000001,4.71803768,43.41790636,3.7562207,,,
imu,248.419967,-0.245242648,-9.803724392000001,0.6908664840000001,4.64326858,42.44590805999999,2.9337606,,,
imu,248.428431,-0.1949978128,-9.7923594888,0.6986424704000002,4.71803768,40.87575696,1.61034753,,,
imu,248.436896,-0.1776513816,-9.802528086400002,0.7076147624000001,4.9572988,39.26822130999999,0.5635801300000001,,,
imu,248.445361,-0.2243073,-9.7821908912,0.7153907488000001,4.964775710000001,37.85508532,0.04767334000000023,,,
imu,248.453722,-0.3038616224,-9.7714241408,0.7482891528000001,5.02459099,36.80831792,-0.1093417699999999,,,
imu,248.462187,-0.3965753064,-9.8061170032,0.7572614448000001,5.28628284,36.13539601999999,0.13739626,,,
imu,248.470652,-0.4845037680000001,-9.7995373224,0.7644392784,5.42834413,35.73911979,0.4813341200000001,,,
imu,248.479116,-0.5766192992000001,-9.735534972800002,0.7907580016000001,5.44329795,35.93351945,0.7654567000000001,,,
imu,248.487581,-0.5263744640000001,-9.734936820000001,0.8278434752000001,5.68255907,36.46438006,0.8850872600000002,,,
imu,248.496046,-0.4276792520000001,-9.800135475200001,0.8087025856000001,5.97415856,36.84570247,0.9673332700000001,,,
imu,248.504511,-0.3606861384,-9.7612555432,0.7919543072000002,6.31061951,36.62887207999999,0.6159185000000003,,,
imu,248.512976,-0.2476352592,-9.761853696000001,0.8110951968000001,6.54240372,35.88118108,0.01028879000000016,,,
imu,248.521441,-0.1202287128,-9.8013317808,0.8176748776000001,6.87138776,34.7745984,-0.5280487299999999,,,
imu,248.529905,-0.05383375200000001,-9.872511964000001,0.7883653904000001,7.16298725,33.36893932,-0.82712513,,,
imu,248.53837,-0.011963056,-9.9484773696,0.7650374312,7.07326433,31.56700401,-1.15610917,,,
imu,248.547186,-0.0005981528000000001,-9.926345716,0.7339334856000002,6.96111068,30.00432982,-1.29817046,,,
imu,248.556001,0.008374139200000002,-9.906008520800002,0.7339334856000002,6.54988063,28.66596293,-1.09629389,,,
imu,248.564817,-0.003588916800000001,-9.964029342400002,0.7177833600000001,6.2283735,27.3724575,-0.77478676,,,
imu,248.573633,0.0143556672,-9.992740676800002,0.70282954,5.69751289,25.9518446,-0.40841817,,,
imu,248.582448,0.0382817792,-9.9580478144,0.6920627896000001,5.106837000000001,24.74058518,-0.3635567099999999,,,
imu,248.591264,0.0723764888,-9.932327244000001,0.6866794144,4.516161110000001,23.40221829,-0.5953409199999999,,,
imu,248.600079,0.1268083936,-9.9466829112,0.6735200528,4.03763887,21.87692865,-1.0290017,,,
imu,248.608895,0.158510492,-9.979581315200003,0.6573699272000001,3.50677826,20.03013188,-1.65706214,,,
imu,248.617711,0.1800439928,-9.9915443712,0.6663422192,2.87871782,18.18333511,-2.16549202,,,
imu,248.626526,0.2009793408,-9.983768384800001,0.6675385248000001,2.33290339,16.18700014,-2.83841392,,,
imu,248.635342,0.1985867296,-9.971207176000002,0.6777071224000001,1.75718132,14.17571135,-3.36179762,,,
imu,248.644157,0.1740624648,-9.945486605600001,0.6777071224000001,1.40576655,12.31396076,-3.81041222,,,
imu,248.652973,0.122621324,-9.900625145600001,0.6783052752000002,1.17398234,10.71390202,-3.95247351,,,
imu,248.661789,0.07177833600000001,-9.867128588800002,0.6777071224000001,1.12912088,9.4278735,-3.75807385,,,
imu,248.670604,0.009570444800000001,-9.8617452136,0.681894192,1.0693056,8.26895245,-3.67582784,,,
imu,248.67942,-0.0634041968,-9.837819101600003,0.6777071224000001,0.94219813,7.20723123,-3.52628964,,,
imu,248.688235,-0.1232194768,-9.8043225448,0.6878757200000001,1.01696723,6.556740059999999,-3.29450543,,,
imu,248.697051,-0.1830347568,-9.8168837536,0.6872775672000001,1.09921324,5.95858726,-3.13001341,,,
imu,248.705867,-0.2135405496,-9.849184004800001,0.6890720256,1.13659779,5.77166451,-3.13749032,,,
imu,248.714682,-0.2171294664,-9.865932283200001,0.6920627896000001,1.11416706,5.43520356,-3.42908981,,,
imu,248.723498,-0.1955959656,-9.8880639368,0.6824923448,1.18893616,5.046404239999999,-3.71321239,,,
imu,248.732313,-0.128602852,-9.897036228800001,0.6663422192,1.06182869,4.68751256,-3.93751969,,,
imu,248.741129,-0.09989151760000002,-9.8647359776,0.6789034280000001,1.18893616,4.126744309999999,-3.90013514,,,
imu,248.74961,-0.07596540560000001,-9.8593526024,0.7123999848000001,1.2188438,3.2968073,-3.95995042,,,
imu,248.758092,-0.0693857248,-9.8719138112,0.7004369288000002,1.08425942,2.36219355,-4.363703559999999,,,
imu,248.766573,-0.1124527264,-9.8653341304,0.7118018320000001,1.06182869,1.42010289,-4.83474889,,,
imu,248.775054,-0.1381732968,-9.867128588800002,0.7123999848000001,1.06182869,0.5079198699999998,-5.03662546,,,
imu,248.783536,-0.1710717008,-9.869521200000003,0.7177833600000001,0.94967504,-0.4491246100000001,-5.1413022,,,
imu,248.792017,-0.2290925224000001,-9.899428840000002,0.7321390272000001,0.7253677399999999,-1.27906162,-5.24597894,,,
imu,248.800498,-0.2883096496000001,-9.910793743200001,0.7285501104000001,0.49358353,-1.75758386,-4.98428709,,,
imu,248.80898,-0.3600879856,-9.910793743200001,0.7243630408,0.32909151,-2.019275710000001,-4.67773378,,,
imu,248.817461,-0.4019586816,-9.917373424,0.7219704296,-0.02980017,-2.10899863,-4.37118047,,,
imu,248.825942,-0.4390441552000001,-9.9335235496,0.708811068,-0.25410747,-2.28096756,-4.341272829999999,,,
imu,248.834424,-0.4629702672000001,-9.914382660000001,0.7052221512000001,-0.48589168,-2.19124464,-4.341272829999999,,,
imu,248.842905,-0.4851019208000001,-9.898830687200002,0.6962498592000002,-0.73262971,-2.161337000000001,-4.61044159,,,
imu,248.851386,-0.4874945320000001,-9.8778953392,0.70282954,-0.76253735,-1.98936807,-4.78241052,,,
imu,248.859868,-0.4958686712000001,-9.8527729216,0.6998387760000001,-1.06161375,-1.99684498,-5.11887147,,,
imu,248.868349,-0.4749333232000001,-9.837220948800002,0.6789034280000001,-1.15133667,-1.92955279,-5.4403786,,,
imu,248.87683,-0.4605776560000001,-9.8402117128,0.6812960392000001,-1.08404448,-2.0117988,-5.76936264,,,
imu,248.885312,-0.4707462536000001,-9.855165532800001,0.6789034280000001,-1.00179847,-2.25105992,-5.98619303,,,
imu,248.893793,-0.4659610312,-9.863539672000002,0.6806978864000002,-1.14385976,-2.51275177,-6.24040797,,,
imu,248.902274,-0.4707462536000001,-9.894045464800001,0.6896701784000001,-1.39059779,-2.76696671,-6.2628387,,,
imu,248.910756,-0.4797185456,-9.937112466400002,0.6890720256,-1.57752054,-3.00622783,-6.19554651,,,
imu,248.919237,-0.4803166984,-9.9401032304,0.6980443176000002,-1.89155076,-3.19315058,-6.00114685,,,
imu,248.927719,-0.4659610312,-9.939505077600002,0.7070166096,-2.30278081,-3.44736552,-5.94133157,,,
imu,248.9362,-0.4683536424000001,-9.9550570504,0.7333353328000001,-2.4448421,-3.7314881,-5.5151477,,,
imu,248.944681,-0.4892889904,-9.976590551200001,0.7225685824,-2.81121069,-3.90345703,-5.0665331,,,
imu,248.953149,-0.5443190480000001,-9.9783850096,0.7369242496000001,-3.23739456,-4.21001034,-4.74502597,,,
imu,248.961616,-0.5724322296000001,-9.995133288000002,0.7441020832,-3.70843989,-4.38197927,-4.58801086,,,
imu,248.970083,-0.5485061176,-9.993936982400001,0.7620466672,-4.20191595,-4.30721017,-4.48333412,,,
imu,248.978551,-0.5407301312,-9.980179468000001,0.7781967928000002,-4.59819218,-4.29225635,-4.32631901,,,
imu,248.987018,-0.5090280328000001,-9.938308772000001,0.7710189592000001,-4.94960695,-4.38197927,-4.408565019999999,,,
imu,248.995485,-0.4797185456,-9.8916528536,0.7961413768000002,-5.360837,-4.51656365,-4.43847266,,,
imu,249.003953,-0.4486146000000001,-9.864137824800002,0.8063099744000001,-5.600098119999999,-4.77077859,-4.49081103,,,
imu,249.01242,-0.4492127528000001,-9.832435726400002,0.8248527112,-5.84683615,-5.204439369999999,-4.602964679999999,,,
imu,249.020887,-0.4432312248,-9.7989391696,0.8511714344000001,-5.83188233,-5.61566942,-4.5431494,,,
imu,249.029355,-0.4593813504000001,-9.767835224,0.8804809216,-5.794497779999999,-6.09419166,-4.46090339,,,
imu,249.037822,-0.4779240872000001,-9.731946056000002,0.9127811728000002,-5.577667389999999,-6.41569879,-4.17678081,,,
imu,249.046289,-0.5389356728,-9.686486443200002,0.9420906600000001,-5.32345245,-6.654959910000001,-3.90761205,,,
imu,249.054757,-0.5796100632000001,-9.645213900000002,0.9648204664000001,-4.92717622,-6.96899013,-3.86275059,,,
imu,249.063224,-0.6226770648,-9.638036066400002,0.9815687448000001,-4.36640797,-6.96899013,-3.75059694,,,
imu,249.071692,-0.6735200528,-9.6224840936,1.0066911624,-3.72339371,-6.782067379999999,-3.57862801,,,
imu,249.080159,-0.7100073736000001,-9.609324732000001,1.022841288,-3.02056417,-6.31102205,-3.48142818,,,
imu,249.088626,-0.7375224024000001,-9.642223136000002,1.0449729416,-2.30278081,-5.795115259999999,-3.39918217,,,
imu,249.097094,-0.7650374312,-9.701440263200002,1.0431784832,-1.86912003,-5.204439369999999,-3.29450543,,,
imu,249.105561,-0.7764023344000002,-9.7427128064,1.058730456,-1.3233056,-4.61376348,-3.05524431,,,
imu,249.114028,-0.7829820152,-9.776209363200001,1.0581323032,-1.00927538,-4.00813377,-3.21973633,,,
imu,249.122496,-0.7602522088000001,-9.8061170032,1.052748928,-0.74758353,-3.22305822,-3.21225942,,,
imu,249.130963,-0.7375224024000001,-9.85456738,1.0485618584,-0.69524516,-2.63985924,-3.25712088,,,
imu,248.326846,,,,,,,94.2151588,6.720033199999986,214.5964872
imu,249.13943,-0.6980443176000002,-9.859950755200002,1.03181358,-0.7999219,-2.13890627,-3.54124346,,,
imu,249.147898,-0.6938572480000001,-9.839015407200002,1.0306172744,-1.12142903,-1.96693734,-3.9449966,,,
imu,249.156492,-0.6783052752000002,-9.840809865600002,1.0216449824,-1.30835178,-1.60056875,-4.15435008,,,
imu,249.165087,-0.666940372,-9.8162856008,1.0162616072,-1.1737674,-1.21176943,-3.99733497,,,
imu,249.173681,-0.6507902464,-9.803724392000001,1.0114763848,-1.08404448,-0.94260067,-4.034719519999999,,,
imu,249.182276,-0.6501920936000001,-9.783387196800001,1.0066911624,-0.98684465,-0.5463244400000002,-4.07210407,,,
imu,249.19087,-0.6645477608,-9.748694334400001,1.0037003984,-0.68776825,-0.1201405700000002,-4.02724261,,,
imu,249.199465,-0.6962498592000002,-9.718786694400002,1.0031022456,-0.58309151,0.08173599999999981,-4.25154991,,,
imu,249.208059,-0.6968480120000001,-9.697253193600002,1.0007096344,-0.17186146,0.3733354899999997,-4.244073,,,
imu,249.216654,-0.7399150136000001,-9.681103068,0.9983170232,0.29918387,0.8817653699999997,-4.27398064,,,
imu,249.225248,-0.7931506128000001,-9.6912716656,1.0120745376,0.7702292,1.42010289,-4.11696553,,,
imu,249.233843,-0.840404684,-9.740918348000001,1.0282246632,1.00949032,2.1005017,-3.84779677,,,
imu,249.242437,-0.8756956992000001,-9.746301723200002,1.0222431352,1.33099745,3.13979219,-3.71321239,,,
imu,249.251032,-0.8691160184000001,-9.736731278400002,1.0264302048,1.62259694,4.3435747,-3.56367419,,,
imu,249.259626,-0.8069081272,-9.758264779200001,1.0425803304,1.82447351,5.42772665,-3.45899745,,,
imu,249.268221,-0.7291482632,-9.7989391696,1.0371969552,2.09364227,6.31000203,-3.67582784,,,
imu,249.276815,-0.6585662328000002,-9.834828337600001,1.0192523712,2.07868845,6.54178624,-4.31136519,,,
imu,249.28541,-0.6101158560000001,-9.858754449600001,1.0150653016,1.98148862,6.47449405,-4.887087259999999,,,
imu,249.294004,-0.5640580904000001,-9.862343366400001,1.0054948568,1.91419643,6.36981731,-5.25345585,,,
imu,249.302599,-0.5784137576,-9.8749045752,1.0001114816,1.93662716,6.28009439,-5.27588658,,,
imu,249.311193,-0.5820026744000001,-9.873110116800001,1.0007096344,1.75718132,6.13055619,-5.03662546,,,
imu,249.319788,-0.6430142600000001,-9.8330338792,0.9881484256000002,1.63755076,6.033356359999999,-4.81231816,,,
imu,249.328383,-0.7004369288000002,-9.800733628000001,0.9708019944000001,1.63755076,6.30252512,-4.47585721,,,
imu,249.336977,-0.7339334856000002,-9.742114653600002,0.9582407856000001,1.67493531,6.69880135,-4.3936112,,,
imu,249.345572,-0.7435039304000001,-9.718786694400002,0.9534555632000001,1.7422275,7.23713887,-4.4683803,,,
imu,249.354166,-0.7058203040000001,-9.667943706400001,0.9283331456000001,1.97401171,7.8577224,-4.48333412,,,
imu,249.362511,-0.6795015808000001,-9.652989886400002,0.9169682424000002,2.63197979,8.52316739,-4.51324176,,,
imu,249.370857,-0.6190881480000001,-9.663158484000002,0.9181645480000001,3.06564057,8.73999778,-4.57305704,,,
imu,249.379202,-0.5921712720000001,-9.669738164800002,0.9091922560000001,3.41705534,8.597936489999999,-4.85717962,,,
imu,249.387547,-0.5592728680000001,-9.735534972800002,0.9229497704,4.01520814,8.665228679999998,-5.10391765,,,
imu,249.395892,-0.5168040192000001,-9.783387196800001,0.9247442288000001,4.32176145,8.47082902,-5.17868675,,,
imu,249.404238,-0.4599795032,-9.837220948800002,0.9361091320000001,4.31428454,8.32876773,-5.14877911,,,
imu,249.412583,-0.4121272792,-9.900625145600001,0.9379035904000002,4.12736179,7.93996841,-5.216071299999999,,,
imu,249.420928,-0.3923882368,-9.928738327200001,0.9337165208000001,3.95539286,7.19227741,-5.08148692,,,
imu,249.429274,-0.3756399584,-9.9724034816,0.9420906600000001,3.44696298,6.36981731,-5.044102369999999,,,
imu,249.437619,-0.3666676664,-10.0184612472,0.9468758824000001,2.96096383,5.77166451,-4.77493361,,,
imu,249.445964,-0.3810233336,-9.980777620800001,0.9456795768000001,2.23570356,5.12117334,-4.58053395,,,
imu,249.45431,-0.3983697648000001,-9.957449661600002,0.9510629520000001,1.65250458,4.46320526,-4.25902682,,,
imu,249.462655,-0.4025568344,-9.970010870400001,0.9373054376000002,1.30108981,3.73046808,-3.84779677,,,
imu,249.471,-0.4216977240000001,-9.924551257600003,0.9319220624000001,0.9048135799999999,3.02016163,-3.80293531,,,
imu,249.479345,-0.4420349192,-9.8713156584,0.9385017432000002,0.65059864,2.36219355,-3.7206893,,,
imu,249.487691,-0.4522035168,-9.844398782400003,0.9313239096000001,0.7104139199999999,1.77899457,-3.60853565,,,
imu,249.496036,-0.4785222400000001,-9.817481906400001,0.9157719368000001,0.73284465,1.1285034,-3.78050458,,,
imu,249.504381,-0.5060372688000001,-9.805518850400002,0.9163700896000002,0.83004448,0.6798887999999996,-3.74312003,,,
imu,249.512727,-0.5371412144000001,-9.8013317808,0.9247442288000001,0.9945364999999999,0.3284740299999998,-3.56367419,,,
imu,249.521072,-0.5616654792000001,-9.800733628000001,0.9343146736000002,1.04687487,0.006966899999999665,-3.496382,,,
imu,249.529417,-0.5855915912,-9.7953502528,0.9522592576000002,1.1440747,-0.04537147000000008,-3.41413599,,,
imu,249.537762,-0.6202844536000002,-9.802528086400002,0.9486703408000001,1.23379762,-0.25472495,-3.50385891,,,
imu,249.546017,-0.6442105656,-9.800733628000001,0.9504647992000002,1.34595127,-0.09023292999999999,-3.496382,,,
imu,249.554362,-0.6645477608,-9.7845835024,0.9582407856000001,1.45810492,0.3060432999999998,-3.61601256,,,
imu,249.563174,-0.7052221512000001,-9.7995373224,0.9666149248000001,1.71979677,0.52287369,-3.78050458,,,
imu,249.571985,-0.7147925960000001,-9.832435726400002,0.9534555632000001,1.71979677,0.8369039099999998,-3.89265823,,,
imu,249.580797,-0.7213722768,-9.8617452136,0.9594370912000001,1.89924261,1.34533379,-3.81041222,,,
imu,249.589608,-0.7201759712000001,-9.889260242400002,0.9594370912000001,1.78708896,1.8761944,-3.9449966,,,
imu,249.59842,-0.6723237472000001,-9.903615909600001,0.9361091320000001,1.83195042,2.42200883,-4.04967334,,,
imu,249.607232,-0.6196863008000001,-9.881484256,0.9295294512000001,1.68241222,2.74351596,-4.19173463,,,
imu,249.616043,-0.5796100632000001,-9.856959991200002,0.9115848672000001,1.51044329,2.75099287,-4.43847266,,,
imu,249.624855,-0.5305615336,-9.8432024768,0.9044070336000001,1.37585891,2.58650085,-4.7674567,,,
imu,249.633667,-0.5108224912,-9.860548908000002,0.9050051864,1.15902852,2.22760917,-4.74502597,,,
imu,249.642478,-0.4821111568000001,-9.878493492,0.8906495192000001,0.8375213899999999,2.18274771,-4.49081103,,,
imu,249.65129,-0.4898871432,-9.857558144000002,0.8792846160000001,0.44872207,1.97339423,-4.55810322,,,
imu,249.660101,-0.5012520464000001,-9.832435726400002,0.8667234072000001,0.41881443,1.6518871,-4.81231816,,,
imu,249.668913,-0.5419264368000001,-9.8270523512,0.8631344904,0.3216146,1.38271834,-5.216071299999999,,,
imu,249.677725,-0.6047324808000001,-9.803724392000001,0.8679197128000001,0.16459949,0.9041961000000001,-5.567486069999999,,,
imu,249.686536,-0.6615569968000001,-9.811500378400002,0.8583492680000002,0.26927623,0.9191499199999997,-5.69459354,,,
imu,249.695348,-0.7052221512000001,-9.8432024768,0.8517695872000001,0.40386061,0.9041961000000001,-5.97871612,,,
imu,249.704159,-0.7429057776,-9.892849159200003,0.8571529624000002,0.3889067899999999,1.04625739,-6.031054489999999,,,
imu,249.712971,-0.7405131664000002,-9.925149410400001,0.8517695872000001,0.22441477,1.33785688,-6.00114685,,,
imu,249.721783,-0.7494854584000001,-9.912588201600002,0.8392083784000002,0.05244583999999999,1.59954873,-5.65720899,,,
imu,249.730594,-0.7506817640000001,-9.895241770400002,0.8577511152000001,-0.23167674,1.82385603,-5.49271697,,,
imu,249.739406,-0.7596540560000001,-9.8946436176,0.8721067824000002,-0.28401511,2.22013226,-5.02914855,,,
imu,249.748218,-0.7590559032000002,-9.876699033600001,0.8709104768000001,-0.49336859,2.56407012,-4.48333412,,,
imu,249.757029,-0.7662337368000001,-9.833632032,0.8966310472000002,-0.70272207,2.91548489,-4.37118047,,,
imu,249.765505,-0.7674300424000001,-9.83961356,0.9097904088000002,-0.94198319,3.47625314,-4.28145755,,,
imu,249.773982,-0.744700236,-9.825856045600002,0.9349128264000002,-0.92702937,3.92486774,-4.27398064,,,
imu,249.782458,-0.7620466672,-9.83961356,0.9373054376000002,-0.89712173,4.15665195,-4.53567249,,,
imu,249.790934,-0.7722152648000001,-9.831239420800001,0.9492684936000001,-1.00927538,4.2688056,-4.954379449999999,,,
imu,249.79941,-0.7907580016000001,-9.828846809600002,0.9791761336000001,-1.2485365,4.433297619999999,-5.29831731,,,
imu,249.807887,-0.8063099744000001,-9.8264541984,0.9821668976000001,-1.15881358,4.92677368,-5.42542478,,,
imu,249.816363,-0.8433954480000001,-9.828248656800001,0.9863539672000001,-1.08404448,5.33800373,-5.60487062,,,
imu,249.824839,-0.8619381848000001,-9.8264541984,1.0007096344,-1.09152139,5.80157215,-5.74693191,,,
imu,249.833315,-0.8661252544000001,-9.843800629600002,1.0037003984,-1.18872122,6.41467877,-5.44785551,,,
imu,249.841792,-0.8284416280000001,-9.860548908000002,0.9977188704000002,-1.12142903,7.30443106,-5.24597894,,,
imu,249.850268,-0.7746078760000001,-9.830641268,1.0031022456,-1.15133667,7.887630039999999,-5.1413022,,,
imu,249.858744,-0.6914646368,-9.8210708232,1.0144671488,-1.21115195,8.10446043,-5.25345585,,,
imu,249.867221,-0.6262659816,-9.803724392000001,1.0216449824,-1.38312088,8.06707588,-5.17868675,,,
imu,249.875697,-0.5514968816000001,-9.786976113600002,1.0467674,-1.43545925,7.767999479999999,-5.05905619,,,
imu,249.884173,-0.5538894928000001,-9.755274015200001,1.067702748,-1.34573633,7.22966196,-4.692687599999999,,,
imu,249.892649,-0.5538894928000001,-9.749890640000002,1.0671045952,-1.12890594,6.67637062,-4.30388828,,,
imu,249.901126,-0.5461135064000001,-9.703832874400002,1.0671045952,-1.0242292,6.07821782,-3.92256587,,,
imu,249.909602,-0.5694414656000001,-9.636839760800001,1.067702748,-0.7251528,5.67446468,-3.7206893,,,
imu,249.918078,-0.6065269392000001,-9.6428212888,1.0760768872,-0.47093786,5.27818845,-3.7954584,,,
imu,249.926554,-0.6256678288,-9.678710456800001,1.0593286088,0.03749201999999999,4.88938913,-3.74312003,,,
imu,249.935031,-0.648995788,-9.7086180968,1.055739692,0.4861066199999999,4.61274346,-3.99733497,,,
imu,249.943507,-0.7064184568,-9.746301723200002,1.0611230672,0.91229049,4.410866889999999,-4.363703559999999,,,
imu,249.951983,-0.7375224024000001,-9.800733628000001,1.0623193728,1.1440747,4.53797436,-4.52819558,,,
imu,248.428451,,,,,,,92.457322,6.134087599999982,217.0745488
imu,248.529953,,,,,,,90.96804359999999,6.085258799999993,216.11018
imu,248.631668,,,,,,,89.1735852,6.158501999999988,215.9514864
imu,248.733047,,,,,,,88.45336040000001,5.731249999999988,214.8406312
imu,248.834548,,,,,,,88.2946668,5.535934799999986,215.3899552
imu,248.936172,,,,,,,90.5285844,5.023232399999977,213.4368032
imu,249.037734,,,,,,,88.50218919999999,6.488096399999987,215.2434688
imu,249.139328,,,,,,,90.931422,6.085258799999993,213.05838
imu,249.960459,-0.7752060288000001,-9.841408018400001,1.0718898176,1.25622835,4.59031273,-4.647826139999999,,,
imu,249.968909,-0.8104970440000001,-9.875502728,1.073684276,1.1440747,4.91181986,-4.759979789999999,,,
imu,249.977358,-0.8433954480000001,-9.897634381600001,1.0712916648,1.03192105,5.21089626,-4.85717962,,,
imu,249.985808,-0.8469843648000001,-9.900625145600001,1.0802639568,0.8375213899999999,5.69689541,-4.86465653,,,
imu,249.994258,-0.8445917536,-9.908401132000002,1.0928251656,0.52349117,6.16794074,-4.78988743,,,
imu,250.002707,-0.8164785720000002,-9.8719138112,1.088638096,0.3216146,6.42963259,-4.73007215,,,
imu,250.011157,-0.7817857096,-9.830641268,1.0778713456,0.18703022,6.72123208,-4.53567249,,,
imu,250.019606,-0.7303445688000001,-9.802528086400002,1.0994048464,0.04496892999999999,7.00535466,-3.97490424,,,
imu,250.028056,-0.6800997336000001,-9.7744149048,1.0940214712,0.0001074699999999984,7.012831569999999,-3.69825857,,,
imu,250.036505,-0.6675385248000001,-9.751685098400001,1.1023956104,0.14216876,6.98292393,-3.42908981,,,
imu,250.044955,-0.6412198016000001,-9.724768222400002,1.0988066936,0.40386061,7.00535466,-3.11505959,,,
imu,250.053404,-0.6220789120000001,-9.742114653600002,1.1083771384,0.620691,6.75861663,-2.83093701,,,
imu,250.061854,-0.62806044,-9.748694334400001,1.1029937632,0.78518302,6.45954023,-2.748691,,,
imu,250.070304,-0.6765108168000001,-9.7845835024,1.103591916,0.9945364999999999,6.38477113,-2.70382954,,,
imu,250.078753,-0.6914646368,-9.802528086400002,1.0940214712,0.8524752099999999,6.26514057,-2.68887572,,,
imu,250.087203,-0.7279519576000001,-9.794752100000002,1.0653101368,0.8674290299999999,6.54926315,-2.56176825,,,
imu,250.095652,-0.7524762224000001,-9.7989391696,1.0629175256,0.68050628,7.012831569999999,-2.61410662,,,
imu,250.104102,-0.7674300424000001,-9.812098531200002,1.0659082896,0.53096808,7.364246339999999,-2.72626027,,,
imu,250.112551,-0.7680281952000001,-9.8198745176,1.073684276,0.49358353,7.8577224,-2.8234601,,,
imu,250.121001,-0.7333353328000001,-9.8617452136,1.0694972064,0.45619898,8.08950661,-3.10010577,,,
imu,250.12945,-0.7112036792,-9.867726741600002,1.0491600112,0.56087572,8.11193734,-3.7954584,,,
imu,250.1379,-0.7040258456,-9.849184004800001,1.0401877192,0.5459219,7.68575347,-4.6179185,,,
imu,250.14635,-0.6986424704000002,-9.850978463200002,1.0551415392,0.6132140899999999,7.08760067,-5.38056332,,,
imu,250.154799,-0.7159889016000002,-9.828248656800001,1.052748928,0.82256757,6.64646298,-5.33570186,,,
imu,250.163249,-0.7243630408,-9.8168837536,1.0730861232,0.91229049,6.30252512,-5.01419473,,,
imu,250.171711,-0.7189796656000002,-9.798341016800002,1.1053863744,1.01696723,6.205325289999999,-4.22911918,,,
imu,250.180173,-0.7159889016000002,-9.752881404000002,1.1029937632,1.16650543,6.02587945,-3.3468438,,,
imu,250.188635,-0.7273538048000001,-9.7540777096,1.097610388,1.2188438,5.921202709999999,-2.5991528,,,
imu,250.197098,-0.708811068,-9.749890640000002,1.0712916648,1.12164397,5.86886434,-2.0757691,,,
imu,250.20556,-0.6932590952000001,-9.703832874400002,1.0294209688,1.15155161,5.69689541,-1.64210832,,,
imu,250.214022,-0.6789034280000001,-9.7056273328,0.998915176,1.45062801,5.592218669999999,-0.9018942299999999,,,
imu,250.222485,-0.6657440664000001,-9.724768222400002,0.9743909112000002,1.61512003,5.64455704,-0.4757103599999999,,,
imu,250.230947,-0.6412198016000001,-9.748694334400001,0.9528574104000002,2.08616536,5.62960322,-0.07195722000000004,,,
imu,250.239409,-0.5915731192000001,-9.7636481544,0.9528574104000002,2.33290339,5.62960322,0.2719806400000002,,,
imu,250.247871,-0.5371412144000001,-9.786976113600002,0.9576426328000002,2.37776485,5.55483412,0.1149655300000001,,,
imu,250.256334,-0.4982612824000001,-9.821668976000002,0.9654186192,2.35533412,5.352957549999999,-0.2065416,,,
imu,250.264796,-0.4432312248,-9.864137824800002,0.9731946056000002,2.35533412,4.94920441,-0.4308489,,,
imu,250.273258,-0.4199032656,-9.899428840000002,0.9869521200000001,2.20579592,4.44825144,-0.74487912,,,
imu,250.28172,-0.4049494456000001,-9.9131863544,0.9977188704000002,1.91419643,3.93982156,-1.31312428,,,
imu,250.290183,-0.415716196,-9.906008520800002,1.01685976,1.71979677,3.31176112,-1.73183124,,,
imu,250.298645,-0.4085383624000001,-9.899428840000002,1.0150653016,1.28613599,2.87062343,-1.95613854,,,
imu,250.307107,-0.4390441552000001,-9.863539672000002,1.022841288,0.97958268,2.45191647,-2.10567674,,,
imu,250.31557,-0.4701481008,-9.842604324000002,1.0413840248,0.91229049,2.13040934,-2.08324601,,,
imu,250.324032,-0.5084298800000001,-9.821668976000002,1.0300191216,0.9048135799999999,2.15284007,-1.83650798,,,
imu,250.332494,-0.5640580904000001,-9.812696684000002,1.0401877192,0.91229049,2.16779389,-1.82155416,,,
imu,250.340956,-0.5784137576,-9.805518850400002,1.0473655528,1.06182869,2.11545552,-2.12810747,,,
imu,250.349419,-0.5688433128,-9.8061170032,1.0569359976,1.31604363,2.24256299,-2.51690679,,,
imu,250.357881,-0.5538894928000001,-9.8079114616,1.0778713456,1.42072037,2.43696265,-2.90570611,,,
imu,250.366343,-0.5634599376000001,-9.803126239200001,1.0904325544,1.52539711,2.49677793,-3.20478251,,,
imu,250.37491,-0.5568802568000001,-9.779798280000001,1.1101715968,1.56278166,2.60893158,-3.4216129,,,
imu,250.383476,-0.5550857984,-9.794752100000002,1.1000029992,1.63755076,2.57902394,-3.60853565,,,
imu,250.392043,-0.580208216,-9.802528086400002,1.0593286088,1.77213514,2.36219355,-3.81041222,,,
imu,250.400609,-0.6017417168000001,-9.824061587200001,1.0671045952,1.65998149,2.36967046,-4.16182699,,,
imu,250.409176,-0.5891805080000001,-9.849184004800001,1.052748928,1.65250458,2.42200883,-4.17678081,,,
imu,250.417742,-0.6083213976,-9.879689797600001,1.0479637056,1.63755076,2.25751681,-4.58053395,,,
imu,250.426309,-0.6262659816,-9.9048122152,1.0222431352,1.57773548,2.04816333,-4.77493361,,,
imu,250.434875,-0.6477994824000001,-9.880287950400001,1.004896704,1.40576655,1.8761944,-4.7674567,,,
imu,250.443442,-0.6753145112000001,-9.869521200000003,0.9941299536000001,1.38333582,1.65936401,-4.647826139999999,,,
imu,250.452009,-0.7094092208000001,-9.8467913936,0.9845595088000001,1.2936129,1.82385603,-4.32631901,,,
imu,250.460575,-0.7225685824,-9.8013317808,0.9755872168000002,1.07678251,1.90610204,-3.93004278,,,
imu,250.469142,-0.7309427216000001,-9.751685098400001,0.9719983000000001,0.8674290299999999,2.15284007,-3.62348947,,,
imu,250.477708,-0.7213722768,-9.7295534448,0.9773816752000002,1.00949032,2.42200883,-3.38422835,,,
imu,250.486275,-0.7207741240000002,-9.690075360000002,0.9719983000000001,1.25622835,2.71360832,-3.11505959,,,
imu,250.494841,-0.6920627896000001,-9.699645804800001,0.9869521200000001,1.25622835,2.99025399,-3.18235178,,,
imu,250.503408,-0.6603606912000002,-9.714001472000001,0.9821668976000001,1.53287402,3.10988455,-3.1225365,,,
imu,250.511974,-0.6286585928,-9.738525736800002,0.9959244120000001,2.01887317,3.36409949,-3.07767504,,,
imu,250.520541,-0.5969564944000001,-9.773816752000002,1.0042985512,2.22074974,3.37905331,-3.08515195,,,
imu,250.529107,-0.6005454112,-9.801929933600002,1.010878232,2.50487232,3.28185348,-2.98047521,,,
imu,250.537674,-0.5933675776,-9.8581562968,1.0264302048,2.6394567,3.21456129,-3.04029049,,,
imu,250.54624,-0.5855915912,-9.9012232984,1.010878232,2.5646876,3.13231528,-3.04029049,,,
imu,250.554807,-0.5933675776,-9.898830687200002,1.0042985512,2.46001086,2.96034635,-3.18982869,,,
imu,250.563374,-0.5897786608000001,-9.901821451200002,1.0072893152,2.22822665,3.00520781,-3.14496723,,,
imu,250.57194,-0.5927694248,-9.8982325344,0.9899428840000002,2.04878081,2.84071579,-2.98795212,,,
imu,250.580652,-0.6017417168000001,-9.893447312000001,0.9971207176000002,1.91419643,2.95286944,-2.69635263,,,
imu,250.589364,-0.6095177032000001,-9.883278714400001,1.0096819264,1.80204278,3.10988455,-2.41970696,,,
imu,250.598076,-0.6376308848000001,-9.889858395200001,1.0234394408,1.5179202,3.16969983,-2.18044584,,,
imu,250.606788,-0.6543791632000001,-9.879091644800003,1.0485618584,1.27865908,3.20708438,-2.24026112,,,
imu,250.615501,-0.7147925960000001,-9.864137824800002,1.0593286088,1.04687487,3.50616078,-2.35989168,,,
imu,250.624213,-0.8774901576000002,-9.896438076,1.0928251656,0.78518302,3.9697292,-2.61410662,,,
imu,250.632925,-1.0365988024,-9.914382660000001,1.1059845272,0.47862971,4.762281659999999,-2.85336774,,,
imu,249.240859,,,,,,,88.96606280000002,6.951969999999985,214.5964872
imu,249.342605,,,,,,,88.53881080000001,7.037420399999994,213.3391456
imu,249.443984,,,,,,,88.1359732,6.390438799999987,215.4021624
imu,249.545883,,,,,,,88.14818040000002,6.695618799999981,215.1824328
imu,249.64714,,,,,,,88.14818040000002,6.695618799999981,215.19464
imu,249.748703,,,,,,,88.05052280000001,6.976384399999991,214.88946
imu,249.850265,,,,,,,87.940658,6.585753999999988,213.8762624
imu,249.952041,,,,,,,87.1716044,7.098456399999997,213.6931544
imu,250.641527,-1.178361016,-9.859950755200002,1.09162886,-0.01484635000000001,6.28009439,-3.20478251,,,
imu,250.650239,-1.3195250768,-9.797144711200001,1.0982085408,-0.09709236,8.54559812,-3.36179762,,,
imu,250.658951,-1.4911949304,-9.817481906400001,1.1113679024,-0.08961545,11.25971645,-3.60853565,,,
imu,250.667663,-1.6162088656,-9.873110116800001,1.15144414,0.08235347999999998,14.56451067,-3.93004278,,,
imu,250.676375,-1.9033222096,-9.8850731728,1.1430700008,0.01506129,18.37773477,-4.42351884,,,
imu,250.685087,-2.027737992,-9.7995373224,1.1263217224,-0.41859949,23.15548026,-5.15625602,,,
imu,250.693799,-2.0612345488,-9.7750130576,1.1998945168,-0.55318387,28.81550113,-5.65720899,,,
imu,250.702511,-2.1156664536,-9.850978463200002,1.2208298648,-0.6279529699999999,34.475522,-6.666591840000001,,,
imu,250.711223,-2.2514471392,-9.9718053288,1.2268113928,-0.89712173,39.67945135999999,-8.46852715,,,
imu,250.719935,-2.4326874376,-10.081865444,1.2716728528,-1.3980747,44.54691977,-10.92095363,,,
imu,250.728648,-2.5218122048,-10.105791556,1.292010048,-2.53456502,50.30414047,-13.26122646,,,
imu,250.73736,-2.3788536856,-9.908401132000002,1.1963056,-3.99256247,57.06326711,-15.47439182,,,
imu,250.746072,-1.9523707392,-9.654784344800001,1.1101715968,-5.12157588,63.82987066,-17.6277419,,,
imu,250.754784,-1.3171324656,-9.301276040000001,0.8882569080000001,-5.271114079999999,68.80949272000001,-19.81847653,,,
imu,250.763496,-0.6645477608,-8.931617609600002,0.7734115704000001,-4.05985466,70.64881258,-22.10641099,,,
imu,250.772208,-0.1561178808,-8.808996285600001,0.9193608536000001,-1.33825942,69.48989153000001,-24.19246888,,,
imu,250.780683,0.13458438,-8.960328944,1.1167512776,2.22074974,65.86359018,-25.59065105,,,
imu,250.789158,0.1698753952,-8.947767735200001,1.1239291112,5.6302207,61.10079851,-25.89720436,,,
imu,250.797633,0.08733030880000002,-8.8484743704,1.0671045952,8.807907449999998,56.7567138,-25.65794324,,,
imu,250.806108,-0.0185427368,-8.858044815200001,1.0802639568,11.89587128,53.37715048,-24.52892983,,,
imu,250.814583,-0.131593616,-9.0542389336,1.09162886,14.95392747,50.73780125,-22.15127245,,,
imu,250.823058,-0.206362716,-9.269573941600001,1.0521507752,17.5185076,48.40500532999999,-19.28013901,,,
imu,250.831533,-0.2990764,-9.419710294400002,1.0479637056,19.70924223,46.2890398,-16.47629776,,,
imu,250.840008,-0.4097346680000001,-9.5812115504,1.0934233184,21.39902389,44.31513555999999,-14.12854802,,,
imu,250.848483,-0.5347486032000001,-9.769629682400002,1.0898344016,22.46074511,42.7748921,-11.74341373,,,
imu,250.856958,-0.6340419680000001,-10.0663134712,1.1263217224,22.5280373,41.47390976,-9.58258674,,,
imu,250.865433,-0.7112036792,-10.3259117864,1.1113679024,21.63828501,40.49443454999999,-7.89280508,,,
imu,250.873908,-0.8416009896000001,-10.4144384008,1.0013077872,19.7615806,39.54486697999999,-7.055391159999999,,,
imu,250.882383,-0.8834716856000001,-10.4329811376,0.9558481744000001,17.30915412,39.00652946,-6.38994617,,,
imu,250.890858,-0.8021229048,-10.365988024,0.9402962016,14.95392747,39.0364371,-5.60487062,,,
imu,250.899333,-0.7518780696000001,-10.2690872704,0.840404684,12.92768486,38.76726833999999,-5.15625602,,,
imu,250.907808,-0.6549773160000001,-10.1584290024,0.7548688336000001,11.32762612,38.07191571,-5.05157928,,,
imu,250.916283,-0.4653628784000001,-9.953262592000002,0.7530743752000001,10.1911358,36.97280994,-5.16373293,,,
imu,250.924758,-0.361882444,-9.7845835024,0.7674300424000001,9.877105579999998,35.25312064,-5.20859439,,,
imu,250.933233,-0.3164228312,-9.669140012000002,0.7375224024000001,10.25842799,33.13715511,-5.25345585,,,
imu,250.941708,-0.31403022,-9.640428677600001,0.726755652,10.69208877,30.5127597,-5.2908404,,,
imu,250.950183,-0.4258847936,-9.7612555432,0.7853746264000001,11.28276466,27.93322575,-5.05157928,,,
imu,250.958658,-0.5867878968000001,-9.907204826400001,0.7393168608000001,11.32014921,25.78735258,-4.77493361,,,
imu,250.967133,-0.6980443176000002,-10.0405929008,0.7249611936,10.90144225,24.34430895,-4.78988743,,,
imu,250.975608,-0.7536725280000001,-10.0806691384,0.6424161072,9.69018283,23.12557262,-5.11139456,,,
imu,250.984071,-0.7638411256000001,-10.0782765272,0.5742266880000001,8.471446499999999,22.54985055,-5.22354821,,,
imu,250.992535,-0.7255593464000001,-10.016068636,0.502448352,7.5742173,21.89188247,-5.6646859,,,
imu,251.000998,-0.7112036792,-9.9012232984,0.4282774048000001,6.96111068,21.08437619,-6.247884879999999,,,
imu,251.009462,-0.6902683312000001,-9.755872168000002,0.4270810992000001,6.75923411,20.08247025,-6.666591840000001,,,
imu,251.017925,-0.6579680800000002,-9.792957641600001,0.454596128,7.1256027,19.0730874,-6.883422229999999,,,
imu,251.026389,-0.6250696760000001,-9.923354952,0.4234921824,7.37234073,17.79453579,-7.00305279,,,
imu,251.034853,-0.6424161072,-10.120745376,0.3756399584,7.20784871,16.54589182,-6.838560769999999,,,
imu,251.043316,-0.6388271904000001,-10.204486768,0.3337692624,6.60969591,15.10284819,-6.920806779999999,,,
imu,251.05178,-0.6358364264000002,-10.2266184216,0.287113344,5.51806705,13.6897122,-6.943237509999999,,,
imu,251.060243,-0.6603606912000002,-10.2589186728,0.2159331608,4.41148437,12.3438684,-6.726407119999999,,,
imu,251.068707,-0.6735200528,-10.1967107816,0.152528964,3.27499405,11.08774752,-6.24040797,,,
imu,251.07717,-0.6717255944000001,-10.069902388,0.1489400472,2.2656112,9.794242090000001,-5.60487062,,,
imu,251.085634,-0.7165870544000001,-10.0053018856,0.167482784,1.57773548,8.58298267,-4.81979507,,,
imu,251.094097,-0.7955432240000001,-10.0106852608,0.1770532288,1.12164397,7.267046509999999,-4.19921154,,,
imu,251.102561,-0.8739012408000001,-10.001114816,0.2350740504,0.63564482,6.32495585,-3.66835093,,,
imu,251.111024,-0.9379035904000002,-9.9269438688,0.2476352592,0.20946095,5.69689541,-3.33188998,,,
imu,251.119488,-1.01685976,-9.8880639368,0.2835244272,-0.08213854000000001,5.40529592,-2.9729983,,,
imu,251.127951,-1.0611230672,-9.902419604000002,0.2948893304,-0.14943073,5.10621952,-2.45709151,,,
imu,251.136415,-1.07667504,-9.8850731728,0.2954874832,-0.14943073,5.10621952,-2.28512258,,,
imu,251.144879,-1.0635156784,-9.824659740000001,0.3206099008000001,0.05992275,5.09874261,-2.1505382,,,
imu,251.153342,-1.0419821776,-9.801929933600002,0.3451341656,0.34404533,5.158557889999999,-1.90380017,,,
imu,251.161806,-1.0114763848,-9.803126239200001,0.3935845424,0.52349117,5.21837317,-1.68696978,,,
imu,251.170269,-0.9151737840000002,-9.803126239200001,0.4390441552000001,0.67302937,5.21089626,-1.37293956,,,
imu,251.178733,-0.8565548096000002,-9.7995373224,0.4647647256,0.83004448,4.89686604,-1.18601681,,,
imu,251.187196,-0.8356194616000001,-9.806715156000001,0.5359449088000001,1.09921324,4.23142105,-1.04395552,,,
imu,251.19566,-0.8284416280000001,-9.815089295200002,0.5969564944000001,1.25622835,3.34166876,-0.9318018699999999,,,
imu,251.204123,-0.8595455736000001,-9.802528086400002,0.6681366776000001,1.22632071,2.87062343,-0.8944173199999998,,,
imu,251.212587,-0.8936402832000001,-9.868923047200001,0.6902683312000001,0.85995212,2.36219355,-1.1785399,,,
imu,251.22105,-0.9301276040000002,-9.899428840000002,0.6699311360000001,0.66555246,2.13040934,-1.35050883,,,
imu,251.229514,-0.9767835224000002,-9.845595088000001,0.6908664840000001,0.05244583999999999,1.98834805,-1.76173888,,,
imu,251.237978,-0.9821668976000001,-9.8946436176,0.663949608,-0.14943073,2.1005017,-2.18044584,,,
imu,251.246441,-0.9977188704000002,-9.934121702400002,0.6154992312,-0.31392275,2.15284007,-2.71878336,,,
imu,251.254905,-1.0084856208,-9.899428840000002,0.6107140088,-0.55318387,2.26499372,-3.15992105,,,
imu,251.263368,-1.0156634544,-9.837220948800002,0.61310662,-0.48589168,2.44443956,-3.45899745,,,
imu,251.271832,-1.022841288,-9.803126239200001,0.6005454112,-0.28401511,2.50425484,-3.53376655,,,
imu,251.280295,-0.9773816752000002,-9.776209363200001,0.6244715232,-0.20924601,2.74351596,-3.4216129,,,
imu,251.288759,-0.9133793256000001,-9.708019944000002,0.6364345792000001,0.18703022,2.81080815,-3.21225942,,,
imu,251.297222,-0.8625363376,-9.703234721600001,0.6525847048000001,0.73284465,2.40705501,-2.95804448,,,
imu,251.305686,-0.8398065312,-9.724170069600001,0.6573699272000001,1.38333582,2.00330187,-2.62158353,,,
imu,251.314149,-0.8302360864000001,-9.7744149048,0.6699311360000001,1.69736604,1.36776452,-2.41223005,,,
imu,251.322613,-0.8631344904,-9.835426490400001,0.6771089696000001,1.92167334,0.8144731799999998,-1.99352309,,,
imu,251.331076,-0.9008181168,-9.9496736752,0.6729219000000001,1.90671952,0.3957662200000001,-1.73930815,,,
imu,251.33954,-0.9175663952000002,-10.0316206088,0.6561736216000001,1.47305874,0.2537049300000001,-1.73930815,,,
imu,251.348004,-0.9385017432000002,-10.0172649416,0.61310662,0.6132140899999999,0.06678217999999969,-2.06829219,,,
imu,251.356467,-0.9456795768000001,-9.9580478144,0.5766192992000001,-0.09709236,-0.04537147000000008,-2.46456842,,,
imu,251.364931,-0.9385017432000002,-9.8850731728,0.5323559920000001,-0.67281443,-0.17247894,-2.748691,,,
imu,251.373394,-0.9139774784000001,-9.800135475200001,0.5221873944000001,-0.8821679099999999,-0.1425713000000002,-2.95056757,,,
imu,251.381858,-0.8918458248000001,-9.730749750400001,0.5263744640000001,-0.93450628,-0.17247894,-3.21973633,,,
imu,251.390676,-0.8721067824000002,-9.676915998400002,0.5191966304000001,-0.47093786,-0.2397711300000003,-3.17487487,,,
imu,251.399494,-0.8535640456000001,-9.616502565600001,0.5245800056000001,0.29170696,-0.4865091600000002,-3.16739796,,,
imu,251.408313,-0.8643307960000001,-9.6075302736,0.5263744640000001,1.03939796,-0.7033395499999999,-3.10758268,,,
imu,251.417131,-0.8685178656000001,-9.66016772,0.5269726168000001,1.8169966,-0.9575544899999997,-3.14496723,,,
imu,251.425949,-0.8463862120000001,-9.766638918400002,0.5544876456000001,2.60954906,-1.16690797,-3.00290594,,,
imu,251.434767,-0.8338250032000001,-9.895839923200002,0.5604691736,2.87871782,-1.39869218,-3.02533667,,,
imu,251.443586,-0.7722152648000001,-9.9819739264,0.5538894928000001,2.90862546,-1.69776858,-3.00290594,,,
imu,251.452404,-0.70282954,-10.0334150672,0.5419264368000001,2.63197979,-2.0865679,-3.10758268,,,
imu,250.053382,,,,,,,89.50317960000001,6.158501999999988,212.570092
imu,250.154823,,,,,,,87.086154,7.379221999999985,214.0227488
imu,250.256385,,,,,,,89.0759276,6.329402799999984,211.6911736
imu,250.357948,,,,,,,87.0739468,6.805483599999995,214.5476584
imu,250.459571,,,,,,,86.8908388,6.524717999999985,212.3625696
imu,250.561164,,,,,,,86.34151480000001,6.756654799999984,214.0227488
imu,250.662757,,,,,,,86.903046,6.646789999999991,214.1204064
imu,250.764198,,,,,,,86.23164999999999,6.768861999999998,213.3513528
imu,251.461222,-0.6184899952000001,-10.072893152,0.535346756,2.18336519,-2.79687435,-3.0477674,,,
imu,251.47004,-0.5180003248000001,-10.0531541096,0.4982612824000001,1.63755076,-3.75391883,-2.58419898,,,
imu,251.478859,-0.4360533912000001,-9.9753942456,0.4755314760000001,1.09173633,-5.10723954,-2.21035348,,,
imu,251.487677,-0.3666676664,-9.907204826400001,0.4551942808000001,0.8973366700000001,-6.81945193,-1.76173888,,,
imu,251.496495,-0.3487230824000001,-9.858754449600001,0.4486146000000001,0.8823828499999999,-8.72606398,-1.26078591,,,
imu,251.505313,-0.2883096496000001,-9.840809865600002,0.4569887392,1.11416706,-10.50556856,-0.6701100199999999,,,
imu,251.514132,-0.2225128416,-9.841408018400001,0.4360533912000001,1.19641307,-12.19535022,-0.26635688,,,
imu,251.52295,-0.1549215752,-9.858754449600001,0.4492127528000001,1.27118217,-14.39356176,-0.18411087,,,
imu,251.531768,-0.08733030880000002,-9.918569729600001,0.4372496968000001,1.48053565,-16.80112678,-0.5056179999999999,,,
imu,251.540586,-0.08194693360000001,-9.9724034816,0.3923882368,1.52539711,-19.23112253,-0.8196482199999999,,,
imu,251.549405,-0.07895616960000001,-10.0256390808,0.385808556,1.368382,-21.81813339,-1.1785399,,,
imu,251.558223,-0.09869521200000002,-10.0112834136,0.3403489432000001,1.03192105,-24.24065223,-1.50752394,,,
imu,251.567041,-0.09929336480000002,-9.990348065600001,0.3606861384,0.6954601,-26.43138686,-1.57481613,,,
imu,251.575859,-0.08015247520000002,-9.9401032304,0.3564990688,0.52349117,-28.63707531,-1.38041647,,,
imu,251.584678,-0.125612088,-9.945486605600001,0.3810233336,0.23936859,-30.78294848,-1.15610917,,,
imu,251.593155,-0.2434481896,-9.986160996000002,0.4139217376000001,0.05992275,-32.92134474,-0.7000176599999999,,,
imu,251.601633,-0.4402404608,-10.0106852608,0.4270810992000001,-0.60552224,-34.79057224,-0.43832581,,,
imu,251.61011,-0.601143564,-10.042985512,0.4474182944000001,-1.26349032,-35.89715492,0.15982699,,,
imu,251.618588,-0.7165870544000001,-10.0716968464,0.4522035168,-2.04856587,-36.29343115,0.6009646800000001,,,
imu,251.627065,-0.7967395296000002,-10.0621264016,0.4438293776000001,-3.02056417,-36.22613896,0.7131183299999999,,,
imu,251.635543,-0.8116933496000001,-10.0531541096,0.4384460024000001,-3.94770101,-35.98687784,0.8252719800000001,,,
imu,251.64402,-0.7913561544000001,-9.987357301600001,0.4181088072000001,-4.6879151,-35.77752436,0.5635801300000001,,,
imu,251.652498,-0.780589404,-9.9030177568,0.4145198904,-5.173914249999999,-35.71023217,-0.15420323,,,
imu,251.660975,-0.7458965416000001,-9.853371074400002,0.4181088072000001,-5.30102172,-35.60555543,-0.8196482199999999,,,
imu,251.669453,-0.726755652,-9.767835224,0.4193051128000001,-5.16643734,-35.7326629,-1.30564737,,,
imu,251.67793,-0.7273538048000001,-9.699645804800001,0.4474182944000001,-4.919699309999999,-35.91958565,-1.55986231,,,
imu,251.686408,-0.7470928472,-9.706823638400001,0.4898871432,-4.3140696,-36.1065084,-1.65706214,,,
imu,251.694885,-0.7991321408000002,-9.684093832000002,0.5036446576000001,-3.91031646,-36.34576952,-1.69444669,,,
imu,251.703363,-0.8685178656000001,-9.7056273328,0.5419264368000001,-3.25234838,-36.38315407,-1.61220068,,,
imu,251.71184,-0.9480721880000001,-9.785779808000001,0.5903768136,-2.78877996,-36.06912385,-1.35050883,,,
imu,251.720318,-1.022841288,-9.857558144000002,0.6113121616,-2.5196112,-35.51583251,-1.16358608,,,
imu,251.728796,-1.0730861232,-9.9137845072,0.6286585928,-2.60933412,-34.62608022,-1.08134007,,,
imu,251.737152,-1.0940214712,-9.9430939944,0.6472013296000001,-3.00561035,-33.46715917,-1.19349372,,,
imu,251.74563,-1.0934233184,-9.914980812800001,0.6645477608,-3.33459439,-32.2185152,-1.39537029,,,
imu,251.754107,-1.0569359976,-9.8778953392,0.6806978864000002,-3.87293191,-31.03716342,-1.93370781,,,
imu,251.762585,-1.0371969552,-9.824061587200001,0.6866794144,-4.24677741,-30.05768821,-2.80102937,,,
imu,251.771063,-0.9911391896000001,-9.8043225448,0.6968480120000001,-4.396315609999999,-29.48944305,-3.70573548,,,
imu,251.77954,-0.9791761336000001,-9.786377960800001,0.6908664840000001,-4.396315609999999,-28.98101317,-4.46090339,,,
imu,251.788018,-0.9947281064000002,-9.7815927384,0.6974461648000001,-4.321546509999999,-28.56978312,-5.05905619,,,
imu,251.796469,-0.9929336480000002,-9.791761336000002,0.726755652,-4.22434668,-28.33799891,-5.350655679999999,,,
imu,251.804919,-1.013868996,-9.7325442088,0.7632429728000001,-3.94770101,-27.70246156,-5.20111748,,,
imu,251.81337,-1.0144671488,-9.7510869456,0.7405131664000002,-3.53647096,-27.01458584,-5.02914855,,,
imu,251.821821,-1.0312154272,-9.7995373224,0.7249611936,-3.07290254,-26.40895613,-4.759979789999999,,,
imu,251.830272,-1.0832547208,-9.765442612800001,0.7470928472,-2.96074889,-25.69117277,-4.48333412,,,
imu,251.838723,-1.1221346528,-9.797742864000002,0.7452983888000001,-2.60933412,-24.71917447,-4.28145755,,,
imu,251.847174,-1.1346958616,-9.8079114616,0.7279519576000001,-2.67662631,-23.88923746,-4.23659609,,,
imu,251.855625,-1.1472570704,-9.792957641600001,0.708811068,-2.78877996,-22.70788568,-4.18425772,,,
imu,251.864076,-1.1382847784,-9.803724392000001,0.6944554008000001,-3.01308726,-21.7508412,-4.453426479999999,,,
imu,251.872527,-1.1203401944,-9.803126239200001,0.6872775672000001,-3.02056417,-20.71155071,-4.73007215,,,
imu,251.880978,-1.1053863744,-9.8043225448,0.7058203040000001,-3.17757928,-19.66478331,-5.1413022,,,
imu,251.889429,-1.0509544696,-9.818080059200001,0.7452983888000001,-3.25234838,-18.70773883,-5.5151477,,,
imu,251.89788,-1.0270283576,-9.819276364800002,0.7452983888000001,-3.28225602,-18.22921659,-6.046008309999999,,,
imu,251.906331,-1.0234394408,-9.825856045600002,0.7566632920000002,-3.37945585,-17.94509401,-6.636684199999999,,,
imu,251.914782,-1.0503563168,-9.824061587200001,0.7644392784,-3.4916095,-17.74321744,-7.122683349999999,,,
imu,251.923232,-1.0844510264,-9.803126239200001,0.780589404,-3.52899405,-17.34694121,-7.15259099,,,
imu,251.931683,-1.130508792,-9.801929933600002,0.8015247520000001,-3.43179422,-16.72635768,-6.905852959999999,,,
imu,251.940134,-1.1705850296,-9.794153947200002,0.8260490168000001,-3.45422495,-15.94875904,-6.51705364,,,
imu,251.948585,-1.2028852808,-9.7702278352,0.8374139200000001,-3.37945585,-15.06648366,-5.85908556,,,
imu,251.957036,-1.22621324,-9.7492924872,0.8356194616000001,-3.33459439,-14.23654665,-5.34317877,,,
imu,251.965487,-1.235185532,-9.756470320800002,0.8398065312,-3.10281018,-13.29445599,-4.909517989999999,,,
imu,251.973938,-1.2250169344,-9.7702278352,0.8410028368000001,-3.01308726,-12.46451898,-4.74502597,,,
imu,251.982389,-1.193314836,-9.789966877600001,0.8589474208000002,-2.68410322,-11.47756686,-4.49828794,,,
imu,251.99084,-1.1263217224,-9.8079114616,0.8547603512000002,-2.63924176,-10.75230659,-4.30388828,,,
imu,251.999291,-1.0940214712,-9.802528086400002,0.8410028368000001,-2.5196112,-10.19901525,-4.26650373,,,
imu,252.007726,-1.0742824288,-9.8234634344,0.8451899064,-2.25791935,-9.8625543,-4.17678081,,,
imu,252.016161,-1.0593286088,-9.800733628000001,0.8643307960000001,-2.28782699,-9.54104717,-4.11696553,,,
imu,252.024596,-1.0425803304,-9.779798280000001,0.9103885616000001,-2.40745755,-9.15224785,-4.057150249999999,,,
imu,252.033031,-1.0246357464,-9.802528086400002,0.9097904088000002,-2.5196112,-9.16720167,-4.25154991,,,
imu,252.041466,-1.0246357464,-9.8432024768,0.9151737840000002,-2.56447266,-8.94289437,-4.4683803,,,
imu,252.049901,-1.0360006496,-9.8467913936,0.9229497704,-2.5943803,-8.87560218,-4.692687599999999,,,
imu,252.058336,-1.0485618584,-9.821668976000002,0.9385017432000002,-2.80373378,-8.89803291,-4.87961035,,,
imu,252.066771,-1.0730861232,-9.8402117128,0.9414925072000001,-3.02056417,-8.63634106,-5.00671782,,,
imu,252.075206,-1.0850491792,-9.8629415192,0.9241460760000001,-3.02056417,-8.29988011,-5.08896383,,,
imu,252.083641,-1.112564208,-9.83961356,0.9444832712000001,-3.24487147,-7.86621933,-4.999240909999999,,,
imu,252.092076,-1.1370884728,-9.833632032,0.9474740352000001,-3.28973293,-7.327881809999999,-4.59548777,,,
imu,252.100512,-1.1526404456,-9.827650504000003,0.9582407856000001,-3.33459439,-6.587667720000001,-4.19173463,,,
imu,252.108947,-1.1436681536,-9.820472670400001,0.9546518688000002,-3.27477911,-5.91474582,-3.85527368,,,
imu,252.117382,-1.1215365,-9.785181655200002,0.9462777296000001,-3.34954821,-5.339023750000001,-3.51133582,,,
imu,252.125817,-1.0952177768,-9.775611210400001,0.9331183680000001,-3.12524091,-4.87545533,-3.23469015,,,
imu,252.134252,-1.0748805816,-9.752283251200002,0.9271368400000001,-3.08785636,-4.6287173,-3.21225942,,,
imu,252.142687,-1.0575341504,-9.722375611200002,0.9319220624000001,-2.98317962,-4.38945618,-3.10758268,,,
imu,252.151122,-1.037795108,-9.717590388800001,0.9432869656,-2.62428794,-4.23991798,-2.92813684,,,
imu,252.159557,-1.0336080384,-9.737927584000001,0.9486703408000001,-2.27287317,-4.23244107,-2.86832156,,,
imu,252.167992,-1.0180560656,-9.7283571392,0.9468758824000001,-2.23548862,-4.23244107,-2.748691,,,
imu,252.176427,-1.0204486768,-9.7056273328,0.9624278552000001,-2.00370441,-4.23244107,-2.58419898,,,
imu,252.184862,-1.0240375936,-9.706225485600001,0.9731946056000002,-1.85416621,-4.11281051,-2.33746095,,,
imu,252.193297,-1.0192523712,-9.724768222400002,0.9696056888000001,-1.51770526,-3.92588776,-1.83650798,,,
imu,252.201732,-1.0192523712,-9.7474980288,0.9749890640000002,-1.39059779,-3.70905737,-1.50004703,,,
imu,252.210167,-1.0270283576,-9.776209363200001,0.9827650504000001,-1.27844414,-3.48475007,-1.34303192,,,
imu,252.218632,-1.0419821776,-9.802528086400002,0.9845595088000001,-1.22610577,-3.2828735,-1.20097063,,,
imu,252.227097,-1.0611230672,-9.825856045600002,0.9785779808,-1.36816706,-3.08099693,-1.16358608,,,
imu,252.235562,-1.0653101368,-9.883278714400001,0.9983170232,-1.36069015,-2.82678199,-1.22340136,,,
imu,252.244027,-1.085647332,-9.898830687200002,0.9977188704000002,-1.54013599,-2.69219761,-1.20844754,,,
imu,252.252491,-1.1029937632,-9.9000269928,1.0114763848,-1.75696638,-2.50527486,-1.23087827,,,
imu,252.260956,-1.100601152,-9.906008520800002,1.022841288,-1.9962275,-2.13142936,-1.01404788,,,
imu,252.269421,-1.1161531248,-9.8719138112,1.0354024968,-2.17567334,-1.69776858,-0.74487912,,,
imu,252.277886,-1.1233309584,-9.836622796,1.0431784832,-2.35511918,-1.33139999,-0.5056179999999999,,,
imu,252.286351,-1.1340977088,-9.7815927384,1.0599267616,-2.31773463,-0.88278539,-0.1691570499999999,,,
imu,252.294815,-1.1646035016,-9.752283251200002,1.0874417904,-2.12333497,-0.1650020300000001,0.2495499100000003,,,
imu,252.30328,-1.1939129888,-9.699645804800001,1.073684276,-2.12333497,0.6125966099999998,0.6607799600000002,,,
imu,252.311745,-1.2070723504,-9.6470083584,1.0832547208,-1.91398149,1.37524143,0.8551796199999999,,,
imu,252.32021,-1.1885296136,-9.644615747200001,1.0844510264,-1.39059779,2.48182411,1.1393022,,,
imu,252.328675,-1.139481084,-9.666149248000002,1.0760768872,-0.874691,3.49120696,1.35613259,,,
imu,252.337139,-1.0754787344,-9.672130776000001,1.0892362488,-0.44850713,4.46320526,1.31127113,,,
imu,252.345604,-1.0294209688,-9.70502918,1.0982085408,0.35899915,5.21837317,1.25145585,,,
imu,252.354069,-0.9881484256000002,-9.711608860800002,1.0928251656,0.74779847,5.569787939999999,0.95237945,,,
imu,252.362534,-0.9654186192,-9.7427128064,1.103591916,1.02444414,5.86138743,0.4813341200000001,,,
imu,252.370999,-0.9450814240000001,-9.797144711200001,1.1083771384,1.1440747,6.19037147,0.3093651899999998,,,
imu,252.379464,-0.9175663952000002,-9.8079114616,1.1029937632,1.26370526,6.41467877,0.1673038999999998,,,
imu,252.387928,-0.8978273528000001,-9.833632032,1.124527264,1.18145925,6.76609354,0.07758098000000002,,,
imu,252.396393,-0.8864624496000001,-9.867726741600002,1.1227328056,1.01696723,7.04273921,-0.04952648999999987,,,
imu,252.404858,-0.8601437264,-9.859950755200002,1.1215365,0.5982602699999999,7.13246213,-0.1093417699999999,,,
imu,250.86576,,,,,,,81.8858868,6.439267599999998,211.3249576
imu,250.967323,,,,,,,80.55530200000001,5.877736399999978,210.8366696
imu,251.068916,,,,,,,78.74863640000001,6.134087599999982,211.2639216
imu,251.170448,,,,,,,80.9581396,4.241971599999994,209.335184
imu,251.27201,,,,,,,78.33359159999999,5.181925999999981,210.2751384
imu,251.373573,,,,,,,80.9337252,4.168728399999977,208.3097792
imu,251.475166,,,,,,,78.63877159999998,4.791295599999978,210.3361744
imu,251.576698,,,,,,,78.73642919999999,5.26737639999999,208.8591032
imu,252.413323,-0.8368157672000002,-9.8402117128,1.1227328056,0.22441477,7.551169089999999,-0.1317724999999998,,,
imu,252.422138,-0.8081044328000001,-9.928140174400001,1.1071808328,0.03749201999999999,7.767999479999999,-0.3336490699999999,,,
imu,252.430954,-0.7949450712000001,-9.903615909600001,1.0922270128,-0.25410747,7.66332274,-0.5056179999999999,,,
imu,252.43977,-0.7883653904000001,-9.812696684000002,1.1089752912,-0.81487572,7.82781476,-0.7224483899999998,,,
imu,252.448585,-0.7488873056,-9.8210708232,1.0940214712,-0.80739881,7.89510695,-0.8944173199999998,,,
imu,252.457401,-0.7405131664000002,-9.802528086400002,1.097610388,-0.9494601,7.82781476,-1.03647861,,,
imu,252.466216,-0.7243630408,-9.7510869456,1.1317050976,-0.97189083,7.89510695,-1.14115535,,,
imu,252.475032,-0.708811068,-9.744507264800001,1.1329014032,-0.90459864,7.8577224,-1.37293956,,,
imu,252.483848,-0.6956517064000001,-9.7361331256,1.1197420416,-0.79244499,7.790430209999999,-1.67949287,,,
imu,252.492663,-0.6771089696000001,-9.7008421104,1.1239291112,-0.47093786,7.76052257,-1.87389253,,,
imu,252.501479,-0.6663422192,-9.709216249600003,1.1586219736,-0.26906129,7.745568749999999,-2.10567674,,,
imu,252.510294,-0.6513883992,-9.751685098400001,1.1628090432,0.007584380000000002,7.625938189999999,-2.28512258,,,
imu,252.51911,-0.6394253432000001,-9.773816752000002,1.1705850296,0.17955331,7.364246339999999,-2.46456842,,,
imu,252.527926,-0.6101158560000001,-9.794752100000002,1.1711831824,0.30666078,6.96797011,-2.60662971,,,
imu,252.536741,-0.601143564,-9.783387196800001,1.1981000584,0.33656842,6.51935551,-2.80850628,,,
imu,252.545557,-0.5945638832000001,-9.800135475200001,1.2244187816,0.29918387,6.138033099999999,-2.87579847,,,
imu,252.554372,-0.5700396184000001,-9.836024643200002,1.2393726016,0.18703022,5.637080129999999,-3.15992105,,,
imu,252.563188,-0.5568802568000001,-9.842006171200001,1.232194768,0.07487657,5.1660348,-3.27955161,,,
imu,252.572004,-0.5287670752,-9.8210708232,1.2483448936,0.07487657,4.7921893,-3.24216706,,,
imu,252.580819,-0.5221873944000001,-9.8049206976,1.24116706,-0.01484635000000001,4.3435747,-3.27955161,,,
imu,252.589635,-0.5180003248000001,-9.790565030400002,1.2345873792,-0.04475399000000001,3.797760269999999,-3.13749032,,,
imu,252.59845,-0.5114206440000001,-9.743909112,1.223222476,0.08983038999999998,3.42391477,-2.91318302,,,
imu,252.607266,-0.5072335744,-9.7295534448,1.2268113928,0.3739529699999999,3.05754618,-2.76364482,,,
imu,252.616082,-0.5162058664000001,-9.6954587352,1.2034834336,0.5982602699999999,2.64631613,-2.57672207,,,
imu,252.624548,-0.5126169496,-9.641624983200002,1.1795573216,0.9646288599999999,2.25751681,-2.40475314,,,
imu,252.633014,-0.5287670752,-9.645213900000002,1.1741739464,1.48053565,1.91357895,-2.51690679,,,
imu,252.64148,-0.5299633808,-9.6499991224,1.130508792,2.06373463,1.71170238,-2.42718387,,,
imu,252.649946,-0.5389356728,-9.678710456800001,1.1209383472,2.43010322,1.30794924,-2.47204533,,,
imu,252.658412,-0.5592728680000001,-9.709814402400001,1.1233309584,2.90114855,1.09859576,-2.68887572,,,
imu,252.666878,-0.5987509528,-9.742114653600002,1.115554972,3.25256332,0.8518577299999999,-2.83841392,,,
imu,252.675344,-0.6119103144000001,-9.7953502528,1.118545736,3.40210152,0.6350273399999997,-2.8982292,,,
imu,252.68381,-0.62806044,-9.8013317808,1.1131623608,3.60397809,0.6051196999999999,-2.86084465,,,
imu,252.692276,-0.6376308848000001,-9.7953502528,1.1263217224,3.82828539,0.6350273399999997,-2.78607555,,,
imu,252.700742,-0.6364345792000001,-9.777405668800002,1.1179475832,3.82828539,0.6724118899999998,-2.748691,,,
imu,252.709209,-0.6364345792000001,-9.756470320800002,1.1161531248,3.85819303,0.84438082,-2.748691,,,
imu,252.717675,-0.6166955368000001,-9.763050001600002,1.0988066936,3.75351629,0.8593346399999997,-2.86832156,,,
imu,252.726141,-0.5999472584000001,-9.7959484056,1.0988066936,3.8357623,0.9116730099999999,-3.10758268,,,
imu,252.734607,-0.5957601888000001,-9.802528086400002,1.0958159296,3.79090084,0.84438082,-3.55619728,,,
imu,252.743073,-0.5820026744000001,-9.8228652816,1.0892362488,3.71613174,0.4854891399999999,-4.08705789,,,
imu,252.751539,-0.5748248408000001,-9.859950755200002,1.0724879704,3.61893191,0.2910894799999997,-4.52819558,,,
imu,252.760005,-0.5939657304000001,-9.859950755200002,1.0533470808,3.4619168,0.006966899999999665,-5.0665331,,,
imu,252.768471,-0.6166955368000001,-9.850380310400002,1.0449729416,3.3871477,-0.2397711300000003,-5.38056332,,,
imu,252.776937,-0.6507902464,-9.8778953392,1.0605249144,3.34228624,-0.4042631500000002,-5.56000916,,,
imu,252.785403,-0.6854831088000001,-9.9012232984,1.0473655528,3.23013259,-0.5612782599999999,-5.45533242,,,
imu,252.793869,-0.7022313872,-9.879689797600001,1.0467674,3.06564057,-0.6061397200000003,-5.32074804,,,
imu,252.802335,-0.7261574992000001,-9.833632032,1.0593286088,2.98339456,-0.5313706200000001,-5.13382529,,,
imu,252.810802,-0.7399150136000001,-9.8228652816,1.082656568,2.84133327,-0.39678624,-4.909517989999999,,,
imu,252.819268,-0.7470928472,-9.8294449624,1.0778713456,2.74413344,-0.4117400600000001,-4.7674567,,,
imu,252.827813,-0.7740097232000002,-9.847389546400002,1.0473655528,2.70674889,-0.2472480400000001,-4.81231816,,,
imu,252.836278,-0.7853746264000001,-9.834828337600001,1.0521507752,2.68431816,-0.07527911000000032,-4.81979507,,,
imu,252.844743,-0.7937487656000001,-9.801929933600002,1.0545433864,2.57216451,0.006966899999999665,-4.52819558,,,
imu,252.853208,-0.8110951968000001,-9.803724392000001,1.0473655528,2.67684125,0.35838167,-4.25154991,,,
imu,252.861673,-0.804515516,-9.820472670400001,1.0425803304,2.69179507,0.56025824,-3.99733497,,,
imu,252.870137,-0.7943469184000002,-9.807313308800001,1.025832052,2.72917962,0.7097964399999999,-3.87770441,,,
imu,252.878602,-0.7931506128000001,-9.8198745176,1.0240375936,2.6394567,0.9341037399999998,-3.84779677,,,
imu,252.887067,-0.7853746264000001,-9.8043225448,1.0132708432,2.68431816,1.18831868,-3.61601256,,,
imu,252.895532,-0.7656355840000001,-9.789966877600001,0.9851576616000001,2.66936434,1.4275798,-3.57862801,,,
imu,252.903997,-0.7476910000000001,-9.788172419200002,0.9833632032,2.75908726,1.54721036,-3.58610492,,,
imu,252.912462,-0.7399150136000001,-9.801929933600002,0.9552500216000002,2.79647181,1.60702564,-3.70573548,,,
imu,252.920926,-0.7303445688000001,-9.7845835024,0.9450814240000001,2.863764,1.55468727,-3.89265823,,,
imu,252.929391,-0.7345316384000001,-9.792957641600001,0.9540537160000001,2.96096383,1.55468727,-3.95247351,,,
imu,252.937856,-0.7285501104000001,-9.801929933600002,0.9373054376000002,2.97591765,1.68927165,-4.04967334,,,
imu,252.946321,-0.7243630408,-9.825257892800002,0.9486703408000001,2.94601001,1.56964109,-4.23659609,,,
imu,252.954786,-0.7118018320000001,-9.844398782400003,0.9390998960000001,3.02825602,1.42010289,-4.318842099999999,,,
imu,252.96325,-0.7147925960000001,-9.8647359776,0.9355109792000001,2.79647181,1.2780416,-4.42351884,,,
imu,252.971715,-0.7118018320000001,-9.8749045752,0.9247442288000001,2.68431816,1.14345722,-4.52819558,,,
imu,252.98018,-0.7123999848000001,-9.895241770400002,0.9181645480000001,2.55721069,1.09111885,-4.46090339,,,
imu,252.988645,-0.7183815128000002,-9.905410368000002,0.9073977976000001,2.32542648,0.8817653699999997,-4.3936112,,,
imu,252.99711,-0.7291482632,-9.883278714400001,0.9085941032000001,2.25065738,0.8518577299999999,-4.0945348,,,
imu,253.005574,-0.7632429728000001,-9.868923047200001,0.9079959504000001,2.12354991,0.9415806499999997,-3.91508896,,,
imu,253.014039,-0.7764023344000002,-9.891054700800002,0.9295294512000001,1.9665348,0.8892422799999999,-3.9449966,,,
imu,253.022504,-0.7907580016000001,-9.9197660352,0.9235479232000001,1.82447351,0.8518577299999999,-3.90761205,,,
imu,253.030971,-0.8122915024000001,-9.9000269928,0.9307257568000001,1.45810492,0.8294269999999999,-3.9449966,,,
imu,253.039439,-0.8122915024000001,-9.8820824088,0.9319220624000001,1.33847436,0.9714882899999999,-3.78050458,,,
imu,253.047906,-0.8110951968000001,-9.891054700800002,0.9301276040000002,1.15902852,1.02382666,-3.69078166,,,
imu,253.056374,-0.8051136688,-9.866530436000001,0.9355109792000001,1.10669015,1.18084177,-3.56367419,,,
imu,253.064841,-0.7973376824000001,-9.857558144000002,0.9331183680000001,0.76275229,1.31542615,-3.50385891,,,
imu,253.073308,-0.7811875568000001,-9.850978463200002,0.9385017432000002,0.67302937,1.5023489,-3.33188998,,,
imu,253.081776,-0.744700236,-9.840809865600002,0.9486703408000001,0.63564482,1.71170238,-3.24216706,,,
imu,253.090243,-0.7106055264000001,-9.8210708232,0.9678112304000002,0.51601426,1.91357895,-3.28702852,,,
imu,251.678344,,,,,,,79.68859079999999,4.815709999999984,212.1184256
imu,251.779907,,,,,,,81.29994119999999,4.888953199999979,213.6565328
imu,251.881591,,,,,,,84.0221468,5.059853999999997,215.2068472
imu,251.990844,,,,,,,85.31611000000001,5.438277199999986,214.8772528
imu,252.100219,,,,,,,85.6334972,5.474898799999983,215.0847752
imu,252.201751,,,,,,,87.940658,5.242961999999984,214.6941448
imu,252.303375,,,,,,,85.8898484,6.060844399999987,214.7307664
imu,252.404937,,,,,,,89.10034200000001,5.755664399999993,212.2527048
imu,253.09871,-0.6926609424000001,-9.8049206976,0.9654186192,0.50853735,1.95844041,-3.40665908,,,
imu,253.107178,-0.6800997336000001,-9.801929933600002,0.9767835224000002,0.38142988,1.81637912,-3.57862801,,,
imu,253.115645,-0.6531828576,-9.8168837536,0.9743909112000002,0.32909151,1.76404075,-3.83284295,,,
imu,253.124112,-0.6615569968000001,-9.8234634344,0.9905410368000002,0.17955331,1.60702564,-4.00481188,,,
imu,253.13258,-0.6657440664000001,-9.8079114616,0.9899428840000002,0.26927623,1.40514907,-4.11696553,,,
imu,253.141047,-0.6800997336000001,-9.802528086400002,0.9881484256000002,0.41881443,1.37524143,-4.00481188,,,
imu,253.149514,-0.6986424704000002,-9.794752100000002,0.9839613560000001,0.4861066199999999,1.31542615,-3.95995042,,,
imu,253.157982,-0.7171852072000001,-9.800135475200001,0.9923354952000002,0.53096808,1.2032725,-3.89265823,,,
imu,253.166449,-0.7321390272000001,-9.800733628000001,1.0007096344,0.5459219,1.09111885,-3.96742733,,,
imu,253.174917,-0.7351297912000001,-9.805518850400002,1.010878232,0.6132140899999999,1.03878048,-3.93751969,,,
imu,253.183384,-0.7548688336000001,-9.803126239200001,1.010878232,0.74779847,1.24065705,-4.08705789,,,
imu,253.191851,-0.7829820152,-9.825856045600002,1.025832052,0.73284465,1.17336486,-4.28893446,,,
imu,253.200319,-0.7859727792000001,-9.834230184800003,1.0360006496,0.82256757,1.30794924,-4.102011709999999,,,
imu,253.208786,-0.8009265992000001,-9.8432024768,1.0342061912,0.67302937,1.18831868,-4.169303899999999,,,
imu,253.217253,-0.8260490168000001,-9.841408018400001,1.0342061912,0.7552753799999999,1.38271834,-4.012288789999999,,,
imu,253.225721,-0.8254508640000001,-9.8061170032,1.0413840248,0.58330645,1.46496435,-3.84779677,,,
imu,253.234536,-0.8362176144000002,-9.803126239200001,1.0312154272,0.63564482,1.74908693,-3.38422835,,,
imu,253.243352,-0.8248527112,-9.802528086400002,1.03181358,0.81509066,2.15284007,-3.1225365,,,
imu,253.252167,-0.8069081272,-9.767237071200002,1.0222431352,0.83004448,2.45191647,-3.01785976,,,
imu,253.260983,-0.7728134176000001,-9.7612555432,1.0240375936,0.91229049,2.66874686,-2.85336774,,,
imu,253.269799,-0.7249611936,-9.738525736800002,1.0294209688,1.25622835,2.90053107,-2.65149117,,,
imu,253.278614,-0.6908664840000001,-9.6954587352,1.03181358,1.51044329,3.07997691,-2.62906044,,,
imu,253.28743,-0.6645477608,-9.699047652,1.0192523712,1.85438115,3.06502309,-2.8234601,,,
imu,253.296245,-0.6400234960000001,-9.718786694400002,1.010878232,2.00391935,2.93043871,-2.95056757,,,
imu,253.305061,-0.6286585928,-9.748096181600001,1.0001114816,2.37028794,2.90053107,-2.95804448,,,
imu,253.313877,-0.6166955368000001,-9.8043225448,1.0072893152,2.66188743,2.82576197,-2.95056757,,,
imu,252.506469,,,,,,,86.30489320000001,6.646789999999991,214.6575232
imu,252.608154,,,,,,,85.80439799999999,6.585753999999988,211.7033808
imu,252.709594,,,,,,,86.56124439999999,6.683411599999989,214.8650456
imu,252.811157,,,,,,,86.1217852,6.890933999999982,214.1081992
imu,252.912841,,,,,,,85.81660520000001,6.781069199999989,214.7551808
imu,253.014282,,,,,,,85.8898484,6.439267599999998,215.1213968
imu,253.115844,,,,,,,86.1461996,5.963186799999987,213.9372984
imu,253.217437,,,,,,,86.3903436,6.671204399999997,214.9016672
imu,253.318922,,,,,,,88.33128839999999,5.889943599999992,213.7541904
