Type,Timestamp,Data Accelerometer X,Data Accelerometer Y,Data Accelerometer Z,Data Gyroscope X,Data Gyroscope Y,Data Gyroscope Z,Data Magnetometer X,Data Magnetometer Y,Data Magnetometer Z
imu,432.084124,-0.2954874832,-9.5704448,1.2668876304,-3.20748692,-5.09228572,-1.28321664,,,
imu,432.092629,-0.3840140976,-9.616502565600001,1.2997860344,-2.45979592,-5.84745363,-1.38041647,,,
imu,432.101135,-0.5640580904000001,-9.503451686400002,1.321917688,-1.88407385,-5.78763835,-1.88884635,,,
imu,432.109641,-0.7566632920000002,-9.312042790400001,1.3458438,-1.21115195,-5.316593019999999,-2.47204533,,,
imu,432.118146,-0.8535640456000001,-9.1445600064,1.2973934232,-0.10456927,-4.3296409,-3.10758268,,,
imu,432.126652,-0.9331183680000001,-8.852063287200002,1.21125942,1.51044329,-2.63238233,-3.84779677,,,
imu,432.135157,-0.9181645480000001,-8.7701163536,1.2692802416,3.9105314,-1.03232359,-5.10391765,,,
imu,432.143663,-0.8457880592000001,-9.28632222,1.3183287712,6.53492681,0.3060432999999998,-6.44976145,,,
imu,432.152168,-0.7363260968000002,-9.680504915200002,1.2567190328,8.07517027,1.03878048,-7.69840542,,,
imu,432.160674,-0.5341504504000001,-9.6326526912,1.283037756,8.30695448,1.47244126,-8.99191085,,,
imu,432.169179,-0.2972819416,-9.616502565600001,1.2698783944,8.22470847,1.5023489,-10.0012937,,,
imu,432.177685,-0.003588916800000001,-9.717590388800001,1.1777628632,8.232185379999999,0.8593346399999997,-10.62187723,,,
imu,432.18619,0.08852661440000001,-9.776209363200001,1.0186542184,8.06769336,-0.5089398900000002,-10.64430796,,,
imu,432.194696,0.0197390424,-9.731347903200001,0.8505732816000001,8.11255482,-2.37816739,-10.30784701,,,
imu,432.203201,-0.2039701048,-9.6799067624,0.7632429728000001,8.561169419999999,-4.22496416,-9.91904769,,,
imu,432.211707,-0.4528016696000001,-9.600352440000002,0.7231667352000001,9.05464548,-5.32406993,-9.41061781,,,
imu,432.220212,-0.6890720256,-9.528574104,0.6800997336000001,10.18365889,-4.86797842,-8.76012664,,,
imu,432.228718,-0.7907580016000001,-9.637437913600001,0.7297464160000001,11.70147162,-3.35016569,-8.1320662,,,
imu,432.237223,-0.7231667352000001,-9.889858395200001,0.780589404,12.72580829,-1.67533785,-7.85542053,,,
imu,432.245729,-0.7339334856000002,-9.963431189600001,0.8858642968000001,12.99497705,0.02939763000000006,-7.384375199999999,,,
imu,432.254234,-0.6047324808000001,-10.1482604048,1.0473655528,12.32205515,1.17336486,-7.04791425,,,
imu,432.26274,-0.499457588,-10.3606046488,0.9702038416000002,11.33510303,1.93600968,-7.24231391,,,
imu,432.271245,-0.4731388648000001,-10.315145036,0.9157719368000001,9.391106429999999,2.2500399,-7.952620359999999,,,
imu,432.279665,-0.3905937784,-10.0944266528,0.9462777296000001,7.6489864,2.1005017,-8.46105024,,,
imu,432.288086,-0.367863972,-10.0812672912,0.9731946056000002,6.61717282,1.55468727,-8.47600406,,,
imu,432.296506,-0.4958686712000001,-10.1189509176,0.9462777296000001,5.83209727,0.50044296,-8.37880423,,,
imu,432.304926,-0.5808063688,-10.132708432,1.0581323032,5.09936009,-0.2397711300000003,-8.84984956,,,
imu,432.313347,-0.6537810104000001,-10.1339047376,1.2028852808,4.62831476,-0.4042631500000002,-9.38071017,,,
imu,432.321767,-0.7339334856000002,-10.1674012944,1.2100631144,3.79837775,-0.35192478,-9.223695059999999,,,
imu,432.330187,-0.8439936008000001,-10.2242258104,1.1000029992,2.62450288,-0.2023865800000002,-8.84984956,,,
imu,432.338608,-0.9301276040000002,-10.2846392432,1.1000029992,1.35342818,-0.07527911000000032,-8.53581934,,,
imu,432.347028,-0.980970592,-10.4281959152,1.0581323032,-0.0522309,0.58268897,-8.47600406,,,
imu,432.355448,-1.0623193728,-10.5430412528,1.0778713456,-1.64481273,1.04625739,-8.53581934,,,
imu,432.363868,-1.0246357464,-10.4305885264,1.1287143336,-3.97760865,1.42010289,-8.42366569,,,
imu,432.372289,-0.9026125752,-10.2290110328,1.2698783944,-6.190774009999999,2.00330187,-7.930189629999999,,,
imu,432.380709,-0.8284416280000001,-10.0477707344,1.2668876304,-7.64877146,2.93043871,-6.58434583,,,
imu,432.389129,-0.7596540560000001,-9.715795930400002,1.1640053488,-8.68058504,3.42391477,-5.22354821,,,
imu,432.39755,-0.5927694248,-9.444234559200002,1.3105527848,-8.65815431,3.28933039,-4.29641137,,,
imu,432.40597,-0.520392936,-9.3210150824,1.2034834336,-7.40951034,2.74351596,-3.71321239,,,
imu,432.41439,-0.5096261856000001,-9.187627008000002,1.0928251656,-5.719728679999999,1.95844041,-3.67582784,,,
imu,432.422811,-0.6125084672000001,-8.9950218064,1.0455710944,-3.73087062,0.8817653699999997,-4.25154991,,,
imu,432.431231,-0.648995788,-9.0823521152,1.169388724,-1.30087487,-0.04537147000000008,-4.86465653,,,
imu,432.439651,-0.7351297912000001,-9.379035904000002,1.1951092944,0.88985976,-0.7556779200000001,-5.82170101,,,
imu,432.448072,-0.8344231560000002,-9.755872168000002,1.25612088,2.24318047,-1.04727741,-6.83108386,,,
imu,432.456492,-0.9857558144000002,-9.802528086400002,1.1687905712,2.20579592,-0.57623208,-7.04791425,,,
imu,432.464912,-1.0671045952,-9.332379985600001,1.1352940144,2.34785721,0.7770886299999997,-6.38994617,,,
imu,432.473332,-1.1400792368,-9.2755554696,1.1550330568,3.62640882,2.37714737,-5.32074804,,,
imu,432.481796,-1.0934233184,-9.812098531200002,1.0688990536,5.01711408,3.67812971,-4.57305704,,,
imu,432.49026,-1.1311069448,-10.0782765272,0.9983170232,5.35357503,5.40529592,-3.97490424,,,
imu,432.498723,-1.1191438888,-10.0411910536,1.1011993048,4.65074549,6.840862639999999,-3.69078166,,,
imu,432.507187,-1.0671045952,-10.075883916,1.1640053488,3.82828539,8.14932189,-3.57862801,,,
imu,432.51565,-0.9648204664000001,-10.0417892064,1.1699868768,3.11050203,9.06150491,-3.86275059,,,
imu,432.524114,-0.8110951968000001,-9.760059237600002,1.1496496816,2.54973378,9.45030423,-4.49081103,,,
imu,432.532577,-0.6382290376000002,-9.5501076048,1.160416432,2.95348692,9.19608929,-5.00671782,,,
imu,432.541041,-0.5688433128,-9.447823476,1.0994048464,4.12736179,8.3811061,-5.24597894,,,
imu,432.549504,-0.5796100632000001,-9.322211388000001,0.9941299536000001,5.67508216,7.19227741,-5.32074804,,,
imu,432.557968,-0.7141944432000001,-9.315033554400001,1.0031022456,7.46954056,6.19784838,-4.86465653,,,
imu,432.566431,-0.8212637944000001,-9.536948243200001,1.004896704,9.129414579999999,5.56231103,-4.28145755,,,
imu,432.574895,-1.0174579128,-9.822267128800002,0.9719983000000001,10.20608962,5.50249575,-3.48890509,,,
imu,432.583359,-1.1406773896,-9.912588201600002,1.010878232,9.989259229999998,5.95111035,-2.65896808,,,
imu,432.591822,-1.1233309584,-10.1195490704,1.082656568,8.979876379999999,6.83338573,-1.70940051,,,
imu,432.600286,-1.1556312096,-10.368978788,1.1370884728,7.6489864,7.483876899999999,-1.19349372,,,
imu,432.608749,-1.025832052,-10.3713713992,1.004896704,5.75732817,7.88015313,-1.29069355,,,
imu,432.617213,-0.8984255056000002,-9.9658238008,0.8715086296000001,3.589024269999999,8.01473751,-1.84398489,,,
imu,432.625676,-0.8230582528,-9.7301515976,0.9157719368000001,2.72917962,7.977352959999999,-2.2253073,,,
imu,432.63414,-0.8254508640000001,-9.743310959200002,0.9803724392000001,2.69179507,7.31190797,-2.53186061,,,
imu,432.642603,-0.7494854584000001,-9.824659740000001,0.9684093832000001,2.97591765,6.534309329999999,-2.56924516,,,
imu,432.651067,-1.0180560656,-9.746899876,0.9020144224000001,3.09554821,5.89129507,-2.54681443,,,
imu,432.65953,-0.8978273528000001,-9.636839760800001,0.9935318008000001,3.79837775,5.58474176,-2.56924516,,,
imu,432.667994,-0.8936402832000001,-9.721179305600002,0.9127811728000002,4.5834533,5.397819009999999,-2.1505382,,,
imu,432.676457,-0.8206656416,-9.802528086400002,0.9050051864,5.00963717,5.19594244,-1.72435433,,,
imu,432.68528,-0.8451899064,-9.979581315200003,0.9648204664000001,5.06197554,5.07631188,-1.01404788,,,
imu,432.694102,-0.86732156,-10.1051934032,0.9151737840000002,4.57597639,5.12117334,-0.06448030999999999,,,
imu,432.702924,-0.8505732816000001,-9.9999185104,0.9151737840000002,3.611455,5.592218669999999,1.16920984,,,
imu,432.711746,-0.8272453224,-10.0053018856,0.9576426328000002,2.51234923,6.19784838,2.04400831,,,
imu,432.720569,-0.8924439776000002,-10.0567430264,0.9205571592,1.53287402,6.728708989999999,2.7842224,,,
imu,432.729391,-0.9157719368000001,-10.045976276,0.8948365888000002,0.67302937,7.154892859999999,3.19545245,,,
imu,432.738213,-0.9528574104000002,-9.910793743200001,0.8756956992000001,-0.02980017,7.790430209999999,3.20292936,,,
imu,432.747035,-0.8727049352000001,-9.773816752000002,0.8302360864000001,-0.62047606,8.47830593,2.82908386,,,
imu,432.755858,-0.8093007384,-9.693664276800002,0.7787949456000002,-0.54570696,9.076458729999999,2.85151459,,,
imu,432.76468,-0.7249611936,-9.716992236000001,0.7435039304000001,0.36647606,9.794242090000001,3.54686722,,,
imu,432.773502,-0.5772174520000001,-9.745703570400002,0.7225685824,1.11416706,10.38491798,4.055297100000001,,,
imu,432.782324,-0.4605776560000001,-9.725964528,0.7273538048000001,1.94410407,10.58679455,4.010435640000001,,,
imu,432.791146,-0.3672658192000001,-9.748694334400001,0.7584577504000002,2.54225687,10.30267197,3.53939031,,,
imu,432.799969,-0.3331711096,-9.899428840000002,0.8362176144000002,2.70674889,9.5026426,2.77674549,,,
imu,432.808791,-0.3433397072,-10.0495651928,0.804515516,2.07868845,8.575505759999999,1.87203938,,,
imu,432.817613,-0.3947808480000001,-10.0304243032,0.8350213088000001,0.83004448,7.57359982,0.8402258000000002,,,
imu,432.826435,-0.3762381112000001,-10.0076944968,0.900219964,-0.6279529699999999,6.68384753,0.03271952000000011,,,
imu,432.160868,,,,,,,88.9050268,35.02852999999999,181.5149752
imu,432.835258,-0.4444275304,-10.010087108,0.8003284464,-1.39059779,5.93615653,-0.1691570499999999,,,
imu,432.84408,-0.4312681688,-9.941897688800001,0.8236564056000001,-1.80930475,5.5398803,-0.29626452,,,
imu,432.852902,-0.4528016696000001,-9.873708269600002,0.8344231560000002,-2.11585806,5.397819009999999,-0.17663396,,,
imu,432.861724,-0.5371412144000001,-9.800733628000001,0.8272453224,-2.20558098,5.091265699999999,0.02524261000000028,,,
imu,432.870547,-0.5658525488000001,-9.70502918,0.8685178656000001,-1.65976655,5.136127159999999,0.30188828,,,
imu,432.879369,-0.6543791632000001,-9.6817012208,0.8661252544000001,-0.9943215599999999,5.40529592,0.54862631,,,
imu,432.887848,-0.6501920936000001,-9.769031529600001,0.8727049352000001,-0.20924601,5.48754193,0.54862631,,,
imu,432.896326,-0.6477994824000001,-9.810304072800001,0.8421991424,0.3739529699999999,5.57726485,0.5112417599999999,,,
imu,432.904805,-0.580208216,-9.8049206976,0.8768920048000002,0.88985976,5.97354108,0.6906876,,,
imu,432.913284,-0.4922797544,-9.8210708232,0.9038088808000001,1.15155161,5.65203395,0.6607799600000002,,,
imu,432.921763,-0.4055475984,-9.9012232984,0.9050051864,1.31604363,5.23332699,0.8177950699999998,,,
imu,432.930242,-0.3331711096,-9.8778953392,0.9211553120000001,0.9272443100000001,4.29871324,0.8402258000000002,,,
imu,432.93872,-0.2805336632,-9.820472670400001,0.9468758824000001,0.50853735,2.96034635,0.6757337799999998,,,
imu,432.947199,-0.2948893304,-9.811500378400002,0.9468758824000001,0.03749201999999999,1.61450255,0.83274889,,,
imu,432.955678,-0.3206099008000001,-9.83961356,0.9313239096000001,-0.32887657,0.3733354899999997,1.28136349,,,
imu,432.964157,-0.3385544848000001,-9.8210708232,0.9139774784000001,-0.82982954,-0.5164168,1.87203938,,,
imu,432.972636,-0.3780325696000001,-9.807313308800001,0.8948365888000002,-1.16629049,-1.286538530000001,2.55243819,,,
imu,432.981114,-0.4653628784000001,-9.8461932408,0.8212637944000001,-1.31582869,-1.76506077,3.34499065,,,
imu,432.989593,-0.5048409632,-9.885671325600002,0.8224601,-1.06909066,-1.8622606,4.115112379999999,,,
imu,432.998072,-0.5520950344000001,-9.929336480000002,0.8116933496000001,-0.9943215599999999,-1.43607673,4.578680800000001,,,
imu,433.006551,-0.6107140088,-9.947879216800002,0.8194693360000002,-1.05413684,-0.8528777500000002,4.78803428,,,
imu,433.01503,-0.5766192992000001,-9.977188704000001,0.8595455736000001,-0.88964482,-0.1276174800000001,5.0272954,,,
imu,433.023508,-0.5568802568000001,-9.9999185104,0.8774901576000002,-1.21862886,0.6051196999999999,4.728218999999999,,,
imu,433.031987,-0.5425245896,-9.999320357600002,0.8996218112000001,-1.42050543,1.37524143,4.354373499999999,,,
imu,433.040466,-0.4731388648000001,-10.0286298448,0.9235479232000001,-1.89155076,2.04816333,3.9057589,,,
imu,433.048945,-0.4199032656,-10.0824635968,0.8972292000000002,-2.82616451,2.42200883,3.1580679,,,
imu,433.057424,-0.4276792520000001,-10.1291195152,0.8481806704000001,-3.7906859,2.73603905,2.38794617,,,
imu,433.065902,-0.3893974728000001,-10.0974174168,0.8427972952,-4.38136179,3.26689966,2.13373123,,,
imu,433.074381,-0.4438293776000001,-9.956253356,0.8236564056000001,-5.07671442,3.93234465,2.3356078,,,
imu,433.08286,-0.4593813504000001,-9.830641268,0.8571529624000002,-5.7346825,4.500589809999999,2.76926858,,,
imu,433.091397,-0.430670016,-9.785779808000001,0.8487788232000001,-5.95151289,5.03892733,3.12068335,,,
imu,433.099935,-0.4133235848,-9.700243957600001,0.8541621984000002,-5.75711323,5.592218669999999,3.4571443,,,
imu,433.108407,-0.3594898328000001,-9.618297024,0.9121830200000002,-5.57019048,5.97354108,3.81603598,,,
imu,433.116944,-0.3206099008000001,-9.600352440000002,0.9654186192,-4.97951459,6.05578709,3.87585126,,,
imu,433.125482,-0.2907022608000001,-9.658373261600001,1.004896704,-4.50846926,6.2128022,3.8309898,,,
imu,433.134019,-0.227298064,-9.714001472000001,1.0533470808,-3.91031646,6.2128022,4.010435640000001,,,
imu,433.142556,-0.2165313136,-9.825856045600002,1.1221346528,-3.49908641,6.272617479999999,4.21231221,,,
imu,433.151094,-0.1429585192,-9.960440425600002,1.1951092944,-3.75330135,6.07821782,4.51886552,,,
imu,433.159631,-0.09690075360000001,-9.9616367312,1.2315966152,-4.05985466,6.08569473,4.922618659999999,,,
imu,433.168168,-0.08912476720000001,-9.8234634344,1.2429615184,-4.56828454,6.04831018,5.10954141,,,
imu,433.176705,-0.017944584,-9.722375611200002,1.2698783944,-4.88231476,5.80904906,5.124495229999999,,,
imu,433.185243,-0.068787572,-9.667943706400001,1.2585134912,-5.09914515,5.38286519,4.73569591,,,
imu,433.19378,-0.06041343280000001,-9.562070660800002,1.2932063536,-4.75520729,5.14360407,4.601111530000001,,,
imu,433.202317,-0.068787572,-9.447225323200001,1.3781440512,-4.08228539,5.12117334,3.92818963,,,
imu,433.210855,-0.04007623760000001,-9.441841948000002,1.3924997184,-3.16262546,5.19594244,3.34499065,,,
imu,433.219392,-0.02871133440000001,-9.4454308648,1.423603664,-2.05604278,5.03145042,2.70197639,,,
imu,433.227929,0.07177833600000001,-9.541733465600002,1.4559039152,-0.9793677399999999,5.00901969,1.82717792,,,
imu,433.236467,0.215335008,-9.630260080000001,1.4164258304,-0.20924601,4.814620029999999,0.8551796199999999,,,
imu,433.245004,0.296085636,-9.6523917336,1.4343704144,0.25432241,4.567882,0.2570268200000001,,,
imu,433.253541,0.323002512,-9.709216249600003,1.4014720104,0.65059864,4.08935976,0.04019642999999995,,,
imu,433.262078,0.3564990688,-9.6942624296,1.3344788968,1.03939796,3.49868387,0.04019642999999995,,,
imu,433.270616,0.3236006648,-9.613511801600001,1.3225158408,1.07678251,2.94539253,0.10001171,,,
imu,433.279153,0.263187232,-9.5776226336,1.2967952704,1.43567419,2.69117759,0.21964227,,,
imu,433.28769,0.2105497856,-9.642223136000002,1.2752617696,1.88428879,2.30237827,0.07758098000000002,,,
imu,433.296081,0.2177276192,-9.665551095200001,1.2698783944,2.43758013,2.36967046,-0.004665029999999959,,,
imu,433.304472,0.19439966,-9.70502918,1.2961971176,3.17031731,2.50425484,-0.15420323,,,
imu,433.312863,0.2350740504,-9.789966877600001,1.2698783944,3.66379337,2.45191647,-0.40841817,,,
imu,433.321255,0.23926112,-9.801929933600002,1.1855388496,4.1348387,2.45191647,-0.74487912,,,
imu,433.329646,0.2135405496,-9.8079114616,1.1729776408,4.29933072,2.24256299,-1.45518557,,,
imu,433.338037,0.260196468,-9.8778953392,1.1215365,4.21708471,2.05564024,-2.08324601,,,
imu,433.346428,0.2171294664,-9.836622796,1.0814602624,4.05259269,1.83880985,-2.42718387,,,
imu,433.354819,0.191408896,-9.803724392000001,1.0778713456,3.76847011,1.34533379,-2.98047521,,,
imu,433.36321,0.122621324,-9.828846809600002,1.0383932608,3.61893191,0.8369039099999998,-3.62348947,,,
imu,433.371601,0.0370854736,-9.8563618384,0.9875502728000001,3.85819303,0.3509047599999997,-4.318842099999999,,,
imu,433.379992,0.0011963056,-9.744507264800001,0.9462777296000001,3.82828539,-0.007986920000000008,-5.044102369999999,,,
imu,433.388383,0.0376836264,-9.593772759200002,0.9588389384,4.27689999,-0.1276174800000001,-5.27588658,,,
imu,433.396774,0.03110394560000001,-9.5842023144,0.9199590064000001,5.05449863,-0.37435551,-5.31327113,,,
imu,433.405165,0.07656355840000001,-9.6248767048,0.8804809216,5.94425092,-0.3594016900000003,-4.96933327,,,
imu,433.413556,0.1094619624,-9.7265626808,0.8469843648000001,7.05831051,-0.6734319100000001,-4.50576485,,,
imu,433.421947,0.2027737992,-10.1249324456,0.9552500216000002,7.64150949,-0.9126930300000002,-4.35622665,,,
imu,433.430338,0.116639796,-9.987357301600001,0.8051136688,7.34243309,-1.19681561,-4.37865738,,,
imu,433.438729,0.1202287128,-9.791761336000002,0.9103885616000001,6.81904939,-1.36130763,-4.0945348,,,
imu,433.44712,0.1154434904,-9.9915443712,0.9217534648000001,6.78914175,-1.570661110000001,-3.83284295,,,
imu,433.455512,0.06579680800000001,-10.1123712368,0.8122915024000001,6.32557333,-1.83235296,-3.80293531,,,
imu,433.463903,-0.0005981528000000001,-10.060930096,0.8894532136000001,5.66012834,-1.79496841,-3.70573548,,,
imu,433.472294,-0.05802082160000001,-10.0190594,0.8535640456000001,4.79280678,-1.712722400000001,-3.48890509,,,
imu,433.480685,-0.07118018320000001,-10.025040928,0.840404684,4.44139201,-1.60804566,-3.32441307,,,
imu,433.489076,-0.08314323920000001,-10.075883916,0.840404684,4.06754651,-1.29401544,-3.63844329,,,
imu,433.49789,-0.09749890640000002,-10.099810028,0.7841783208,3.50677826,-1.03232359,-4.057150249999999,,,
imu,433.506704,-0.08254508640000002,-10.0531541096,0.7674300424000001,2.87871782,-0.6510011800000002,-4.3936112,,,
imu,433.515519,-0.07297464160000001,-9.937710619200002,0.7452983888000001,2.407672489999999,-0.0603252900000002,-4.453426479999999,,,
imu,433.524333,-0.0053833752,-9.850380310400002,0.7758041816000001,2.13850373,0.4929660499999997,-4.57305704,,,
imu,433.533147,0.0137575144,-9.815089295200002,0.7997302936000001,2.10859609,0.72475026,-4.81979507,,,
imu,433.541961,0.0442633072,-9.806715156000001,0.8457880592000001,1.9665348,0.8817653699999997,-4.999240909999999,,,
imu,433.550776,0.0502448352,-9.8234634344,0.8595455736000001,1.93662716,0.9191499199999997,-5.38804023,,,
imu,433.55959,0.0663949608,-9.8300431152,0.9038088808000001,1.9665348,1.04625739,-5.567486069999999,,,
imu,433.568404,0.05802082160000001,-9.868923047200001,0.9271368400000001,1.6674584,1.06121121,-5.589916799999999,,,
imu,433.577218,0.116639796,-10.0118815664,0.9349128264000002,1.36090509,0.98644211,-5.83665483,,,
imu,433.586033,0.113649032,-10.1111749312,0.9379035904000002,0.9571519499999999,0.9714882899999999,-6.17311578,,,
imu,433.594847,0.1220231712,-10.0770802216,0.9020144224000001,0.29170696,0.66493498,-6.225454149999999,,,
imu,433.603661,0.1088638096,-10.0208538584,0.8768920048000002,-0.62047606,0.2387511099999999,-6.34508471,,,
imu,433.612476,0.09211553120000002,-9.963431189600001,0.8780883104000001,-1.15133667,-0.02294074000000013,-6.532007459999999,,,
imu,433.62129,0.04246884880000001,-9.9448884528,0.8380120728000001,-1.42050543,-0.2696787700000001,-6.71893021,,,
imu,433.630104,0.02990764000000001,-9.920364188,0.8439936008000001,-1.62985891,-0.4117400600000001,-6.47219218,,,
imu,433.638918,0.0053833752,-9.794752100000002,0.7859727792000001,-1.71210492,-0.6210935399999999,-6.247884879999999,,,
imu,433.647733,0.003588916800000001,-9.6745233872,0.7363260968000002,-1.41302852,-0.4266938800000002,-6.2628387,,,
imu,432.262465,,,,,,,89.222414,35.00411559999998,184.737676
imu,432.363905,,,,,,,88.53881080000001,34.12519719999998,185.5677656
imu,432.465498,,,,,,,88.612054,34.03974679999999,184.8353336
imu,432.567091,,,,,,,88.2336308,34.75997159999999,185.0306488
imu,432.668623,,,,,,,88.2336308,34.357134,185.1771352
imu,432.770155,,,,,,,87.91624360000002,33.84443159999999,185.9095672
imu,432.871779,,,,,,,90.6506564,33.62470199999998,184.9329912
imu,432.97328,,,,,,,88.3801172,33.99091799999998,184.8475408
imu,433.656547,-0.03289840400000001,-9.6523917336,0.7201759712000001,-0.67281443,-0.3668786000000002,-6.2628387,,,
imu,433.665361,-0.04486146000000001,-9.6248767048,0.7106055264000001,-0.15690764,-0.3818324200000003,-6.27779252,,,
imu,433.674175,-0.4713444064,-7.933898739200001,0.1692772424,0.16459949,0.01444380999999995,-7.055391159999999,,,
imu,433.68299,-0.361882444,-9.863539672000002,0.8188711832000002,3.43200916,-0.31454023,-11.66116772,,,
imu,433.691804,0.6107140088,-10.8732215984,0.7674300424000001,5.839574180000001,-0.5463244400000002,-11.48172188,,,
imu,433.700285,-0.3433397072,-10.2858355488,0.6753145112000001,2.97591765,-0.5538013500000001,-8.01243564,,,
imu,433.708767,-0.01495382,-9.783387196800001,0.9109867144000001,1.56278166,-0.2771556799999999,-7.0852988,,,
imu,433.717248,-0.0143556672,-9.8946436176,0.9791761336000001,1.09173633,-0.02294074000000013,-7.34699065,,,
imu,433.725729,-0.01495382,-10.1530456272,0.8816772272000001,0.58330645,-0.2622018600000002,-7.840466709999999,,,
imu,433.734211,0.0215335008,-10.1339047376,0.9014162696000001,-0.56066078,-0.39678624,-7.803082159999999,,,
imu,433.742692,0.0203371952,-9.992142524000002,0.9062014920000001,-1.64481273,-0.39678624,-7.451667389999999,,,
imu,433.751173,0.008972292000000002,-9.921560493600001,0.9026125752,-2.09342733,-0.5612782599999999,-7.66102087,,,
imu,433.759655,-0.005981528000000001,-9.849184004800001,0.9169682424000002,-2.62428794,-0.8528777500000002,-7.94514345,,,
imu,433.768136,-0.01495382,-9.7122070136,0.9672130776000001,-2.8934567,-1.00989286,-7.76569761,,,
imu,433.776617,-0.017944584,-9.609922884800001,1.0270283576,-2.70653395,-1.02484668,-7.72831306,,,
imu,433.785099,-0.04725407120000001,-9.589585689600002,1.0569359976,-2.16819643,-1.06970814,-7.668497779999999,,,
imu,433.79358,-0.0592171272,-9.520199964800002,1.0898344016,-1.56256672,-1.13700033,-7.76569761,,,
imu,433.802062,-0.0681894192,-9.4944793944,1.1616127376,-0.67281443,-1.20429252,-8.15449693,,,
imu,433.810543,-0.1100601152,-9.547116840800001,1.2034834336,0.29918387,-1.36130763,-8.70778827,,,
imu,433.819024,-0.155519728,-9.602745051200001,1.2106612672,0.94967504,-1.52579965,-9.32089489,,,
imu,433.827506,-0.1890162848,-9.780396432800002,1.2698783944,1.5926893,-1.4884151,-9.47043309,,,
imu,433.835987,-0.2159331608,-10.0675097768,1.2854303672,1.76465823,-1.19681561,-9.34332562,,,
imu,433.844468,-0.2488315648,-10.2595168256,1.2644950192,1.00201341,-0.80053938,-8.894711019999999,,,
imu,433.85295,-0.2781410520000001,-10.279255868,1.2627005608,-0.28401511,-0.2771556799999999,-8.087204739999999,,,
imu,433.861431,-0.2883096496000001,-10.2355907136,1.2483448936,-1.59247436,0.3882893099999998,-7.28717537,,,
imu,433.869912,-0.2883096496000001,-10.1757754336,1.244157824,-2.68410322,0.78456554,-6.91332987,,,
imu,433.878394,-0.2895059552,-10.0836599024,1.2477467408,-3.62619388,1.15093413,-6.50209982,,,
imu,433.886875,-0.2524204816,-9.9753942456,1.2507375048,-4.441177069999999,1.52477963,-6.30770016,,,
imu,433.895356,-0.1872218264,-9.8527729216,1.2465504352,-4.889791669999999,1.59954873,-6.068439039999999,,,
imu,433.903834,-0.1297991576,-9.769031529600001,1.2746636168,-5.248683349999999,1.7266562,-5.76936264,,,
imu,433.912311,-0.0053833752,-9.688879054400001,1.2854303672,-5.27859099,1.66684092,-5.45533242,,,
imu,433.920789,0.0323002512,-9.617698871200002,1.3033749512,-4.97951459,1.39019525,-5.43290169,,,
imu,433.929266,0.0382817792,-9.610521037600002,1.2926082008,-4.82997639,0.56025824,-6.19554651,,,
imu,433.937744,0.05981528000000001,-9.613511801600001,1.277056228,-4.14957758,-0.2397711300000003,-7.28717537,,,
imu,433.946221,0.05682451600000001,-9.573435564,1.2896174368,-3.46917877,-1.10709269,-8.348896589999999,,,
imu,433.954699,0.03110394560000001,-9.551902063200002,1.303973104,-2.53456502,-2.019275710000001,-9.2536027,,,
imu,433.963177,-0.005981528000000001,-9.569248494400002,1.2961971176,-1.51770526,-2.78939744,-10.09849353,,,
imu,433.971654,-0.08792846160000001,-9.600352440000002,1.2836359088,-0.43355331,-3.47727316,-10.85366144,,,
imu,433.980132,-0.1716698536,-9.644615747200001,1.3033749512,0.32909151,-3.77634956,-11.720983,,,
imu,433.988609,-0.260196468,-9.667345553600002,1.318926924,0.8449983,-4.30721017,-12.42381254,,,
imu,433.997087,-0.3361618736,-9.740918348000001,1.3105527848,1.30108981,-4.34459472,-12.73784276,,,
imu,434.005564,-0.4181088072000001,-9.868923047200001,1.3231139936,1.45810492,-3.97822613,-12.79765804,,,
imu,434.014042,-0.505439116,-9.946084758400001,1.2944026592,1.00949032,-3.53708844,-12.76027349,,,
imu,434.022519,-0.5814045216000001,-9.939505077600002,1.2854303672,0.3889067899999999,-2.76696671,-12.34904344,,,
imu,434.030997,-0.6501920936000001,-9.9012232984,1.2722710056,-0.41859949,-1.95198352,-11.81070592,,,
imu,434.039474,-0.6920627896000001,-9.9048122152,1.244157824,-0.97189083,-1.1893387,-11.61630626,,,
imu,434.047952,-0.7171852072000001,-9.917373424,1.2148483368,-1.3233056,-0.5687551700000002,-11.7957521,,,
imu,434.056429,-0.7452983888000001,-9.9012232984,1.1897259192,-1.58499745,-0.1350943900000003,-11.93033648,,,
imu,434.064907,-0.7261574992000001,-9.867128588800002,1.1819499328,-1.37564397,0.4854891399999999,-11.93033648,,,
imu,434.073384,-0.7070166096,-9.841408018400001,1.1741739464,-1.33825942,0.8742884599999998,-11.90042884,,,
imu,434.081862,-0.6926609424000001,-9.8162856008,1.178361016,-1.21115195,1.28551851,-11.55649098,,,
imu,434.090339,-0.6765108168000001,-9.810902225600001,1.2148483368,-0.92702937,1.73413311,-10.66673869,,,
imu,434.098817,-0.6753145112000001,-9.8461932408,1.2070723504,-0.65786061,2.09302479,-9.4031409,,,
imu,434.107465,-0.6896701784000001,-9.924551257600003,1.1789591688,-0.60552224,2.26499372,-8.042343279999999,,,
imu,434.116113,-0.6986424704000002,-9.943692147200002,1.1735757936,-0.80739881,2.36967046,-6.509576729999999,,,
imu,434.124761,-0.7171852072000001,-9.9066066736,1.169388724,-1.40555161,2.3995781,-5.13382529,,,
imu,434.133409,-0.7034276928000001,-9.889260242400002,1.1370884728,-1.81678166,2.31733209,-4.0945348,,,
imu,434.142057,-0.7201759712000001,-9.879091644800003,1.103591916,-1.93641222,2.1752708,-3.27955161,,,
imu,434.150704,-0.7309427216000001,-9.8300431152,1.088638096,-1.83921239,1.9509635,-2.50195297,,,
imu,434.159352,-0.7500836112000001,-9.797742864000002,1.0850491792,-1.80182784,1.8014253,-1.94118472,,,
imu,434.168,-0.7704208064000001,-9.8234634344,1.0659082896,-1.4728438,1.77151766,-1.41032411,,,
imu,434.176648,-0.7518780696000001,-9.908999284800002,1.0635156784,-1.0989983,1.80890221,-0.96918642,,,
imu,434.185296,-0.7494854584000001,-10.022050164,1.0581323032,-1.06161375,1.88367131,-0.4158950799999999,,,
imu,434.193944,-0.7339334856000002,-10.102800792,1.0545433864,-1.39059779,2.324809,0.3093651899999998,,,
imu,434.202523,-0.6980443176000002,-10.1919255592,1.0276265104,-2.15324261,2.67622377,0.9149948999999999,,,
imu,434.211171,-0.6609588440000002,-10.2290110328,1.010878232,-3.20748692,2.95286944,1.5131477,,,
imu,434.219819,-0.6328456624000001,-10.1590271552,1.0306172744,-4.75520729,3.34914567,1.84960865,,,
imu,434.228467,-0.5885823552,-10.039994748,1.0862454848,-6.27302002,3.73046808,2.32813089,,,
imu,434.237115,-0.5520950344000001,-9.995133288000002,1.1167512776,-7.402033429999999,4.15665195,2.6346842,,,
imu,434.245763,-0.5006538936,-9.941897688800001,1.1203401944,-8.20953971,4.53797436,2.41785381,,,
imu,434.254411,-0.4761296288000001,-9.837220948800002,1.1346958616,-8.8749847,4.60526655,1.93933157,,,
imu,434.263059,-0.4533998224,-9.782789044000001,1.1586219736,-9.21144565,4.65760492,1.30379422,,,
imu,434.271707,-0.4234921824,-9.770825988000002,1.1819499328,-9.12172273,4.68751256,0.78788743,,,
imu,434.280355,-0.3947808480000001,-9.8144911424,1.1430700008,-8.77030796,4.672558739999999,0.2121653600000002,,,
imu,434.289003,-0.3684621248000001,-9.862343366400001,1.1352940144,-8.70301577,4.51554363,-0.5355256399999999,,,
imu,434.297651,-0.3553027632,-9.853371074400002,1.1466589176,-8.66563122,4.30619015,-1.28321664,,,
imu,434.306298,-0.3295821928000001,-9.803126239200001,1.1777628632,-8.411416280000001,4.09683667,-1.94118472,,,
imu,434.31456,-0.3241988176,-9.812098531200002,1.2178391008,-8.38150864,3.91739083,-2.47204533,,,
imu,434.322821,-0.3277877344,-9.885671325600002,1.2627005608,-8.37403173,3.70056044,-2.74121409,,,
imu,434.331083,-0.334965568,-9.891054700800002,1.3093564792,-8.41889319,3.43139168,-2.80850628,,,
imu,434.339344,-0.3403489432000001,-9.803126239200001,1.3751532872,-8.74787723,3.16222292,-3.03281358,,,
imu,434.347605,-0.3642750552,-9.783387196800001,1.4128369136,-8.76283105,3.01268472,-3.18235178,,,
imu,434.355867,-0.3732473472,-9.7750130576,1.45052054,-8.74787723,2.65379304,-3.63096638,,,
imu,434.364128,-0.4079402096,-9.690673512800002,1.4756429576,-8.605815940000001,2.48930102,-3.91508896,,,
imu,434.372389,-0.4312681688,-9.583006008800002,1.507345056,-8.20953971,2.16031698,-4.04967334,,,
imu,434.380651,-0.4228940296000001,-9.477731116000001,1.5450286824,-7.47680253,1.92105586,-4.13939626,,,
imu,434.388912,-0.43366078,-9.392195265600002,1.5922827536,-6.594527149999999,1.86124058,-4.146873169999999,,,
imu,434.397173,-0.4145198904,-9.332978138400001,1.6736315344,-5.66739031,1.98834805,-4.0197657,,,
imu,434.405435,-0.3941826952,-9.326398457600002,1.7430172592,-4.56828454,1.96591732,-3.69078166,,,
imu,434.413696,-0.3887993200000001,-9.316229860000002,1.7968510112,-3.40936349,1.95844041,-3.23469015,,,
imu,434.421958,-0.3882011672000001,-9.318622471200001,1.85427368,-2.52708811,1.86124058,-3.18235178,,,
imu,434.430219,-0.3762381112000001,-9.382026668000002,1.893153612,-1.3233056,1.97339423,-3.24216706,,,
imu,434.43848,-0.3559009160000001,-9.468758824,1.9188741824,-0.43355331,1.90610204,-3.30945925,,,
imu,434.446742,-0.3361618736,-9.5429297712,1.9063129736,0.26179932,1.74161002,-3.48142818,,,
imu,434.455003,-0.3146283728000001,-9.612913648800001,1.8949480704,0.85995212,1.59207182,-3.58610492,,,
imu,434.463264,-0.2679724544000001,-9.688280901600002,1.8805924032,1.32352054,1.24813396,-3.81041222,,,
imu,433.075026,,,,,,,91.19998039999999,33.29510759999999,182.662452
imu,433.176405,,,,,,,89.0759276,34.44258439999999,184.9940272
imu,433.278059,,,,,,,89.33227880000001,35.28488119999999,184.0784872
imu,433.379561,,,,,,,89.75953080000001,34.8576292,184.1639376
imu,433.481245,,,,,,,89.954846,34.6256924,184.5179464
imu,433.582655,,,,,,,89.8083596,34.1984404,184.5789824
imu,433.684279,,,,,,,89.16137799999998,33.6369092,181.5149752
imu,433.786024,,,,,,,88.9538556,33.60028759999998,181.075516
imu,434.471526,-0.2266999112,-9.7714241408,1.8417124712,1.61512003,0.8742884599999998,-3.99733497,,,
imu,434.479787,-0.20935348,-9.7821908912,1.8321420264,1.92915025,0.29856639,-4.27398064,,,
imu,434.488048,-0.1890162848,-9.759461084800002,1.8106085256,2.29551884,-0.3070633200000001,-4.408565019999999,,,
imu,434.49631,-0.1782495344,-9.737329431200001,1.7801027328,2.65441052,-0.7781086500000001,-4.07210407,,,
imu,434.504571,-0.1961941184,-9.690075360000002,1.7543821624,3.0133022,-1.09961578,-3.67582784,,,
imu,434.513388,-0.1776513816,-9.616502565600001,1.7298578976,3.3871477,-1.29401544,-3.48142818,,,
imu,434.522205,-0.182436604,-9.532163020800002,1.7442135648,3.72360865,-1.61552257,-3.52628964,,,
imu,434.531022,-0.1836329096,-9.540537160000001,1.7442135648,4.49373038,-1.84730678,-3.33188998,,,
imu,434.539839,-0.2255036056,-9.556089132800002,1.6999502576,5.22646756,-2.303398290000001,-3.59358183,,,
imu,434.548656,-0.2637853848,-9.4974701584,1.686790896,6.13117367,-2.59499778,-4.04219643,,,
imu,434.557473,-0.2865151912,-9.395186029600001,1.67482784,7.24523326,-2.61742851,-4.47585721,,,
imu,434.56629,-0.3582935272000001,-9.329389221600001,1.6461165056,8.44153886,-2.61742851,-4.66277996,,,
imu,434.575107,-0.4013605288,-9.3658765424,1.6263774632,9.79485957,-2.6847207,-4.79736434,,,
imu,434.583923,-0.4115291264,-9.439449336800001,1.6323589912,11.05845736,-2.47536722,-4.85717962,,,
imu,434.59274,-0.4617739616000001,-9.583006008800002,1.65987402,12.00802493,-2.2361061,-4.90204108,,,
imu,434.601557,-0.49347606,-9.797144711200001,1.6670518536,12.1351324,-2.04918335,-4.82727198,,,
imu,434.610374,-0.5293652280000001,-9.962234884,1.641929436,11.78371763,-1.80244532,-4.81979507,,,
imu,434.619191,-0.5610673264,-10.0358076784,1.6096291848,10.87153461,-1.38373836,-4.59548777,,,
imu,434.628008,-0.58319898,-10.087846972,1.5635714192,9.31633733,-0.90521612,-4.15435008,,,
imu,434.636825,-0.5963583416000001,-10.0328169144,1.534261932,8.105077909999999,-0.3070633200000001,-3.69078166,,,
imu,434.645642,-0.6035361752000001,-9.943692147200002,1.5139247368,6.87886467,0.4630584099999999,-3.31693616,,,
imu,434.654459,-0.6166955368000001,-9.8527729216,1.4840170968,5.74237435,1.04625739,-3.02533667,,,
imu,434.663276,-0.5927694248,-9.792957641600001,1.4481279288,5.106837000000001,1.67431783,-2.8234601,,,
imu,434.672093,-0.5461135064000001,-9.668541859200001,1.4080516912,5.08440627,2.27994754,-2.8982292,,,
imu,434.68091,-0.4922797544,-9.5602762024,1.3990793992,5.51806705,2.69117759,-2.83093701,,,
imu,434.689727,-0.4288755576000001,-9.530368562400001,1.3691717592,6.18351204,2.97530017,-2.71130645,,,
imu,434.698544,-0.3983697648000001,-9.5501076048,1.3087583264,7.04335669,3.16222292,-2.77112173,,,
imu,434.70736,-0.3397507904000001,-9.595567217600001,1.3267029104,7.97049353,3.36409949,-2.95056757,,,
imu,434.715838,-0.2907022608000001,-9.672130776000001,1.327899216,8.852768909999998,3.47625314,-3.09262886,,,
imu,434.724316,-0.2679724544000001,-9.7086180968,1.3051694096,9.652798279999999,3.50616078,-3.16739796,,,
imu,434.732793,-0.2613927736,-9.697851346400002,1.3051694096,10.1911358,3.23699202,-3.15992105,,,
imu,434.741271,-0.2637853848,-9.720581152800001,1.3135435488,10.52759675,2.97530017,-3.18982869,,,
imu,434.749748,-0.2727576768,-9.7474980288,1.3093564792,11.02107281,2.7734236,-3.21973633,,,
imu,434.758226,-0.2883096496000001,-9.709216249600003,1.3344788968,11.33510303,2.58650085,-3.33188998,,,
imu,434.766703,-0.2883096496000001,-9.633250844,1.3153380072,11.67156398,2.13040934,-3.36927453,,,
imu,434.775181,-0.3648732080000001,-9.770825988000002,1.292010048,11.95568656,1.8761944,-3.2720747,,,
imu,434.783658,-0.3487230824000001,-9.7959484056,1.2866266728,12.12765549,1.52477963,-3.25712088,,,
imu,434.792136,-0.3995660704000001,-9.794153947200002,1.2609061024,12.08279403,1.24065705,-3.39918217,,,
imu,434.800613,-0.4175106544000001,-9.837819101600003,1.2519338104,12.14260931,1.18831868,-3.18235178,,,
imu,434.809091,-0.454596128,-9.920364188,1.2190354064,12.12017858,1.1285034,-3.0477674,,,
imu,434.817568,-0.4599795032,-9.974197940000002,1.1891277664,11.72390235,1.03130357,-3.02533667,,,
imu,434.826046,-0.4755314760000001,-10.0561448736,1.1652016544,11.14070337,1.08364194,-2.81598319,,,
imu,434.834523,-0.481513004,-10.1422788768,1.1352940144,10.14627434,1.18831868,-2.56924516,,,
imu,434.843001,-0.5018501992000001,-10.1638123776,1.0742824288,9.062122389999999,1.19579559,-2.31503022,,,
imu,434.851478,-0.5221873944000001,-10.1081841672,1.0234394408,7.82095533,1.33037997,-2.06081528,,,
imu,434.859956,-0.5221873944000001,-10.0411910536,0.9977188704000002,6.81157248,1.58459491,-2.06829219,,,
imu,434.868433,-0.5245800056000001,-9.960440425600002,0.9719983000000001,5.87695873,1.74908693,-2.00847691,,,
imu,434.876911,-0.5485061176,-9.876100880800003,0.9510629520000001,5.42086722,2.09302479,-1.70940051,,,
imu,434.885389,-0.5371412144000001,-9.8228652816,0.9247442288000001,5.24142138,2.36967046,-1.45518557,,,
imu,434.893866,-0.5191966304000001,-9.759461084800002,0.9151737840000002,5.23394447,2.72856214,-1.41032411,,,
imu,434.902344,-0.4922797544,-9.713403319200001,0.9038088808000001,5.5554516,3.05754618,-1.37293956,,,
imu,434.910821,-0.4809148512,-9.6942624296,0.900219964,5.93677401,3.2968073,-1.253309,,,
imu,434.919281,-0.46356842,-9.680504915200002,0.9038088808000001,6.28818878,3.56597606,-1.11124771,,,
imu,434.927741,-0.4378478496000001,-9.727758986400001,0.9073977976000001,6.58726518,3.61831443,-1.253309,,,
imu,434.9362,-0.4384460024000001,-9.827650504000003,0.9044070336000001,6.9012954,3.67812971,-1.3280781,,,
imu,434.94466,-0.4061457512000001,-9.917971576800003,0.8864624496000001,6.70689574,3.6706528,-1.39537029,,,
imu,434.95312,-0.4001642232,-9.961038578400002,0.8780883104000001,6.49006535,3.72299117,-1.20844754,,,
imu,434.96158,-0.385808556,-9.964627495200002,0.8756956992000001,6.11621985,3.95477538,-1.11124771,,,
imu,434.970039,-0.3523119992,-9.962234884,0.8613400320000001,5.63769761,3.90991392,-1.46266248,,,
imu,434.978499,-0.3289840400000001,-9.929336480000002,0.8667234072000001,5.17412919,3.93234465,-1.63463141,,,
imu,434.986959,-0.3218062064,-9.876100880800003,0.8493769760000001,4.89748352,3.81271409,-1.72435433,,,
imu,434.995418,-0.3325729568,-9.831239420800001,0.8320305448000002,4.74794532,3.54354533,-1.68696978,,,
imu,435.003878,-0.3331711096,-9.833632032,0.8320305448000002,4.60588403,3.49120696,-1.59724686,,,
imu,435.012338,-0.3600879856,-9.893447312000001,0.8140859608000002,4.56849948,3.70803735,-1.39537029,,,
imu,435.020798,-0.3559009160000001,-9.9747960928,0.8087025856000001,4.47877656,3.84262173,-1.14863226,,,
imu,435.029257,-0.3714528888,-10.0376021368,0.7865709320000001,4.07502342,3.81271409,-1.0290017,,,
imu,435.037717,-0.34393786,-10.090837736,0.7781967928000002,3.46939371,3.8949601,-1.02152479,,,
imu,435.046177,-0.352910152,-10.1261287512,0.723764888,2.66936434,4.104313579999999,-1.08134007,,,
imu,435.054637,-0.3600879856,-10.1105767784,0.7046239984,2.03382699,4.28375942,-1.23835518,,,
imu,435.063096,-0.3277877344,-10.0764820688,0.7076147624000001,1.22632071,4.47068217,-1.59724686,,,
imu,435.071556,-0.3247969704000001,-10.0525559568,0.7040258456,0.6132140899999999,4.63517419,-1.7019236,,,
imu,435.080016,-0.2847207328,-9.9915443712,0.7046239984,0.11226112,4.65012801,-1.94866163,,,
imu,435.088475,-0.2715613712,-9.931729091200001,0.7662337368000001,-0.33635348,4.694989469999999,-2.15801511,,,
imu,435.096935,-0.2476352592,-9.947281064000002,0.7644392784,-0.68776825,4.73237402,-2.18792275,,,
imu,435.105395,-0.2817299688000001,-10.0118815664,0.7608503616000001,-1.12142903,4.92677368,-1.98604618,,,
imu,435.113855,-0.242251884,-10.0567430264,0.7686263480000001,-1.80930475,5.263234629999999,-1.75426197,,,
imu,435.122318,-0.2386629672,-10.081865444,0.7865709320000001,-2.70653395,5.41277283,-1.82903107,,,
imu,435.130782,-0.2470371064,-10.126726904,0.7674300424000001,-3.67105534,5.50249575,-2.11315365,,,
imu,435.139245,-0.2548130928,-10.1111749312,0.7638411256000001,-4.605669089999999,5.547357209999999,-2.38979932,,,
imu,435.147709,-0.251224176,-10.0776783744,0.7578595976000001,-5.360837,5.704372319999999,-2.54681443,,,
imu,435.156172,-0.2290925224000001,-10.03401322,0.7656355840000001,-6.09357418,5.62212631,-2.99542903,,,
imu,435.164636,-0.1842310624,-9.9329253968,0.7841783208,-6.616957879999999,5.67446468,-3.48142818,,,
imu,435.173099,-0.1537252696,-9.812098531200002,0.8098988912000001,-6.84874209,5.592218669999999,-3.7206893,,,
imu,435.181563,-0.1453511304,-9.760059237600002,0.8146841136000001,-6.5571426,5.38286519,-3.77302767,,,
imu,435.190026,-0.1387714496,-9.730749750400001,0.8517695872000001,-6.235635469999999,5.001542779999999,-3.9449966,,,
imu,435.19849,-0.1124527264,-9.693066124000001,0.8601437264,-5.7346825,4.567882,-3.99733497,,,
imu,435.206954,-0.1393696024,-9.618297024,0.9050051864,-5.12157588,4.194036499999999,-3.93751969,,,
imu,435.215417,-0.140565908,-9.5668558832,0.9301276040000002,-4.1645314,4.08188285,-3.58610492,,,
imu,435.223881,-0.1423603664,-9.516611048000001,0.9492684936000001,-3.22991765,3.84262173,-3.37675144,,,
imu,435.232344,-0.1268083936,-9.471151435200001,1.01685976,-2.19810407,3.47625314,-3.28702852,,,
imu,435.240808,-0.1632957144,-9.493283088800002,1.0401877192,-1.19619813,3.1472691,-3.13749032,,,
imu,435.249271,-0.1788476872,-9.557883591200001,1.0862454848,-0.30644584,2.75846978,-2.93561375,,,
imu,435.257735,-0.188418132,-9.591978300800001,1.10658268,0.53096808,2.26499372,-2.8982292,,,
imu,435.266198,-0.1878199792,-9.591380148,1.1598182792,1.12912088,1.89114822,-3.04029049,,,
imu,435.274662,-0.203371952,-9.665551095200001,1.1819499328,1.73475059,1.70422547,-3.06272122,,,
imu,435.283125,-0.1985867296,-9.7702278352,1.199296364,2.23570356,1.51730272,-2.80102937,,,
imu,433.887574,,,,,,,91.907998,33.49042279999998,181.258624
imu,433.988984,,,,,,,89.6374588,34.72335,181.2097952
imu,434.090546,,,,,,,91.5173676,33.74677399999999,179.2932648
imu,434.192109,,,,,,,88.306874,34.46699879999999,181.2342096
imu,434.29834,,,,,,,89.405522,34.40596279999999,178.0481304
imu,434.395386,,,,,,,89.08813479999999,36.12717799999998,180.282048
imu,434.496827,,,,,,,89.4787652,35.98069159999999,178.7317336
imu,434.59842,,,,,,,89.58863,36.18821399999999,179.5252016
imu,435.291694,-0.1788476872,-9.810902225600001,1.2184372536,2.47496468,1.27056469,-2.77859864,,,
imu,435.300157,-0.1728661592,-9.8234634344,1.2148483368,2.60207215,1.02382666,-2.92813684,,,
imu,435.308621,-0.1561178808,-9.827650504000003,1.2244187816,2.90114855,1.03130357,-3.01785976,,,
imu,435.317084,-0.1399677552,-9.824659740000001,1.2214280176,2.68431816,0.78456554,-3.03281358,,,
imu,435.325567,-0.1333880744,-9.857558144000002,1.2208298648,2.43010322,0.6125966099999998,-3.16739796,,,
imu,435.33405,-0.1232194768,-9.8946436176,1.2136520312,2.25813429,0.6350273399999997,-3.01038285,,,
imu,435.342532,-0.13458438,-9.8916528536,1.2100631144,1.68988913,0.76213481,-2.94309066,,,
imu,435.351015,-0.1381732968,-9.902419604000002,1.18135178,1.33847436,0.66493498,-3.11505959,,,
imu,435.359498,-0.143556672,-9.899428840000002,1.142471848,0.97210577,0.3957662200000001,-3.51881273,,,
imu,435.36798,-0.1746606176,-9.8713156584,1.1071808328,0.80013684,0.3060432999999998,-3.67582784,,,
imu,435.376463,-0.1776513816,-9.825257892800002,1.0778713456,0.63564482,0.2910894799999997,-3.60105874,,,
imu,435.384945,-0.1609031032,-9.8144911424,1.0641138312,0.55339881,0.11164364,-3.69078166,,,
imu,435.393428,-0.1441548248,-9.796546558400001,1.0234394408,0.8375213899999999,0.04435144999999974,-3.62348947,,,
imu,435.401911,-0.08314323920000001,-9.7780038216,1.0204486768,0.97210577,-0.0603252900000002,-3.36179762,,,
imu,435.410393,-0.05562821040000001,-9.751685098400001,0.9887465784000001,1.40576655,-0.4117400600000001,-3.0477674,,,
imu,435.418876,-0.0305057928,-9.758264779200001,0.9797742864000001,1.64502767,-0.90521612,-3.21973633,,,
imu,435.427358,-0.02990764000000001,-9.7786019744,0.9725964528000002,2.27308811,-1.45103055,-3.43656672,,,
imu,435.435841,-0.0227298064,-9.786377960800001,0.9552500216000002,2.60207215,-1.89216824,-3.44404363,,,
imu,435.444324,-0.03110394560000001,-9.765442612800001,0.9642223136000001,2.97591765,-2.16881391,-3.30945925,,,
imu,435.452806,-0.04545961280000001,-9.8432024768,0.9624278552000001,3.02077911,-2.64733615,-3.54124346,,,
imu,435.461289,-0.07297464160000001,-9.919167882400002,0.9301276040000002,2.90114855,-2.96136637,-3.54872037,,,
imu,435.469772,-0.113649032,-9.88447502,0.9259405344000001,2.51234923,-3.16324294,-3.66087402,,,
imu,435.478254,-0.1459492832,-9.918569729600001,0.9229497704,2.01887317,-3.27539659,-3.98238115,,,
imu,435.486737,-0.1004896704,-10.0017129688,0.8924439776000002,1.56278166,-3.38755024,-4.22164227,,,
imu,435.495219,-0.0933118368,-9.995731440800002,0.8649289488,0.94219813,-3.67167282,-4.49828794,,,
imu,435.503702,-0.07118018320000001,-9.877297186400002,0.8888550608000001,0.4711528,-4.38945618,-5.08896383,,,
imu,435.512185,-0.09749890640000002,-9.828248656800001,0.8846679912000001,0.18703022,-5.122193360000001,-5.38804023,,,
imu,435.520667,-0.062806044,-9.847389546400002,0.8709104768000001,0.08983038999999998,-5.712869250000001,-5.27588658,,,
imu,435.529474,-0.0143556672,-9.8402117128,0.8679197128000001,0.20946095,-6.33345278,-4.94690254,,,
imu,435.53828,-0.008972292000000002,-9.790565030400002,0.885266144,0.46367589,-7.01385159,-4.70016451,,,
imu,435.547086,0.004187069600000001,-9.7815927384,0.88227538,0.71789083,-8.08304972,-4.30388828,,,
imu,435.555892,-0.0317020984,-9.8049206976,0.8966310472000002,1.07678251,-9.27187841,-3.75059694,,,
imu,435.564699,-0.0634041968,-9.803724392000001,0.9229497704,1.0693056,-10.21396907,-3.25712088,,,
imu,435.573505,-0.1082656568,-9.812098531200002,0.9654186192,1.34595127,-10.94670625,-2.62906044,,,
imu,435.582311,-0.1728661592,-9.869521200000003,0.9947281064000002,1.45810492,-11.67944343,-1.93370781,,,
imu,435.591118,-0.2129423968,-9.9095974376,1.0216449824,1.09173633,-11.88879691,-1.49257012,,,
imu,435.599924,-0.2410555784,-9.9269438688,1.0389914136,0.70293701,-12.00095056,-1.24583209,,,
imu,435.60873,-0.2500278704,-9.939505077600002,1.0581323032,0.29918387,-11.89627382,-0.9542325999999999,,,
imu,435.617537,-0.2488315648,-9.915578965600002,1.0581323032,-0.02980017,-11.77664326,-0.82712513,,,
imu,435.626343,-0.2350740504,-9.859950755200002,1.0641138312,-0.43355331,-11.63458197,-0.9841402399999999,,,
imu,435.635149,-0.2380648144,-9.80970592,1.0718898176,-0.5307531400000001,-11.37289012,-1.26826282,,,
imu,435.643956,-0.2374666616,-9.7570684736,1.0874417904,-0.6279529699999999,-11.27569029,-1.69444669,,,
imu,435.652762,-0.2613927736,-9.7074217912,1.085647332,-0.48589168,-11.23830574,-2.33746095,,,
imu,435.661568,-0.3014690112,-9.6505972752,1.1131623608,-0.5008455,-11.10372136,-2.89075229,,,
imu,435.670374,-0.3481249296000001,-9.614708107200002,1.1251254168,0.15712258,-10.82707569,-3.1973056,,,
imu,435.679181,-0.391790084,-9.618895176800002,1.1221346528,0.78518302,-10.31864581,-3.38422835,,,
imu,435.687987,-0.451605364,-9.663158484000002,1.1317050976,1.27118217,-9.66067773,-3.55619728,,,
imu,435.696793,-0.4898871432,-9.693066124000001,1.103591916,1.84690424,-8.80083308,-3.68330475,,,
imu,435.7056,-0.5162058664000001,-9.724170069600001,1.1173494304,2.33290339,-7.612004389999999,-3.52628964,,,
imu,435.714406,-0.5491042704000001,-9.763050001600002,1.1173494304,2.49739541,-6.46056025,-3.62348947,,,
imu,435.723212,-0.5903768136,-9.8168837536,1.1143586664,2.75908726,-5.144624090000001,-3.66087402,,,
imu,435.731696,-0.6101158560000001,-9.8749045752,1.1011993048,2.64693361,-3.60438063,-3.69825857,,,
imu,435.74018,-0.6101158560000001,-9.879689797600001,1.094619624,2.66188743,-2.11647554,-3.97490424,,,
imu,435.748664,-0.5927694248,-9.831837573600001,1.0964140824,2.60207215,-0.5911859000000002,-4.079580979999999,,,
imu,435.757148,-0.5371412144000001,-9.8461932408,1.1017974576,2.74413344,0.92662683,-4.19173463,,,
imu,435.765632,-0.490485296,-9.870717505600002,1.0754787344,2.72170271,2.20517844,-4.37118047,,,
imu,435.774116,-0.4366515440000001,-9.8162856008,1.0730861232,2.60207215,3.13231528,-4.73007215,,,
imu,435.7826,-0.4037531400000001,-9.741516500800001,1.0778713456,2.70674889,3.820191,-4.83474889,,,
imu,435.791083,-0.3206099008000001,-9.785181655200002,1.064711984,3.05816366,4.37348234,-4.93942563,,,
imu,435.799567,-0.2685706072,-9.840809865600002,1.0467674,3.24508641,4.28375942,-5.0665331,,,
imu,435.808051,-0.2404574256,-9.8264541984,1.052748928,3.2376095,4.126744309999999,-5.00671782,,,
imu,435.816535,-0.2284943696,-9.841408018400001,1.043776636,3.19274804,3.797760269999999,-4.70016451,,,
imu,435.825019,-0.2326814392,-9.9078029792,1.0084856208,3.0133022,3.5211146,-4.04967334,,,
imu,435.833503,-0.2817299688000001,-9.9365143136,0.9678112304000002,2.62450288,3.21456129,-3.496382,,,
imu,435.841987,-0.305057928,-9.9131863544,0.9468758824000001,2.32542648,2.90053107,-3.21225942,,,
imu,435.850471,-0.3259932760000001,-9.8713156584,0.9325202152000002,1.92915025,2.84071579,-2.80102937,,,
imu,435.858955,-0.3373581792000001,-9.858754449600001,0.8918458248000001,1.65250458,2.76594669,-2.65149117,,,
imu,435.867438,-0.361882444,-9.818678212000002,0.8637326432000001,1.48801256,2.81080815,-2.50942988,,,
imu,435.875922,-0.370854736,-9.7815927384,0.8547603512000002,1.47305874,3.01268472,-2.34493786,,,
imu,435.884406,-0.3720510416,-9.746899876,0.8565548096000002,1.72727368,3.48373005,-2.24773803,,,
imu,435.89289,-0.3750418056000001,-9.746899876,0.8344231560000002,2.06373463,3.93234465,-2.0757691,,,
imu,435.901374,-0.370854736,-9.754675862400001,0.8410028368000001,2.39271867,4.31366706,-2.0757691,,,
imu,435.909858,-0.3582935272000001,-9.779200127200001,0.8380120728000001,2.68431816,4.68003565,-2.35989168,,,
imu,435.918342,-0.3307784984000001,-9.803126239200001,0.8451899064,2.81890254,5.046404239999999,-2.62906044,,,
imu,435.926826,-0.2739539824000001,-9.894045464800001,0.8535640456000001,2.84881018,5.55483412,-2.69635263,,,
imu,435.935317,-0.2266999112,-9.970010870400001,0.8439936008000001,2.69179507,5.81652597,-2.86084465,,,
imu,435.943809,-0.1836329096,-10.0142741776,0.8475825176000001,2.12354991,5.78661833,-3.07019813,,,
imu,435.9523,-0.1698753952,-10.0262372336,0.8416009896000001,1.48801256,5.7641876,-3.07767504,,,
imu,435.960792,-0.1537252696,-10.0352095256,0.8380120728000001,0.71789083,5.67446468,-3.09262886,,,
imu,435.969283,-0.1495382,-10.0256390808,0.8535640456000001,0.02253820000000001,5.59969558,-3.07767504,,,
imu,435.977775,-0.1591086448,-9.990348065600001,0.8667234072000001,-0.52327623,5.52492648,-3.13001341,,,
imu,435.986266,-0.1692772424,-9.950271828000002,0.8810790744000001,-1.15133667,5.36043446,-3.31693616,,,
imu,435.994758,-0.1776513816,-9.8850731728,0.8900513664000002,-1.34573633,5.27818845,-3.24216706,,,
imu,436.003249,-0.1740624648,-9.820472670400001,0.8984255056000002,-1.30835178,5.21089626,-3.15244414,,,
imu,436.011741,-0.1896144376,-9.765442612800001,0.9283331456000001,-0.85973718,5.1660348,-3.10010577,,,
imu,436.020232,-0.1938015072,-9.7283571392,0.9492684936000001,-0.58309151,5.30061918,-2.96552139,,,
imu,436.028724,-0.1836329096,-9.714599624800002,0.9719983000000001,-0.18681528,5.1660348,-3.13749032,,,
imu,436.037215,-0.1955959656,-9.7325442088,0.9821668976000001,0.3216146,4.979112049999999,-3.30945925,,,
imu,436.045707,-0.1806421456,-9.7534795568,0.9959244120000001,0.58330645,4.88938913,-3.62348947,,,
imu,436.054198,-0.1991848824,-9.786377960800001,1.0264302048,1.02444414,4.694989469999999,-3.89265823,,,
imu,436.06269,-0.1800439928,-9.8013317808,1.0443747888,1.27118217,4.739850929999999,-4.057150249999999,,,
imu,436.071181,-0.200381188,-9.8479876992,1.040785872,1.27865908,4.59778964,-4.26650373,,,
imu,436.079673,-0.1938015072,-9.915578965600002,1.0162616072,1.0693056,4.59031273,-4.13191935,,,
imu,436.088164,-0.197390424,-9.9095974376,1.0066911624,0.64312173,4.60526655,-3.8702275,,,
imu,436.096656,-0.2117460912,-9.866530436000001,0.9959244120000001,0.23936859,4.57535891,-4.00481188,,,
imu,436.105147,-0.200381188,-9.844996935200001,0.9887465784000001,0.05244583999999999,4.837050759999999,-4.07210407,,,
imu,434.700043,,,,,,,89.3078644,35.4435748,180.0623184
imu,434.801453,,,,,,,89.56421560000001,34.45479159999998,181.0388944
imu,434.903016,,,,,,,89.33227880000001,34.03974679999999,181.4539392
imu,435.0047,,,,,,,92.0056556,33.60028759999998,181.4295248
imu,435.106202,,,,,,,89.6984948,33.50263,182.4549296
imu,435.207764,,,,,,,91.41971,33.27069319999998,180.09894
imu,435.309327,,,,,,,89.1369636,34.75997159999999,181.9544344
imu,435.410859,,,,,,,89.27124280000001,33.7345668,179.0491208
imu,436.113639,-0.2075590216,-9.824061587200001,0.9857558144000002,-0.14195382,5.15108098,-3.84031986,,,
imu,436.122131,-0.200381188,-9.8049206976,0.9737927584000001,-0.29149202,5.14360407,-3.9449966,,,
imu,436.130622,-0.1932033544,-9.801929933600002,0.9767835224000002,-0.21672292,5.24828081,-4.19173463,,,
imu,436.139047,-0.1818384512,-9.7534795568,0.9821668976000001,-0.17186146,5.263234629999999,-4.408565019999999,,,
imu,436.147473,-0.1776513816,-9.7809945856,0.9869521200000001,-0.07466163,5.23332699,-4.70764142,,,
imu,436.155898,-0.1830347568,-9.825856045600002,0.9905410368000002,-0.09709236,5.18098862,-4.8422258,,,
imu,436.164324,-0.1890162848,-9.8330338792,0.9983170232,0.08235347999999998,5.158557889999999,-4.82727198,,,
imu,436.172749,-0.188418132,-9.833632032,0.9983170232,0.007584380000000002,5.1660348,-4.72259524,,,
imu,436.181174,-0.1967922712,-9.842604324000002,0.9923354952000002,0.05992275,5.22585008,-4.602964679999999,,,
imu,436.1896,-0.212344244,-9.8713156584,0.9977188704000002,0.0001074699999999984,5.32304991,-4.49081103,,,
imu,436.198025,-0.20935348,-9.867128588800002,0.9917373424000001,-0.01484635000000001,5.34548064,-4.169303899999999,,,
imu,436.206451,-0.2207183832,-9.8527729216,1.0013077872,0.14964567,5.4651112,-3.82536604,,,
imu,436.214876,-0.206362716,-9.825856045600002,1.0114763848,0.08983038999999998,5.60717249,-3.63096638,,,
imu,436.223301,-0.2171294664,-9.803126239200001,1.019850524,-0.02232326000000001,5.78661833,-3.56367419,,,
imu,436.231727,-0.1979885768,-9.8043225448,1.034804344,-0.18681528,5.704372319999999,-3.53376655,,,
imu,436.240152,-0.1752587704,-9.8228652816,1.0360006496,-0.11952309,5.71184923,-3.32441307,,,
imu,436.248578,-0.1597067976,-9.842006171200001,1.0419821776,-0.06718472,5.77166451,-3.29450543,,,
imu,436.257003,-0.1393696024,-9.8234634344,1.0294209688,-0.31392275,5.45763429,-3.51133582,,,
imu,436.265428,-0.1208268656,-9.8300431152,1.0264302048,-0.33635348,5.17351171,-3.5711511,,,
imu,436.273854,-0.09450814240000002,-9.8300431152,1.0102800792,-0.32139966,4.92677368,-3.81041222,,,
imu,436.282279,-0.1070693512,-9.8132948368,1.00190594,-0.40364567,4.530497449999999,-4.22164227,,,
imu,436.290705,-0.09570444800000001,-9.785779808000001,1.0126726904,-0.34383039,4.216467229999999,-4.11696553,,,
imu,436.29913,-0.1064711984,-9.769031529600001,0.9965225648000002,-0.21672292,3.96225229,-3.95247351,,,
imu,436.307555,-0.08792846160000001,-9.748096181600001,0.9863539672000001,-0.07466163,3.63326825,-3.95995042,,,
imu,436.315981,-0.1100601152,-9.751685098400001,0.9959244120000001,0.14964567,3.34166876,-4.07210407,,,
imu,436.324406,-0.1040785872,-9.7576666264,0.9953262592000002,0.42629134,2.95286944,-4.07210407,,,
imu,436.332831,-0.1208268656,-9.758264779200001,1.0102800792,0.59078336,2.80333124,-4.00481188,,,
imu,436.341304,-0.1297991576,-9.779798280000001,1.0102800792,0.8674290299999999,2.61640849,-4.13191935,,,
imu,436.349776,-0.1447529776,-9.772620446400001,1.007887468,1.07678251,2.36219355,-4.26650373,,,
imu,436.358249,-0.1662864784,-9.8043225448,1.0204486768,1.30856672,2.19022462,-4.33379592,,,
imu,436.366721,-0.1740624648,-9.8467913936,1.00190594,1.48801256,2.0257326,-4.33379592,,,
imu,436.375194,-0.1800439928,-9.870119352800002,1.0060930096,1.55530475,1.9509635,-4.318842099999999,,,
imu,436.383577,-0.203371952,-9.88447502,1.0126726904,1.47305874,2.12293243,-4.26650373,,,
imu,436.39205,-0.2111479384,-9.924551257600003,1.0066911624,1.34595127,2.1005017,-4.34874974,,,
imu,436.400522,-0.221316536,-9.9078029792,0.9983170232,1.00949032,2.11545552,-4.46090339,,,
imu,436.408995,-0.2344758976,-9.886867631200001,0.9929336480000002,0.59078336,2.33976282,-4.56558013,,,
imu,436.417467,-0.233279592,-9.855763685600001,1.0042985512,0.23936859,2.37714737,-4.74502597,,,
imu,436.42594,-0.233279592,-9.825856045600002,0.9995133288000001,0.13469185,2.43696265,-4.976810179999999,,,
imu,436.434412,-0.2255036056,-9.801929933600002,1.0042985512,0.10478421,2.63883922,-5.05157928,,,
imu,436.442884,-0.2129423968,-9.777405668800002,1.0234394408,0.15712258,2.57154703,-5.193640569999999,,,
imu,436.451357,-0.2057645632,-9.779200127200001,1.0371969552,0.44124516,2.63883922,-5.22354821,,,
imu,436.459829,-0.182436604,-9.751685098400001,1.0659082896,0.67302937,2.69117759,-5.20859439,,,
imu,436.468302,-0.1770532288,-9.7576666264,1.0850491792,0.8823828499999999,2.58650085,-5.193640569999999,,,
imu,436.476774,-0.176455076,-9.780396432800002,1.0790676512,1.25622835,2.33228591,-5.305794219999999,,,
imu,436.485247,-0.1955959656,-9.786976113600002,1.1029937632,1.24875144,2.07807097,-5.32074804,,,
imu,436.493719,-0.212344244,-9.7809945856,1.1107697496,1.48801256,1.80890221,-5.11139456,,,
imu,436.502192,-0.2314851336,-9.815687448000002,1.1161531248,1.45810492,1.60702564,-4.931948719999999,,,
imu,436.510664,-0.2733558296,-9.831239420800001,1.1083771384,1.53287402,1.55468727,-4.59548777,,,
imu,436.519136,-0.2942911776,-9.7995373224,1.1113679024,1.27118217,1.49487199,-4.37865738,,,
imu,436.527609,-0.3116376088,-9.793555794400001,1.1071808328,1.13659779,1.49487199,-4.169303899999999,,,
imu,436.536081,-0.3128339144,-9.819276364800002,1.0898344016,1.23379762,1.52477963,-4.057150249999999,,,
imu,436.544882,-0.311039456,-9.801929933600002,1.0688990536,1.24127453,1.67431783,-4.0197657,,,
imu,436.553683,-0.3056560808,-9.745105417600001,1.0742824288,1.25622835,1.76404075,-4.10948862,,,
imu,436.562484,-0.2972819416,-9.735534972800002,1.0503563168,1.45810492,1.77899457,-4.012288789999999,,,
imu,436.571285,-0.272159524,-9.743310959200002,1.0461692472,1.63755076,1.77151766,-4.10948862,,,
imu,436.580086,-0.272159524,-9.776209363200001,1.03181358,1.98148862,1.77899457,-4.30388828,,,
imu,436.588887,-0.2649816904,-9.803724392000001,1.0336080384,2.06373463,1.80890221,-4.51324176,,,
imu,436.597688,-0.2733558296,-9.824659740000001,1.0282246632,2.16841137,1.79394839,-4.87961035,,,
imu,436.606489,-0.2733558296,-9.830641268,1.0240375936,2.33290339,1.68179474,-4.84970271,,,
imu,436.61529,-0.2691687600000001,-9.861147060800002,1.0216449824,2.38524176,1.83133294,-4.87213344,,,
imu,436.624091,-0.2954874832,-9.859950755200002,1.007887468,2.18336519,1.75656384,-4.68521069,,,
imu,436.632892,-0.2990764,-9.850978463200002,1.0060930096,2.2656112,1.99582496,-4.28893446,,,
imu,436.641693,-0.2924967192,-9.858754449600001,1.0174579128,2.02635008,2.16779389,-4.13191935,,,
imu,436.650494,-0.2984782472,-9.851576616000001,1.0162616072,1.90671952,2.42948574,-3.96742733,,,
imu,436.659295,-0.2972819416,-9.812696684000002,1.0246357464,1.95158098,2.51173175,-3.84031986,,,
imu,436.668096,-0.2865151912,-9.815089295200002,1.0306172744,1.86185806,2.5491163,-3.97490424,,,
imu,436.676897,-0.3098431504,-9.836024643200002,1.0240375936,1.61512003,2.45939338,-4.19921154,,,
imu,436.685698,-0.3152265256,-9.8270523512,1.0031022456,1.4431511,2.52668557,-4.22164227,,,
imu,436.694499,-0.3044597752,-9.8061170032,1.0090837736,1.368382,2.61640849,-4.11696553,,,
imu,436.7033,-0.3092449976000001,-9.800733628000001,0.9935318008000001,1.63755076,2.79585433,-3.81788913,,,
imu,436.712101,-0.2972819416,-9.770825988000002,0.980970592,1.72727368,2.8481927,-3.75059694,,,
imu,436.720902,-0.2829262744000001,-9.7510869456,0.9839613560000001,1.87681188,2.96034635,-3.51881273,,,
imu,436.729703,-0.2697669128,-9.7540777096,0.9708019944000001,2.18336519,3.02763854,-3.61601256,,,
imu,436.738504,-0.2494297176,-9.779200127200001,0.9594370912000001,2.55721069,3.09493073,-3.54872037,,,
imu,436.746991,-0.2278962168,-9.790565030400002,0.9911391896000001,2.75161035,3.10240764,-3.50385891,,,
imu,436.755477,-0.1800439928,-9.819276364800002,0.998915176,2.87871782,2.83323888,-3.60105874,,,
imu,436.763964,-0.1142471848,-9.8593526024,0.9941299536000001,2.93105619,2.52668557,-3.65339711,,,
imu,436.77245,-0.04187069600000001,-9.899428840000002,0.9797742864000001,2.7889949,2.0257326,-3.78050458,,,
imu,436.780937,0.0245242648,-9.898830687200002,0.963026008,2.57964142,1.24813396,-3.87770441,,,
imu,436.789423,0.0526374464,-9.902419604000002,0.9540537160000001,2.4899185,0.29856639,-3.93004278,,,
imu,436.797909,0.06699311360000001,-9.903615909600001,0.9271368400000001,2.3403803,-0.7930624700000002,-3.96742733,,,
imu,436.806396,0.062806044,-9.859950755200002,0.9109867144000001,2.24318047,-1.84730678,-4.034719519999999,,,
imu,436.814882,0.023926112,-9.8402117128,0.8966310472000002,2.03382699,-2.78939744,-4.06462716,,,
imu,436.823369,-0.0323002512,-9.857558144000002,0.8900513664000002,2.07868845,-3.47727316,-3.80293531,,,
imu,436.831855,-0.07058203040000001,-9.842604324000002,0.8936402832000001,2.06373463,-4.09785669,-3.63844329,,,
imu,436.840342,-0.1459492832,-9.837819101600003,0.900219964,2.01887317,-4.38945618,-3.56367419,,,
imu,436.848828,-0.2099516328,-9.860548908000002,0.8900513664000002,2.04878081,-4.51656365,-3.51881273,,,
imu,436.857314,-0.2595983152,-9.863539672000002,0.8858642968000001,1.98896553,-4.49413292,-3.55619728,,,
imu,436.865801,-0.2835244272,-9.877297186400002,0.8876587552000001,1.7422275,-4.42684073,-3.69825857,,,
imu,436.874287,-0.3056560808,-9.892849159200003,0.8876587552000001,1.56278166,-4.13524124,-4.012288789999999,,,
imu,436.882774,-0.3026653168,-9.8982325344,0.900219964,1.38333582,-4.03804141,-4.37118047,,,
imu,436.89126,-0.3026653168,-9.889260242400002,0.8780883104000001,1.13659779,-3.94831849,-4.59548777,,,
imu,436.899747,-0.290104108,-9.859950755200002,0.8786864632000002,1.10669015,-3.88850321,-4.84970271,,,
imu,436.908233,-0.3020671640000001,-9.860548908000002,0.8990236584000001,1.10669015,-3.73896501,-4.93942563,,,
imu,436.916719,-0.323002512,-9.860548908000002,0.8930421304000001,0.8674290299999999,-3.75391883,-4.78988743,,,
imu,436.925206,-0.3433397072,-9.830641268,0.9008181168,0.73284465,-3.71653428,-4.57305704,,,
imu,435.512339,,,,,,,89.56421560000001,34.12519719999998,181.502768
imu,435.613932,,,,,,,89.954846,34.3327196,181.8567768
imu,435.715433,,,,,,,90.96804359999999,34.51582759999998,182.4427224
imu,435.816965,,,,,,,90.6384492,33.72235959999998,182.8211456
imu,435.918833,,,,,,,90.9192148,34.17402599999999,182.1863712
imu,436.020121,,,,,,,90.9192148,34.01533239999998,182.4427224
imu,436.121866,,,,,,,93.2019612,33.7711884,182.0887136
imu,436.223307,,,,,,,90.83376439999999,34.56465639999999,181.8811912
imu,436.933692,-0.3451341656,-9.818080059200001,0.9295294512000001,0.70293701,-3.34268878,-4.244073,,,
imu,436.942179,-0.3630787496,-9.8270523512,0.9438851184000001,0.6281679099999999,-3.25296586,-3.99733497,,,
imu,436.950649,-0.382817792,-9.805518850400002,0.9385017432000002,0.46367589,-3.08847384,-3.87770441,,,
imu,436.959118,-0.3935845424,-9.769629682400002,0.9702038416000002,0.52349117,-2.8342589,-3.67582784,,,
imu,436.967588,-0.4199032656,-9.789966877600001,0.9678112304000002,0.4711528,-2.59499778,-3.42908981,,,
imu,436.976058,-0.4312681688,-9.819276364800002,0.9492684936000001,0.4861066199999999,-2.20619846,-3.24964397,,,
imu,436.984528,-0.4563905864000001,-9.802528086400002,0.9624278552000001,0.49358353,-1.7874915,-3.1973056,,,
imu,436.992998,-0.4857000736000001,-9.801929933600002,0.9725964528000002,0.7403215599999999,-1.25663089,-3.11505959,,,
imu,437.001468,-0.5102243384,-9.847389546400002,0.9654186192,0.66555246,-1.00989286,-3.22721324,,,
imu,437.009938,-0.5227855472,-9.890456548000001,0.9582407856000001,0.56835263,-0.4865091600000002,-3.35432071,,,
imu,437.018408,-0.5114206440000001,-9.8713156584,0.9516611048000001,0.64312173,0.21632038,-3.21225942,,,
imu,437.026878,-0.5239818528000001,-9.849184004800001,0.9582407856000001,0.73284465,0.98644211,-3.21973633,,,
imu,437.035348,-0.505439116,-9.857558144000002,0.9684093832000001,0.66555246,1.65936401,-3.42908981,,,
imu,437.043817,-0.4785222400000001,-9.875502728,0.9624278552000001,0.56087572,2.33228591,-3.42908981,,,
imu,437.052287,-0.4551942808000001,-9.840809865600002,0.9606333968,0.56835263,2.84071579,-3.54124346,,,
imu,437.060757,-0.4438293776000001,-9.819276364800002,0.9564463272000002,0.53844499,3.34166876,-3.6459202,,,
imu,437.069227,-0.4043512928,-9.805518850400002,0.9468758824000001,0.64312173,3.84262173,-3.77302767,,,
imu,436.3249,,,,,,,92.396286,33.44159399999999,182.5525872
imu,436.426401,,,,,,,90.30885479999999,33.60028759999998,179.48858
imu,436.528025,,,,,,,90.1745756,34.11298999999999,181.4295248
imu,436.629526,,,,,,,90.0036748,34.296098,181.6004256
imu,436.731058,,,,,,,90.0647108,33.64911639999999,182.1497496
imu,436.832651,,,,,,,89.2346212,33.8322244,181.7957408
imu,436.934366,,,,,,,90.21119719999999,33.47821559999999,182.0765064
imu,437.035776,,,,,,,90.19899,33.4049724,182.0154704
