Type,Timestamp,Data Accelerometer X,Data Accelerometer Y,Data Accelerometer Z,Data Gyroscope X,Data Gyroscope Y,Data Gyroscope Z,Data Magnetometer X,Data Magnetometer Y,Data Magnetometer Z
imu,191.760872,-0.9073977976000001,-9.7265626808,1.7896731776,1.80204278,1.53225654,-4.10948862,,,
imu,191.769336,-0.9014162696000001,-9.743909112,1.7926639416,1.9665348,1.64441019,-4.30388828,,,
imu,191.777799,-0.9050051864,-9.746301723200002,1.7783082744,2.03382699,1.68927165,-4.26650373,,,
imu,191.786263,-0.8900513664000002,-9.7283571392,1.7609618432,2.24318047,1.92105586,-4.28893446,,,
imu,191.794727,-0.8792846160000001,-9.746899876,1.7687378296,2.13102682,2.16031698,-4.244073,,,
imu,191.80319,-0.8547603512000002,-9.783985349600002,1.7783082744,2.0413039,2.23508608,-4.20668845,,,
imu,191.811654,-0.86732156,-9.7750130576,1.7729248992,1.78708896,2.40705501,-4.37118047,,,
imu,191.820117,-0.8756956992000001,-9.797144711200001,1.7543821624,1.82447351,2.29490136,-4.58801086,,,
imu,191.828581,-0.8739012408000001,-9.7959484056,1.7699341352,1.51044329,2.11545552,-4.909517989999999,,,
imu,191.837044,-0.8930421304000001,-9.7953502528,1.77950458,1.40576655,2.07807097,-5.12634838,,,
imu,191.845508,-0.9109867144000001,-9.7953502528,1.767541524,1.13659779,2.01077878,-5.25345585,,,
imu,191.853971,-0.9289312984000001,-9.770825988000002,1.7537840096,1.07678251,1.95844041,-5.05905619,,,
imu,191.862435,-0.9241460760000001,-9.772022293600001,1.7651489128,0.9945364999999999,2.19770153,-4.74502597,,,
imu,191.870898,-0.9205571592,-9.7540777096,1.77950458,1.00201341,2.4743472,-4.10948862,,,
imu,191.879362,-0.9056033392000001,-9.770825988000002,1.7789064272,1.01696723,2.78837742,-3.6459202,,,
imu,191.887825,-0.8756956992000001,-9.756470320800002,1.7723267464,1.18145925,2.88557725,-3.25712088,,,
imu,191.896289,-0.8386102256000002,-9.745703570400002,1.770532288,1.27865908,2.87810034,-3.10010577,,,
imu,191.904753,-0.8194693360000002,-9.725366375200002,1.7603636904,1.2936129,2.81080815,-3.13001341,,,
imu,191.913216,-0.8015247520000001,-9.725964528,1.7448117176,1.26370526,2.53416248,-3.32441307,,,
imu,191.92168,-0.8081044328000001,-9.714001472000001,1.7448117176,1.39081273,2.28742445,-3.60853565,,,
imu,191.930143,-0.8350213088000001,-9.7056273328,1.7340449672,1.55530475,2.03320951,-3.84031986,,,
imu,191.938607,-0.8727049352000001,-9.711010708000002,1.7304560504,1.57773548,1.82385603,-4.146873169999999,,,
imu,191.94707,-0.9056033392000001,-9.7086180968,1.7322505088,1.74970441,1.79394839,-4.079580979999999,,,
imu,191.955534,-0.9313239096000001,-9.7361331256,1.7250726752,1.71231986,1.82385603,-4.13191935,,,
imu,191.963997,-0.9283331456000001,-9.7492924872,1.728661592,1.71979677,2.03320951,-4.08705789,,,
imu,191.972813,-0.9193608536000001,-9.755872168000002,1.7388301896,1.71979677,2.324809,-4.034719519999999,,,
imu,191.981629,-0.9115848672000001,-9.769629682400002,1.7292597448,1.71979677,2.4743472,-3.82536604,,,
imu,191.990444,-0.8870606024000001,-9.786976113600002,1.7310542032,1.68988913,2.56407012,-3.75059694,,,
imu,191.99926,-0.8691160184000001,-9.76484446,1.7340449672,1.71231986,2.45939338,-3.65339711,,,
imu,192.008075,-0.8613400320000001,-9.765442612800001,1.7454098704,1.43567419,2.22013226,-3.90761205,,,
imu,192.016891,-0.8565548096000002,-9.7606573904,1.7418209536,1.40576655,2.10797861,-4.02724261,,,
imu,192.025707,-0.8595455736000001,-9.7510869456,1.740624648,1.33099745,1.86124058,-4.19173463,,,
imu,192.034522,-0.8679197128000001,-9.748694334400001,1.74959694,1.13659779,1.71170238,-4.057150249999999,,,
imu,192.043338,-0.88227538,-9.748694334400001,1.755578468,1.00201341,1.75656384,-3.99733497,,,
imu,192.052153,-0.8768920048000002,-9.759461084800002,1.7543821624,1.07678251,1.68179474,-3.86275059,,,
imu,192.060969,-0.8816772272000001,-9.749890640000002,1.7848879552,1.15155161,1.71917929,-3.496382,,,
imu,192.069785,-0.8930421304000001,-9.783387196800001,1.7597655376,0.97958268,1.59207182,-3.4216129,,,
imu,192.0786,-0.8918458248000001,-9.802528086400002,1.76455076,0.88985976,1.24813396,-3.63096638,,,
imu,192.087416,-0.9187627008000002,-9.779200127200001,1.7836916496,0.80761375,1.18831868,-3.69078166,,,
imu,192.096231,-0.9235479232000001,-9.754675862400001,1.7699341352,0.7104139199999999,1.30794924,-3.66835093,,,
imu,192.105047,-0.9313239096000001,-9.722375611200002,1.7872805664,0.77770611,1.15841104,-3.5711511,,,
imu,192.113863,-0.9516611048000001,-9.709814402400001,1.7938602472,0.9048135799999999,1.36028761,-3.45152054,,,
imu,192.122678,-0.9432869656,-9.7056273328,1.7920657888,0.8973366700000001,1.63693328,-2.9729983,,,
imu,192.131494,-0.9151737840000002,-9.7008421104,1.7920657888,1.08425942,2.01077878,-2.68887572,,,
imu,192.140309,-0.9163700896000002,-9.696655040800001,1.7950565528,1.24875144,2.08554788,-2.73373718,,,
imu,192.149125,-0.8882569080000001,-9.723571916800001,1.7777101216,1.50296638,2.22760917,-2.91318302,,,
imu,192.157941,-0.8607418792,-9.717590388800001,1.7723267464,1.75718132,2.45191647,-3.04029049,,,
imu,192.166756,-0.8427972952,-9.70502918,1.7717285936,1.83942733,2.40705501,-3.1973056,,,
imu,192.175235,-0.8469843648000001,-9.711608860800002,1.7699341352,1.89924261,2.51920866,-3.46647436,,,
imu,192.183714,-0.8392083784000002,-9.6942624296,1.7489987872,1.97401171,2.33228591,-3.73564312,,,
imu,192.192193,-0.8547603512000002,-9.7074217912,1.7454098704,2.16093446,2.29490136,-3.93004278,,,
imu,192.200671,-0.8595455736000001,-9.697851346400002,1.737633884,2.22074974,2.22760917,-3.98238115,,,
imu,192.20915,-0.8589474208000002,-9.696655040800001,1.737633884,2.22822665,2.21265535,-4.146873169999999,,,
imu,192.217629,-0.8721067824000002,-9.706225485600001,1.7424191064,2.28056502,2.31733209,-4.079580979999999,,,
imu,192.226108,-0.8816772272000001,-9.723571916800001,1.7322505088,2.30299575,2.27247063,-4.124442439999999,,,
imu,192.234587,-0.8960328944000001,-9.7474980288,1.7364375784,2.53477996,2.29490136,-3.81788913,,,
imu,192.243065,-0.8996218112000001,-9.7474980288,1.7454098704,2.62450288,2.41453192,-3.77302767,,,
imu,192.251544,-0.8948365888000002,-9.743909112,1.7519895512,2.67684125,2.42948574,-3.7206893,,,
imu,192.260023,-0.900219964,-9.743310959200002,1.7400264952,2.55721069,2.45191647,-3.65339711,,,
imu,192.268502,-0.9103885616000001,-9.7504887928,1.7448117176,2.48244159,2.63883922,-3.48890509,,,
imu,192.276981,-0.9085941032000001,-9.7534795568,1.7424191064,2.45253395,2.71360832,-3.44404363,,,
imu,192.285459,-0.9097904088000002,-9.768433376800001,1.7220819112,2.4151494,2.85566961,-3.46647436,,,
imu,192.293938,-0.9079959504000001,-9.756470320800002,1.7280634392,2.47496468,3.2968073,-3.48142818,,,
imu,192.302417,-0.8978273528000001,-9.7576666264,1.7304560504,2.4899185,3.58092988,-3.46647436,,,
imu,192.310896,-0.8762938520000002,-9.7606573904,1.7244745224,2.63197979,3.797760269999999,-3.51133582,,,
imu,192.319375,-0.8685178656000001,-9.758862932000001,1.7220819112,2.51982614,3.79028336,-3.68330475,,,
imu,192.327853,-0.8607418792,-9.775611210400001,1.7089225496,2.39271867,3.797760269999999,-3.78050458,,,
imu,192.336332,-0.8547603512000002,-9.770825988000002,1.713707772,2.67684125,3.96225229,-3.84779677,,,
imu,192.344811,-0.8457880592000001,-9.783985349600002,1.7125114664,2.75161035,3.93234465,-3.92256587,,,
imu,192.35329,-0.8595455736000001,-9.766040765600001,1.7184929944,2.70674889,3.8949601,-4.00481188,,,
imu,192.361769,-0.8613400320000001,-9.7815927384,1.7119133136,2.69927198,3.90243701,-4.13939626,,,
imu,192.370247,-0.8625363376,-9.782789044000001,1.7119133136,2.59459524,3.92486774,-4.25902682,,,
imu,192.378721,-0.8703123240000001,-9.777405668800002,1.7119133136,2.57964142,3.93234465,-4.31136519,,,
imu,192.387195,-0.8661252544000001,-9.7606573904,1.7095207024,2.75161035,3.8949601,-4.146873169999999,,,
imu,192.395668,-0.8655271016000001,-9.786377960800001,1.6820056736,2.65441052,3.93234465,-4.16182699,,,
imu,192.404142,-0.8733030880000001,-9.7492924872,1.6855945904,2.46748777,3.820191,-4.057150249999999,,,
imu,192.412616,-0.88227538,-9.7361331256,1.6969594936,2.48244159,3.88748319,-3.97490424,,,
imu,192.42109,-0.8703123240000001,-9.746899876,1.656883256,2.42262631,3.87252937,-4.012288789999999,,,
imu,192.429563,-0.8715086296000001,-9.743310959200002,1.6550887976,2.46748777,3.8949601,-4.012288789999999,,,
imu,192.438037,-0.8954347416000001,-9.727160833600001,1.6562851032,2.58711833,4.05945212,-4.13939626,,,
imu,192.446511,-0.8972292000000002,-9.725964528,1.662864784,2.62450288,3.96225229,-4.10948862,,,
imu,192.454984,-0.9091922560000001,-9.748694334400001,1.6682481592,2.75908726,4.09683667,-4.034719519999999,,,
imu,192.463458,-0.9067996448000001,-9.751685098400001,1.6520980336,2.72917962,4.126744309999999,-4.28893446,,,
imu,192.471932,-0.9289312984000001,-9.768433376800001,1.6616684784,2.863764,4.20899032,-4.430995749999999,,,
imu,192.480406,-0.9426888128,-9.793555794400001,1.6855945904,2.82637945,4.26132869,-4.43847266,,,
imu,192.488879,-0.9522592576000002,-9.801929933600002,1.6760241456,2.73665653,4.38095925,-4.52819558,,,
imu,192.497353,-0.9516611048000001,-9.803724392000001,1.6580795616,2.67684125,4.567882,-4.70016451,,,
imu,192.505827,-0.9725964528000002,-9.785779808000001,1.6622666312,2.66188743,4.79966621,-4.78988743,,,
imu,191.854597,,,,,,,79.8350772,-38.48322840000002,135.9210832
imu,192.514461,-0.9654186192,-9.743310959200002,1.7101188552,2.45253395,5.1660348,-4.49081103,,,
imu,192.522935,-0.9678112304000002,-9.802528086400002,1.6467146584,2.62450288,5.442680469999999,-4.430995749999999,,,
imu,192.531408,-0.9373054376000002,-9.737329431200001,1.67482784,2.46748777,5.52492648,-4.40108811,,,
imu,192.539882,-0.9666149248000001,-9.725964528,1.6640610896,2.39271867,5.831479789999999,-4.37865738,,,
imu,192.548356,-0.9331183680000001,-9.737329431200001,1.6652573952,2.43010322,6.02587945,-4.57305704,,,
imu,192.556829,-0.9062014920000001,-9.706225485600001,1.6610703256,2.44505704,6.15298692,-4.58801086,,,
imu,192.565303,-0.8816772272000001,-9.745703570400002,1.6233866992,2.57964142,5.90624889,-4.737549059999999,,,
imu,192.573777,-0.8667234072000001,-9.7570684736,1.60005874,2.54973378,5.943633439999999,-4.75250288,,,
imu,192.582291,-0.8487788232000001,-9.734338667200001,1.6162088656,2.80394872,6.033356359999999,-4.408565019999999,,,
imu,192.590806,-0.8368157672000002,-9.7606573904,1.618003324,3.0880713,6.08569473,-3.91508896,,,
imu,192.59932,-0.8027210576,-9.786377960800001,1.5916846008,3.17779422,5.853910519999999,-3.73564312,,,
imu,192.607834,-0.7955432240000001,-9.7821908912,1.5958716704,3.34976315,5.55483412,-3.62348947,,,
imu,192.616349,-0.7692245008,-9.791761336000002,1.5785252392,3.33480933,4.95668132,-3.89265823,,,
imu,192.624863,-0.771617112,-9.803724392000001,1.5749363224,3.29742478,4.51554363,-4.19921154,,,
imu,192.633378,-0.7889635432000001,-9.807313308800001,1.5629732664,3.12545585,4.00711375,-4.37865738,,,
imu,192.641892,-0.7764023344000002,-9.824659740000001,1.549215752,3.20770186,3.46877623,-4.29641137,,,
imu,192.650406,-0.8122915024000001,-9.803126239200001,1.5504120576,2.83385636,3.0725,-4.079580979999999,,,
imu,192.658921,-0.8433954480000001,-9.802528086400002,1.5617769608,2.51982614,2.72108523,-4.012288789999999,,,
imu,192.667435,-0.8571529624000002,-9.802528086400002,1.5426360712,2.46001086,2.4743472,-3.7206893,,,
imu,192.67595,-0.8709104768000001,-9.812098531200002,1.561178808,2.29551884,2.21265535,-3.46647436,,,
imu,192.684464,-0.8792846160000001,-9.803126239200001,1.5623751136,2.22074974,2.07807097,-3.25712088,,,
imu,192.692978,-0.8667234072000001,-9.825856045600002,1.5569917384,2.25065738,2.00330187,-2.76364482,,,
imu,192.701493,-0.8607418792,-9.835426490400001,1.543234224,2.15345755,2.07807097,-2.41970696,,,
imu,192.710007,-0.8625363376,-9.819276364800002,1.549215752,1.9665348,2.13040934,-2.38232241,,,
imu,192.718522,-0.8595455736000001,-9.820472670400001,1.5749363224,1.68241222,1.96591732,-2.53186061,,,
imu,192.727036,-0.8625363376,-9.8144911424,1.5647677248,1.42819728,1.86124058,-2.77112173,,,
imu,192.735551,-0.8619381848000001,-9.810304072800001,1.5689547944,1.21136689,1.77899457,-2.90570611,,,
imu,192.744065,-0.8655271016000001,-9.8043225448,1.5785252392,1.09173633,1.83133294,-3.01038285,,,
imu,192.752579,-0.8804809216,-9.7995373224,1.5916846008,0.9272443100000001,1.92853277,-3.04029049,,,
imu,192.761094,-0.8589474208000002,-9.786377960800001,1.579123392,0.85995212,2.10797861,-3.01785976,,,
imu,192.769608,-0.8607418792,-9.762451848800001,1.5928809064,0.8674290299999999,2.18274771,-2.95804448,,,
imu,192.778123,-0.8493769760000001,-9.760059237600002,1.6018531984,0.82256757,2.36219355,-2.96552139,,,
imu,192.786528,-0.8302360864000001,-9.773218599200002,1.606040268,0.8375213899999999,2.3995781,-3.09262886,,,
imu,192.794933,-0.8206656416,-9.773218599200002,1.6156107128,0.9347212199999999,2.37714737,-3.30945925,,,
imu,192.803338,-0.8170767248000002,-9.7504887928,1.612021796,1.09173633,2.42200883,-3.53376655,,,
imu,192.811743,-0.8081044328000001,-9.7492924872,1.6102273376,1.06182869,2.20517844,-3.87770441,,,
imu,192.820148,-0.8398065312,-9.7636481544,1.6233866992,1.06182869,2.1005017,-3.90013514,,,
imu,192.828553,-0.8439936008000001,-9.779798280000001,1.626975616,1.18145925,2.10797861,-3.62348947,,,
imu,192.836958,-0.8374139200000001,-9.787574266400002,1.6132181016,1.33099745,2.12293243,-3.23469015,,,
imu,192.845363,-0.8481806704000001,-9.780396432800002,1.6144144072,1.368382,2.16779389,-3.20478251,,,
imu,192.853768,-0.8439936008000001,-9.769031529600001,1.6174051712,1.45810492,2.12293243,-3.22721324,,,
imu,192.862173,-0.8368157672000002,-9.773816752000002,1.6018531984,1.64502767,2.1752708,-3.21225942,,,
imu,192.870578,-0.8218619472,-9.759461084800002,1.5964698232,1.67493531,2.20517844,-3.3468438,,,
imu,192.878983,-0.8212637944000001,-9.7534795568,1.5922827536,1.73475059,2.09302479,-3.42908981,,,
imu,192.887388,-0.8296379336000002,-9.736731278400002,1.5916846008,1.69736604,2.01825569,-3.5711511,,,
imu,192.895793,-0.8457880592000001,-9.7265626808,1.591086448,1.67493531,2.04068642,-3.63096638,,,
imu,192.904198,-0.8463862120000001,-9.711608860800002,1.5922827536,1.89924261,2.13788625,-3.5711511,,,
imu,192.912603,-0.8571529624000002,-9.7510869456,1.5504120576,1.84690424,2.22013226,-3.66087402,,,
imu,192.921008,-0.8535640456000001,-9.7540777096,1.5677584888,1.89924261,2.37714737,-3.58610492,,,
imu,192.929413,-0.8493769760000001,-9.759461084800002,1.5767307808,1.89924261,2.51920866,-3.53376655,,,
imu,192.937818,-0.8332268504000001,-9.7786019744,1.5785252392,1.8169966,2.63136231,-3.60105874,,,
imu,192.946224,-0.8218619472,-9.800733628000001,1.5593843496,1.82447351,2.63883922,-3.66087402,,,
imu,192.954629,-0.8278434752000001,-9.7989391696,1.5737400168,1.93662716,2.71360832,-3.81041222,,,
imu,192.963034,-0.8116933496000001,-9.801929933600002,1.5647677248,1.83942733,2.67622377,-3.77302767,,,
imu,192.971439,-0.8182730304000002,-9.7911631832,1.5593843496,1.68988913,2.53416248,-3.92256587,,,
imu,192.979844,-0.8218619472,-9.801929933600002,1.5629732664,1.68241222,2.48182411,-3.83284295,,,
imu,192.988661,-0.8170767248000002,-9.809107767200002,1.558188044,1.57773548,2.38462428,-3.92256587,,,
imu,192.997478,-0.8278434752000001,-9.798341016800002,1.5707492528,1.30856672,2.38462428,-3.93751969,,,
imu,193.006295,-0.8290397808000001,-9.8049206976,1.5599825024,1.36090509,2.40705501,-3.84031986,,,
imu,193.015111,-0.8212637944000001,-9.802528086400002,1.5635714192,1.40576655,2.45939338,-3.85527368,,,
imu,193.023928,-0.8170767248000002,-9.8132948368,1.5599825024,1.40576655,2.49677793,-3.86275059,,,
imu,193.032745,-0.8242545584000001,-9.808509614400002,1.5540009744,1.56278166,2.5491163,-3.63844329,,,
imu,193.041562,-0.8021229048,-9.800733628000001,1.5653658776,1.43567419,2.5491163,-3.63096638,,,
imu,193.050379,-0.7859727792000001,-9.8013317808,1.5647677248,1.41324346,2.42948574,-3.86275059,,,
imu,193.059196,-0.7901598488000001,-9.801929933600002,1.5545991272,1.34595127,2.38462428,-3.7954584,,,
imu,193.068013,-0.7811875568000001,-9.801929933600002,1.5623751136,1.40576655,2.29490136,-3.80293531,,,
imu,193.07683,-0.7775986400000001,-9.7989391696,1.5540009744,1.15902852,2.04816333,-4.10948862,,,
imu,193.085647,-0.7961413768000002,-9.800733628000001,1.5498139048,1.12912088,1.98834805,-4.19921154,,,
imu,193.094464,-0.7925524600000001,-9.7714241408,1.567160336,1.02444414,1.77151766,-4.29641137,,,
imu,193.103281,-0.8027210576,-9.801929933600002,1.5067469032,0.8749059399999999,1.56964109,-4.40108811,,,
imu,193.112098,-0.8027210576,-9.7923594888,1.5127284312,0.9945364999999999,1.53973345,-4.28145755,,,
imu,193.120915,-0.7997302936000001,-9.776209363200001,1.5294767096,0.9347212199999999,1.48739508,-4.341272829999999,,,
imu,193.129731,-0.7955432240000001,-9.788770572,1.5276822512,1.00201341,1.45748744,-4.41604193,,,
imu,193.138548,-0.8194693360000002,-9.8061170032,1.5264859456,1.00949032,1.27056469,-4.58801086,,,
imu,193.147365,-0.8218619472,-9.8228652816,1.519308112,0.9197674,1.11354958,-4.7674567,,,
imu,193.156182,-0.8296379336000002,-9.822267128800002,1.5264859456,0.9571519499999999,1.09111885,-4.80484125,,,
imu,193.164999,-0.8427972952,-9.815089295200002,1.5139247368,0.8524752099999999,1.03130357,-4.84970271,,,
imu,193.173816,-0.8410028368000001,-9.8270523512,1.5228970288,0.8973366700000001,1.19579559,-4.53567249,,,
imu,193.182633,-0.8332268504000001,-9.8270523512,1.5486175992,0.79265993,1.26308778,-4.41604193,,,
imu,193.191107,-0.8481806704000001,-9.811500378400002,1.5534028216,0.53844499,1.11354958,-4.146873169999999,,,
imu,193.19958,-0.8499751288000001,-9.8013317808,1.5755344752,0.23189168,0.9341037399999998,-4.20668845,,,
imu,193.208054,-0.8421991424,-9.7815927384,1.567160336,0.0001074699999999984,0.7322271699999998,-4.37118047,,,
imu,193.216528,-0.8691160184000001,-9.7989391696,1.5845067672,0.05992275,0.72475026,-4.66277996,,,
imu,193.225002,-0.8930421304000001,-9.803126239200001,1.5845067672,-0.04475399000000001,0.6499811599999998,-4.75250288,,,
imu,193.233475,-0.9181645480000001,-9.8043225448,1.5982642816,-0.17186146,0.64250425,-4.61044159,,,
imu,193.241949,-0.9313239096000001,-9.7923594888,1.6006568928,-0.19429219,0.8294269999999999,-4.52071867,,,
imu,193.250423,-0.9654186192,-9.783387196800001,1.5928809064,-0.11204618,0.9714882899999999,-4.37118047,,,
imu,193.258896,-0.9654186192,-9.7815927384,1.597067976,0.06739966,1.21074941,-3.93004278,,,
imu,193.26737,-0.9564463272000002,-9.776209363200001,1.6018531984,0.19450713,1.5023489,-3.75807385,,,
imu,193.275844,-0.9379035904000002,-9.7534795568,1.6036476568,0.35152224,1.75656384,-3.68330475,,,
imu,193.284318,-0.9020144224000001,-9.7474980288,1.5892919896,0.52349117,1.80890221,-3.70573548,,,
imu,193.292791,-0.8828735328,-9.731347903200001,1.5845067672,0.59078336,1.91357895,-3.81788913,,,
imu,193.301265,-0.8505732816000001,-9.718188541600002,1.5886938368,0.7702292,1.95844041,-3.91508896,,,
imu,193.309739,-0.8475825176000001,-9.711010708000002,1.5785252392,0.8375213899999999,1.77151766,-4.124442439999999,,,
imu,193.318212,-0.8583492680000002,-9.709216249600003,1.5719455584,0.81509066,1.61450255,-4.25154991,,,
imu,193.326686,-0.8637326432000001,-9.687084596000002,1.5857030728,0.70293701,1.34533379,-4.22911918,,,
imu,191.95619,,,,,,,79.4810684,-38.27570600000001,136.0797768
imu,192.057722,,,,,,,79.55431159999999,-38.15363400000003,135.9210832
imu,192.159284,,,,,,,79.84728439999999,-38.58088600000003,135.8966688
imu,192.260816,,,,,,,79.7130052,-37.86066120000002,135.4572096
imu,192.36244,,,,,,,81.8248508,-39.20345320000001,134.4562192
imu,192.464124,,,,,,,79.49327559999999,-38.49543560000001,134.8956784
imu,192.565565,,,,,,,81.83705800000001,-39.8260204,132.7105896
imu,192.667097,,,,,,,78.63877159999998,-38.8372372,135.5182456
imu,193.33516,-0.8589474208000002,-9.689477207200001,1.582114156,0.7702292,1.37524143,-4.13939626,,,
imu,193.343634,-0.8721067824000002,-9.6912716656,1.6042458096,0.8375213899999999,1.31542615,-4.124442439999999,,,
imu,193.352107,-0.8649289488,-9.706225485600001,1.5976661288,1.09921324,1.2032725,-4.04219643,,,
imu,193.360581,-0.8595455736000001,-9.7492924872,1.58510492,1.24875144,1.21822632,-3.82536604,,,
imu,193.369055,-0.8679197128000001,-9.745703570400002,1.5964698232,1.368382,1.15093413,-3.81041222,,,
imu,193.377528,-0.8583492680000002,-9.7702278352,1.6048439624,1.36090509,1.19579559,-3.81788913,,,
imu,193.386002,-0.8589474208000002,-9.802528086400002,1.5898901424,1.39081273,1.17336486,-3.69078166,,,
imu,193.394499,-0.8816772272000001,-9.8049206976,1.5952735176,1.42072037,0.9789651999999998,-3.80293531,,,
imu,193.402995,-0.8816772272000001,-9.806715156000001,1.6042458096,1.25622835,0.9789651999999998,-3.90761205,,,
imu,193.411492,-0.8960328944000001,-9.808509614400002,1.588095684,1.25622835,1.06121121,-3.7954584,,,
imu,193.419989,-0.8942384360000002,-9.8049206976,1.5863012256,1.02444414,1.04625739,-3.80293531,,,
imu,193.428485,-0.8882569080000001,-9.792957641600001,1.5976661288,0.8973366700000001,1.24065705,-3.78050458,,,
imu,193.436982,-0.8786864632000002,-9.789368724800001,1.6108254904,0.8375213899999999,1.15841104,-3.76555076,,,
imu,193.445478,-0.8804809216,-9.785181655200002,1.6197977824,0.82256757,1.22570323,-3.9449966,,,
imu,193.453975,-0.9026125752,-9.776209363200001,1.6078347264,1.03192105,1.26308778,-4.17678081,,,
imu,193.462472,-0.9139774784000001,-9.76484446,1.606040268,0.7702292,1.23318014,-4.37118047,,,
imu,193.470968,-0.8906495192000001,-9.737329431200001,1.6108254904,0.8449983,1.23318014,-4.44594957,,,
imu,193.479465,-0.9229497704,-9.7474980288,1.6227885464,1.00201341,1.12102649,-4.61044159,,,
imu,193.487961,-0.9349128264000002,-9.7474980288,1.6221903936,1.12912088,1.34533379,-4.10948862,,,
imu,193.496458,-0.9247442288000001,-9.763050001600002,1.60005874,1.18893616,1.54721036,-3.69825857,,,
imu,193.504955,-0.9247442288000001,-9.748694334400001,1.5904882952,1.25622835,1.68927165,-3.35432071,,,
imu,193.513451,-0.8984255056000002,-9.7474980288,1.5874975312,1.37585891,1.70422547,-3.1225365,,,
imu,193.521948,-0.8703123240000001,-9.7474980288,1.573141864,1.67493531,1.92853277,-2.9729983,,,
imu,193.530444,-0.8296379336000002,-9.7283571392,1.5659640304,1.78708896,1.8761944,-3.03281358,,,
imu,193.538941,-0.8140859608000002,-9.7403201952,1.5563935856,1.79456587,1.60702564,-3.30198234,,,
imu,193.547438,-0.8110951968000001,-9.773816752000002,1.5007653752,1.95158098,1.4275798,-3.51881273,,,
imu,193.555934,-0.8063099744000001,-9.754675862400001,1.5211025704,1.92167334,1.23318014,-3.54872037,,,
imu,193.564431,-0.8272453224,-9.752283251200002,1.5390471544,1.8917657,1.0537343,-3.6459202,,,
imu,193.572927,-0.8344231560000002,-9.800733628000001,1.52528964,1.84690424,0.9939190199999999,-3.67582784,,,
imu,193.581424,-0.8463862120000001,-9.8043225448,1.5187099592,1.69736604,0.8593346399999997,-3.7206893,,,
imu,193.589921,-0.8577511152000001,-9.805518850400002,1.534261932,1.42819728,0.8369039099999998,-3.83284295,,,
imu,193.598355,-0.8625363376,-9.8049206976,1.5288785568,1.39828964,0.8892422799999999,-3.77302767,,,
imu,193.606834,-0.8798827688,-9.802528086400002,1.5300748624,1.03192105,0.9341037399999998,-3.91508896,,,
imu,193.615268,-0.8972292000000002,-9.803126239200001,1.5246914872,0.8375213899999999,0.9714882899999999,-4.0197657,,,
imu,193.623703,-0.9103885616000001,-9.802528086400002,1.528280404,0.7253677399999999,1.03878048,-4.08705789,,,
imu,193.632137,-0.9163700896000002,-9.806715156000001,1.528280404,0.78518302,1.19579559,-4.08705789,,,
imu,193.640571,-0.9373054376000002,-9.801929933600002,1.5366545432,0.70293701,1.24813396,-4.124442439999999,,,
imu,193.649005,-0.9151737840000002,-9.8013317808,1.5486175992,0.60573718,1.43505671,-4.15435008,,,
imu,193.65744,-0.9331183680000001,-9.812696684000002,1.5228970288,0.6281679099999999,1.58459491,-4.02724261,,,
imu,193.665874,-0.9271368400000001,-9.811500378400002,1.5318693208,0.56087572,1.68927165,-3.9449966,,,
imu,193.674308,-0.9223516176000001,-9.820472670400001,1.549215752,0.67302937,1.77151766,-3.84031986,,,
imu,193.682743,-0.9103885616000001,-9.803126239200001,1.5617769608,0.63564482,1.92853277,-3.69825857,,,
imu,193.691177,-0.9008181168,-9.802528086400002,1.5450286824,0.3216146,1.98087114,-3.7954584,,,
imu,193.699611,-0.8846679912000001,-9.801929933600002,1.549215752,0.36647606,2.05564024,-3.77302767,,,
imu,193.708046,-0.8750975464000001,-9.7821908912,1.5635714192,0.35899915,2.03320951,-3.68330475,,,
imu,193.71648,-0.8727049352000001,-9.7612555432,1.564169572,0.21693786,1.96591732,-3.62348947,,,
imu,193.724914,-0.8768920048000002,-9.744507264800001,1.5623751136,0.38142988,1.89862513,-3.46647436,,,
imu,193.733348,-0.88227538,-9.7361331256,1.564169572,0.34404533,1.7266562,-3.54872037,,,
imu,193.741783,-0.88227538,-9.7403201952,1.5617769608,0.36647606,1.7266562,-3.67582784,,,
imu,193.750217,-0.8936402832000001,-9.731347903200001,1.5587861968,0.4711528,1.55468727,-3.68330475,,,
imu,193.758651,-0.8930421304000001,-9.717590388800001,1.5569917384,0.68050628,1.65936401,-3.5711511,,,
imu,193.767086,-0.8960328944000001,-9.727758986400001,1.5587861968,0.85995212,1.74908693,-3.42908981,,,
imu,193.77552,-0.9163700896000002,-9.727758986400001,1.55519728,0.8375213899999999,1.60702564,-3.47395127,,,
imu,193.783954,-0.9450814240000001,-9.7504887928,1.5737400168,1.01696723,1.6518871,-3.50385891,,,
imu,193.792388,-0.9247442288000001,-9.782789044000001,1.5689547944,1.24127453,1.68927165,-3.55619728,,,
imu,193.800848,-0.9103885616000001,-9.782789044000001,1.5426360712,1.17398234,1.78647148,-3.59358183,,,
imu,193.809308,-0.9097904088000002,-9.796546558400001,1.537252696,1.15902852,1.92853277,-3.69825857,,,
imu,193.817768,-0.903210728,-9.802528086400002,1.5426360712,1.1440747,1.89114822,-3.496382,,,
imu,193.826227,-0.8936402832000001,-9.801929933600002,1.5647677248,1.09173633,1.82385603,-3.31693616,,,
imu,193.834687,-0.88227538,-9.801929933600002,1.5701511,0.94219813,1.86871749,-3.36927453,,,
imu,193.843147,-0.8906495192000001,-9.797742864000002,1.5964698232,0.88985976,1.77151766,-3.54872037,,,
imu,193.851607,-0.9109867144000001,-9.807313308800001,1.5904882952,0.73284465,1.6518871,-3.72816621,,,
imu,193.860066,-0.9402962016,-9.836024643200002,1.5755344752,0.77770611,1.54721036,-3.90013514,,,
imu,193.868526,-0.9486703408000001,-9.797144711200001,1.5934790592,0.3739529699999999,1.48739508,-3.77302767,,,
imu,193.876986,-0.9420906600000001,-9.766638918400002,1.6042458096,0.18703022,1.60702564,-3.53376655,,,
imu,193.885445,-0.9666149248000001,-9.762451848800001,1.5988624344,0.31413769,2.01077878,-3.06272122,,,
imu,193.893905,-0.9402962016,-9.7636481544,1.6138162544,0.40386061,2.324809,-2.47952224,,,
imu,193.902365,-0.9085941032000001,-9.766638918400002,1.6084328792,0.52349117,2.49677793,-2.31503022,,,
imu,193.910825,-0.8828735328,-9.8013317808,1.5707492528,0.65059864,2.5491163,-2.34493786,,,
imu,193.919284,-0.8421991424,-9.696655040800001,1.6365460608,0.56835263,2.69117759,-2.25521494,,,
imu,193.927744,-0.8134878080000001,-9.6817012208,1.6401349776,0.85995212,2.66874686,-2.18044584,,,
imu,193.936204,-0.7692245008,-9.752881404000002,1.5695529472,1.20388998,2.42948574,-2.39727623,,,
imu,193.944664,-0.7835801680000001,-9.7128051664,1.5898901424,1.19641307,2.22760917,-2.65896808,,,
imu,193.953123,-0.8236564056000001,-9.745703570400002,1.5647677248,1.39828964,2.04816333,-2.87579847,,,
imu,193.961583,-0.7937487656000001,-9.746899876,1.564169572,1.45062801,2.09302479,-2.80850628,,,
imu,193.970043,-0.8063099744000001,-9.7163940832,1.6024513512,1.30856672,1.71917929,-2.76364482,,,
imu,193.978502,-0.8015247520000001,-9.743310959200002,1.567160336,1.33847436,1.58459491,-3.08515195,,,
imu,193.986962,-0.8236564056000001,-9.722375611200002,1.5797215448,1.45810492,1.60702564,-3.10758268,,,
imu,193.995422,-0.8134878080000001,-9.768433376800001,1.5677584888,1.61512003,1.75656384,-3.03281358,,,
imu,194.00424,-0.8104970440000001,-9.773218599200002,1.5504120576,1.86185806,1.73413311,-3.07019813,,,
imu,194.013058,-0.8230582528,-9.764246307200002,1.5605806552,1.95158098,1.75656384,-3.04029049,,,
imu,194.021877,-0.8236564056000001,-9.766040765600001,1.5593843496,2.02635008,1.74908693,-3.17487487,,,
imu,194.030695,-0.8027210576,-9.755872168000002,1.5599825024,1.84690424,1.68179474,-3.45899745,,,
imu,194.039513,-0.7913561544000001,-9.7534795568,1.5743381696,1.99644244,1.62197946,-3.56367419,,,
imu,194.048331,-0.7925524600000001,-9.7953502528,1.5348600848,2.01887317,1.5023489,-3.78050458,,,
imu,194.05715,-0.7841783208,-9.802528086400002,1.516317348,2.01139626,1.47991817,-3.8702275,,,
imu,194.065968,-0.7722152648000001,-9.787574266400002,1.5396453072,2.00391935,1.52477963,-3.95247351,,,
imu,194.074786,-0.7548688336000001,-9.7911631832,1.5294767096,2.14598064,1.6518871,-4.07210407,,,
imu,194.083604,-0.7423076248,-9.802528086400002,1.5276822512,2.18336519,1.62197946,-3.9449966,,,
imu,194.092423,-0.7315408744,-9.80970592,1.5545991272,2.07121154,1.40514907,-4.06462716,,,
imu,194.101241,-0.7339334856000002,-9.8461932408,1.5414397656,2.04878081,1.03878048,-4.430995749999999,,,
imu,194.110059,-0.7566632920000002,-9.8593526024,1.5288785568,1.83942733,0.7322271699999998,-4.81979507,,,
imu,194.118877,-0.771617112,-9.83961356,1.5181118064,1.60016621,0.3434278499999999,-5.09644074,,,
imu,194.127696,-0.7829820152,-9.837220948800002,1.5264859456,1.34595127,0.09668981999999993,-5.32074804,,,
imu,194.136514,-0.8110951968000001,-9.835426490400001,1.528280404,1.17398234,0.2088434699999997,-4.991764,,,
imu,194.145332,-0.8272453224,-9.856959991200002,1.5205044176,1.2188438,0.3434278499999999,-4.43847266,,,
imu,192.768695,,,,,,,78.480078,-38.97151640000001,134.8956784
imu,192.870257,,,,,,,78.2603484,-38.71516520000002,134.9078856
imu,192.97185,,,,,,,78.4922852,-39.03255240000001,134.8224352
imu,193.073382,,,,,,,78.0772404,-38.82503000000001,135.0909936
imu,193.174945,,,,,,,78.9927804,-39.11800280000002,134.3097328
imu,193.276507,,,,,,,78.2603484,-38.92268760000002,134.7613992
imu,193.378039,,,,,,,80.9459324,-39.63070520000001,134.0900032
imu,193.479693,,,,,,,78.1871052,-39.27669640000002,134.8224352
imu,194.154151,-0.8116933496000001,-9.847389546400002,1.5187099592,1.00201341,0.4481045899999998,-4.0945348,,,
imu,194.162969,-0.7961413768000002,-9.818678212000002,1.516317348,0.94219813,0.3284740299999998,-3.84779677,,,
imu,194.171787,-0.7997302936000001,-9.803724392000001,1.5067469032,0.9347212199999999,0.29856639,-3.91508896,,,
imu,194.180605,-0.7847764736,-9.812098531200002,1.4941856944,0.8449983,0.01444380999999995,-3.98985806,,,
imu,194.189424,-0.7835801680000001,-9.803126239200001,1.5061487504,0.9571519499999999,-0.03789456000000024,-4.21416536,,,
imu,194.198242,-0.7955432240000001,-9.802528086400002,1.5007653752,0.8524752099999999,-0.2771556799999999,-4.42351884,,,
imu,194.206752,-0.8069081272,-9.7923594888,1.4876060136,0.8749059399999999,-0.5089398900000002,-4.67773378,,,
imu,194.215263,-0.840404684,-9.8013317808,1.489400472,0.8375213899999999,-0.6435242699999999,-4.73007215,,,
imu,194.223774,-0.8535640456000001,-9.791761336000002,1.486409708,0.8973366700000001,-0.7930624700000002,-5.00671782,,,
imu,194.232284,-0.8589474208000002,-9.785779808000001,1.4911949304,0.8375213899999999,-0.9201699400000001,-5.20859439,,,
imu,194.240795,-0.8541621984000002,-9.801929933600002,1.4929893888,0.8749059399999999,-0.8528777500000002,-5.25345585,,,
imu,194.249305,-0.8344231560000002,-9.7911631832,1.5169155008,0.94219813,-0.8902623000000003,-5.20111748,,,
imu,194.257816,-0.8374139200000001,-9.797144711200001,1.4780355688,0.9197674,-0.8678315700000003,-5.11887147,,,
imu,194.266326,-0.8081044328000001,-9.7959484056,1.46547436,0.9571519499999999,-1.08466196,-5.16373293,,,
imu,194.274837,-0.7500836112000001,-9.7534795568,1.4941856944,0.8973366700000001,-1.52579965,-5.26840967,,,
imu,194.283348,-0.6711274416,-9.762451848800001,1.4690632768,1.12164397,-1.98936807,-5.17120984,,,
imu,194.291858,-0.6077232448000001,-9.719983000000001,1.4618854432,1.00949032,-2.79687435,-5.283363489999999,,,
imu,194.300369,-0.5126169496,-9.7151977776,1.489400472,1.21136689,-4.04551832,-5.216071299999999,,,
imu,194.308879,-0.4737370176,-9.749890640000002,1.5258877928,1.39081273,-5.443700489999999,-5.12634838,,,
imu,194.31739,-0.5526931872,-9.796546558400001,1.5276822512,1.39081273,-7.133482150000001,-5.08896383,,,
imu,194.325901,-0.61310662,-9.815687448000002,1.52528964,1.40576655,-8.60643342,-4.692687599999999,,,
imu,194.334411,-0.6615569968000001,-9.844398782400003,1.5504120576,1.18145925,-9.55600099,-4.06462716,,,
imu,194.342922,-0.7339334856000002,-9.8593526024,1.567160336,0.85995212,-10.40836873,-3.63096638,,,
imu,194.351432,-0.8069081272,-9.875502728,1.5659640304,0.3739529699999999,-11.02895226,-3.13749032,,,
imu,194.359943,-0.86732156,-9.859950755200002,1.564169572,-0.08213854000000001,-11.40279776,-2.65149117,,,
imu,194.368454,-0.9313239096000001,-9.844398782400003,1.5605806552,-0.54570696,-11.48504377,-2.25521494,,,
imu,194.376964,-0.9678112304000002,-9.822267128800002,1.5534028216,-0.874691,-11.37289012,-1.91875399,,,
imu,194.385475,-0.9929336480000002,-9.803724392000001,1.5617769608,-1.1737674,-11.32055175,-1.93370781,,,
imu,194.393985,-1.022841288,-9.8013317808,1.5749363224,-1.14385976,-11.10372136,-1.88884635,,,
imu,194.402496,-1.0246357464,-9.7744149048,1.5755344752,-1.06909066,-10.70744513,-2.02343073,,,
imu,194.410962,-1.0389914136,-9.748694334400001,1.5779270864,-1.08404448,-10.20649216,-2.14306129,,,
imu,194.419428,-1.0395895664,-9.7474980288,1.5815160032,-0.89712173,-9.76535447,-2.16549202,,,
imu,194.427894,-1.0401877192,-9.7427128064,1.6036476568,-0.60552224,-9.27935532,-2.38979932,,,
imu,194.43636,-1.0551415392,-9.7337405144,1.5976661288,-0.50832241,-8.815786899999999,-2.48699915,,,
imu,194.444826,-1.0659082896,-9.734936820000001,1.61501256,-0.47093786,-8.24006483,-2.68139881,,,
imu,194.453292,-1.0581323032,-9.727160833600001,1.618003324,-0.36626112,-7.724158040000001,-2.92813684,,,
imu,194.461759,-1.040785872,-9.6912716656,1.6006568928,-0.18681528,-7.170866699999999,-3.28702852,,,
imu,194.470225,-1.043776636,-9.6817012208,1.5922827536,-0.13447691,-6.647482999999999,-3.56367419,,,
imu,194.478691,-1.0252338992,-9.6745233872,1.5976661288,-0.02980017,-6.13905312,-3.58610492,,,
imu,194.487157,-1.0060930096,-9.673925234400002,1.5868993784,0.08235347999999998,-5.645577060000001,-3.78050458,,,
imu,194.495623,-0.9881484256000002,-9.66016772,1.588095684,0.44872207,-5.28668538,-4.15435008,,,
imu,194.504089,-1.007887468,-9.6745233872,1.5803196976,0.58330645,-5.10723954,-4.67773378,,,
imu,194.512555,-1.0234394408,-9.709216249600003,1.5839086144,0.9347212199999999,-4.80816314,-5.0665331,,,
imu,194.521021,-1.0449729416,-9.722375611200002,1.5797215448,1.02444414,-4.53899438,-5.40299405,,,
imu,194.529487,-1.0623193728,-9.734338667200001,1.5779270864,1.12912088,-4.06047214,-5.58243989,,,
imu,194.537953,-1.0748805816,-9.754675862400001,1.5719455584,1.24127453,-3.62681136,-5.67216281,,,
imu,194.546419,-1.0844510264,-9.7750130576,1.591086448,1.32352054,-2.89407418,-5.4403786,,,
imu,194.554885,-1.0742824288,-9.7995373224,1.5976661288,1.33099745,-2.09404481,-5.12634838,,,
imu,194.563352,-1.0635156784,-9.803126239200001,1.5767307808,1.27118217,-1.286538530000001,-4.7674567,,,
imu,194.571818,-1.019850524,-9.786976113600002,1.5414397656,1.30108981,-0.5164168,-4.57305704,,,
imu,194.580284,-0.980970592,-9.7576666264,1.5384490016,1.03192105,-0.1126636599999999,-4.58053395,,,
imu,194.58875,-0.9385017432000002,-9.740918348000001,1.5228970288,1.12912088,0.1191205499999999,-4.67773378,,,
imu,194.597216,-0.900219964,-9.737329431200001,1.5217007232,1.10669015,0.3060432999999998,-4.931948719999999,,,
imu,194.605682,-0.8966310472000002,-9.734936820000001,1.4971764584,1.36090509,0.2537049300000001,-5.08148692,,,
imu,194.61411,-0.9157719368000001,-9.740918348000001,1.5007653752,1.40576655,0.2013665599999999,-5.2908404,,,
imu,194.622538,-0.9283331456000001,-9.738525736800002,1.4959801528,1.63007385,0.1191205499999999,-5.283363489999999,,,
imu,194.630966,-0.9367072848000002,-9.7504887928,1.492391236,1.63007385,0.06678217999999969,-5.59739371,,,
imu,194.639394,-0.9534555632000001,-9.787574266400002,1.4941856944,1.67493531,0.07425908999999997,-5.612347529999999,,,
imu,194.647822,-0.9743909112000002,-9.802528086400002,1.4935875416,1.6674584,-0.04537147000000008,-5.68711663,,,
imu,194.65625,-0.9642223136000001,-9.803724392000001,1.489400472,1.68241222,-0.1201405700000002,-5.45533242,,,
imu,194.664678,-0.9624278552000001,-9.803126239200001,1.4929893888,1.63007385,-0.02294074000000013,-5.238502029999999,,,
imu,194.673105,-0.9875502728000001,-9.803126239200001,1.4899986248,1.63007385,-0.0005100100000001717,-5.11139456,,,
imu,194.681533,-0.9911391896000001,-9.803724392000001,1.4959801528,1.49548947,0.04435144999999974,-4.976810179999999,,,
imu,194.689961,-1.0084856208,-9.8061170032,1.501363528,1.25622835,0.02939763000000006,-4.96933327,,,
imu,194.698315,-1.03181358,-9.803126239200001,1.5217007232,1.2936129,0.01444380999999995,-4.9169949,,,
imu,194.706743,-1.058730456,-9.8061170032,1.516317348,1.09173633,-0.03789456000000024,-5.044102369999999,,,
imu,194.715171,-1.0718898176,-9.793555794400001,1.5175136536,0.91229049,0.13407437,-4.89456417,,,
imu,194.723598,-1.088638096,-9.794153947200002,1.5234951816,0.7552753799999999,0.2237972899999998,-4.8422258,,,
imu,194.732026,-1.0802639568,-9.7911631832,1.5300748624,0.7403215599999999,0.5378275100000001,-4.75250288,,,
imu,194.740454,-1.1053863744,-9.780396432800002,1.5563935856,0.57582954,0.7696117199999999,-4.625395409999999,,,
imu,194.748882,-1.112564208,-9.779798280000001,1.5773289336,0.44872207,0.8817653699999997,-4.737549059999999,,,
imu,194.75731,-1.133499556,-9.7923594888,1.5701511,0.53844499,0.9714882899999999,-4.75250288,,,
imu,194.765738,-1.15144414,-9.7923594888,1.576132628,0.26927623,1.26308778,-4.78241052,,,
imu,194.774166,-1.1490515288,-9.764246307200002,1.5797215448,0.21693786,1.56964109,-4.66277996,,,
imu,194.782594,-1.1580238208,-9.763050001600002,1.594077212,0.15712258,1.71917929,-4.75250288,,,
imu,194.791022,-1.1699868768,-9.7702278352,1.606040268,0.23189168,2.15284007,-4.453426479999999,,,
imu,194.79945,-1.157425668,-9.762451848800001,1.6042458096,0.23189168,2.58650085,-4.10948862,,,
imu,194.807878,-1.157425668,-9.751685098400001,1.6054421152,0.42629134,2.82576197,-3.80293531,,,
imu,194.816343,-1.1478552232,-9.7403201952,1.6072365736,0.5982602699999999,3.22951511,-3.45899745,,,
imu,194.824808,-1.1382847784,-9.714001472000001,1.6455183528,0.7702292,3.4463455,-3.1973056,,,
imu,194.833272,-1.103591916,-9.721179305600002,1.6018531984,0.9945364999999999,3.60336061,-3.08515195,,,
imu,194.841737,-1.0958159296,-9.7331423616,1.5928809064,1.16650543,3.77532954,-2.98795212,,,
imu,194.850202,-1.0994048464,-9.682299373600001,1.6186014768,1.20388998,4.02954448,-2.86084465,,,
imu,194.858667,-1.0850491792,-9.6954587352,1.588095684,1.368382,4.18655959,-2.94309066,,,
imu,194.867132,-1.0784694984,-9.6799067624,1.5857030728,1.45062801,4.15665195,-2.95056757,,,
imu,194.875596,-1.1059845272,-9.686486443200002,1.5384490016,1.61512003,4.23142105,-3.06272122,,,
imu,194.884061,-1.1113679024,-9.708019944000002,1.528280404,1.69736604,4.47068217,-3.03281358,,,
imu,194.892526,-1.1047882216,-9.701440263200002,1.5294767096,1.80951969,4.814620029999999,-2.98795212,,,
imu,194.900991,-1.073684276,-9.718188541600002,1.519308112,1.92167334,5.20341935,-3.17487487,,,
imu,194.909456,-1.0635156784,-9.746301723200002,1.522298876,2.01887317,5.45763429,-3.22721324,,,
imu,194.91792,-1.0425803304,-9.7534795568,1.5001672224,2.01139626,5.592218669999999,-3.496382,,,
imu,194.926385,-1.0090837736,-9.8013317808,1.4929893888,2.17588828,5.6894185,-3.56367419,,,
imu,194.93485,-0.9708019944000001,-9.794752100000002,1.4929893888,2.08616536,5.659510859999999,-3.60853565,,,
imu,194.943315,-0.9337165208000001,-9.794752100000002,1.5091395144,1.90671952,5.547357209999999,-3.75059694,,,
imu,194.95178,-0.9008181168,-9.803126239200001,1.5007653752,1.87681188,5.375388279999999,-3.78050458,,,
imu,194.960245,-0.8601437264,-9.8168837536,1.495382,1.6674584,5.06135806,-3.84779677,,,
imu,193.581225,,,,,,,80.67737399999999,-40.0579572,133.2721208
imu,193.68294,,,,,,,78.27255559999999,-39.20345320000001,135.3839664
imu,193.784381,,,,,,,78.0284116,-38.88606600000002,132.429824
imu,193.885913,,,,,,,78.40683479999998,-39.16683160000001,134.5172552
imu,193.987445,,,,,,,78.51669960000001,-38.86165160000002,134.6515344
imu,194.089007,,,,,,,78.174898,-38.65412920000002,134.0533816
imu,194.19057,,,,,,,78.0772404,-39.08138120000002,134.9689216
imu,194.292132,,,,,,,78.4922852,-39.13021000000001,134.0900032
imu,194.968709,-0.8655271016000001,-9.824659740000001,1.4917930832,1.63007385,4.79966621,-3.83284295,,,
imu,194.977174,-0.8410028368000001,-9.833632032,1.4995690696,1.5179202,4.35852852,-3.74312003,,,
imu,194.985639,-0.8236564056000001,-9.852174768800001,1.4971764584,1.51044329,3.9697292,-3.60105874,,,
imu,194.994104,-0.8332268504000001,-9.842006171200001,1.5007653752,1.35342818,3.49120696,-3.46647436,,,
imu,195.002569,-0.8272453224,-9.847389546400002,1.4905967776,1.18893616,2.94539253,-3.41413599,,,
imu,195.011033,-0.840404684,-9.831239420800001,1.4852134024,1.06182869,2.56407012,-3.24964397,,,
imu,195.019882,-0.8744993936000002,-9.813892989600001,1.4690632768,0.9571519499999999,2.11545552,-3.1225365,,,
imu,195.028731,-0.9271368400000001,-9.812098531200002,1.4852134024,0.9571519499999999,1.92105586,-2.80850628,,,
imu,195.03758,-0.9408943544,-9.824659740000001,1.4750448048,0.76275229,1.96591732,-2.70382954,,,
imu,195.046428,-0.9582407856000001,-9.8432024768,1.471455888,0.64312173,2.1752708,-2.5991528,,,
imu,195.055277,-0.9893447312000001,-9.8270523512,1.4810263328,0.64312173,2.31733209,-2.74121409,,,
imu,195.064126,-0.9833632032,-9.825856045600002,1.4702595824,0.70293701,2.57902394,-2.98047521,,,
imu,195.072975,-0.9953262592000002,-9.821668976000002,1.4708577352,0.59078336,2.65379304,-3.32441307,,,
imu,195.081824,-1.0013077872,-9.8198745176,1.4726521936,0.56835263,2.93791562,-3.62348947,,,
imu,195.090672,-0.9977188704000002,-9.803126239200001,1.4678669712,0.40386061,3.0725,-3.89265823,,,
imu,195.099521,-0.9839613560000001,-9.802528086400002,1.4642780544,0.32909151,3.36409949,-3.99733497,,,
imu,195.10837,-0.9863539672000001,-9.7959484056,1.471455888,0.23936859,3.3715764,-4.16182699,,,
imu,195.117219,-0.9749890640000002,-9.796546558400001,1.4702595824,0.27675314,3.41643786,-4.33379592,,,
imu,195.126067,-0.9588389384,-9.783985349600002,1.4702595824,0.26179932,3.63326825,-4.363703559999999,,,
imu,195.134916,-0.9516611048000001,-9.7953502528,1.4768392632,0.20198404,3.68560662,-4.35622665,,,
imu,195.143765,-0.9396980488000001,-9.803126239200001,1.495382,-0.09709236,3.54354533,-4.13939626,,,
imu,195.152614,-0.9109867144000001,-9.796546558400001,1.5121302784,-0.19429219,3.4463455,-3.90013514,,,
imu,195.161462,-0.8960328944000001,-9.798341016800002,1.5145228896,-0.40364567,3.31923803,-3.66835093,,,
imu,195.170311,-0.8780883104000001,-9.803724392000001,1.5306730152,-0.5756146,3.03511545,-3.54124346,,,
imu,195.17916,-0.8780883104000001,-9.8043225448,1.5540009744,-0.64290679,2.68370068,-3.61601256,,,
imu,195.188009,-0.8828735328,-9.788770572,1.5504120576,-0.8522602699999999,2.26499372,-3.58610492,,,
imu,195.196858,-0.8936402832000001,-9.756470320800002,1.5623751136,-0.85973718,1.8761944,-3.4216129,,,
imu,195.205706,-0.9145756312000002,-9.760059237600002,1.5749363224,-0.8821679099999999,1.71170238,-3.14496723,,,
imu,195.214555,-0.9390998960000001,-9.7786019744,1.5845067672,-0.8672140899999999,1.68927165,-2.84589083,,,
imu,195.223002,-0.9450814240000001,-9.796546558400001,1.5964698232,-0.8672140899999999,1.77899457,-2.35241477,,,
imu,195.231449,-0.9361091320000001,-9.7989391696,1.5982642816,-0.82982954,1.78647148,-2.01595382,,,
imu,195.239896,-0.9337165208000001,-9.8013317808,1.603049504,-0.74758353,1.62945637,-2.05333837,,,
imu,195.248343,-0.9337165208000001,-9.7989391696,1.5982642816,-0.69524516,1.56216418,-2.3000764,,,
imu,195.25679,-0.9169682424000002,-9.801929933600002,1.603049504,-0.59056842,1.53225654,-2.58419898,,,
imu,195.265237,-0.8972292000000002,-9.796546558400001,1.6114236432,-0.82235263,1.37524143,-2.86832156,,,
imu,195.273684,-0.9205571592,-9.777405668800002,1.5994605872,-0.7999219,1.27056469,-3.15244414,,,
imu,195.282131,-0.9235479232000001,-9.746301723200002,1.6036476568,-0.7401066199999999,1.2780416,-3.21225942,,,
imu,195.290578,-0.9355109792000001,-9.7295534448,1.6054421152,-0.74758353,1.21822632,-3.29450543,,,
imu,195.299025,-0.9265386872000001,-9.730749750400001,1.6054421152,-0.68776825,1.09859576,-3.33936689,,,
imu,195.307472,-0.8906495192000001,-9.731347903200001,1.5982642816,-0.54570696,1.21822632,-3.14496723,,,
imu,195.315919,-0.8721067824000002,-9.7074217912,1.6126199488,-0.33635348,1.22570323,-3.04029049,,,
imu,195.324366,-0.8487788232000001,-9.711608860800002,1.603049504,-0.11952309,1.12102649,-2.84589083,,,
imu,195.332813,-0.8320305448000002,-9.690673512800002,1.6168070184,0.02253820000000001,0.9789651999999998,-2.72626027,,,
imu,195.34126,-0.8278434752000001,-9.675121540000001,1.6275737688,0.44872207,0.76213481,-2.56176825,,,
imu,195.349707,-0.8272453224,-9.678112304,1.62996638,0.5010604399999999,0.5153967799999997,-2.60662971,,,
imu,195.358154,-0.8451899064,-9.7074217912,1.6245830048,0.620691,0.06678217999999969,-2.748691,,,
imu,195.366601,-0.8667234072000001,-9.709216249600003,1.6467146584,0.65059864,-0.1126636599999999,-2.90570611,,,
imu,195.375048,-0.885266144,-9.697851346400002,1.6550887976,0.65807555,-0.25472495,-2.98047521,,,
imu,195.383495,-0.8936402832000001,-9.7492924872,1.623984852,0.8674290299999999,-0.3294940500000001,-3.05524431,,,
imu,195.391942,-0.9295294512000001,-9.714001472000001,1.650901728,0.79265993,-0.2622018600000002,-2.92813684,,,
imu,195.400389,-0.9187627008000002,-9.720581152800001,1.6652573952,0.9272443100000001,0.07425908999999997,-2.92065993,,,
imu,195.408836,-0.9091922560000001,-9.724170069600001,1.6544906448,1.11416706,0.1639820099999998,-2.90570611,,,
imu,195.417283,-0.8870606024000001,-9.7403201952,1.6514998808,1.39081273,0.19388965,-3.11505959,,,
imu,195.425746,-0.8661252544000001,-9.719983000000001,1.6365460608,1.67493531,0.1714589200000001,-3.45152054,,,
imu,195.434208,-0.8541621984000002,-9.70502918,1.6413312832,1.68988913,0.1265974599999997,-3.55619728,,,
imu,195.44267,-0.8439936008000001,-9.697253193600002,1.6461165056,1.7422275,-0.06780220000000003,-3.86275059,,,
imu,195.451132,-0.8410028368000001,-9.725964528,1.6347516024,2.13850373,-0.3668786000000002,-3.95247351,,,
imu,195.459595,-0.8110951968000001,-9.7492924872,1.6186014768,2.46748777,-0.4715553400000001,-3.69078166,,,
imu,195.468057,-0.7686263480000001,-9.748694334400001,1.6353497552,2.35533412,-1.02484668,-3.8702275,,,
imu,195.476519,-0.7441020832,-9.738525736800002,1.6233866992,2.36281103,-1.5631842,-4.079580979999999,,,
imu,195.484982,-0.7494854584000001,-9.734936820000001,1.5952735176,2.46748777,-2.34825975,-4.21416536,,,
imu,195.493444,-0.7488873056,-9.703234721600001,1.5725437112,2.50487232,-3.04361238,-4.47585721,,,
imu,195.501906,-0.7393168608000001,-9.661962178400001,1.5635714192,2.96096383,-3.78382647,-4.51324176,,,
imu,195.510368,-0.7530743752000001,-9.668541859200001,1.5677584888,3.37219388,-4.52404056,-4.625395409999999,,,
imu,195.518831,-0.8110951968000001,-9.667345553600002,1.5659640304,3.64883955,-5.39883903,-4.87961035,,,
imu,195.527293,-0.8439936008000001,-9.682897526400001,1.5605806552,4.089977240000001,-6.11662239,-4.931948719999999,,,
imu,195.535755,-0.8774901576000002,-9.754675862400001,1.5886938368,4.55354566,-6.7222521,-4.96185636,,,
imu,195.544217,-0.9385017432000002,-9.803724392000001,1.5958716704,4.47129965,-7.05871305,-4.85717962,,,
imu,195.55268,-1.025832052,-9.858754449600001,1.612021796,4.21708471,-7.27554344,-4.602964679999999,,,
imu,195.561142,-1.0724879704,-9.8581562968,1.5868993784,3.79837775,-7.155912880000001,-4.13191935,,,
imu,195.569604,-1.1269198752,-9.8593526024,1.5635714192,3.37219388,-6.86431339,-3.81041222,,,
imu,195.578067,-1.163407196,-9.83961356,1.5689547944,2.75161035,-6.565236990000001,-3.7206893,,,
imu,195.586529,-1.1771647104,-9.834828337600001,1.5270840984,2.37028794,-6.10914548,-3.57862801,,,
imu,195.594991,-1.205277892,-9.8294449624,1.5091395144,2.05625772,-5.45865431,-3.48890509,,,
imu,195.603453,-1.2148483368,-9.794752100000002,1.51033582,1.76465823,-4.84554769,-3.44404363,,,
imu,195.611916,-1.2315966152,-9.764246307200002,1.5288785568,1.57025857,-4.32216399,-3.61601256,,,
imu,195.620378,-1.2268113928,-9.7612555432,1.5246914872,1.58521239,-3.62681136,-3.63844329,,,
imu,195.628847,-1.2064741976,-9.7504887928,1.5055505976,1.65250458,-3.0585662,-3.61601256,,,
imu,195.637315,-1.2064741976,-9.780396432800002,1.5217007232,1.73475059,-2.31835211,-3.66835093,,,
imu,195.645784,-1.2178391008,-9.772022293600001,1.5157191952,1.67493531,-1.75758386,-3.65339711,,,
imu,195.654252,-1.1735757936,-9.788770572,1.5127284312,1.7422275,-0.8902623000000003,-3.45152054,,,
imu,195.662721,-1.130508792,-9.789966877600001,1.5049524448,1.83195042,0.006966899999999665,-3.07019813,,,
imu,195.67119,-1.0688990536,-9.776209363200001,1.5031579864,1.86185806,0.7172733499999997,-2.748691,,,
imu,195.679658,-1.0102800792,-9.7821908912,1.495382,1.91419643,0.9341037399999998,-2.53933752,,,
imu,195.688127,-0.9618297024000001,-9.7911631832,1.495382,1.94410407,1.1285034,-2.46456842,,,
imu,195.696596,-0.9522592576000002,-9.788770572,1.4905967776,1.84690424,1.21822632,-2.39727623,,,
imu,195.705064,-0.9187627008000002,-9.800135475200001,1.4858115552,1.7422275,1.32290306,-2.1505382,,,
imu,195.713533,-0.9229497704,-9.802528086400002,1.4690632768,1.82447351,1.3528107,-2.08324601,,,
imu,195.722001,-0.9079959504000001,-9.818678212000002,1.4666706656,1.60764312,1.18084177,-2.17296893,,,
imu,195.73047,-0.9163700896000002,-9.83961356,1.4600909848,1.52539711,1.28551851,-2.18792275,,,
imu,195.738939,-0.9289312984000001,-9.828846809600002,1.4792318744,1.50296638,1.24065705,-2.21783039,,,
imu,195.747407,-0.9217534648000001,-9.85456738,1.4618854432,1.38333582,1.37524143,-2.27764567,,,
imu,195.755876,-0.9486703408000001,-9.857558144000002,1.4427445536,1.18145925,1.47244126,-2.33746095,,,
imu,195.764345,-0.9588389384,-9.831837573600001,1.4648762072,1.10669015,1.69674856,-2.4496146,,,
imu,195.772813,-0.9755872168000002,-9.818678212000002,1.4702595824,0.7552753799999999,1.83133294,-2.71878336,,,
imu,195.781282,-0.9510629520000001,-9.805518850400002,1.4648762072,0.7552753799999999,2.12293243,-2.9729983,,,
imu,194.393826,,,,,,,78.6998076,-39.66732680000003,135.4694168
imu,194.496578,,,,,,,82.630526,-40.16782200000002,135.0909936
imu,194.596951,,,,,,,80.3477796,-39.08138120000002,135.7379752
imu,194.698513,,,,,,,83.4484084,-40.41196600000001,133.7359944
imu,194.800106,,,,,,,80.61633800000001,-39.97250680000002,136.4093712
imu,194.901791,,,,,,,81.287734,-40.90025400000001,133.8580664
imu,195.003201,,,,,,,80.77503159999999,-40.04575000000001,135.908876
imu,195.104794,,,,,,,80.2012932,-39.45980440000001,135.3229304
imu,195.789895,-0.9791761336000001,-9.8079114616,1.441548248,0.88985976,2.53416248,-2.90570611,,,
imu,195.798364,-0.9666149248000001,-9.807313308800001,1.462483596,0.9048135799999999,2.90053107,-2.83841392,,,
imu,195.806832,-0.9510629520000001,-9.803126239200001,1.4780355688,0.9048135799999999,3.31923803,-2.90570611,,,
imu,195.815301,-0.9534555632000001,-9.762451848800001,1.5025598336,0.94219813,3.66317589,-2.9729983,,,
imu,195.823769,-0.9438851184000001,-9.7606573904,1.5151210424,0.81509066,3.90243701,-3.24964397,,,
imu,195.83233,-0.9462777296000001,-9.758264779200001,1.531271168,0.60573718,3.95477538,-3.70573548,,,
imu,195.84089,-0.9504647992000002,-9.7821908912,1.55519728,0.43376825,4.18655959,-3.98238115,,,
imu,195.84945,-0.9636241608000001,-9.758264779200001,1.5384490016,0.35899915,4.433297619999999,-4.146873169999999,,,
imu,195.85801,-0.9420906600000001,-9.714001472000001,1.5354582376,0.36647606,4.85200458,-4.07210407,,,
imu,195.86657,-0.9480721880000001,-9.743310959200002,1.5151210424,0.3739529699999999,5.2408039,-3.92256587,,,
imu,195.875131,-0.9444832712000001,-9.763050001600002,1.5121302784,0.620691,5.55483412,-3.43656672,,,
imu,195.883691,-0.9127811728000002,-9.746899876,1.5031579864,0.76275229,5.853910519999999,-3.1225365,,,
imu,195.892251,-0.8810790744000001,-9.658373261600001,1.5683566416,1.09921324,6.160463829999999,-3.05524431,,,
imu,195.900811,-0.86732156,-9.706823638400001,1.5205044176,1.62259694,6.28009439,-3.21225942,,,
imu,195.909371,-0.8469843648000001,-9.7959484056,1.4271925808,1.9665348,6.04083327,-3.36927453,,,
imu,195.917931,-0.8894532136000001,-9.770825988000002,1.4576983736,1.95158098,6.10064855,-3.58610492,,,
imu,195.926492,-0.8685178656000001,-9.762451848800001,1.4642780544,1.9665348,6.12307928,-3.83284295,,,
imu,195.935052,-0.8972292000000002,-9.791761336000002,1.4726521936,2.13850373,6.13055619,-4.012288789999999,,,
imu,195.943612,-0.8870606024000001,-9.7995373224,1.4666706656,2.09364227,6.42963259,-4.22164227,,,
imu,195.952172,-0.8918458248000001,-9.8013317808,1.4828207912,1.88428879,6.48197096,-4.51324176,,,
imu,195.960732,-0.8780883104000001,-9.802528086400002,1.4911949304,1.57025857,6.5866477,-4.77493361,,,
imu,195.969293,-0.8613400320000001,-9.8210708232,1.4876060136,1.33847436,6.74366281,-4.87213344,,,
imu,195.977853,-0.8553585040000001,-9.8581562968,1.4786337216,1.15155161,6.624032249999999,-4.94690254,,,
imu,195.986413,-0.8344231560000002,-9.822267128800002,1.5127284312,0.9272443100000001,6.65393989,-4.954379449999999,,,
imu,195.994973,-0.8236564056000001,-9.793555794400001,1.5049524448,0.6281679099999999,6.66889371,-5.238502029999999,,,
imu,196.003533,-0.8087025856000001,-9.7953502528,1.4941856944,0.620691,6.467017139999999,-5.42542478,,,
imu,196.012093,-0.8224601,-9.7995373224,1.4941856944,0.70293701,6.30252512,-5.49271697,,,
imu,196.020654,-0.8057118216000001,-9.7786019744,1.5007653752,0.55339881,6.05578709,-5.64225517,,,
imu,196.029214,-0.8260490168000001,-9.785181655200002,1.5121302784,0.59078336,5.704372319999999,-5.806747189999999,,,
imu,196.037931,-0.8069081272,-9.802528086400002,1.519308112,0.4861066199999999,5.41277283,-5.874039379999999,,,
imu,196.046649,-0.8116933496000001,-9.783985349600002,1.5348600848,0.41881443,5.21837317,-5.851608649999999,,,
imu,196.055366,-0.8188711832000002,-9.779798280000001,1.552206516,0.44872207,4.79966621,-5.67963972,,,
imu,196.064083,-0.8284416280000001,-9.785181655200002,1.5575898912,0.32909151,4.42582071,-5.612347529999999,,,
imu,196.072801,-0.8445917536,-9.7821908912,1.5725437112,0.44872207,4.00711375,-5.74693191,,,
imu,196.081518,-0.8637326432000001,-9.755274015200001,1.573141864,0.47862971,3.72299117,-5.75440882,,,
imu,196.090236,-0.86732156,-9.7427128064,1.5845067672,0.56087572,3.4463455,-5.64225517,,,
imu,196.098953,-0.9026125752,-9.7427128064,1.5916846008,0.60573718,3.05754618,-5.69459354,,,
imu,196.107671,-0.9337165208000001,-9.745703570400002,1.5904882952,0.63564482,2.83323888,-5.41794787,,,
imu,196.116388,-0.9522592576000002,-9.745105417600001,1.5952735176,0.8524752099999999,2.78837742,-5.00671782,,,
imu,196.125105,-0.9731946056000002,-9.740918348000001,1.5898901424,0.9197674,2.72108523,-4.56558013,,,
imu,196.133823,-0.9971207176000002,-9.7283571392,1.573141864,1.00949032,2.65379304,-4.33379592,,,
imu,196.14254,-1.0216449824,-9.717590388800001,1.5575898912,1.19641307,2.83323888,-4.19173463,,,
imu,196.151258,-1.0150653016,-9.718188541600002,1.5528046688,1.2188438,2.91548489,-4.30388828,,,
imu,196.159975,-1.0102800792,-9.722973764,1.5605806552,1.53287402,3.0725,-4.35622665,,,
imu,196.168692,-1.0491600112,-9.7265626808,1.519308112,1.61512003,3.18465365,-4.58053395,,,
imu,196.17741,-1.073684276,-9.7128051664,1.5079432088,1.8169966,3.34166876,-4.6179185,,,
imu,196.186127,-1.088638096,-9.734936820000001,1.5228970288,2.07121154,3.72299117,-4.75250288,,,
imu,196.194845,-1.103591916,-9.740918348000001,1.4929893888,2.23570356,3.99215993,-4.92447181,,,
imu,196.203562,-1.1167512776,-9.767237071200002,1.4947838472,2.33290339,4.40338998,-5.0665331,,,
imu,196.212279,-1.133499556,-9.786976113600002,1.4947838472,2.28804193,4.82957385,-5.33570186,,,
imu,196.220997,-1.139481084,-9.8228652816,1.4702595824,2.40019558,5.53240339,-5.18616366,,,
imu,196.229714,-1.1490515288,-9.815089295200002,1.4708577352,2.47496468,6.05578709,-5.25345585,,,
imu,196.238185,-1.1436681536,-9.802528086400002,1.4726521936,2.25813429,6.38477113,-5.42542478,,,
imu,196.246657,-1.1340977088,-9.802528086400002,1.4541094568,2.03382699,6.818431909999999,-5.57496298,,,
imu,196.255128,-1.118545736,-9.812098531200002,1.453511304,2.01139626,7.32686179,-5.44785551,,,
imu,196.263599,-1.10658268,-9.8162856008,1.4373611784,1.7422275,7.71566111,-5.522624609999999,,,
imu,196.27207,-1.0928251656,-9.828846809600002,1.4481279288,1.58521239,8.03716824,-5.59739371,,,
imu,196.280541,-1.0784694984,-9.834828337600001,1.4433427064,1.5179202,8.396059919999999,-5.50767079,,,
imu,196.289013,-1.0659082896,-9.837819101600003,1.4493242344,1.20388998,8.59045958,-5.47028624,,,
imu,196.297484,-1.0401877192,-9.844398782400003,1.438557484,1.05435178,8.74747469,-5.40299405,,,
imu,196.305955,-1.0240375936,-9.85456738,1.4218092056,0.9347212199999999,8.9792589,-5.08148692,,,
imu,196.314426,-0.9821668976000001,-9.8467913936,1.4307814976,0.80013684,9.02412036,-4.954379449999999,,,
imu,196.322897,-0.9582407856000001,-9.848585852000001,1.438557484,0.53844499,9.054027999999999,-4.81979507,,,
imu,196.331368,-0.9301276040000002,-9.8479876992,1.4541094568,0.21693786,8.91196671,-4.67773378,,,
imu,196.33984,-0.9145756312000002,-9.859950755200002,1.441548248,0.01506129,8.50073666,-4.70016451,,,
imu,196.348311,-0.8930421304000001,-9.837220948800002,1.4487260816,-0.16438455,8.06707588,-4.6179185,,,
imu,196.356782,-0.8864624496000001,-9.828846809600002,1.4600909848,-0.30644584,7.71566111,-4.430995749999999,,,
imu,196.365253,-0.8858642968000001,-9.825257892800002,1.4493242344,-0.41859949,7.47639999,-4.21416536,,,
imu,196.373724,-0.8786864632000002,-9.825856045600002,1.4696614296,-0.43355331,7.035262299999999,-3.91508896,,,
imu,196.382195,-0.8768920048000002,-9.815687448000002,1.4780355688,-0.39616876,6.60907843,-3.80293531,,,
imu,196.390667,-0.9050051864,-9.8300431152,1.48042818,-0.55318387,6.36981731,-3.65339711,,,
imu,196.399138,-0.8906495192000001,-9.821668976000002,1.4870078608,-0.54570696,5.898771979999999,-3.51133582,,,
imu,196.407609,-0.8978273528000001,-9.822267128800002,1.4732503464,-0.6503837,5.547357209999999,-3.54124346,,,
imu,196.41608,-0.8972292000000002,-9.803126239200001,1.492391236,-0.77001426,5.352957549999999,-3.30945925,,,
imu,196.424551,-0.8870606024000001,-9.803724392000001,1.4971764584,-0.84478336,5.24828081,-2.95804448,,,
imu,196.433022,-0.8912476720000001,-9.803724392000001,1.5115321256,-0.91955246,5.08378879,-2.49447606,,,
imu,196.44149,-0.8936402832000001,-9.790565030400002,1.5199062648,-0.9943215599999999,4.97163514,-2.53186061,,,
imu,196.449957,-0.9008181168,-9.7750130576,1.5258877928,-1.18872122,4.88938913,-2.77112173,,,
imu,196.458424,-0.8810790744000001,-9.787574266400002,1.5605806552,-1.26349032,4.44077453,-2.95056757,,,
imu,196.466892,-0.8936402832000001,-9.8013317808,1.5659640304,-1.54013599,4.27628251,-3.29450543,,,
imu,196.475359,-0.9151737840000002,-9.786377960800001,1.5677584888,-1.55508981,4.01459066,-3.62348947,,,
imu,196.483827,-0.9193608536000001,-9.7474980288,1.5797215448,-1.6971511,3.92486774,-3.7954584,,,
imu,196.492294,-0.9462777296000001,-9.7403201952,1.5803196976,-1.74201256,3.66317589,-3.95247351,,,
imu,196.500761,-0.9498666464000002,-9.746301723200002,1.5868993784,-1.43545925,3.90991392,-3.58610492,,,
imu,196.509229,-0.9456795768000001,-9.752881404000002,1.606040268,-1.22610577,4.07440594,-3.39170526,,,
imu,196.517696,-0.9606333968,-9.744507264800001,1.5946753648,-1.00179847,4.22394414,-3.36927453,,,
imu,196.526163,-0.9636241608000001,-9.719983000000001,1.5964698232,-1.03918302,4.25385178,-3.58610492,,,
imu,196.534631,-0.9450814240000001,-9.711010708000002,1.5892919896,-0.79244499,4.35105161,-3.66835093,,,
imu,196.543098,-0.9480721880000001,-9.699645804800001,1.5809178504,-0.68029134,4.4931129,-3.83284295,,,
imu,196.551565,-0.9588389384,-9.685888290400001,1.5934790592,-0.46346095,4.500589809999999,-4.16182699,,,
imu,196.560033,-0.9696056888000001,-9.678112304,1.5958716704,-0.14195382,4.48563599,-4.363703559999999,,,
imu,196.5685,-0.9845595088000001,-9.6775141512,1.6114236432,-0.02232326000000001,4.58283582,-4.65530305,,,
imu,196.576967,-0.9672130776000001,-9.720581152800001,1.5916846008,0.08983038999999998,4.530497449999999,-5.11139456,,,
imu,196.585435,-0.9959244120000001,-9.741516500800001,1.5874975312,0.11226112,4.567882,-5.08896383,,,
imu,196.593902,-0.9797742864000001,-9.739722042400002,1.6347516024,0.10478421,4.60526655,-5.08896383,,,
imu,196.60237,-1.004896704,-9.7510869456,1.6275737688,0.09730729999999999,4.70246638,-5.29831731,,,
imu,195.206356,,,,,,,79.5909332,-39.15462440000002,135.5304528
imu,195.307949,,,,,,,79.84728439999999,-39.16683160000001,135.3717592
imu,195.409451,,,,,,,80.0425996,-38.94710200000002,135.4938312
imu,195.511013,,,,,,,80.44543719999999,-38.50764280000001,135.5548672
imu,195.612606,,,,,,,83.0943996,-39.37435400000003,135.1276152
imu,195.714138,,,,,,,81.29994119999999,-38.95930920000001,136.8976592
imu,195.815731,,,,,,,84.0465612,-39.81381320000001,133.1744632
imu,195.917294,,,,,,,81.592914,-39.21566040000002,133.0645984
imu,196.610837,-1.0001114816,-9.756470320800002,1.6335552968,0.13469185,4.77723548,-5.17868675,,,
imu,196.619304,-0.9851576616000001,-9.763050001600002,1.626975616,0.07487657,4.784712389999999,-5.17120984,,,
imu,196.627772,-0.9779798280000002,-9.745105417600001,1.6305645328,0.03749201999999999,4.739850929999999,-5.14877911,,,
imu,196.636239,-0.9911391896000001,-9.727160833600001,1.6401349776,0.0001074699999999984,4.62022037,-5.12634838,,,
imu,196.644703,-0.9899428840000002,-9.7331423616,1.650901728,0.07487657,4.478159079999999,-5.23102512,,,
imu,196.653166,-0.9731946056000002,-9.734936820000001,1.6407331304,0.11226112,4.37348234,-5.350655679999999,,,
imu,196.66163,-0.9767835224000002,-9.716992236000001,1.6556869504,0.09730729999999999,4.29123633,-5.11887147,,,
imu,196.670093,-0.9558481744000001,-9.710412555200001,1.665855548,0.26179932,4.17908268,-4.7674567,,,
imu,196.678557,-0.9672130776000001,-9.711608860800002,1.6736315344,0.11973803,3.96225229,-4.66277996,,,
imu,196.68702,-0.9480721880000001,-9.739722042400002,1.6903798128,0.16459949,3.7454219,-4.52819558,,,
imu,196.695484,-0.9343146736000002,-9.739722042400002,1.7011465632,0.2468455,3.43886859,-4.51324176,,,
imu,196.703947,-0.9379035904000002,-9.725964528,1.686790896,0.29918387,3.16969983,-4.33379592,,,
imu,196.712411,-0.9331183680000001,-9.727160833600001,1.6843982848,0.20198404,2.7734236,-4.363703559999999,,,
imu,196.720874,-0.9331183680000001,-9.731946056000002,1.6963613408,0.28423005,2.44443956,-4.33379592,,,
imu,196.729338,-0.9444832712000001,-9.736731278400002,1.707726244,0.32909151,2.33976282,-3.86275059,,,
imu,196.737801,-0.9462777296000001,-9.701440263200002,1.7035391744,0.60573718,2.27994754,-3.45899745,,,
imu,196.746265,-0.9121830200000002,-9.7612555432,1.6820056736,0.8674290299999999,2.16031698,-3.1973056,,,
imu,196.754729,-0.9367072848000002,-9.748096181600001,1.6855945904,0.79265993,1.91357895,-3.03281358,,,
imu,196.019042,,,,,,,80.1158428,-38.59309320000002,135.8844616
imu,196.120727,,,,,,,79.9327348,-38.92268760000002,135.6159032
imu,196.222106,,,,,,,80.372194,-38.94710200000002,136.1286056
imu,196.323791,,,,,,,79.72521239999999,-38.72737240000001,135.3717592
imu,196.425262,,,,,,,79.7496268,-39.15462440000002,135.5060384
imu,196.526855,,,,,,,78.80967240000001,-38.49543560000001,135.9454976
imu,196.628387,,,,,,,81.104626,-38.26349880000001,134.138832
imu,196.729949,,,,,,,78.2481412,-38.51985000000002,135.4083808
