Type,Timestamp,Data Accelerometer X,Data Accelerometer Y,Data Accelerometer Z,Data Gyroscope X,Data Gyroscope Y,Data Gyroscope Z,Data Magnetometer X,Data Magnetometer Y,Data Magnetometer Z
imu,187.037312,0.2775428992,-9.488497866400001,2.6169185,-0.35878421,1.65936401,-5.41794787,,,
imu,187.045782,0.2404574256,-9.530966715200002,2.6312741672,-0.2765382,1.54721036,-5.33570186,,,
imu,187.054252,0.2219146888,-9.580613397600002,2.659387348800001,-0.28401511,1.52477963,-5.17868675,,,
imu,187.062722,0.2141387024,-9.624278552000002,2.6791263912,-0.5008455,1.46496435,-4.79736434,,,
imu,187.071192,0.2009793408,-9.644017594400001,2.696472822400001,-0.82982954,1.3528107,-4.49081103,,,
imu,187.079662,0.1985867296,-9.6434194416,2.689893141600001,-1.09152139,1.36776452,-4.34874974,,,
imu,187.088132,0.191408896,-9.630260080000001,2.706043267200001,-1.48779762,1.40514907,-4.034719519999999,,,
imu,187.096602,0.1860255208,-9.639830524800002,2.713221100800001,-1.98127368,1.45001053,-3.78050458,,,
imu,187.105071,0.1860255208,-9.630260080000001,2.713221100800001,-2.52708811,1.49487199,-3.54124346,,,
imu,187.113541,0.1860255208,-9.6117173432,2.700659892,-2.75139541,1.7266562,-3.29450543,,,
imu,187.122011,0.1955959656,-9.5842023144,2.7024543504,-2.8186876,1.83133294,-2.98795212,,,
imu,187.130481,0.218325772,-9.5638651192,2.6988654336,-3.03551799,1.98087114,-2.69635263,,,
imu,187.138951,0.2368685088,-9.538742701600002,2.692285752800001,-2.93084125,2.21265535,-2.62906044,,,
imu,187.147421,0.248233412,-9.5184055064,2.7084358784,-2.85607215,2.22760917,-2.61410662,,,
imu,187.155891,0.2595983152,-9.5184055064,2.7203989344,-2.72896468,2.35471664,-2.60662971,,,
imu,187.164361,0.2643835376,-9.527377798400002,2.7299693792,-2.78130305,2.37714737,-2.748691,,,
imu,187.172831,0.2619909264,-9.524387034400002,2.7341564488,-2.69158013,2.20517844,-3.02533667,,,
imu,187.181301,0.2655798432,-9.530966715200002,2.75150288,-2.51213429,2.13788625,-3.33188998,,,
imu,187.18977,0.2733558296,-9.524387034400002,2.7586807136,-2.41493446,2.13040934,-3.53376655,,,
imu,187.19824,0.263187232,-9.5118258256,2.754493644000001,-2.26539626,1.94348659,-3.69825857,,,
imu,187.20671,0.2536167872,-9.4962738528,2.7664567,-2.06351969,1.8014253,-3.91508896,,,
imu,187.21518,0.2434481896,-9.470553282400001,2.757484408000001,-2.00370441,1.67431783,-4.146873169999999,,,
imu,187.22365,0.2380648144,-9.457992073600002,2.7592788664,-1.7719202,1.51730272,-4.19173463,,,
imu,187.232472,0.2147368552,-9.448421628800002,2.7562881024,-1.33078251,1.56216418,-3.98238115,,,
imu,187.241294,0.2081571744,-9.4454308648,2.7664567,-1.20367504,1.5023489,-3.74312003,,,
imu,187.250117,0.1967922712,-9.444832712,2.7790179088,-1.18124431,1.60702564,-3.67582784,,,
imu,187.258939,0.1567160336,-9.456795768000001,2.7879902008,-1.01675229,1.65936401,-3.54872037,,,
imu,187.267761,0.173464312,-9.4735440464,2.7951680344,-0.9793677399999999,1.62945637,-3.39170526,,,
imu,187.276583,0.1662864784,-9.479525574400002,2.81131816,-1.10647521,1.70422547,-3.32441307,,,
imu,187.285406,0.146547436,-9.48072188,2.8131126184,-1.03170611,1.6518871,-3.2720747,,,
imu,187.294228,0.1513326584,-9.495675700000001,2.8190941464,-0.89712173,1.86124058,-3.15992105,,,
imu,187.30305,0.1537252696,-9.503451686400002,2.825075674400001,-0.9943215599999999,2.12293243,-3.02533667,,,
imu,187.311872,0.1597067976,-9.508835061600001,2.8256738272,-0.88964482,2.26499372,-2.78607555,,,
imu,187.320695,0.1680809368,-9.512423978400001,2.8280664384,-0.84478336,2.64631613,-2.59167589,,,
imu,187.329517,0.1961941184,-9.514218436800002,2.819692299200001,-0.68029134,3.00520781,-2.17296893,,,
imu,187.338339,0.20935348,-9.519601812000001,2.8274682856,-0.54570696,3.21456129,-1.83650798,,,
imu,187.347161,0.233279592,-9.5213962704,2.823281216,-0.48589168,3.61831443,-1.48509321,,,
imu,187.355984,0.2590001624000001,-9.5381445488,2.8238793688,-0.20924601,4.13422122,-1.20097063,,,
imu,187.364806,0.2799355104,-9.537546396000002,2.82627198,0.03749201999999999,4.44825144,-0.88694041,,,
imu,187.373628,0.3218062064,-9.531564868,2.835244272,-0.09709236,4.6426511,-0.90937114,,,
imu,187.38245,0.3493212352000001,-9.509433214400001,2.82627198,0.03001510999999998,4.92677368,-0.96918642,,,
imu,187.391272,0.3690602776000001,-9.483712644000002,2.820290452000001,0.2468455,5.14360407,-0.9841402399999999,,,
imu,187.400095,0.3941826952,-9.477731116000001,2.8149070768,0.38142988,5.18098862,-1.24583209,,,
imu,187.408917,0.4109309736,-9.481320032800001,2.8077292432,0.3739529699999999,4.979112049999999,-1.70940051,,,
imu,187.417739,0.4324644744,-9.477731116000001,2.805934784800001,0.4861066199999999,4.739850929999999,-2.19539966,,,
imu,187.426561,0.4474182944000001,-9.5040498392,2.8011495624,0.5010604399999999,4.31366706,-2.748691,,,
imu,187.435036,0.4474182944000001,-9.510031367200002,2.8035421736,0.80013684,4.02206757,-2.9729983,,,
imu,187.443511,0.4312681688,-9.499264616800001,2.7999532568,0.74779847,3.7454219,-3.24216706,,,
imu,187.451986,0.4270810992000001,-9.482516338400002,2.805336632,0.7253677399999999,3.34914567,-3.41413599,,,
imu,187.460461,0.43366078,-9.513022131200001,2.8095237016,0.8524752099999999,2.96034635,-3.48890509,,,
imu,187.468936,0.4085383624000001,-9.514218436800002,2.8107200072,0.74779847,2.59397776,-3.78050458,,,
imu,187.477411,0.3923882368,-9.4980683112,2.8101218544,0.71789083,2.25751681,-3.99733497,,,
imu,187.485886,0.3702565832000001,-9.481320032800001,2.792177270400001,0.78518302,1.98087114,-4.034719519999999,,,
imu,187.494361,0.3487230824000001,-9.475936657600002,2.779616061600001,0.81509066,1.90610204,-3.84779677,,,
imu,187.502836,0.3487230824000001,-9.482516338400002,2.7790179088,0.85995212,1.98834805,-3.57862801,,,
imu,187.511311,0.3535083048,-9.5184055064,2.7772234504,1.13659779,2.09302479,-3.07019813,,,
imu,187.519786,0.3702565832000001,-9.5357519376,2.7826068256,1.25622835,2.24256299,-2.56176825,,,
imu,187.528261,0.3780325696000001,-9.5327611736,2.7790179088,1.20388998,2.36967046,-2.20287657,,,
imu,187.536736,0.3780325696000001,-9.519601812000001,2.7688493112,1.38333582,2.45939338,-2.23278421,,,
imu,187.545211,0.3834159448,-9.509433214400001,2.760475172,1.30856672,2.29490136,-2.49447606,,,
imu,187.553686,0.3822196392,-9.484908949600001,2.7473158104,1.40576655,2.10797861,-2.89075229,,,
imu,187.562161,0.3810233336,-9.4801237272,2.7419324352,1.39081273,1.98834805,-3.25712088,,,
imu,187.570636,0.3852104032000001,-9.477731116000001,2.7221933928,1.52539711,1.77151766,-3.54124346,,,
imu,187.579111,0.3870048616000001,-9.498666464000001,2.709632184,1.78708896,1.577118,-3.89265823,,,
imu,187.587586,0.382817792,-9.5010590752,2.7030525032,1.93662716,1.60702564,-4.07210407,,,
imu,187.596061,0.3720510416,-9.513620284000002,2.6958746696,2.10859609,1.51730272,-3.98238115,,,
imu,187.604536,0.3547046104000001,-9.519003659200001,2.6928839056,2.30299575,1.44253362,-3.97490424,,,
imu,187.613011,0.3511156936,-9.5327611736,2.6910894472,2.75908726,1.58459491,-3.81041222,,,
imu,187.621486,0.3535083048,-9.5447242296,2.704248808800001,2.60207215,1.61450255,-3.84031986,,,
imu,187.629961,0.3415452488,-9.546518688,2.713221100800001,2.72917962,1.55468727,-3.89265823,,,
imu,187.638425,0.3397507904000001,-9.5447242296,2.7162118648,2.57216451,1.62945637,-4.124442439999999,,,
imu,187.646888,0.3397507904000001,-9.5447242296,2.7102303368,2.25813429,1.49487199,-4.44594957,,,
imu,187.655352,0.3451341656,-9.527975951200002,2.7090340312,2.10859609,1.23318014,-4.51324176,,,
imu,187.663815,0.3606861384,-9.5172092008,2.6875005304,1.80951969,1.04625739,-4.80484125,,,
imu,187.672279,0.3517138464,-9.505844297600001,2.688696836,1.75718132,0.80699627,-4.96185636,,,
imu,187.680742,0.3403489432000001,-9.483712644000002,2.6605836544,1.76465823,0.5527813299999997,-5.02914855,,,
imu,187.689206,0.3469286240000001,-9.482516338400002,2.6641725712,1.75718132,0.33595094,-5.021671639999999,,,
imu,187.697669,0.3564990688,-9.531564868,2.671350404800001,1.89924261,-0.03789456000000024,-4.80484125,,,
imu,187.706133,0.3433397072,-9.581809703200001,2.6821171552,1.9665348,-0.45660152,-4.67773378,,,
imu,187.714596,0.3212080536,-9.625474857600002,2.6928839056,2.0413039,-0.6883857300000003,-4.46090339,,,
imu,187.72306,0.3068523864000001,-9.632054538400002,2.6982672808,1.90671952,-1.04727741,-4.3936112,,,
imu,187.731524,0.2799355104,-9.614109954400002,2.6910894472,1.6674584,-1.32392308,-4.19921154,,,
imu,187.739987,0.272159524,-9.573435564,2.6970709752,1.69736604,-1.43607673,-4.0945348,,,
imu,187.748451,0.2805336632,-9.568650341600001,2.7024543504,1.52539711,-1.53327656,-4.07210407,,,
imu,187.756914,0.2673743016,-9.6248767048,2.7239878512,1.30856672,-1.69776858,-4.25902682,,,
imu,187.765378,0.2727576768,-9.614109954400002,2.730567532,0.97958268,-1.8622606,-4.430995749999999,,,
imu,187.773841,0.3116376088,-9.597361676,2.7443250464,0.71789083,-1.89216824,-4.46090339,,,
imu,187.782198,0.361882444,-9.5800152448,2.7347546016,0.3216146,-2.0865679,-4.59548777,,,
imu,187.790662,0.3953790008,-9.585398620000001,2.7401379768,0.07487657,-2.34078284,-4.715118329999999,,,
imu,187.799125,0.4707462536000001,-9.554294674400001,2.7329601432,-0.22419983,-2.67724379,-4.63287232,,,
imu,187.807589,0.5640580904000001,-9.5184055064,2.7467176576,-0.36626112,-3.35016569,-4.57305704,,,
imu,187.816052,0.6944554008000001,-9.495675700000001,2.742530588,-0.2765382,-4.56890202,-4.78988743,,,
imu,187.824516,0.8685178656000001,-9.5010590752,2.7497084216,-0.32887657,-6.191391489999999,-5.55253225,,,
imu,187.832979,1.1161531248,-9.519003659200001,2.7556899496,0.10478421,-8.60643342,-6.43480763,,,
imu,187.841439,1.432575956,-9.529770409600001,2.7652603944,0.43376825,-12.26264241,-7.6834516,,,
imu,187.849899,1.7962528584,-9.4944793944,2.7473158104,0.8749059399999999,-17.47404868,-9.44800236,,,
imu,187.858359,2.0690105352,-9.433467808800001,2.718604476,1.50296638,-24.40514425,-11.40695278,,,
imu,187.866818,2.2406803888,-9.3586987088,2.685706072000001,2.44505704,-32.50263778,-12.82008877,,,
imu,187.875278,2.3321977672,-9.280340692000001,2.640844612,3.31985551,-41.29548394,-13.65750269,,,
imu,187.883738,2.3166457944,-9.209758661600002,2.6121332776,4.15726943,-50.25282212,-13.53787213,,,
imu,187.892197,2.1796688032,-9.2127494256,2.5499253864,5.36852885,-58.66434587,-12.43876636,,,
imu,187.900657,1.9481836696,-9.2133475784,2.5098491488,6.29566569,-66.41790153999999,-10.75646161,,,
imu,187.909117,1.7280634392,-9.2067678976,2.4512301744,7.38729455,-73.48358148999999,-8.894711019999999,,,
imu,187.917577,1.4391556368,-9.294098206400001,2.4308929792,8.56864633,-79.4725864,-7.100252619999999,,,
imu,187.926036,1.1430700008,-9.419710294400002,2.4261077568,9.57802918,-84.53445446999999,-5.57496298,,,
imu,187.934496,0.8571529624000002,-9.443636406400001,2.404574256,10.13879743,-88.78881625999999,-4.318842099999999,,,
imu,187.942956,0.5497024232000001,-9.486703408,2.3633017128,10.88648843,-92.20576412999999,-3.39170526,,,
imu,187.951416,0.2320832864,-9.51062952,2.3292070032,11.42482595,-94.85259027,-2.98795212,,,
imu,187.959875,-0.09869521200000002,-9.528574104,2.296906752,11.73137926,-96.34797226999999,-2.69635263,,,
imu,187.968335,-0.4043512928,-9.5656595776,2.2927196824,11.94820965,-96.71434086,-2.45709151,,,
imu,187.976795,-0.6854831088000001,-9.575230022400001,2.2795603208,12.18747077,-95.77972711,-2.19539966,,,
imu,187.985254,-0.9528574104000002,-9.591978300800001,2.2747750984,12.06784021,-93.73853068,-1.61220068,,,
imu,187.993714,-1.1975019056,-9.6051376624,2.278962168,11.62670252,-91.02441234999999,-1.46266248,,,
imu,188.002174,-1.4307814976,-9.651195428000001,2.2843455432,11.26781084,-87.30838807999999,-1.18601681,,,
imu,188.010634,-1.6066384208,-9.713403319200001,2.3046827384,10.60984276,-83.01664174,-0.7000176599999999,,,
imu,188.019093,-1.7633544544,-9.751685098400001,2.2795603208,9.95187468,-78.17160405999999,-0.6177716499999999,,,
imu,188.027553,-1.848292152,-9.755274015200001,2.2747750984,9.263998959999999,-72.98262851999999,-0.85703277,,,
imu,188.036013,-1.905116668,-9.7606573904,2.278962168,8.538738689999999,-67.6590686,-1.31312428,,,
imu,188.044601,-1.9314353912,-9.761853696000001,2.2652046536,7.7237555,-62.55981598,-1.90380017,,,
imu,188.053189,-1.9212667936,-9.767237071200002,2.2562323616,6.99849523,-57.74468594,-2.56176825,,,
imu,188.061777,-1.9087055848,-9.767237071200002,2.2675972648,6.31061951,-52.83983298,-3.27955161,,,
imu,188.070365,-1.8548718328,-9.786976113600002,2.2813547792,5.59283615,-48.03217985,-3.81788913,,,
imu,188.078954,-1.8082159144,-9.790565030400002,2.2963085992,4.64326858,-43.47126475,-4.0945348,,,
imu,188.087542,-1.7561766208,-9.7959484056,2.2933178352,3.79837775,-39.0225033,-4.10948862,,,
imu,188.09613,-1.7113151608,-9.789966877600001,2.2783640152,3.33480933,-34.55878803,-3.95995042,,,
imu,188.104718,-1.6526961864,-9.7492924872,2.28793446,2.82637945,-30.43153371,-3.69825857,,,
imu,188.113306,-1.5845067672,-9.7325442088,2.290925224,2.35533412,-26.65569416,-3.38422835,,,
imu,188.121894,-1.5306730152,-9.745105417600001,2.2933178352,1.8169966,-23.03686972,-3.07019813,,,
imu,188.130483,-1.4672688184,-9.7337405144,2.2885326128,1.43567419,-19.5825373,-2.66644499,,,
imu,188.139071,-1.4158276776,-9.722973764,2.278962168,1.15155161,-16.43475819,-2.35241477,,,
imu,188.147659,-1.348834564,-9.682897526400001,2.2658028064,0.94219813,-13.55614784,-2.001,,,
imu,188.156247,-1.277056228,-9.663158484000002,2.25802682,0.9197674,-10.9093217,-1.76921579,,,
imu,188.164835,-1.190324072,-9.617100718400001,2.246063764000001,0.8823828499999999,-8.5167105,-1.64210832,,,
imu,188.173423,-1.1179475832,-9.6051376624,2.2424748472,1.26370526,-6.602621539999999,-1.4776163,,,
imu,188.182011,-1.0671045952,-9.6039413568,2.2508489864,1.45810492,-4.92031679,-1.51500085,,,
imu,188.1906,-1.0126726904,-9.591380148,2.2526434448,1.68241222,-3.40998097,-1.55986231,,,
imu,188.199188,-0.9755872168000002,-9.587193078400002,2.253839750400001,1.89924261,-2.11647554,-1.63463141,,,
imu,188.207776,-0.9355109792000001,-9.596165370400001,2.2598212784,2.37776485,-0.94260067,-1.75426197,,,
imu,188.216364,-0.9169682424000002,-9.594370912,2.2604194312,2.62450288,-0.03041764999999996,-2.03838455,,,
imu,188.224952,-0.8978273528000001,-9.596763523200002,2.2652046536,2.92357928,0.9116730099999999,-2.13558438,,,
imu,188.23354,-0.8798827688,-9.614109954400002,2.266999112000001,3.10302512,1.74908693,-2.24026112,,,
imu,188.242129,-0.8469843648000001,-9.6326526912,2.2693917232,3.30490169,2.58650085,-2.4496146,,,
imu,188.250814,-0.8266471696000001,-9.636839760800001,2.2705880288,3.52173208,3.4463455,-2.47204533,,,
imu,188.2595,-0.8134878080000001,-9.639830524800002,2.27298064,3.60397809,3.99963684,-2.57672207,,,
imu,188.268185,-0.8164785720000002,-9.636839760800001,2.2622138896,3.80585466,4.51554363,-2.69635263,,,
imu,188.276871,-0.8140859608000002,-9.635045302400002,2.2562323616,3.79837775,4.9417275,-2.76364482,,,
imu,188.285556,-0.8164785720000002,-9.644615747200001,2.246063764000001,3.79090084,5.34548064,-2.76364482,,,
imu,188.294242,-0.8248527112,-9.654784344800001,2.240082236,3.66379337,5.67446468,-2.80850628,,,
imu,188.302928,-0.8469843648000001,-9.672130776000001,2.2412785416,3.51425517,6.07074091,-2.78607555,,,
imu,188.311613,-0.8786864632000002,-9.6918698184,2.2448674584,3.42453225,6.3623404,-2.80850628,,,
imu,188.320299,-0.9038088808000001,-9.696056888000001,2.2358951664,3.34228624,6.908154829999999,-2.86084465,,,
imu,187.11425,,,,,,,-90.27225480000001,174.2760604,117.7079408
imu,187.215507,,,,,,,-90.29666920000001,174.3859252,116.682536
imu,187.3171,,,,,,,-90.1257684,174.5934476,117.6346976
imu,187.418632,,,,,,,-87.69653559999999,174.5324116,115.0711856
imu,187.52053,,,,,,,-90.29666920000001,175.167186,117.0853736
imu,187.62191,,,,,,,-88.0139228,174.5690332,115.3763656
imu,188.328984,-0.9420906600000001,-9.6817012208,2.222735804800001,3.14788658,7.528738359999999,-2.92065993,,,
imu,188.33767,-0.9953262592000002,-9.706225485600001,2.2197450408,3.02825602,8.27642936,-2.88327538,,,
imu,188.346355,-1.0431784832,-9.727758986400001,2.2197450408,2.92357928,9.13627401,-2.8982292,,,
imu,188.355041,-1.0814602624,-9.685290137600001,2.21316536,2.57964142,10.33257961,-3.01038285,,,
imu,188.363726,-1.1287143336,-9.6703363176,2.2239321104,2.43758013,11.73823869,-2.95056757,,,
imu,188.372412,-1.1831462384,-9.6799067624,2.2215394992,2.29551884,13.36072816,-2.93561375,,,
imu,188.381098,-1.2196335592,-9.7056273328,2.2382877776,1.91419643,14.99069454,-2.98047521,,,
imu,188.389783,-1.30098234,-9.7295534448,2.266999112000001,1.65998149,16.87487586,-3.1973056,,,
imu,188.398469,-1.3859200376,-9.735534972800002,2.278962168,1.16650543,19.17776414,-3.44404363,,,
imu,188.407154,-1.4487260816,-9.7534795568,2.2777658624,0.52349117,21.83206719,-3.496382,,,
imu,188.41584,-1.522298876,-9.724170069600001,2.280756626400001,-0.07466163,24.8303081,-3.51881273,,,
imu,188.424525,-1.6018531984,-9.685888290400001,2.2765695568,-0.5681376899999999,28.36688653,-3.44404363,,,
imu,188.433211,-1.68978166,-9.7265626808,2.2604194312,-1.21862886,32.06795698,-3.51881273,,,
imu,188.441897,-1.7400264952,-9.7612555432,2.2574286672,-1.74948947,36.20268821,-3.60853565,,,
imu,188.45037,-1.7651489128,-9.789966877600001,2.237091472,-1.97379677,40.63649583999999,-3.9449966,,,
imu,188.458844,-1.7352412728,-9.785181655200002,2.222735804800001,-2.28035008,45.21984166999999,-4.50576485,,,
imu,188.467318,-1.6826038264,-9.791761336000002,2.192230012,-2.43736519,49.83309514,-4.82727198,,,
imu,188.475791,-1.5946753648,-9.8013317808,2.201202304,-2.78877996,54.27437968,-5.07401001,,,
imu,188.484265,-1.4630817488,-9.8043225448,2.186248484,-2.91588743,58.49135691999999,-5.18616366,,,
imu,188.492739,-1.306963868,-9.7821908912,2.1611260664,-3.17757928,62.38682703,-5.14877911,,,
imu,188.501213,-1.1436681536,-9.7337405144,2.1090867728,-3.25234838,65.70657507,-5.08148692,,,
imu,188.509686,-0.9851576616000001,-9.683495679200002,2.0672160768,-3.25234838,68.52537014,-4.887087259999999,,,
imu,188.51816,-0.8242545584000001,-9.651195428000001,2.066617924,-3.16262546,70.81330460000001,-4.78241052,,,
imu,188.526634,-0.6495939408000001,-9.6087265792,2.051664104,-3.11028709,72.3086866,-4.5431494,,,
imu,188.535107,-0.4791203928000001,-9.585996772800002,2.0462807288,-2.8186876,73.27320799,-4.55062631,,,
imu,188.543581,-0.3277877344,-9.572239258400002,2.0528604096,-2.56447266,73.56480748,-4.57305704,,,
imu,188.552055,-0.1722680064,-9.576426328,2.0672160768,-2.45979592,73.10123906,-4.602964679999999,,,
imu,188.560529,-0.007177833600000002,-9.5907819952,2.0887495776,-2.2953039,72.08437930000001,-4.63287232,,,
imu,188.569002,0.1477437416,-9.627269316000001,2.0971237168,-2.23548862,70.55161275,-4.647826139999999,,,
imu,188.577476,0.2829262744000001,-9.608128426400002,2.106694161600001,-1.9962275,68.39078576,-4.4683803,,,
imu,188.58595,0.3971734592000001,-9.588987536800001,2.114470148,-1.9962275,65.82620563,-4.47585721,,,
imu,188.594423,0.4743351704000001,-9.573435564,2.1198535232,-1.78687402,63.21676403999999,-4.169303899999999,,,
imu,188.602897,0.5263744640000001,-9.550705757600001,2.1216479816,-1.44293616,60.39796896999999,-3.72816621,,,
imu,188.611371,0.5580765624000001,-9.5381445488,2.1449759408,-1.2485365,57.25766677,-3.2720747,,,
imu,188.619845,0.5706377712,-9.5423316184,2.1605279136,-1.11395212,54.40896406,-2.83841392,,,
imu,188.628318,0.5748248408000001,-9.592576453600001,2.1898374008,-0.83730645,51.56026135,-2.41223005,,,
imu,188.636792,0.5514968816000001,-9.618895176800002,2.219146888,-0.66533752,48.65922027,-2.0757691,,,
imu,188.645266,0.5437208952000001,-9.635045302400002,2.249652680800001,-0.8821679099999999,45.69836391,-1.95613854,,,
imu,188.653728,0.5239818528000001,-9.686486443200002,2.2675972648,-1.13638285,42.90199956999999,-2.12810747,,,
imu,188.66219,0.4958686712000001,-9.723571916800001,2.2957104464,-1.44293616,40.08320449999999,-2.2253073,,,
imu,188.670653,0.4785222400000001,-9.718786694400002,2.3016919744,-1.74948947,37.65320875,-2.24773803,,,
imu,188.679115,0.4587831976000001,-9.727758986400001,2.2975049048,-2.17567334,35.11105935,-2.44213769,,,
imu,188.687577,0.4330626272,-9.727160833600001,2.308869808,-2.45231901,32.59134068,-2.61410662,,,
imu,188.696039,0.4282774048000001,-9.685888290400001,2.304084585600001,-2.81121069,30.17629875,-2.57672207,,,
imu,188.704502,0.3923882368,-9.6535880392,2.308869808,-3.0429949,27.93322575,-2.5243837,,,
imu,188.712964,0.3511156936,-9.6326526912,2.3016919744,-3.01308726,25.88455241,-2.45709151,,,
imu,188.721426,0.3301803456000001,-9.651793580800001,2.3220291696,-3.37945585,23.99289418,-2.33746095,,,
imu,188.729888,0.2936930248,-9.6918698184,2.3531331152,-3.31964057,22.27320488,-2.35241477,,,
imu,188.738351,0.272159524,-9.680504915200002,2.353731268,-3.37945585,20.63576159,-2.55429134,,,
imu,188.746813,0.2679724544000001,-9.665551095200001,2.368685088,-3.25234838,19.26748706,-2.49447606,,,
imu,188.755275,0.2416537312,-9.667345553600002,2.383638908,-3.34954821,17.93659708,-2.59167589,,,
imu,188.763738,0.2344758976,-9.6775141512,2.4087613256,-3.4168404,16.87487586,-2.31503022,,,
imu,188.7722,0.236270356,-9.669738164800002,2.4123502424,-3.54394787,16.05989267,-1.91127708,,,
imu,188.780662,0.218325772,-9.664952942400001,2.410555784,-3.6411477,15.28229403,-1.50004703,,,
imu,188.789124,0.2027737992,-9.661962178400001,2.40756502,-3.70096298,14.50469539,-1.16358608,,,
imu,188.797587,0.1979885768,-9.635045302400002,2.410555784,-3.67105534,13.72709675,-0.8645096799999998,,,
imu,188.806049,0.1836329096,-9.609324732000001,2.4081631728,-3.67105534,13.05417485,-0.7822636699999999,,,
imu,188.814511,0.1567160336,-9.593174606400002,2.4153410064,-3.52151714,12.44854514,-0.9243249599999999,,,
imu,188.822973,0.1453511304,-9.559678049600002,2.4308929792,-3.70096298,11.75319251,-1.41032411,,,
imu,188.831436,0.1357806856,-9.5447242296,2.4243132984,-3.67853225,11.08774752,-1.99352309,,,
imu,188.839898,0.146547436,-9.543527924000001,2.4213225344,-3.50656332,10.54193309,-2.50195297,,,
imu,188.84836,0.1537252696,-9.5459205352,2.4380708128,-3.33459439,10.10827231,-2.77112173,,,
imu,188.856849,0.1680809368,-9.561472508000001,2.4518283272,-3.27477911,9.74938063,-2.91318302,,,
imu,188.865338,0.1788476872,-9.5800152448,2.4596043136,-3.32711748,9.278335299999998,-3.10758268,,,
imu,188.873757,0.1722680064,-9.589585689600002,2.461398772,-3.10281018,8.97178199,-3.04029049,,,
imu,188.882246,0.16449202,-9.602745051200001,2.4745581336,-3.01308726,8.65775177,-2.81598319,,,
imu,188.890735,0.1597067976,-9.611119190400002,2.487717495200001,-2.99065653,8.29886009,-2.63653735,,,
imu,188.899224,0.155519728,-9.610521037600002,2.4954934816,-2.83364142,7.999783689999999,-2.4496146,,,
imu,188.907713,0.1417622136,-9.6159044128,2.5008768568,-2.69905704,7.76052257,-2.28512258,,,
imu,188.916202,0.128602852,-9.609922884800001,2.4978860928,-2.71401086,7.581076729999999,-2.06829219,,,
imu,188.924691,0.1208268656,-9.579417092000002,2.5038676208,-2.42988828,7.551169089999999,-1.76173888,,,
imu,188.93318,0.1190324072,-9.589585689600002,2.5104473016,-2.31773463,7.44649235,-1.50004703,,,
imu,188.941669,0.1034804344,-9.5985579816,2.533177108,-2.24296553,7.483876899999999,-1.38041647,,,
imu,188.950158,0.09690075360000001,-9.6218859408,2.5397567888,-2.36259609,7.71566111,-1.39537029,,,
imu,188.958647,0.1034804344,-9.6326526912,2.5577013728,-2.34016536,7.7081842,-1.46266248,,,
imu,188.967136,0.1238176296,-9.632054538400002,2.5612902896,-2.45979592,7.790430209999999,-1.61967759,,,
imu,188.975625,0.1250139352,-9.6039413568,2.5588976784,-2.69158013,7.66332274,-1.99352309,,,
imu,188.984114,0.1399677552,-9.590183842400002,2.551121692,-2.86354906,7.6334151,-2.20287657,,,
imu,188.992603,0.1579123392,-9.589585689600002,2.5582995256,-2.87102597,7.558646,-2.49447606,,,
imu,189.001092,0.1477437416,-9.585398620000001,2.5565050672,-2.99813344,7.32686179,-2.77859864,,,
imu,189.009581,0.152528964,-9.587193078400002,2.569066276,-3.01308726,7.1848005,-2.9729983,,,
imu,189.01807,0.1495382,-9.578220786400001,2.5678699704,-3.13271782,7.11750831,-3.11505959,,,
imu,189.026559,0.1297991576,-9.593772759200002,2.5828237904,-3.10281018,7.057693029999999,-3.13749032,,,
imu,189.035047,0.1112564208,-9.6051376624,2.595983152,-3.25234838,6.99787775,-3.1973056,,,
imu,189.043536,0.07775986400000001,-9.599156134400001,2.6127314304,-3.37197894,6.93806247,-3.28702852,,,
imu,189.052025,0.0747691,-9.583604161600002,2.603759138400001,-3.3420713,6.89320101,-3.33188998,,,
imu,189.060465,0.04007623760000001,-9.575230022400001,2.6055535968,-3.62619388,7.012831569999999,-3.55619728,,,
imu,189.068904,0.0257205704,-9.591978300800001,2.6127314304,-3.69348607,7.08760067,-3.54124346,,,
imu,189.077344,0.0125612088,-9.5877912312,2.613329583200001,-3.73834753,7.16236977,-3.52628964,,,
imu,189.085783,0.008972292000000002,-9.583006008800002,2.6085443608,-3.59628624,7.68575347,-3.14496723,,,
imu,189.094222,0.0137575144,-9.572837411200002,2.6240963336,-3.4168404,8.096983519999998,-2.65896808,,,
imu,189.102662,0.0137575144,-9.5704448,2.620507416800001,-3.38693276,8.4558752,-2.18792275,,,
imu,189.111101,0.0305057928,-9.5602762024,2.6240963336,-3.37197894,8.92692053,-1.71687742,,,
imu,189.11954,0.0376836264,-9.573435564,2.637853848,-3.32711748,9.49516569,-1.22340136,,,
imu,189.12798,0.05084298800000001,-9.5877912312,2.655798432,-3.22244074,10.10827231,-0.6701100199999999,,,
imu,189.136419,0.0550300576,-9.594370912,2.668957793600001,-3.52151714,10.72137893,-0.2140185099999998,,,
imu,187.723206,,,,,,,-90.6018492,174.6666908,118.0009136
imu,187.824799,,,,,,,-89.8327956,174.2028172,117.8544272
imu,187.926331,,,,,,,-88.58766120000001,173.2628628,119.856408
imu,188.027924,,,,,,,-83.46063720000001,171.3951612,123.8359552
imu,188.129487,,,,,,,-79.664198,171.0655668,125.3130264
imu,188.23108,,,,,,,-79.3956396,170.8458372,125.288612
imu,188.332581,,,,,,,-78.76086520000001,170.467414,124.7759096
imu,188.434144,,,,,,,-79.9571708,170.0279548,125.1299184
imu,189.144859,0.0634041968,-9.627867468800002,2.6863042248,-3.88788573,11.19242426,0.18225772,,,
imu,189.153298,0.06460050240000001,-9.638634219200002,2.685706072000001,-4.20191595,11.76814633,0.4738572100000003,,,
imu,189.161737,0.0753672528,-9.657775108800001,2.6940802112,-4.59819218,12.41116059,0.6383492300000002,,,
imu,189.170177,0.1052748928,-9.6428212888,2.6845097664,-5.061760599999999,12.99435957,0.6159185000000003,,,
imu,189.178616,0.1453511304,-9.609324732000001,2.6755374744,-5.435606099999999,13.540174,0.44394957,,,
imu,189.187056,0.2009793408,-9.580613397600002,2.6653688768,-5.51785211,13.95140405,0.1448731699999999,,,
imu,189.195495,0.2225128416,-9.568650341600001,2.6755374744,-5.816928509999999,14.40749556,-0.4458027199999999,,,
imu,189.203934,0.2506260232,-9.577024480800002,2.6815190024,-5.929082159999999,14.59441831,-1.09629389,,,
imu,189.212374,0.275150288,-9.575828175200002,2.697669128,-6.13843564,14.87854089,-1.6271545,,,
imu,189.220813,0.2889078024000001,-9.571641105600001,2.7120247952,-6.2580662,14.92340235,-2.34493786,,,
imu,189.229252,0.2984782472,-9.578220786400001,2.7168100176,-6.39265058,15.00564836,-3.1973056,,,
imu,189.237692,0.290104108,-9.577024480800002,2.7371472128,-6.616957879999999,15.16266347,-3.98238115,,,
imu,189.246131,0.2913004136,-9.568650341600001,2.736549060000001,-6.98332647,15.14023274,-4.52071867,,,
imu,189.254571,0.2936930248,-9.5447242296,2.7550917968,-7.043141749999999,15.31220167,-4.9169949,,,
imu,189.263389,0.290104108,-9.5148165896,2.7628677832,-7.1552954,15.37949386,-5.16373293,,,
imu,189.272207,0.2775428992,-9.533359326400001,2.771241922400001,-7.38707961,15.38697077,-5.44785551,,,
imu,189.281025,0.2649816904,-9.520798117600002,2.7628677832,-7.48427944,15.51407824,-5.53010152,,,
imu,189.289844,0.257205704,-9.453206851200001,2.7550917968,-7.43194107,15.57389352,-5.47028624,,,
imu,189.298662,0.2649816904,-9.408345391200001,2.7742326864,-7.3796027,15.67857026,-5.26840967,,,
imu,189.30748,0.2691687600000001,-9.434065961600002,2.790382812,-7.43194107,15.6337088,-5.35813259,,,
imu,189.316298,0.2781410520000001,-9.452010545600002,2.8161033824,-7.31231051,15.45426296,-5.50767079,,,
imu,189.325117,0.2918985664000001,-9.474740352000001,2.8310572024,-7.282402869999999,15.05050982,-5.896470109999999,,,
imu,189.333935,0.3218062064,-9.520798117600002,2.859170384,-7.088003209999999,14.84863325,-6.1880696,,,
imu,189.342753,0.3523119992,-9.546518688,2.8753205096,-6.93846501,14.6617105,-6.12825432,,,
imu,189.351571,0.35889168,-9.545322382400002,2.8836946488,-6.74406535,14.41497247,-5.99366994,,,
imu,189.36039,0.3636769024000001,-9.541733465600002,2.9094152192,-6.67677316,14.14580371,-5.67963972,,,
imu,189.369208,0.3840140976,-9.535153784800002,2.913004136000001,-6.616957879999999,14.00374242,-5.193640569999999,,,
imu,189.378026,0.3714528888,-9.541135312800002,2.9273598032,-6.48985041,14.07851152,-4.670256869999999,,,
imu,189.386844,0.3762381112000001,-9.508835061600001,2.9273598032,-6.549665689999999,13.92149641,-4.04219643,,,
imu,189.395663,0.3463304712,-9.481320032800001,2.927957956,-6.42255822,13.66728147,-3.69825857,,,
imu,189.404481,0.3044597752,-9.4591883792,2.9345376368,-6.29545075,13.4654049,-3.47395127,,,
imu,189.413299,0.2243073,-9.450814240000001,2.948893304,-6.17582019,13.27848215,-3.65339711,,,
imu,189.422117,0.1417622136,-9.447225323200001,2.9482951512,-5.884220699999999,13.59998928,-3.92256587,,,
imu,189.430936,0.06101158560000001,-9.4424401008,2.9674360408,-5.94403598,13.9887886,-4.29641137,,,
imu,189.439754,-0.011963056,-9.438851184,2.966239735200001,-5.929082159999999,14.77386415,-4.46090339,,,
imu,189.448572,-0.08493769760000001,-9.448421628800002,2.979997249600001,-6.048712719999999,16.02250812,-4.57305704,,,
imu,189.45739,-0.1178361016,-9.479525574400002,2.997941833600001,-6.27302002,17.71976669,-4.41604193,,,
imu,189.465867,-0.1172379488,-9.496872005600002,3.0009325976,-6.5571426,19.68619402,-4.30388828,,,
imu,189.474343,-0.1082656568,-9.502853533600002,3.0081104312,-6.549665689999999,21.73486736,-4.363703559999999,,,
imu,189.482819,-0.1172379488,-9.537546396000002,3.0511774328,-7.01323411,23.67138705,-4.625395409999999,,,
imu,189.491295,-0.128602852,-9.5447242296,3.0727109336,-7.58147927,25.41350708,-5.05905619,,,
imu,189.499772,-0.1238176296,-9.489694172,3.0727109336,-7.9777555,27.2229193,-5.477763149999999,,,
imu,189.508248,-0.09749890640000002,-9.4490197816,3.059551572000001,-8.366554820000001,29.05476225,-5.77683955,,,
imu,189.516724,-0.06101158560000001,-9.427486280800002,3.054168196800001,-8.605815940000001,30.84922065,-5.93385466,,,
imu,189.5252,-0.01495382,-9.414925072,3.0631404888,-8.88246161,32.44180248,-6.14320814,,,
imu,189.533677,0.07297464160000001,-9.382624820800002,3.0643367944,-9.024522900000001,33.81755392,-6.442284539999999,,,
imu,189.542153,0.1680809368,-9.385017432000001,3.086468448,-9.03947672,35.05872098,-6.621730379999999,,,
imu,189.550629,0.2757484408,-9.388606348800002,3.0930481288,-9.14415346,35.72416596999999,-6.95819133,,,
imu,189.559106,0.3846122504,-9.402363863200002,3.112787171200001,-9.18901492,36.06810383,-7.44419048,,,
imu,189.567582,0.4683536424000001,-9.385017432000001,3.133124366400001,-9.024522900000001,35.98585782,-7.646067049999999,,,
imu,189.576058,0.5538894928000001,-9.3210150824,3.133124366400001,-8.79273869,35.64939687,-7.59372868,,,
imu,189.584534,0.6190881480000001,-9.2917055952,3.1319280608,-8.411416280000001,35.20825918,-7.63111323,,,
imu,189.593011,0.70282954,-9.289312984,3.1510689504,-8.16467825,34.34093762,-7.70588233,,,
imu,189.601487,0.7536725280000001,-9.315033554400001,3.163630159200001,-7.81326348,33.24930876,-7.735789969999999,,,
imu,189.609963,0.7991321408000002,-9.291107442400001,3.164228312,-7.327264329999999,31.94832642,-7.50400576,,,
imu,189.618439,0.8762938520000002,-9.257012732800002,3.142694811200001,-6.76649608,30.69968245,-7.032960429999999,,,
imu,189.626916,0.9283331456000001,-9.222918023200002,3.1444892696,-6.01880508,29.19682354,-6.61425347,,,
imu,189.635392,0.9648204664000001,-9.1924122304,3.12534838,-5.15896043,27.67901081,-6.0385314,,,
imu,189.643868,1.007887468,-9.222319870400002,3.140900352800001,-4.17200831,26.00418297,-5.24597894,,,
imu,189.652344,1.0252338992,-9.246245982400001,3.156452325600001,-3.40188658,24.33683204,-4.4683803,,,
imu,189.660821,1.0252338992,-9.2576108856,3.1743969096,-2.71401086,22.69938875,-4.012288789999999,,,
imu,189.669285,1.0162616072,-9.3006778872,3.1827710488,-1.94388913,20.8675458,-3.58610492,,,
imu,189.67775,1.0162616072,-9.329389221600001,3.1905470352,-1.42798234,19.13290268,-3.39918217,,,
imu,189.686215,1.0234394408,-9.325202152000001,3.195332257600001,-0.91955246,17.33844428,-3.48890509,,,
imu,189.69468,0.9995133288000001,-9.3210150824,3.200715632800001,-0.7401066199999999,15.61127807,-4.02724261,,,
imu,189.703145,0.9935318008000001,-9.3108464848,3.1923414936,-0.59056842,13.87663495,-4.363703559999999,,,
imu,189.711609,0.9672130776000001,-9.3168280128,3.1839673544,-0.43355331,12.20180711,-4.602964679999999,,,
imu,189.720074,0.9373054376000002,-9.2964908176,3.1827710488,-0.02980017,10.6989482,-4.78241052,,,
imu,189.728539,0.9073977976000001,-9.2917055952,3.1696116872,0.18703022,9.33067367,-5.07401001,,,
imu,189.737004,0.8727049352000001,-9.283331456,3.166022770400001,0.22441477,7.96987605,-5.09644074,,,
imu,189.745469,0.8410028368000001,-9.286920372800001,3.1690135344,0.4711528,6.91563174,-4.86465653,,,
imu,189.753934,0.8122915024000001,-9.315631707200001,3.172004298400001,0.67302937,5.88381816,-4.81231816,,,
imu,189.762398,0.7937487656000001,-9.332379985600001,3.182172896,0.8375213899999999,5.06135806,-4.715118329999999,,,
imu,189.770863,0.7865709320000001,-9.359895014400001,3.184565507200001,1.13659779,4.3435747,-4.25902682,,,
imu,189.779328,0.7632429728000001,-9.361689472800002,3.1833692016,1.28613599,3.64822207,-3.98985806,,,
imu,189.787793,0.7405131664000002,-9.3832229736,3.2055008552,1.26370526,2.8481927,-3.7954584,,,
imu,189.796258,0.7393168608000001,-9.3927934184,3.191145188000001,1.2188438,2.33976282,-3.43656672,,,
imu,189.804722,0.7339334856000002,-9.388606348800002,3.1959304104,1.03939796,1.69674856,-3.28702852,,,
imu,189.813187,0.7118018320000001,-9.382026668000002,3.2025100912,1.24875144,1.12102649,-3.18235178,,,
imu,189.821652,0.6920627896000001,-9.399971252000002,3.207893466400001,1.12164397,0.41819695,-3.13749032,,,
imu,189.830117,0.6956517064000001,-9.398774946400001,3.210286077600001,1.05435178,0.02192071999999978,-3.14496723,,,
imu,189.838582,0.6836886504,-9.401167557600001,3.2025100912,1.03192105,-0.4192169699999999,-3.05524431,,,
imu,189.847046,0.6860812616,-9.371259917600002,3.203108244,1.04687487,-0.8753084800000002,-3.08515195,,,
imu,189.855511,0.6998387760000001,-9.322809540800002,3.172004298400001,0.97210577,-1.20429252,-3.20478251,,,
imu,189.863976,0.7381205552000002,-9.2827333032,3.1624338536,1.37585891,-1.570661110000001,-3.27955161,,,
imu,189.87245,0.7823838624,-9.2576108856,3.1624338536,1.70484295,-2.16881391,-3.50385891,,,
imu,189.880924,0.8416009896000001,-9.2342829264,3.149274492,2.28804193,-2.94641255,-3.66835093,,,
imu,189.889397,0.8942384360000002,-9.238469996000001,3.1414985056,2.90114855,-4.01561068,-4.04967334,,,
imu,189.897871,0.9343146736000002,-9.222918023200002,3.140302200000001,3.5366859,-5.211916280000001,-4.18425772,,,
imu,189.906345,0.9456795768000001,-9.2408626072,3.1397040472,3.85071612,-6.83440575,-4.33379592,,,
imu,189.914818,0.9295294512000001,-9.253423816000002,3.1456855752,4.52363802,-8.45689522,-4.22164227,,,
imu,189.923292,0.8882569080000001,-9.277349928000001,3.170807992800001,5.39095958,-9.90741576,-3.84779677,,,
imu,189.931766,0.8116933496000001,-9.322809540800002,3.1887525768,5.95172783,-11.30559793,-3.41413599,,,
imu,189.94024,0.7291482632,-9.3545116392,3.191145188000001,6.29566569,-12.53181117,-2.92813684,,,
imu,189.948713,0.6777071224000001,-9.377839598400001,3.1857618128,6.60969591,-13.41408655,-2.38979932,,,
imu,189.957187,0.6005454112,-9.3718580704,3.1743969096,6.78166484,-14.07205463,-1.91127708,,,
imu,188.535737,,,,,,,-80.6285668,169.6495316,121.5532088
imu,188.637269,,,,,,,-87.23266199999999,171.199846,121.8461816
imu,188.738984,,,,,,,-86.65892360000001,171.016738,118.1596072
imu,188.840363,,,,,,,-89.73513799999999,172.2740796,119.612264
imu,188.941956,,,,,,,-89.9670748,173.0431332,119.307084
imu,189.043488,,,,,,,-90.1135612,173.6657004,118.7333456
imu,189.145112,,,,,,,-90.00369640000001,173.8732228,118.8554176
imu,189.246644,,,,,,,-90.29666920000001,174.6056548,117.2562744
imu,189.965676,0.5257763112000001,-9.364680236800002,3.143292964,6.80409557,-14.4234694,-1.50752394,,,
imu,189.974149,0.4749333232000001,-9.352119028,3.115179782400001,6.72184956,-14.52066923,-1.11124771,,,
imu,189.982623,0.4414367664,-9.323407693600002,3.0930481288,6.89381849,-14.39356176,-0.8121713099999999,,,
imu,189.991097,0.4264829464000001,-9.3210150824,3.074505392,7.2003718,-14.16925446,-0.5953409199999999,,,
imu,189.999571,0.406743904,-9.3479319584,3.054168196800001,7.43215601,-14.04214699,-0.37851053,,,
imu,190.008044,0.3941826952,-9.348530111200002,3.038018071200001,7.68637095,-13.81783969,-0.3037414299999999,,,
imu,190.016518,0.3911919312,-9.349726416800001,3.029643932,8.0228319,-13.56362475,-0.1392494099999999,,,
imu,190.024992,0.3983697648000001,-9.392195265600002,3.0332328488,8.164893189999999,-13.376702,-0.1915877799999999,,,
imu,190.033465,0.4019586816,-9.436458572800001,3.0344291544,8.59855397,-12.98042577,-0.12429559,,,
imu,190.041939,0.4061457512000001,-9.447225323200001,3.029045779200001,8.561169419999999,-12.57667263,0.04019642999999995,,,
imu,190.050413,0.3953790008,-9.4980683112,3.0368217656,8.516307959999999,-12.16544258,0.1149655300000001,,,
imu,190.058887,0.3876030144000001,-9.513620284000002,3.022466098400001,8.28452375,-11.85141236,0.1448731699999999,,,
imu,190.06736,0.3870048616000001,-9.517807353600002,3.0099048896,7.79104769,-11.41027467,0.1299193500000002,,,
imu,190.075845,0.3786307224000001,-9.551902063200002,3.011699348,7.54430966,-10.89436788,-0.004665029999999959,,,
imu,190.084331,0.3666676664,-9.569248494400002,2.9943529168,7.25271017,-10.55790693,-0.3411259799999999,,,
imu,190.092816,0.3786307224000001,-9.5429297712,2.9644452768,6.84148012,-10.33359963,-0.8495558599999999,,,
imu,190.101301,0.3852104032000001,-9.5184055064,2.9363320952,6.50501917,-10.05695396,-1.20844754,,,
imu,190.109786,0.3816214864,-9.492086783200001,2.914798594400001,6.4526808,-9.89993885,-1.69444669,,,
imu,190.118271,0.3732473472,-9.482516338400002,2.8986484688,6.3031426,-9.57095481,-2.001,,,
imu,190.126756,0.3570972216000001,-9.4801237272,2.901041080000001,6.13865058,-9.30178605,-2.03090764,,,
imu,190.135242,0.3212080536,-9.498666464000001,2.913004136000001,5.94425092,-9.05504802,-2.20287657,,,
imu,190.143727,0.3116376088,-9.505246144800001,2.9076207608,5.60778997,-8.70363325,-2.41223005,,,
imu,190.152212,0.3176191368,-9.526779645600001,2.904031844000001,5.27880593,-8.15781882,-2.46456842,,,
imu,190.160697,0.3008708584000001,-9.554892827200002,2.9028355384,5.12926773,-7.873696239999999,-2.59167589,,,
imu,190.169182,0.3038616224,-9.5459205352,2.896854010400001,4.658222400000001,-7.462466190000001,-2.91318302,,,
imu,190.177667,0.323002512,-9.527377798400002,2.875918662400001,4.2843769,-6.909174849999999,-3.01038285,,,
imu,190.186153,0.3421434016,-9.520199964800002,2.854983314400001,4.1348387,-6.4231757,-2.92813684,,,
imu,190.194638,0.3630787496,-9.522592576000001,2.85617962,3.925485220000001,-5.91474582,-2.63653735,,,
imu,190.203123,0.3852104032000001,-9.558481744000002,2.8555814672,3.72360865,-5.54090032,-2.35241477,,,
imu,190.211608,0.3983697648000001,-9.5638651192,2.854983314400001,3.55163972,-5.19696246,-1.97856927,,,
imu,190.220093,0.4103328208,-9.572837411200002,2.838833188800001,3.52920899,-4.90536297,-1.79164652,,,
imu,190.228578,0.4181088072000001,-9.585398620000001,2.8490017864,3.35724006,-4.93527061,-1.81407725,,,
imu,190.237063,0.4145198904,-9.572239258400002,2.8346461192,3.27499405,-4.80068623,-1.76173888,,,
imu,190.245549,0.406743904,-9.538742701600002,2.8137107712,3.26751714,-4.84554769,-1.88136944,,,
imu,190.254034,0.4127254320000001,-9.510031367200002,2.7957661872,3.2376095,-4.83059387,-2.26269185,,,
imu,190.262519,0.4085383624000001,-9.479525574400002,2.7676530056,3.49182444,-4.68105567,-2.41970696,,,
imu,190.271004,0.3834159448,-9.469356976800002,2.7443250464,3.93296213,-4.44179455,-2.51690679,,,
imu,190.279791,0.3636769024000001,-9.435860420000001,2.7299693792,4.232038530000001,-4.14271815,-2.64401426,,,
imu,190.288577,0.3457323184,-9.4382530312,2.72159524,4.57597639,-3.66419591,-2.65149117,,,
imu,190.297363,0.3271895816000001,-9.437056725600002,2.6982672808,4.74046841,-3.02118165,-2.60662971,,,
imu,190.30615,0.305057928,-9.419112141600001,2.7233896984,5.23394447,-2.34825975,-2.63653735,,,
imu,190.314936,0.2942911776,-9.437056725600002,2.7341564488,5.48815941,-1.69029167,-2.71878336,,,
imu,190.323723,0.2793373576,-9.437056725600002,2.7329601432,5.50311323,-1.15195415,-3.08515195,,,
imu,190.332509,0.2703650656,-9.469356976800002,2.7491102688,5.30871357,-0.7332471900000002,-3.63096638,,,
imu,190.341295,0.2446444952,-9.520798117600002,2.7562881024,5.15917537,-0.39678624,-4.17678081,,,
imu,190.350082,0.2207183832,-9.573435564,2.764064088800001,4.97972953,0.006966899999999665,-4.57305704,,,
imu,190.358868,0.2081571744,-9.5842023144,2.7509047272,4.8077606,0.3808123999999999,-4.96185636,,,
imu,190.367655,0.1926052016,-9.608128426400002,2.7550917968,4.56849948,0.8294269999999999,-5.05905619,,,
imu,190.376441,0.1638938672,-9.636241608,2.7449231992,4.14231561,1.27056469,-4.991764,,,
imu,190.385227,0.1423603664,-9.641026830400001,2.745521352,3.84323921,1.79394839,-4.67773378,,,
imu,190.394014,0.1417622136,-9.6494009696,2.7491102688,3.60397809,2.48930102,-4.22911918,,,
imu,190.4028,0.1232194768,-9.655980650400002,2.748512116,3.26004023,3.34166876,-3.60105874,,,
imu,190.411587,0.1357806856,-9.669738164800002,2.75150288,2.88619473,4.171605769999999,-2.99542903,,,
imu,190.420373,0.1309954632,-9.657775108800001,2.7532973384,2.49739541,5.03145042,-2.47204533,,,
imu,190.429159,0.1142471848,-9.597361676,2.7443250464,2.3403803,5.86138743,-1.97109236,,,
imu,190.437946,0.08673215600000002,-9.574631869600001,2.754493644000001,1.8169966,6.71375517,-1.79164652,,,
imu,190.446732,0.062806044,-9.591380148,2.764064088800001,1.57773548,7.66332274,-1.66453905,,,
imu,190.455519,0.0263187232,-9.585398620000001,2.779616061600001,1.28613599,8.74747469,-1.60472377,,,
imu,190.464305,-0.0191408896,-9.553696521600001,2.7802142144,1.13659779,10.06341085,-1.44770866,,,
imu,190.473091,-0.06579680800000001,-9.572837411200002,2.784999436800001,0.65059864,11.40177774,-1.52995467,,,
imu,190.48157,-0.152528964,-9.5800152448,2.771241922400001,0.42629134,12.98688266,-1.87389253,,,
imu,190.490049,-0.2930948720000001,-9.5590798968,2.763465936,0.44124516,15.035556,-2.24773803,,,
imu,190.498528,-0.4342589328000001,-9.537546396000002,2.760475172,0.44872207,17.69733596,-2.2253073,,,
imu,190.507007,-0.666940372,-9.545322382400002,2.760475172,0.26927623,21.27129894,-2.35241477,,,
imu,190.515485,-0.8601437264,-9.571641105600001,2.7610733248,-0.0522309,25.69762966,-2.44213769,,,
imu,190.523964,-1.0563378448,-9.572837411200002,2.739539824,0.1720764,31.17820469,-2.48699915,,,
imu,190.532443,-1.199296364,-9.597959828800002,2.7377453656,0.03001510999999998,37.28684016,-2.81598319,,,
imu,190.540922,-1.31593616,-9.630858232800001,2.7419324352,-0.21672292,43.91885933,-3.30945925,,,
imu,190.549401,-1.4463334704,-9.6667474008,2.709632184,-0.6279529699999999,50.95463164,-4.15435008,,,
imu,190.557879,-1.5354582376,-9.70502918,2.6892949888,-1.18124431,58.26704961999999,-5.305794219999999,,,
imu,190.566358,-1.5599825024,-9.718786694400002,2.6510132096,-2.02613514,66.2523895,-6.487145999999999,,,
imu,190.574837,-1.513326584,-9.7492924872,2.5606921368,-3.14767164,74.35735994000001,-7.361944469999999,,,
imu,190.583316,-1.4397537896,-9.745105417600001,2.5218122048,-4.02247011,82.33522291,-8.38628114,,,
imu,190.591795,-1.3530216336,-9.797144711200001,2.4829322728,-4.7626842,89.85699437000001,-9.68726348,,,
imu,190.600273,-1.2728691584,-9.739123889600002,2.3662924768,-6.04123581,97.02735106,-11.30975295,,,
imu,190.608752,-1.1789591688,-9.692467971200001,2.2574286672,-6.98332647,104.05564646,-12.56587383,,,
imu,190.617231,-1.0551415392,-9.682299373600001,2.177276192,-7.49923326,110.82972692,-13.41076466,,,
imu,190.62571,-0.8140859608000002,-9.6326526912,2.0570474792,-7.820740389999999,117.40193081,-13.92667145,,,
imu,190.634189,-0.5622636320000001,-9.6117173432,1.9703153232,-8.06000151,123.04699786,-14.59211644,,,
imu,190.642667,-0.2578038568000001,-9.533359326400001,1.8883683896,-8.00018623,127.5630515,-15.20522306,,,
imu,190.651146,0.0526374464,-9.501657228000001,1.8106085256,-7.67120219,131.11458375,-16.32675956,,,
imu,190.659625,0.3642750552,-9.414326919200002,1.7340449672,-7.21511068,133.40999512,-17.61278808,,,
imu,190.668104,0.6250696760000001,-9.328791068800001,1.6796130624,-6.36274294,134.75583892,-18.27075616,,,
imu,190.676583,0.9564463272000002,-9.443636406400001,1.6879872016,-5.271114079999999,135.21940734,-18.42777127,,,
imu,190.685042,1.333880744,-9.376045140000002,1.6347516024,-4.57576145,134.40442415,-18.90629351,,,
imu,190.693502,1.6036476568,-9.3802322096,1.6796130624,-3.66357843,132.55762738,-19.47453867,,,
imu,190.701962,1.8865739312,-9.4801237272,1.7537840096,-2.60185721,129.52200192,-19.67641524,,,
imu,190.710422,2.1677057472,-9.550705757600001,1.8100103728,-1.8466893,125.61157799,-19.01844716,,,
imu,190.718881,2.3991908808,-9.6499991224,1.8967425288,-1.56256672,120.79644795,-17.86700302,,,
imu,190.727341,2.576244109600001,-9.6942624296,1.9428002944,-1.26349032,115.03922725,-16.63331287,,,
imu,190.735801,2.7981587984,-9.639830524800002,1.9595485728,-1.39059779,108.46702336,-15.74356058,,,
imu,190.744261,2.93094872,-9.6326526912,1.979885768,-1.25601341,101.25180521,-14.57716262,,,
imu,190.75272,3.054168196800001,-9.562668813600002,1.997830352,-1.19619813,93.46086499,-13.3659032,,,
imu,190.76118,3.071514628,-9.526779645600001,2.030728756,-1.43545925,85.34841764000001,-12.36399726,,,
imu,190.76964,3.0302420848,-9.531564868,2.042691812,-1.48779762,77.06400136,-11.04058419,,,
imu,190.778099,3.0111011952,-9.520798117600002,2.057645632,-1.51770526,69.29549187,-9.47791,,,
imu,189.348332,,,,,,,-90.9680652,175.3136724,116.255284
imu,189.449772,,,,,,,-89.24685000000001,175.6920956,115.2420864
imu,189.551396,,,,,,,-92.0178844,176.0338972,115.034564
imu,189.652866,,,,,,,-90.6018492,175.7043028,110.639972
imu,189.754459,,,,,,,-93.69027080000001,177.2912388,111.6409624
imu,189.856053,,,,,,,-92.1643708,176.7419148,108.869928
imu,189.957615,,,,,,,-94.12973,177.1569596,111.0794312
imu,190.059361,,,,,,,-93.18977560000002,176.9494372,112.3001512
imu,190.786559,2.952482220800001,-9.507638756,2.0468788816,-1.52518217,61.77372041,-7.982528,,,
imu,190.795019,2.868142676,-9.534555632000002,2.0743939104,-1.36816706,54.50616389,-6.681545659999999,,,
imu,190.803479,2.7658585472,-9.5082369088,2.0833662024,-1.4728438,47.52272995,-5.739455,,,
imu,190.811938,2.6043572912,-9.505844297600001,2.0749920632,-1.51022835,40.97295679,-5.20859439,,,
imu,190.820398,2.4488375632,-9.4938812416,2.0773846744,-1.24105959,35.23816682,-4.57305704,,,
imu,190.828858,2.335786684,-9.4526086984,2.0708049936,-0.95693701,29.989376,-3.81041222,,,
imu,190.837318,2.2047912208,-9.46576806,2.0881514248,-0.50832241,25.37612253,-3.57862801,,,
imu,190.845777,2.069608688,-9.513620284000002,2.106694161600001,-0.14943073,21.19652984,-3.63844329,,,
imu,190.854237,1.9308372384,-9.4831144912,2.1366018016,0.32909151,17.59265922,-3.82536604,,,
imu,190.862697,1.82436604,-9.482516338400002,2.150957468800001,0.59078336,14.54955685,-4.13191935,,,
imu,190.871156,1.737633884,-9.4962738528,2.1431814824,0.76275229,12.12703801,-4.33379592,,,
imu,190.879616,1.6796130624,-9.483712644000002,2.1437796352,0.94967504,10.07088776,-4.49081103,,,
imu,190.888085,1.6371442136,-9.465169907200002,2.1449759408,1.10669015,8.351198459999999,-4.55810322,,,
imu,190.896553,1.609031032,-9.453805004000001,2.1479667048,1.37585891,6.74366281,-4.6179185,,,
imu,190.905022,1.588095684,-9.4555994624,2.1455740936,1.60764312,5.27071154,-4.6179185,,,
imu,190.913491,1.5773289336,-9.4801237272,2.1455740936,1.83942733,3.75289881,-4.66277996,,,
imu,190.921959,1.58510492,-9.477132963200003,2.1330128848,2.34785721,2.31733209,-4.74502597,,,
imu,190.930428,1.6084328792,-9.446627170400001,2.1138719952,2.76656417,0.8219500899999996,-4.79736434,,,
imu,190.938897,1.6275737688,-9.4244955168,2.0953292584,3.45443989,-0.8678315700000003,-4.931948719999999,,,
imu,190.947365,1.647910964,-9.429878892000001,2.0690105352,4.07502342,-2.5351825,-5.0665331,,,
imu,190.955834,1.6401349776,-9.7122070136,2.1730891224,4.63579167,-4.31468708,-5.16373293,,,
imu,190.964302,1.7543821624,-9.355109792000002,2.0827680496,4.78532987,-6.348406600000001,-5.22354821,,,
imu,190.972771,1.6592758672,-9.495675700000001,2.1270313568,5.5554516,-8.48680286,-5.73197809,,,
imu,190.98124,1.6437238944,-9.5698466472,2.0630290072,5.88443564,-10.44575328,-6.203023419999999,,,
imu,190.989708,1.6371442136,-9.614109954400002,2.1013107864,6.26575805,-12.2551655,-6.27779252,,,
imu,190.998177,1.6371442136,-9.638634219200002,2.1222461344,6.12369676,-13.9000857,-6.404899990000001,,,
imu,191.006646,1.6562851032,-9.667345553600002,2.1138719952,5.89938946,-15.64968264,-6.442284539999999,,,
imu,191.015114,1.6736315344,-9.669140012000002,2.0947311056,5.64517452,-17.64601761,-6.73388403,,,
imu,191.023583,1.671837076,-9.6667474008,2.0731976048,5.51059014,-19.5077682,-7.010529699999999,,,
imu,191.032051,1.701744716,-9.6494009696,2.0540567152,5.31619048,-21.69102592,-6.943237509999999,,,
imu,191.04052,1.7442135648,-9.618895176800002,2.0265416864,5.27132902,-23.9191451,-6.80117622,,,
imu,191.048989,1.773523052,-9.633848996800001,2.0265416864,5.13674464,-26.4612945,-6.82360695,,,
imu,191.057414,1.7944584,-9.646410205600002,2.0391028952,4.9572988,-29.26513575,-6.793699309999999,,,
imu,191.065882,1.8345346376,-9.6775141512,2.0253453808,4.63579167,-32.21103829,-6.51705364,,,
imu,191.074351,1.8375254016,-9.745703570400002,2.0199620056,4.38157673,-35.18684847,-5.76936264,,,
imu,191.08282,1.7896731776,-9.7995373224,2.0229527696,3.97034668,-38.31219685,-4.89456417,,,
imu,191.09129,1.7352412728,-9.866530436000001,2.021756464,3.589024269999999,-41.31791467,-3.8702275,,,
imu,191.099759,1.65987402,-9.903615909600001,2.0145786304,2.69179507,-44.20400193,-2.76364482,,,
imu,191.108229,1.5557954328,-9.938308772000001,2.0121860192,1.27865908,-46.73119751,-1.50004703,,,
imu,191.116699,1.4242018168,-9.990348065600001,2.00381188,0.04496892999999999,-48.89950141,-0.1915877799999999,,,
imu,191.125169,1.3147398544,-9.998124052,2.0085971024,-1.46536689,-50.69395981,0.75050288,,,
imu,191.133639,1.1867351552,-9.945486605600001,1.9870636016,-3.02056417,-52.00989597,1.31127113,,,
imu,191.142109,1.0545433864,-9.8527729216,1.9661282536,-4.50099235,-52.99684809,1.40847096,,,
imu,191.150579,0.9271368400000001,-9.798341016800002,1.9511744336,-5.674867219999999,-53.58004707,1.43090169,,,
imu,191.159049,0.8027210576,-9.7492924872,1.95895042,-6.56461951,-53.73706218,1.3636095,,,
imu,191.167519,0.6866794144,-9.6643547896,1.9547633504,-7.27492596,-53.6772469,0.6832106900000001,,,
imu,191.175989,0.5754229936,-9.569248494400002,1.964931948,-7.34221815,-53.38564741,-0.07195722000000004,,,
imu,191.184458,0.4366515440000001,-9.520199964800002,1.9942414352,-7.17024922,-52.60804877,-0.7000176599999999,,,
imu,191.192928,0.3361618736,-9.479525574400002,2.0319250616,-6.878649729999999,-51.31454334,-1.04395552,,,
imu,191.201398,0.2709632184,-9.486105255200002,2.0809735912,-6.56461951,-49.7144846,-1.24583209,,,
imu,191.209868,0.2045682576000001,-9.4633754488,2.126433204,-6.19825092,-47.770488,-1.24583209,,,
imu,191.218338,0.143556672,-9.443636406400001,2.1940244704,-5.6599134,-45.59470719,-1.41032411,,,
imu,191.226808,0.080750628,-9.471151435200001,2.2478582224,-5.30102172,-43.38901874,-1.39537029,,,
imu,191.235278,0.0442633072,-9.479525574400002,2.2987012104,-5.129052789999999,-40.89920771,-1.26078591,,,
imu,191.243748,0.04605776560000001,-9.48072188,2.3381792952,-4.87483785,-38.39444286,-1.21592445,,,
imu,191.252218,0.03289840400000001,-9.472347740800002,2.359712796,-4.560807629999999,-35.87472419,-1.06638625,,,
imu,191.260687,0.0352910152,-9.479525574400002,2.4153410064,-4.47108471,-33.66903574,-1.04395552,,,
imu,191.269157,0.04366515440000001,-9.4980683112,2.434481896,-4.21686977,-31.22408617,-0.79721749,,,
imu,191.277627,0.0592171272,-9.524387034400002,2.460202466400001,-4.11219303,-29.01839772,-0.6102947399999998,,,
imu,191.286097,0.08254508640000002,-9.519003659200001,2.488315648,-3.97760865,-26.94729365,-0.6102947399999998,,,
imu,191.294927,0.1190324072,-9.519003659200001,2.4984842456,-3.88040882,-25.01077396,-0.7822636699999999,,,
imu,191.303758,0.1411640608,-9.536948243200001,2.503269468,-3.65610152,-22.98453135,-0.8346020399999998,,,
imu,191.312588,0.1908107432,-9.5219944232,2.4996805512,-3.55142478,-21.09287312,-0.68506384,,,
imu,191.321418,0.2398592728,-9.482516338400002,2.497287940000001,-3.20001001,-19.18626107,-0.5056179999999999,,,
imu,191.330248,0.28412258,-9.4250936696,2.5038676208,-2.8934567,-17.53386396,-0.43832581,,,
imu,191.339078,0.3206099008000001,-9.390998960000001,2.5188214408,-2.5943803,-16.00109741,-0.4158950799999999,,,
imu,191.347909,0.3672658192000001,-9.404756474400001,2.5588976784,-2.35511918,-14.67768434,-0.51309491,,,
imu,191.356739,0.3977716120000001,-9.418513988800001,2.5941886936,-1.95884295,-13.61596312,-0.5579563699999999,,,
imu,191.365569,0.4282774048000001,-9.419710294400002,2.607946208,-1.68967419,-12.76359538,-0.71497148,,,
imu,191.374399,0.4839056152000001,-9.404756474400001,2.6264889448,-1.36069015,-11.93365837,-1.0290017,,,
imu,191.383229,0.5323559920000001,-9.4137287664,2.641442764800001,-1.24105959,-11.36541321,-1.39537029,,,
imu,191.39206,0.5401319784,-9.4831144912,2.6815190024,-0.9494601,-11.08876754,-1.79164652,,,
imu,191.40089,0.5694414656000001,-9.514218436800002,2.6952765168,-0.47093786,-10.67006058,-1.88884635,,,
imu,191.40972,0.6095177032000001,-9.508835061600001,2.7030525032,-0.46346095,-10.43079946,-2.04586146,,,
imu,191.41855,0.6466031768,-9.517807353600002,2.701856197600001,-0.44850713,-10.30369199,-2.12063056,,,
imu,191.42738,0.6723237472000001,-9.492086783200001,2.682715308000001,-0.22419983,-10.13172306,-2.19539966,,,
imu,191.436211,0.7076147624000001,-9.4669643656,2.657592890400001,-0.17186146,-10.02704632,-2.32998404,,,
imu,191.445041,0.7542706808000001,-9.4424401008,2.640844612,0.007584380000000002,-10.02704632,-2.47952224,,,
imu,191.453871,0.8206656416,-9.450216087200001,2.6605836544,0.3216146,-10.25883053,-2.55429134,,,
imu,191.462701,0.8828735328,-9.443636406400001,2.655798432,0.51601426,-10.70744513,-2.72626027,,,
imu,191.471531,0.903210728,-9.436458572800001,2.667761488,0.82256757,-11.47008995,-3.02533667,,,
imu,191.480361,0.8984255056000002,-9.433467808800001,2.6743411688,1.368382,-12.59910336,-3.1973056,,,
imu,191.489192,0.9199590064000001,-9.4107380024,2.661779960000001,1.65250458,-13.72063986,-3.25712088,,,
imu,191.49765,0.9331183680000001,-9.4071490856,2.6653688768,2.13850373,-14.83469945,-3.55619728,,,
imu,191.506109,0.9714001472000001,-9.393391571200002,2.6486205984,2.6394567,-16.18802016,-3.84779677,,,
imu,191.514567,1.0144671488,-9.387410043200001,2.634863084,2.94601001,-17.4890025,-3.95247351,,,
imu,191.523026,1.0539452336,-9.4250936696,2.641442764800001,3.42453225,-18.93204613,-3.97490424,,,
imu,191.531484,1.0958159296,-9.440645642400002,2.6396483064,4.00025432,-20.68164307,-3.80293531,,,
imu,191.539942,1.1143586664,-9.404756474400001,2.6175166528,4.5086842,-22.69293186,-3.77302767,,,
imu,191.548401,1.154434904,-9.352717180800001,2.578636720800001,5.106837000000001,-24.82385121,-3.52628964,,,
imu,191.556859,1.1299106392,-9.371259917600002,2.6031609856,5.7797589,-27.04449348,-3.11505959,,,
imu,191.565318,1.1251254168,-9.4250936696,2.6073480552,6.03397384,-29.36981249,-2.62906044,,,
imu,191.573776,1.1101715968,-9.422701058400001,2.5846182488,6.40781934,-31.50073184,-1.99352309,,,
imu,191.582235,1.0808621096,-9.415523224800001,2.5702625816,6.87886467,-33.60922046,-1.44770866,,,
imu,191.590693,0.9773816752000002,-9.467562518400001,2.5696644288,7.17794107,-35.79247818,-0.99161715,,,
imu,191.599152,0.903210728,-9.519601812000001,2.554112456,7.38729455,-37.78133624,-0.4308489,,,
imu,190.160679,,,,,,,-92.9822532,176.2902484,113.2401056
imu,190.262303,,,,,,,-91.74932600000001,175.4357444,114.2899248
imu,190.365482,,,,,,,-92.29865,175.6066452,114.9002848
imu,190.465397,,,,,,,-89.71072360000001,174.7521412,114.4608256
imu,190.566959,,,,,,,-92.6892804,176.143762,112.837268
imu,190.668553,,,,,,,-92.26202839999999,176.7297076,105.1711464
imu,190.770084,,,,,,,-95.30162120000001,178.6706524,101.545608
imu,190.871678,,,,,,,-94.31283800000001,178.4387156,97.9078624
imu,191.60761,0.8445917536,-9.5040498392,2.5313826496,7.54430966,-39.57579464,-0.09438795,,,
imu,191.616069,0.76264482,-9.489096019200002,2.5170269824,7.85833988,-41.1160381,-0.2289723299999999,,,
imu,191.624527,0.6932590952000001,-9.4962738528,2.5080546904,8.366769759999999,-42.48431263,-0.29626452,,,
imu,191.632985,0.6119103144000001,-9.5004609224,2.4859230368,8.44153886,-43.5834184,-0.1990646899999999,,,
imu,191.641444,0.5323559920000001,-9.5237888816,2.5026713152,8.53126178,-44.44326305,0.18225772,,,
imu,191.649902,0.4312681688,-9.613511801600001,2.548130928,8.65836925,-44.81710855,0.7056414200000001,,,
imu,191.658361,0.3086468448,-9.739722042400002,2.5923942352,8.501354139999998,-44.97412366,1.15425602,,,
imu,191.666819,0.2338777448,-9.7995373224,2.6097406664,7.91815516,-44.81710855,1.737455,,,
imu,191.675278,0.1489400472,-9.809107767200002,2.6121332776,7.19289489,-44.28624794,1.96923921,,,
imu,191.683736,0.1100601152,-9.786377960800001,2.581029332,6.05640457,-43.31424964,2.1860696,,,
imu,191.692195,0.07895616960000001,-9.727160833600001,2.541551247200001,5.04702172,-42.17028241,2.20102342,,,
imu,191.700643,0.06699311360000001,-9.642223136000002,2.4859230368,4.36662291,-40.95154608,2.47019218,,,
imu,191.709092,0.0693857248,-9.567454036,2.4356782016,3.90305449,-39.67299447,2.56739201,,,
imu,191.71754,0.06998387760000001,-9.535153784800002,2.4051724088,3.75351629,-38.77576527,2.4103769,,,
imu,191.725989,0.04545961280000001,-9.599156134400001,2.4147428536,3.93296213,-37.84862843,2.44776145,,,
imu,191.734437,0.0161501256,-9.6075302736,2.416537312,4.17222325,-37.11589125,2.17859269,,,
imu,191.742886,-0.0406743904,-9.716992236000001,2.48233412,4.47877656,-36.23361587,1.93185466,,,
imu,191.751334,-0.08254508640000002,-9.8043225448,2.5146343712,4.2843769,-35.29900212,1.67763972,,,
imu,191.759783,-0.1052748928,-9.836024643200002,2.5547106088,3.88810067,-34.02045051,1.34865568,,,
imu,191.768231,-0.1387714496,-9.8210708232,2.5559069144,3.14788658,-32.18860756,0.8551796199999999,,,
imu,191.776679,-0.1561178808,-9.7821908912,2.5379623304,2.27308811,-30.3492877,0.2645037299999999,,,
imu,191.785128,-0.140565908,-9.740918348000001,2.520615899200001,1.4431511,-28.44267565,-0.12429559,,,
imu,191.793576,-0.116639796,-9.680504915200002,2.4936990232,0.35152224,-26.44634068,-0.60281783,,,
imu,191.802025,-0.1034804344,-9.606333968000001,2.461398772,-0.41859949,-24.47991335,-0.9766633299999998,,,
imu,191.810473,-0.05443190480000001,-9.540537160000001,2.4416597296,-0.7550604399999999,-22.68545495,-1.42527793,,,
imu,191.818922,-0.04007623760000001,-9.483712644000002,2.420126228800001,-0.73262971,-21.17511913,-1.73183124,,,
imu,191.82737,-0.002990764,-9.454403156800002,2.4081631728,-0.47841477,-19.94890589,-1.97109236,,,
imu,191.835819,0.0173464312,-9.453206851200001,2.416537312,0.02253820000000001,-18.90213849,-2.24773803,,,
imu,191.844267,0.0514411408,-9.478329268800001,2.4452486464,0.46367589,-18.04229384,-2.46456842,,,
imu,191.852716,0.0741709472,-9.51062952,2.4637913832,0.8524752099999999,-17.34694121,-2.70382954,,,
imu,191.861164,0.1004896704,-9.538742701600002,2.4841285784,1.58521239,-16.59925021,-2.68139881,,,
imu,191.869613,0.1094619624,-9.5877912312,2.521214052,2.07868845,-16.03100505,-2.71878336,,,
imu,191.878061,0.110658268,-9.613511801600001,2.5409530944,1.99644244,-15.73192865,-2.86084465,,,
imu,191.88651,0.1351825328,-9.6326526912,2.5577013728,2.03382699,-14.97676074,-2.63653735,,,
imu,191.894958,0.1441548248,-9.644017594400001,2.566075512,1.85438115,-14.67768434,-2.56924516,,,
imu,191.903407,0.1561178808,-9.633250844,2.5517198448,1.92167334,-14.25897738,-2.56924516,,,
imu,191.911841,0.1746606176,-9.589585689600002,2.5505235392,1.82447351,-13.95990098,-2.70382954,,,
imu,191.920274,0.188418132,-9.5459205352,2.5289900384,1.80951969,-13.8253166,-3.05524431,,,
imu,191.928708,0.191408896,-9.5010590752,2.5176251352,1.73475059,-13.86270115,-3.23469015,,,
imu,191.937142,0.2015774936,-9.509433214400001,2.5313826496,1.95905789,-13.84027042,-3.28702852,,,
imu,191.945576,0.2027737992,-9.5004609224,2.5367660248,2.22074974,-13.93747025,-3.48142818,,,
imu,191.95401,0.1758569232,-9.488497866400001,2.5678699704,2.43758013,-14.07205463,-3.46647436,,,
imu,191.962444,0.1662864784,-9.522592576000001,2.5756459568,2.33290339,-14.13934682,-3.45899745,,,
imu,191.970877,0.143556672,-9.561472508000001,2.592992388,2.43010322,-14.23654665,-3.45152054,,,
imu,191.979311,0.1339862272,-9.5985579816,2.6031609856,2.5646876,-14.26645429,-3.46647436,,,
imu,191.987745,0.1118545736,-9.608128426400002,2.604955444,2.4899185,-14.17673137,-3.56367419,,,
imu,191.996179,0.08493769760000001,-9.620091482400001,2.6121332776,2.45253395,-14.13934682,-3.66087402,,,
imu,192.004613,0.06998387760000001,-9.6284656216,2.6127314304,2.43010322,-13.75802441,-3.15992105,,,
imu,192.013047,0.06041343280000001,-9.641624983200002,2.6103388192,2.44505704,-13.25707144,-2.36736859,,,
imu,192.02148,0.0634041968,-9.6667474008,2.6115351248,2.25065738,-12.58414954,-1.58976995,,,
imu,192.029914,0.04785222400000001,-9.634447149600001,2.601366527200001,2.22074974,-12.04581202,-0.9018942299999999,,,
imu,190.973184,,,,,,,-94.89878359999999,179.622814,99.8121856
imu,191.074716,,,,,,,-95.06968440000001,179.2077692,101.0206984
imu,191.176309,,,,,,,-95.42369319999999,177.9870492,103.3644808
imu,191.278054,,,,,,,-95.5457652,177.6208332,104.9392096
imu,191.379434,,,,,,,-95.9363956,177.4499324,106.3430376
imu,191.480996,,,,,,,-95.94860279999999,177.1935812,107.405064
imu,191.582559,,,,,,,-93.4095052,176.02169,107.16092
imu,191.684121,,,,,,,-95.43590040000001,175.8874108,111.0306024
imu,191.785684,,,,,,,-91.56621799999999,174.3493036,110.6888008
imu,191.895059,,,,,,,-93.336262,174.2272316,114.8148344
imu,191.99656,,,,,,,-92.27423560000001,174.1661956,112.7884392
