Type,Timestamp,Data Accelerometer X,Data Accelerometer Y,Data Accelerometer Z,Data Gyroscope X,Data Gyroscope Y,Data Gyroscope Z,Data Magnetometer X,Data Magnetometer Y,Data Magnetometer Z
imu,138.529133,-0.2380648144,-9.681103068,2.778419756,6.43025007,-28.88381334,1.86456247,,,
imu,138.537571,-0.1991848824,-9.613511801600001,2.7550917968,5.51806705,-27.23889314,1.67016281,,,
imu,138.546009,-0.161501256,-9.5842023144,2.729371226400001,4.79280678,-25.68369586,1.25893276,,,
imu,138.554447,-0.1268083936,-9.5812115504,2.703650656000001,4.53859184,-24.33785206,0.8551796199999999,,,
imu,138.562885,-0.1058730456,-9.5082369088,2.7000617392,4.23951544,-23.1714541,0.5710570399999999,,,
imu,138.571323,-0.0783580168,-9.5393408544,2.717408170400001,4.17970016,-21.99757923,0.3093651899999998,,,
imu,138.579762,-0.0197390424,-9.623082246400001,2.7820086728,3.947915950000001,-21.06296548,0.09253480000000014,,,
imu,138.5882,0.0053833752,-9.636241608,2.8364405776,3.62640882,-20.15825937,-0.05700339999999993,,,
imu,138.596638,0.0293094872,-9.672130776000001,2.833449813600001,3.3871477,-19.62739876,-0.40841817,,,
imu,138.605076,0.0562263632,-9.667345553600002,2.7999532568,2.92357928,-19.52272202,-0.9542325999999999,,,
imu,138.613421,0.0735727944,-9.6458120528,2.763465936,2.20579592,-19.32832236,-1.50004703,,,
imu,138.621859,0.07596540560000001,-9.578220786400001,2.7084358784,1.68241222,-19.08906124,-1.86641562,,,
imu,138.630298,0.0735727944,-9.548313146400002,2.6635744184,1.46558183,-18.94699995,-2.13558438,,,
imu,138.638834,0.04007623760000001,-9.499862769600002,2.646227987200001,1.42072037,-18.75260029,-2.26269185,,,
imu,138.64737,0.0167482784,-9.536350090400001,2.6683596408,1.54035093,-18.28155496,-2.26269185,,,
imu,138.655906,-0.011963056,-9.5082369088,2.673743016,1.63755076,-17.92266328,-2.21035348,,,
imu,138.664442,-0.04366515440000001,-9.454403156800002,2.709632184,2.0413039,-17.38432576,-1.95613854,,,
imu,138.672978,-0.092713684,-9.417915836,2.713221100800001,2.36281103,-16.76374223,-1.60472377,,,
imu,138.681514,-0.152528964,-9.4831144912,2.7323619904,2.54973378,-15.88894376,-1.52995467,,,
imu,138.69005,-0.1656883256,-9.530966715200002,2.7646622416,2.6394567,-15.12629894,-1.73930815,,,
imu,138.698586,-0.188418132,-9.623680399200001,2.8065329376,2.55721069,-14.31131575,-2.18044584,,,
imu,138.707122,-0.1812402984,-9.6051376624,2.7999532568,2.4151494,-13.376702,-2.42718387,,,
imu,138.715658,-0.1632957144,-9.585398620000001,2.799355104,2.22074974,-12.47199589,-2.38232241,,,
imu,138.724194,-0.1309954632,-9.574631869600001,2.801747715200001,2.22822665,-11.73925871,-2.23278421,,,
imu,138.73273,-0.1004896704,-9.572837411200002,2.7760271448,1.92167334,-10.87941406,-2.01595382,,,
imu,138.741266,-0.08433954480000001,-9.561472508000001,2.7658585472,1.57773548,-10.16910761,-1.61967759,,,
imu,138.749802,-0.07596540560000001,-9.550705757600001,2.743726893600001,1.54035093,-9.45132425,-1.11872462,,,
imu,138.758338,-0.05861897440000001,-9.548313146400002,2.7497084216,1.70484295,-8.61391033,-0.3037414299999999,,,
imu,138.766874,-0.0466559184,-9.519003659200001,2.745521352,1.73475059,-7.94846534,0.18225772,,,
imu,138.77541,-0.0532355992,-9.458590226400002,2.7221933928,1.77213514,-7.260589619999999,0.5934877699999999,,,
imu,138.783946,-0.0813487808,-9.438851184,2.704248808800001,1.9665348,-6.692344459999999,0.5785339500000002,,,
imu,138.792482,-0.08194693360000001,-9.446627170400001,2.7072395728,1.9665348,-6.11662239,0.4065650199999999,,,
imu,138.801018,-0.09630260080000001,-9.4944793944,2.7138192536,2.18336519,-5.339023750000001,0.1523500800000002,,,
imu,138.809554,-0.0747691,-9.52558334,2.7329601432,2.2656112,-4.50908674,-0.4831872699999999,,,
imu,138.81809,-0.0681894192,-9.492684936000002,2.731165684800001,2.16093446,-3.92588776,-1.29817046,,,
imu,138.826626,-0.0143556672,-9.501657228000001,2.724586004,2.34785721,-3.40998097,-1.80660034,,,
imu,138.835162,0.02871133440000001,-9.5327611736,2.712622948,2.60207215,-2.909028,-2.03838455,,,
imu,138.843914,0.06579680800000001,-9.5184055064,2.704248808800001,2.72170271,-2.55013632,-2.21783039,,,
imu,138.852666,0.09450814240000002,-9.520199964800002,2.7108284896,2.87124091,-2.25853683,-2.26269185,,,
imu,138.861418,0.11963056,-9.5148165896,2.7114266424,2.998348379999999,-2.0117988,-2.02343073,,,
imu,138.87017,0.1363788384,-9.5291722568,2.7054451144,2.85628709,-1.64543021,-1.8514618,,,
imu,138.878922,0.1280046992,-9.556089132800002,2.7012580448,2.75908726,-1.59309184,-1.69444669,,,
imu,138.887673,0.1274065464,-9.582407856000001,2.7054451144,2.64693361,-1.55570729,-1.76921579,,,
imu,138.896425,0.1262102408,-9.595567217600001,2.6982672808,2.46748777,-1.46598437,-1.91875399,,,
imu,138.905177,0.125612088,-9.633250844,2.7078377256,2.29551884,-1.39869218,-2.21783039,,,
imu,138.913929,0.1309954632,-9.635643455200002,2.6880986832,1.94410407,-1.286538530000001,-2.56176825,,,
imu,138.922681,0.1381732968,-9.614109954400002,2.6815190024,1.72727368,-1.18186179,-2.84589083,,,
imu,138.931433,0.140565908,-9.6051376624,2.657592890400001,1.43567419,-1.31644617,-3.25712088,,,
imu,138.940185,0.125612088,-9.608128426400002,2.6510132096,1.18893616,-1.24167707,-3.71321239,,,
imu,138.948937,0.113649032,-9.606333968000001,2.625890792,1.00949032,-1.37626145,-4.21416536,,,
imu,138.957689,0.1004896704,-9.5740337168,2.615124041600001,1.1440747,-1.50336892,-4.5431494,,,
imu,138.966441,0.07118018320000001,-9.523190728800001,2.625890792,1.368382,-1.40616909,-4.63287232,,,
imu,138.975193,0.068787572,-9.510031367200002,2.641442764800001,1.48801256,-1.36130763,-4.70016451,,,
imu,138.983944,0.06041343280000001,-9.561472508000001,2.6629762656,1.37585891,-1.35383072,-4.8422258,,,
imu,138.992696,0.03110394560000001,-9.575230022400001,2.6629762656,1.24127453,-1.23420016,-4.79736434,,,
imu,139.001448,0.0125612088,-9.5602762024,2.6546021264,1.15155161,-1.04727741,-4.625395409999999,,,
imu,139.0102,0.0137575144,-9.596763523200002,2.688696836,0.9347212199999999,-1.04727741,-4.42351884,,,
imu,139.018952,0.0107667504,-9.636839760800001,2.7078377256,0.77770611,-0.9725083100000003,-4.18425772,,,
imu,139.027704,-0.0017944584,-9.637437913600001,2.703650656000001,0.6281679099999999,-0.7855855599999999,-3.81788913,,,
imu,139.036456,0.0011963056,-9.593174606400002,2.670752252,0.41881443,-0.5238937100000003,-3.38422835,,,
imu,139.044925,0.0113649032,-9.574631869600001,2.649816904,0.29170696,-0.4192169699999999,-2.95804448,,,
imu,139.053393,0.004785222400000001,-9.562668813600002,2.6396483064,0.2468455,-0.20986349,-2.58419898,,,
imu,139.061862,0.007775986400000001,-9.557883591200001,2.6324704728,0.20198404,0.0368745399999999,-2.19539966,,,
imu,139.07033,0.026916876,-9.5393408544,2.640844612,-0.06718472,0.1490281899999997,-2.03090764,,,
imu,139.078799,0.0281131816,-9.540537160000001,2.6396483064,-0.127,0.2387511099999999,-1.94866163,,,
imu,139.087268,0.0281131816,-9.540537160000001,2.625890792,-0.15690764,0.08921290999999965,-2.23278421,,,
imu,139.095736,0.0382817792,-9.557285438400001,2.625890792,-0.09709236,0.1415512799999998,-2.35989168,,,
imu,139.104205,0.0346928624,-9.532163020800002,2.6390501536,-0.10456927,0.05182836000000002,-2.41223005,,,
imu,139.112674,0.04127254320000001,-9.5501076048,2.6426390704,-0.10456927,0.1041667299999998,-2.73373718,,,
imu,139.121142,0.0215335008,-9.5423316184,2.6312741672,-0.17186146,0.1415512799999998,-2.9729983,,,
imu,139.129611,0.0233279592,-9.528574104,2.6264889448,-0.16438455,0.19388965,-3.10010577,,,
imu,139.138079,0.06160973840000001,-9.537546396000002,2.624694486400001,-0.20924601,0.4032431299999999,-2.92065993,,,
imu,139.146548,0.06160973840000001,-9.565061424800001,2.631872320000001,-0.14195382,0.6350273399999997,-2.71130645,,,
imu,139.155017,0.0741709472,-9.593174606400002,2.655200279200001,-0.10456927,0.7397040799999997,-2.62158353,,,
imu,139.163485,0.0861340032,-9.585398620000001,2.661779960000001,-0.23167674,0.8294269999999999,-2.39727623,,,
imu,139.171954,0.08792846160000001,-9.559678049600002,2.6641725712,-0.19429219,0.8219500899999996,-2.2253073,,,
imu,139.180423,0.09989151760000002,-9.550705757600001,2.6522095152,-0.23915365,0.8967191899999998,-2.3000764,,,
imu,139.188891,0.08493769760000001,-9.553098368800002,2.6683596408,-0.22419983,0.8892422799999999,-2.26269185,,,
imu,139.19736,0.08792846160000001,-9.5237888816,2.6683596408,-0.17186146,0.92662683,-2.35241477,,,
imu,139.205828,0.080750628,-9.5704448,2.6892949888,-0.2017691,0.9565344699999998,-2.53186061,,,
imu,139.214297,0.0681894192,-9.6039413568,2.7090340312,-0.22419983,1.04625739,-2.70382954,,,
imu,139.222766,0.05861897440000001,-9.588987536800001,2.7257823096,-0.36626112,0.98644211,-3.02533667,,,
imu,139.231234,0.03289840400000001,-9.581809703200001,2.7347546016,-0.76253735,1.15841104,-3.27955161,,,
imu,139.239703,0.05084298800000001,-9.589585689600002,2.7180063232,-0.8821679099999999,1.4275798,-3.27955161,,,
imu,139.248167,0.0406743904,-9.597959828800002,2.7209970872,-1.23358268,1.54721036,-3.53376655,,,
imu,139.25663,0.06579680800000001,-9.561472508000001,2.712622948,-1.40555161,1.60702564,-3.56367419,,,
imu,139.265094,0.07297464160000001,-9.5154147424,2.6958746696,-1.48032071,1.77899457,-3.55619728,,,
imu,139.273557,0.07596540560000001,-9.502853533600002,2.682715308000001,-1.49527453,2.05564024,-3.47395127,,,
imu,139.282021,0.08433954480000001,-9.51062952,2.6970709752,-1.36816706,2.11545552,-3.3468438,,,
imu,139.290484,0.09749890640000002,-9.487899713600001,2.7030525032,-1.13638285,2.10797861,-3.13749032,,,
imu,139.298948,0.110658268,-9.470553282400001,2.6934820584,-0.94198319,2.06311715,-3.00290594,,,
imu,139.307411,0.1160416432,-9.486703408,2.7108284896,-0.68776825,2.04816333,-2.90570611,,,
imu,139.315875,0.1124527264,-9.510031367200002,2.7239878512,-0.32887657,2.08554788,-2.76364482,,,
imu,139.324338,0.110658268,-9.549509452,2.7497084216,-0.07466163,2.07807097,-2.59167589,,,
imu,139.332802,0.113649032,-9.552500216,2.7610733248,-0.17933837,2.07807097,-2.73373718,,,
imu,139.341266,0.1064711984,-9.558481744000002,2.7628677832,-0.10456927,2.05564024,-2.77859864,,,
imu,139.349729,0.1022841288,-9.571042952800001,2.7820086728,-0.37373803,1.98087114,-2.9729983,,,
imu,139.358193,0.09989151760000002,-9.604539509600002,2.8107200072,-0.53823005,2.0257326,-3.14496723,,,
imu,139.366656,0.09390998960000001,-9.593174606400002,2.802345868,-0.5756146,2.09302479,-3.22721324,,,
imu,139.37512,0.08912476720000001,-9.567454036,2.8005514096,-0.82235263,2.07807097,-3.30198234,,,
imu,139.383583,0.09091922560000001,-9.531564868,2.7820086728,-1.03170611,2.06311715,-3.50385891,,,
imu,139.392047,0.0861340032,-9.5184055064,2.7706437696,-0.98684465,2.16031698,-3.59358183,,,
imu,139.40051,0.09450814240000002,-9.499264616800001,2.7497084216,-1.00179847,2.27247063,-3.58610492,,,
imu,139.408974,0.1148453376,-9.4831144912,2.7568862552,-1.06909066,2.35471664,-3.67582784,,,
imu,139.417437,0.1351825328,-9.474740352000001,2.7521010328,-0.874691,2.29490136,-3.71321239,,,
imu,139.425901,0.1567160336,-9.437654878400002,2.754493644000001,-0.5980453299999999,2.0257326,-3.69825857,,,
imu,139.434364,0.1579123392,-9.461580990400002,2.7628677832,-0.18681528,1.74161002,-3.75059694,,,
imu,139.442828,0.137575144,-9.4944793944,2.7628677832,-0.02980017,1.31542615,-3.75059694,,,
imu,139.451293,0.1238176296,-9.489096019200002,2.7772234504,0.15712258,1.07616503,-3.68330475,,,
imu,139.459758,0.107667504,-9.487899713600001,2.7802142144,0.18703022,0.9341037399999998,-3.69825857,,,
imu,139.468222,0.08433954480000001,-9.459786532,2.757484408000001,0.65059864,1.04625739,-3.48142818,,,
imu,139.476687,0.04964668240000001,-9.468758824,2.757484408000001,0.85995212,1.25561087,-3.2720747,,,
imu,139.485152,0.023926112,-9.495675700000001,2.769447464,1.00949032,1.38271834,-3.21973633,,,
imu,139.493617,0.0161501256,-9.4873015608,2.7664567,1.30108981,1.68179474,-3.18235178,,,
imu,139.502082,0.0011963056,-9.484908949600001,2.7658585472,1.09173633,1.98087114,-3.28702852,,,
imu,139.510547,-0.0017944584,-9.485507102400002,2.7538954912,1.2936129,2.37714737,-3.26459779,,,
imu,139.519011,-0.023926112,-9.511227672800002,2.7329601432,1.47305874,2.81080815,-3.31693616,,,
imu,139.527476,-0.03947808480000001,-9.519003659200001,2.739539824,1.63007385,3.13979219,-3.39170526,,,
imu,139.535941,-0.0406743904,-9.538742701600002,2.761671477600001,1.71231986,3.64074516,-3.31693616,,,
imu,139.544406,-0.0532355992,-9.5357519376,2.75150288,1.78708896,4.13422122,-3.36927453,,,
imu,139.552871,-0.0562263632,-9.487899713600001,2.7526991856,1.56278166,4.56040509,-3.60853565,,,
imu,139.561335,-0.0293094872,-9.532163020800002,2.7497084216,1.42819728,4.85948149,-3.81788913,,,
imu,138.622284,,,,,,,-92.4573436,175.4357444,116.1087976
imu,138.723877,,,,,,,-91.39531720000001,174.3981324,116.4017704
imu,138.825409,,,,,,,-91.138966,174.0929524,117.53704
imu,139.5698,-0.017944584,-9.578818939200001,2.7556899496,1.22632071,5.21089626,-4.13939626,,,
imu,139.578265,-0.0011963056,-9.576426328,2.7371472128,1.11416706,5.42772665,-4.57305704,,,
imu,139.58673,-0.004785222400000001,-9.575828175200002,2.7383435184,1.13659779,5.71932614,-4.715118329999999,,,
imu,139.595195,0.002990764,-9.578220786400001,2.7239878512,1.09921324,6.07821782,-4.6179185,,,
imu,139.603659,0.0263187232,-9.571042952800001,2.704248808800001,1.2936129,6.74366281,-4.11696553,,,
imu,139.612124,0.04246884880000001,-9.588987536800001,2.7084358784,1.24875144,7.296954149999999,-3.78798149,,,
imu,139.620589,0.0592171272,-9.596165370400001,2.6958746696,1.03939796,7.670799649999999,-3.40665908,,,
imu,139.629054,0.08792846160000001,-9.568650341600001,2.679724544,1.06182869,8.119414249999998,-3.03281358,,,
imu,139.637519,0.1100601152,-9.530966715200002,2.6755374744,0.88985976,8.396059919999999,-2.86832156,,,
imu,139.645984,0.1214250184,-9.5172092008,2.659387348800001,0.9945364999999999,8.47082902,-2.85336774,,,
imu,139.654453,0.143556672,-9.5040498392,2.637853848,0.94967504,8.53812121,-2.98795212,,,
imu,139.662923,0.173464312,-9.519601812000001,2.6420409176,0.7552753799999999,8.35867537,-3.60105874,,,
imu,139.671393,0.1788476872,-9.541135312800002,2.6360593896,0.74779847,7.94744532,-3.97490424,,,
imu,139.679863,0.1979885768,-9.538742701600002,2.6294797088,0.7403215599999999,7.483876899999999,-4.25902682,,,
imu,139.688333,0.2087553272,-9.519601812000001,2.6157221944,0.7104139199999999,6.94553938,-4.34874974,,,
imu,139.696803,0.2015774936,-9.556089132800002,2.622900028000001,0.9870595899999999,6.624032249999999,-4.31136519,,,
imu,139.705211,0.2195220776,-9.5698466472,2.6264889448,1.27118217,6.07821782,-4.012288789999999,,,
imu,139.713681,0.203371952,-9.576426328,2.6211055696,1.30856672,5.397819009999999,-3.97490424,,,
imu,139.722151,0.1932033544,-9.5590798968,2.6169185,1.33847436,4.88938913,-3.80293531,,,
imu,139.730621,0.185427368,-9.571042952800001,2.620507416800001,1.54035093,4.410866889999999,-3.52628964,,,
imu,139.739091,0.1716698536,-9.609324732000001,2.6175166528,1.64502767,3.9697292,-3.31693616,,,
imu,139.747561,0.1549215752,-9.595567217600001,2.631872320000001,1.77961205,3.69308353,-3.13001341,,,
imu,139.756031,0.1417622136,-9.6039413568,2.628881556000001,1.6674584,3.34166876,-2.94309066,,,
imu,139.764501,0.1351825328,-9.596763523200002,2.6240963336,1.52539711,3.07997691,-2.89075229,,,
imu,139.772971,0.1274065464,-9.605735815200001,2.6187129584,1.27865908,2.90053107,-2.72626027,,,
imu,139.781441,0.1220231712,-9.608128426400002,2.6312741672,1.1440747,2.80333124,-2.68139881,,,
imu,139.78991,0.1268083936,-9.6248767048,2.641442764800001,0.8823828499999999,2.5491163,-2.61410662,,,
imu,139.79838,0.1232194768,-9.637437913600001,2.638452000800001,0.77770611,2.38462428,-2.63653735,,,
imu,139.80685,0.1262102408,-9.641026830400001,2.637853848,0.4861066199999999,2.33976282,-2.56176825,,,
imu,139.81532,0.1453511304,-9.617698871200002,2.6336667784,0.06739966,2.2500399,-2.73373718,,,
imu,139.82379,0.1423603664,-9.597959828800002,2.6330686256,0.07487657,2.0257326,-2.69635263,,,
imu,139.83226,0.1262102408,-9.5668558832,2.634863084,-0.17933837,1.90610204,-2.86084465,,,
imu,139.84073,0.1333880744,-9.5740337168,2.6492187512,-0.51579932,1.65936401,-2.93561375,,,
imu,139.8492,0.1190324072,-9.616502565600001,2.673743016,-0.82235263,1.48739508,-3.08515195,,,
imu,139.858011,0.1010878232,-9.618297024,2.6695559464,-1.22610577,1.30794924,-3.28702852,,,
imu,139.866823,0.09749890640000002,-9.5949690648,2.667761488,-1.46536689,1.37524143,-3.3468438,,,
imu,139.875635,0.09390998960000001,-9.572239258400002,2.6743411688,-1.74201256,1.32290306,-3.21973633,,,
imu,139.884446,0.08314323920000001,-9.5602762024,2.6851079192,-1.90650458,1.36776452,-3.13001341,,,
imu,139.893258,0.06699311360000001,-9.591380148,2.6833134608,-1.93641222,1.64441019,-2.78607555,,,
imu,139.902069,0.07596540560000001,-9.5877912312,2.6988654336,-1.83921239,1.98834805,-2.35989168,,,
imu,139.910881,0.07118018320000001,-9.577024480800002,2.701856197600001,-2.13081188,2.13040934,-2.27764567,,,
imu,139.919693,0.0675912664,-9.5740337168,2.701856197600001,-2.22801171,2.28742445,-2.20287657,,,
imu,139.928504,0.0753672528,-9.5501076048,2.6940802112,-2.31025772,2.41453192,-2.21035348,,,
imu,139.937316,0.0747691,-9.555490980000002,2.70664142,-2.2953039,2.44443956,-2.50195297,,,
imu,139.946128,0.08792846160000001,-9.5327611736,2.7030525032,-2.26539626,2.33228591,-2.64401426,,,
imu,139.954939,0.09211553120000002,-9.51062952,2.6952765168,-2.21305789,2.27994754,-2.85336774,,,
imu,139.963751,0.1058730456,-9.4555994624,2.67673378,-2.24296553,2.22760917,-3.03281358,,,
imu,139.972562,0.1148453376,-9.443038253600001,2.6833134608,-1.91398149,2.30985518,-3.04029049,,,
imu,139.981374,0.1363788384,-9.457992073600002,2.688696836,-1.61490509,2.36967046,-2.90570611,,,
imu,139.990186,0.1495382,-9.441841948000002,2.6815190024,-1.22610577,2.25751681,-2.68139881,,,
imu,139.998997,0.170473548,-9.447823476,2.6952765168,-0.81487572,2.16031698,-2.34493786,,,
imu,140.007809,0.2039701048,-9.444234559200002,2.6875005304,-0.5307531400000001,2.20517844,-1.98604618,,,
imu,140.01662,0.212344244,-9.461580990400002,2.7000617392,0.03001510999999998,2.00330187,-1.78416961,,,
imu,140.025432,0.2171294664,-9.484908949600001,2.7120247952,0.23189168,1.74161002,-1.82903107,,,
imu,140.034244,0.2261017584,-9.509433214400001,2.748512116,0.18703022,1.4275798,-1.89632326,,,
imu,140.043055,0.23926112,-9.517807353600002,2.748512116,0.25432241,1.24065705,-1.87389253,,,
imu,140.051867,0.2500278704,-9.519003659200001,2.738941671200001,0.10478421,0.8742884599999998,-1.98604618,,,
imu,140.060346,0.251224176,-9.560874355200001,2.7568862552,-0.02232326000000001,0.5527813299999997,-2.13558438,,,
imu,140.068825,0.2326814392,-9.5907819952,2.757484408000001,-0.20924601,0.06678217999999969,-2.31503022,,,
imu,140.077303,0.2266999112,-9.568650341600001,2.75150288,-0.26906129,-0.1575251200000003,-2.27764567,,,
imu,140.085782,0.2135405496,-9.573435564,2.7371472128,-0.50832241,-0.3818324200000003,-2.32250713,,,
imu,140.094261,0.185427368,-9.554294674400001,2.729371226400001,-0.60552224,-0.5687551700000002,-2.35989168,,,
imu,140.10274,0.1740624648,-9.530966715200002,2.7168100176,-0.56066078,-0.6210935399999999,-2.35989168,,,
imu,140.111219,0.1638938672,-9.553098368800002,2.7203989344,-0.43355331,-0.3893093300000001,-2.14306129,,,
imu,140.119697,0.1692772424,-9.5381445488,2.7257823096,-0.47093786,-0.39678624,-1.97109236,,,
imu,140.128176,0.1597067976,-9.520199964800002,2.7431287408,-0.51579932,-0.1650020300000001,-1.86641562,,,
imu,140.136655,0.173464312,-9.5237888816,2.739539824,-0.41859949,0.2312741999999997,-1.6271545,,,
imu,140.145134,0.1752587704,-9.522592576000001,2.7532973384,-0.37373803,0.41819695,-1.69444669,,,
imu,140.153613,0.19439966,-9.549509452,2.7562881024,-0.29149202,0.6574580699999997,-1.63463141,,,
imu,140.162091,0.2099516328,-9.538742701600002,2.769447464,-0.31392275,0.7770886299999997,-1.65706214,,,
imu,140.17057,0.218325772,-9.539939007200001,2.7688493112,-0.46346095,0.9041961000000001,-1.85893871,,,
imu,140.179049,0.2266999112,-9.5459205352,2.7766252976,-0.48589168,0.9640113799999996,-2.08324601,,,
imu,140.187528,0.2374666616,-9.534555632000002,2.772438228,-0.56066078,0.9789651999999998,-2.04586146,,,
imu,140.196007,0.2536167872,-9.5393408544,2.773634533600001,-0.56066078,1.00139593,-2.23278421,,,
imu,140.204485,0.257205704,-9.5237888816,2.7670548528,-0.55318387,0.94905756,-2.49447606,,,
imu,140.212964,0.2595983152,-9.5423316184,2.7670548528,-0.7401066199999999,0.7397040799999997,-2.74121409,,,
imu,140.221443,0.2590001624000001,-9.533359326400001,2.7706437696,-0.68776825,0.5901658799999998,-2.65896808,,,
imu,140.229922,0.2643835376,-9.5219944232,2.7742326864,-0.6503837,0.4705353199999998,-2.74121409,,,
imu,140.238401,0.251224176,-9.516012895200001,2.7676530056,-0.73262971,0.33595094,-3.0477674,,,
imu,140.246879,0.2374666616,-9.504647992000002,2.7580825608,-0.68776825,0.21632038,-3.1973056,,,
imu,140.255358,0.2117460912,-9.4843107968,2.7473158104,-0.58309151,0.04435144999999974,-3.24964397,,,
imu,140.263818,0.2057645632,-9.477731116000001,2.747913963200001,-0.51579932,0.006966899999999665,-3.29450543,,,
imu,140.272278,0.20935348,-9.472347740800002,2.7568862552,-0.32887657,-0.09770984000000027,-3.46647436,,,
imu,140.280737,0.1955959656,-9.474142199200001,2.7526991856,-0.14943073,-0.02294074000000013,-3.69825857,,,
imu,140.289197,0.1932033544,-9.462777296000002,2.7556899496,-0.11204618,0.08921290999999965,-3.7954584,,,
imu,140.297657,0.1866236736,-9.48072188,2.7838031312,-0.13447691,0.1565051,-3.81041222,,,
imu,140.306117,0.19439966,-9.4980683112,2.7867938952,-0.0522309,0.1714589200000001,-3.78798149,,,
imu,140.314576,0.1902125904,-9.519003659200001,2.801747715200001,-0.20924601,0.1639820099999998,-3.8702275,,,
imu,140.323036,0.19439966,-9.5184055064,2.804140326400001,-0.19429219,0.1041667299999998,-3.81788913,,,
imu,140.331496,0.1926052016,-9.526779645600001,2.8035421736,-0.47841477,-0.07527911000000032,-3.93751969,,,
imu,140.339955,0.1938015072,-9.52558334,2.8011495624,-0.5008455,-0.2397711300000003,-3.92256587,,,
imu,140.348415,0.1842310624,-9.499862769600002,2.794569881600001,-0.51579932,-0.4192169699999999,-3.93004278,,,
imu,140.356875,0.182436604,-9.483712644000002,2.7879902008,-0.37373803,-0.5164168,-3.99733497,,,
imu,140.365335,0.1752587704,-9.4843107968,2.784401284,-0.17186146,-0.59866281,-3.86275059,,,
imu,140.373794,0.1812402984,-9.5040498392,2.775428992000001,-0.0522309,-0.7930624700000002,-3.87770441,,,
imu,140.382254,0.1650901728,-9.510031367200002,2.784401284,0.13469185,-0.9650314,-3.80293531,,,
imu,138.926934,,,,,,,-90.6628852,173.9830876,117.4637968
imu,139.02868,,,,,,,-90.6140564,173.3849348,118.75776
imu,139.130029,,,,,,,-88.19703080000001,172.6158812,116.682536
imu,139.231622,,,,,,,-90.1135612,173.4825924,119.06294
imu,139.333184,,,,,,,-87.64770680000001,173.1285836,116.5482568
imu,139.434716,,,,,,,-90.16238999999999,173.763358,118.3060936
imu,139.538262,,,,,,,-90.0525252,173.3727276,119.0141112
imu,139.637872,,,,,,,-90.3699124,173.458178,118.45258
imu,140.390714,0.1650901728,-9.5154147424,2.783204978400001,0.29918387,-0.9949390400000002,-3.7206893,,,
imu,140.399174,0.1597067976,-9.5213962704,2.789186506400001,0.3889067899999999,-1.06970814,-3.75059694,,,
imu,140.407633,0.1692772424,-9.533957479200001,2.798756951200001,0.47862971,-1.03232359,-3.7954584,,,
imu,140.416093,0.1710717008,-9.546518688,2.823281216,0.51601426,-1.06970814,-3.85527368,,,
imu,140.424553,0.1573141864,-9.534555632000002,2.825075674400001,0.5459219,-1.10709269,-3.92256587,,,
imu,140.433012,0.1626975616,-9.5010590752,2.822084910400001,0.32909151,-1.10709269,-3.77302767,,,
imu,140.441472,0.1662864784,-9.5082369088,2.8286645912,0.17955331,-1.02484668,-3.63096638,,,
imu,140.449932,0.1626975616,-9.4974701584,2.835244272,0.04496892999999999,-1.12952342,-3.58610492,,,
imu,140.458392,0.1357806856,-9.4735440464,2.8280664384,-0.05970781,-1.07718505,-3.51881273,,,
imu,140.466854,0.1423603664,-9.468758824,2.8328516608,-0.32139966,-0.94260067,-3.47395127,,,
imu,140.475316,0.1321917688,-9.519601812000001,2.841225800000001,-0.50832241,-1.07718505,-3.63844329,,,
imu,140.483778,0.125612088,-9.561472508000001,2.8507962448,-0.56066078,-1.21924634,-3.82536604,,,
imu,140.492241,0.1058730456,-9.5566872856,2.8537870088,-0.68776825,-1.39869218,-4.37865738,,,
imu,140.500703,0.1172379488,-9.539939007200001,2.845412869600001,-0.58309151,-1.47346128,-4.759979789999999,,,
imu,140.509165,0.09869521200000002,-9.531564868,2.838833188800001,-0.5681376899999999,-1.43607673,-4.96185636,,,
imu,140.517628,0.0903210728,-9.546518688,2.8340479664,-0.2017691,-1.30896926,-4.602964679999999,,,
imu,140.52609,0.1028822816,-9.530368562400001,2.8226830632,-0.08961545,-1.12952342,-4.18425772,,,
imu,140.534552,0.1184342544,-9.495077547200001,2.805934784800001,0.20198404,-0.7033395499999999,-3.76555076,,,
imu,140.543014,0.1393696024,-9.464571754400001,2.799355104,0.46367589,-0.4042631500000002,-3.32441307,,,
imu,140.551477,0.1321917688,-9.438851184,2.779616061600001,0.97958268,-0.3893093300000001,-2.88327538,,,
imu,140.559939,0.1303973104,-9.423897364000002,2.7646622416,1.30108981,-0.4715553400000001,-2.93561375,,,
imu,140.568401,0.113649032,-9.411934308000001,2.7491102688,1.8169966,-0.4865091600000002,-3.07767504,,,
imu,140.576863,0.10467674,-9.406550932800002,2.757484408000001,2.27308811,-0.4715553400000001,-3.16739796,,,
imu,140.585326,0.10467674,-9.4041583216,2.75150288,2.52730305,-0.6136166300000001,-3.51133582,,,
imu,140.593788,0.1040785872,-9.4244955168,2.7586807136,2.51234923,-0.6210935399999999,-3.496382,,,
imu,140.60225,0.09749890640000002,-9.448421628800002,2.75150288,2.60207215,-0.6883857300000003,-3.76555076,,,
imu,140.610712,0.0855358504,-9.4908904776,2.7688493112,2.98339456,-0.7108164600000002,-3.78798149,,,
imu,140.619175,0.06699311360000001,-9.520199964800002,2.7772234504,2.89367164,-0.8454008399999999,-3.80293531,,,
imu,140.627637,0.05802082160000001,-9.533359326400001,2.7826068256,2.85628709,-0.6360473600000001,-3.70573548,,,
imu,140.636099,0.04187069600000001,-9.559678049600002,2.783204978400001,2.7142258,-0.6734319100000001,-3.83284295,,,
imu,140.644562,0.023926112,-9.575230022400001,2.7820086728,2.4899185,-0.5463244400000002,-3.7954584,,,
imu,140.653024,0.0221316536,-9.566257730400002,2.7820086728,2.37028794,-0.4416477000000003,-3.80293531,,,
imu,140.661486,0.009570444800000001,-9.5656595776,2.7682511584,2.17588828,-0.31454023,-3.81041222,,,
imu,140.669951,-0.002990764,-9.560874355200001,2.7586807136,1.79456587,-0.3220171400000003,-3.97490424,,,
imu,140.678416,0.003588916800000001,-9.5566872856,2.7652603944,1.77213514,-0.2173404000000003,-3.76555076,,,
imu,140.686881,0.0011963056,-9.5698466472,2.760475172,1.5179202,0.11164364,-3.69825857,,,
imu,140.695345,0.0011963056,-9.574631869600001,2.769447464,1.39828964,0.2387511099999999,-3.56367419,,,
imu,140.70381,0.0005981528000000001,-9.583604161600002,2.7748308392,1.18893616,0.5303505999999998,-3.28702852,,,
imu,140.712275,0.005981528000000001,-9.596165370400001,2.7766252976,1.04687487,0.7546578999999998,-3.00290594,,,
imu,140.72074,0.0305057928,-9.6117173432,2.7790179088,1.04687487,1.00887284,-2.74121409,,,
imu,140.729205,0.05443190480000001,-9.589585689600002,2.7879902008,0.9646288599999999,1.19579559,-2.58419898,,,
imu,140.737669,0.05682451600000001,-9.516611048000001,2.7676530056,0.8973366700000001,1.21074941,-2.59167589,,,
imu,140.746134,0.06699311360000001,-9.479525574400002,2.7700456168,0.88985976,1.33037997,-2.5991528,,,
imu,140.754599,0.0903210728,-9.516012895200001,2.7730363808,0.74779847,1.14345722,-2.69635263,,,
imu,140.763064,0.0855358504,-9.541135312800002,2.7790179088,0.68798319,1.06121121,-2.91318302,,,
imu,140.771529,0.0753672528,-9.526779645600001,2.773634533600001,0.70293701,0.8742884599999998,-3.10758268,,,
imu,140.779993,0.08254508640000002,-9.478329268800001,2.7646622416,0.53096808,0.76213481,-3.28702852,,,
imu,140.788458,0.06699311360000001,-9.4908904776,2.7526991856,0.78518302,0.80699627,-3.1973056,,,
imu,140.796852,0.0532355992,-9.513022131200001,2.746119504800001,0.64312173,0.8294269999999999,-2.92813684,,,
imu,140.805317,0.05802082160000001,-9.516611048000001,2.7449231992,0.9197674,1.13598031,-2.36736859,,,
imu,140.813781,0.0562263632,-9.502255380800001,2.7449231992,0.85995212,1.39019525,-2.25521494,,,
imu,140.822246,0.0747691,-9.505844297600001,2.740736129600001,0.9347212199999999,1.60702564,-2.0757691,,,
imu,140.830711,0.07058203040000001,-9.498666464000001,2.7287730736,1.11416706,1.74908693,-2.09072292,,,
imu,140.839176,0.0861340032,-9.4831144912,2.7239878512,1.2188438,1.81637912,-2.41223005,,,
imu,140.847641,0.0933118368,-9.457992073600002,2.7138192536,1.47305874,1.71170238,-2.74121409,,,
imu,140.856106,0.1034804344,-9.439449336800001,2.7054451144,1.68241222,1.55468727,-3.10010577,,,
imu,140.86457,0.1004896704,-9.4280844336,2.704248808800001,2.0413039,1.42010289,-3.45152054,,,
imu,140.873397,0.1058730456,-9.452010545600002,2.703650656000001,2.116073,1.42010289,-3.68330475,,,
imu,140.882223,0.1112564208,-9.504647992000002,2.7209970872,2.29551884,1.34533379,-3.69825857,,,
imu,140.891049,0.1238176296,-9.519601812000001,2.7180063232,2.57216451,1.36776452,-3.496382,,,
imu,140.899875,0.09989151760000002,-9.526779645600001,2.7114266424,2.49739541,1.18084177,-3.44404363,,,
imu,140.908701,0.09929336480000002,-9.547714993600001,2.7239878512,2.62450288,1.12102649,-3.2720747,,,
imu,140.917528,0.08792846160000001,-9.569248494400002,2.7198007816,2.46748777,1.15093413,-3.20478251,,,
imu,140.926354,0.0735727944,-9.555490980000002,2.7090340312,2.407672489999999,1.19579559,-3.18235178,,,
imu,140.93518,0.06041343280000001,-9.536350090400001,2.6934820584,2.4899185,1.06121121,-3.16739796,,,
imu,140.944006,0.04366515440000001,-9.524387034400002,2.689893141600001,2.51234923,1.1285034,-3.15992105,,,
imu,140.952832,0.04246884880000001,-9.52558334,2.6755374744,2.36281103,1.2032725,-3.09262886,,,
imu,140.961659,0.04007623760000001,-9.5237888816,2.6695559464,2.37776485,1.21822632,-3.05524431,,,
imu,140.970485,0.04246884880000001,-9.523190728800001,2.664770724000001,2.40019558,1.36028761,-3.07767504,,,
imu,140.979311,0.0317020984,-9.529770409600001,2.659387348800001,2.47496468,1.54721036,-3.17487487,,,
imu,140.988137,0.03588916800000001,-9.527377798400002,2.6635744184,2.52730305,1.49487199,-3.1973056,,,
imu,140.996964,0.0430670016,-9.553098368800002,2.6599855016,2.51234923,1.62945637,-3.06272122,,,
imu,141.00579,0.04845037680000001,-9.573435564,2.659387348800001,2.51982614,1.96591732,-2.95804448,,,
imu,141.014616,0.04545961280000001,-9.588389384000001,2.671350404800001,2.51982614,2.15284007,-2.77112173,,,
imu,141.023442,0.04845037680000001,-9.597361676,2.6725467104,2.6394567,2.42200883,-2.5991528,,,
imu,141.032268,0.05562821040000001,-9.6015487456,2.668957793600001,2.38524176,2.54163939,-2.53186061,,,
imu,141.041095,0.0747691,-9.626671163200001,2.6719485576,2.3403803,2.78837742,-2.46456842,,,
imu,141.049921,0.080750628,-9.623082246400001,2.6653688768,2.29551884,2.93791562,-2.41970696,,,
imu,141.058747,0.09091922560000001,-9.617100718400001,2.658789196,2.16841137,2.93043871,-2.46456842,,,
imu,141.067573,0.1004896704,-9.602745051200001,2.652807668,1.98148862,2.87810034,-2.56924516,,,
imu,141.076056,0.1058730456,-9.577024480800002,2.6402464592,2.01139626,2.8481927,-2.68887572,,,
imu,141.084539,0.128602852,-9.562070660800002,2.6324704728,1.88428879,2.86314652,-2.76364482,,,
imu,141.093021,0.1357806856,-9.549509452,2.6306760144,1.97401171,2.90053107,-2.81598319,,,
imu,141.101504,0.1459492832,-9.5172092008,2.6187129584,2.01887317,2.86314652,-2.83093701,,,
imu,141.109986,0.1387714496,-9.499264616800001,2.607946208,2.13102682,2.66874686,-2.85336774,,,
imu,141.118469,0.1363788384,-9.512423978400001,2.599572068800001,2.24318047,2.59397776,-2.91318302,,,
imu,141.126952,0.1381732968,-9.5154147424,2.5977776104,2.21327283,2.50425484,-3.13749032,,,
imu,141.135434,0.1357806856,-9.523190728800001,2.607946208,2.27308811,2.34723973,-3.39170526,,,
imu,141.143917,0.131593616,-9.5566872856,2.6085443608,2.49739541,2.29490136,-3.36179762,,,
imu,141.152399,0.1142471848,-9.572837411200002,2.6145258888,2.28804193,2.14536316,-3.51133582,,,
imu,141.160882,0.1070693512,-9.590183842400002,2.6043572912,2.22822665,2.13040934,-3.57862801,,,
imu,141.169365,0.0980970592,-9.599156134400001,2.6001702216,2.29551884,2.13788625,-3.6459202,,,
imu,141.177847,0.07955432240000002,-9.6051376624,2.601366527200001,2.28056502,2.05564024,-3.72816621,,,
imu,141.18633,0.07955432240000002,-9.611119190400002,2.5852164016,2.17588828,2.1005017,-3.7206893,,,
imu,141.194812,0.07058203040000001,-9.623680399200001,2.5864127072,2.03382699,2.25751681,-3.72816621,,,
imu,141.203295,0.0592171272,-9.603343204000002,2.570860734400001,1.74970441,2.33228591,-3.86275059,,,
imu,139.739465,,,,,,,-90.2112188,173.2506556,118.696724
imu,139.840997,,,,,,,-90.4797772,173.2628628,118.574652
imu,139.942529,,,,,,,-90.1379756,173.702322,117.8178056
imu,140.044091,,,,,,,-90.2600476,173.7877724,118.208436
imu,140.145654,,,,,,,-87.63549960000002,173.152998,115.8524464
imu,140.247338,,,,,,,-89.93045319999999,174.6300692,118.0741568
imu,140.348779,,,,,,,-87.24486920000001,173.6901148,115.3641584
imu,140.450341,,,,,,,-89.74734520000001,174.4225468,118.0375352
imu,141.211778,0.0466559184,-9.6087265792,2.5678699704,1.84690424,2.36219355,-3.93751969,,,
imu,141.22026,0.04845037680000001,-9.6159044128,2.5678699704,1.57025857,2.37714737,-4.13191935,,,
imu,141.228743,0.0502448352,-9.614708107200002,2.5738514984,1.5926893,2.43696265,-4.22164227,,,
imu,141.237226,0.04366515440000001,-9.596165370400001,2.569066276,1.55530475,2.58650085,-4.19921154,,,
imu,141.245708,0.0526374464,-9.594370912,2.5547106088,1.36090509,2.64631613,-4.169303899999999,,,
imu,141.254191,0.06400234960000001,-9.581809703200001,2.5535143032,1.30856672,2.85566961,-3.7954584,,,
imu,141.262673,0.0634041968,-9.571042952800001,2.5618884424,1.24127453,3.03511545,-3.5711511,,,
imu,141.271156,0.06699311360000001,-9.550705757600001,2.555308761600001,0.91229049,2.89305416,-3.42908981,,,
imu,141.279474,0.05562821040000001,-9.560874355200001,2.5636829008,0.76275229,2.93043871,-3.3468438,,,
imu,141.287792,0.0634041968,-9.608128426400002,2.566673664800001,0.73284465,2.91548489,-3.46647436,,,
imu,141.29611,0.06699311360000001,-9.638634219200002,2.587609012800001,0.65807555,2.94539253,-3.54124346,,,
imu,141.304428,0.07716171120000001,-9.642223136000002,2.585814554400001,0.56835263,3.05754618,-3.66835093,,,
imu,141.312745,0.06220789120000001,-9.659569567200002,2.5947868464,0.3963837,3.05006927,-3.66835093,,,
imu,141.321063,0.062806044,-9.667943706400001,2.5816274848,0.35899915,3.03511545,-3.33936689,,,
imu,141.329381,0.0663949608,-9.673925234400002,2.580431179200001,0.22441477,3.22951511,-2.94309066,,,
imu,141.337699,0.07297464160000001,-9.667345553600002,2.5636829008,0.03001510999999998,3.46877623,-2.51690679,,,
imu,141.346017,0.08912476720000001,-9.630858232800001,2.557103220000001,-0.13447691,3.67812971,-2.10567674,,,
imu,141.354335,0.08733030880000002,-9.602146898400001,2.536167872,-0.11952309,3.72299117,-2.03090764,,,
imu,141.362653,0.08733030880000002,-9.568052188800001,2.5236066632,0.007584380000000002,3.78280645,-1.86641562,,,
imu,141.37097,0.09989151760000002,-9.520798117600002,2.515232524,-0.127,3.73794499,-2.00847691,,,
imu,141.379288,0.09989151760000002,-9.516012895200001,2.5050639264,-0.01484635000000001,3.72299117,-2.33746095,,,
imu,141.387606,0.09929336480000002,-9.507040603200002,2.4805396616,0.20198404,3.70056044,-2.40475314,,,
imu,141.395924,0.1022841288,-9.528574104,2.4745581336,0.41133752,3.63326825,-2.59167589,,,
imu,141.404242,0.110658268,-9.569248494400002,2.4817359672,0.5010604399999999,3.72299117,-2.58419898,,,
imu,141.41256,0.1028822816,-9.575230022400001,2.4817359672,0.5459219,3.90243701,-2.41970696,,,
imu,141.420878,0.09510629520000001,-9.610521037600002,2.4901101064,0.66555246,4.14169813,-2.17296893,,,
imu,141.429196,0.09690075360000001,-9.657176956,2.5020731624,0.45619898,4.36600543,-1.9262309,,,
imu,141.437513,0.08254508640000002,-9.680504915200002,2.5170269824,0.01506129,4.500589809999999,-1.91127708,,,
imu,141.445831,0.06220789120000001,-9.6984494992,2.5164288296,-0.20924601,4.530497449999999,-2.06829219,,,
imu,141.454149,0.07895616960000001,-9.711608860800002,2.520615899200001,-0.77001426,4.694989469999999,-2.21783039,,,
imu,141.462467,0.08314323920000001,-9.723571916800001,2.543345705600001,-1.14385976,4.979112049999999,-2.31503022,,,
imu,141.470785,0.08792846160000001,-9.7295534448,2.5403549416,-1.8466893,5.18846553,-2.56176825,,,
imu,141.479103,0.08733030880000002,-9.703234721600001,2.562486595200001,-2.41493446,5.43520356,-2.86832156,,,
imu,141.487696,0.10467674,-9.682299373600001,2.566075512,-2.82616451,5.69689541,-3.01038285,,,
imu,141.496288,0.1112564208,-9.659569567200002,2.5499253864,-3.17757928,5.88381816,-3.06272122,,,
imu,141.504881,0.1124527264,-9.6284656216,2.5499253864,-3.48413259,6.160463829999999,-2.98047521,,,
imu,141.513474,0.1351825328,-9.596763523200002,2.552916150400001,-3.79816281,6.50440169,-2.92065993,,,
imu,141.522066,0.152528964,-9.589585689600002,2.5612902896,-3.93274719,6.80347809,-2.80850628,,,
imu,141.530659,0.173464312,-9.535153784800002,2.5594958312,-3.88788573,6.99040084,-2.64401426,,,
imu,141.539252,0.1961941184,-9.505844297600001,2.5702625816,-3.84302427,7.02778539,-2.47952224,,,
imu,141.547844,0.2141387024,-9.481320032800001,2.5768422624,-3.69348607,6.97544702,-2.48699915,,,
imu,141.556437,0.2506260232,-9.5004609224,2.6001702216,-3.48413259,6.624032249999999,-2.65149117,,,
imu,141.56503,0.2685706072,-9.5429297712,2.631872320000001,-3.54394787,6.19037147,-3.13001341,,,
imu,141.573622,0.272159524,-9.541135312800002,2.648022445600001,-3.22991765,5.74175687,-3.25712088,,,
imu,141.582215,0.2924967192,-9.527975951200002,2.667163335200001,-3.22991765,5.18098862,-3.54872037,,,
imu,141.590808,0.2978800944000001,-9.5291722568,2.6839116136,-3.25982529,4.54545127,-3.73564312,,,
imu,141.5994,0.290104108,-9.547116840800001,2.6904912944,-3.37945585,4.126744309999999,-3.71321239,,,
imu,141.607993,0.2733558296,-9.5776226336,2.6892949888,-3.29720984,3.94729847,-3.26459779,,,
imu,141.616586,0.296085636,-9.568052188800001,2.7000617392,-3.23739456,3.81271409,-2.75616791,,,
imu,141.625179,0.2907022608000001,-9.562070660800002,2.7012580448,-3.40188658,3.70056044,-2.36736859,,,
imu,141.633771,0.2913004136,-9.554294674400001,2.7024543504,-3.31964057,3.5211146,-2.19539966,,,
imu,141.642364,0.2823281216,-9.551303910400001,2.70664142,-3.3420713,3.16969983,-2.17296893,,,
imu,141.650957,0.2823281216,-9.5249851872,2.7030525032,-3.1925331,2.83323888,-2.5991528,,,
imu,141.659549,0.2853188856,-9.509433214400001,2.7144174064,-3.08785636,2.56407012,-2.99542903,,,
imu,141.668142,0.2865151912,-9.484908949600001,2.7108284896,-3.028041079999999,2.20517844,-3.59358183,,,
imu,141.676735,0.2673743016,-9.478927421600002,2.7168100176,-2.90093361,1.9509635,-4.13191935,,,
imu,141.685213,0.251224176,-9.477132963200003,2.7072395728,-2.86354906,1.68927165,-4.61044159,,,
imu,141.693692,0.242251884,-9.4633754488,2.7168100176,-2.81121069,1.51730272,-4.80484125,,,
imu,141.702171,0.2308869808,-9.467562518400001,2.730567532,-2.39998064,1.3528107,-4.83474889,,,
imu,141.71065,0.2225128416,-9.461580990400002,2.7323619904,-2.28782699,1.10607267,-4.75250288,,,
imu,141.719129,0.2009793408,-9.477731116000001,2.7449231992,-1.86912003,1.01634975,-4.56558013,,,
imu,141.727607,0.1949978128,-9.499862769600002,2.7652603944,-1.65976655,0.9341037399999998,-4.41604193,,,
imu,141.736086,0.1800439928,-9.4801237272,2.773634533600001,-1.37564397,1.00139593,-4.29641137,,,
imu,141.744565,0.1740624648,-9.474740352000001,2.7652603944,-1.33825942,0.9640113799999996,-4.23659609,,,
imu,141.753044,0.1650901728,-9.477731116000001,2.7652603944,-1.13638285,0.9415806499999997,-4.0197657,,,
imu,141.761523,0.1698753952,-9.477132963200003,2.7867938952,-1.0242292,0.9341037399999998,-3.95247351,,,
imu,141.770001,0.1603049504,-9.459786532,2.784401284,-0.94198319,0.8892422799999999,-3.77302767,,,
imu,141.77848,0.1710717008,-9.474142199200001,2.78141052,-0.65786061,0.7097964399999999,-3.68330475,,,
imu,141.786959,0.17944584,-9.4663662128,2.7826068256,-0.46346095,0.84438082,-3.62348947,,,
imu,141.795438,0.1866236736,-9.48072188,2.792177270400001,-0.38121494,0.78456554,-3.58610492,,,
imu,141.803917,0.1800439928,-9.4980683112,2.796962492800001,-0.38121494,0.6724118899999998,-3.69825857,,,
imu,141.812395,0.1896144376,-9.504647992000002,2.8047384792,-0.22419983,0.52287369,-3.66087402,,,
imu,141.820874,0.1961941184,-9.4801237272,2.7897846592,-0.04475399000000001,0.50044296,-3.71321239,,,
imu,141.829353,0.185427368,-9.4944793944,2.787392048000001,-0.01484635000000001,0.3284740299999998,-3.90013514,,,
imu,141.837832,0.1836329096,-9.502853533600002,2.799355104,0.03749201999999999,0.2462280199999998,-4.08705789,,,
imu,141.846311,0.1908107432,-9.5184055064,2.7957661872,0.07487657,0.1864127399999997,-3.88518132,,,
imu,141.854789,0.1938015072,-9.5148165896,2.7939717288,0.12721494,0.1714589200000001,-3.84031986,,,
imu,141.863268,0.182436604,-9.516012895200001,2.7939717288,0.21693786,0.05182836000000002,-3.8702275,,,
imu,141.871747,0.1776513816,-9.516611048000001,2.792177270400001,0.30666078,0.07425908999999997,-3.84779677,,,
imu,141.880226,0.1698753952,-9.517807353600002,2.7909809648,0.40386061,0.1191205499999999,-3.80293531,,,
imu,141.889097,0.158510492,-9.487899713600001,2.7730363808,0.4711528,0.13407437,-3.70573548,,,
imu,141.897914,0.1423603664,-9.477132963200003,2.778419756,0.63564482,0.2462280199999998,-3.81041222,,,
imu,141.906731,0.1214250184,-9.462777296000002,2.7760271448,0.80013684,0.3060432999999998,-3.8702275,,,
imu,141.915548,0.1154434904,-9.461580990400002,2.7718400752,0.9646288599999999,0.41819695,-3.85527368,,,
imu,141.924365,0.1082656568,-9.4555994624,2.7718400752,1.24875144,0.3509047599999997,-3.78798149,,,
imu,141.933182,0.1082656568,-9.474740352000001,2.7760271448,1.22632071,0.4481045899999998,-3.80293531,,,
imu,141.941999,0.09929336480000002,-9.495675700000001,2.7670548528,1.40576655,0.4256738599999998,-3.98238115,,,
imu,141.950816,0.07775986400000001,-9.514218436800002,2.780812367200001,1.4431511,0.4630584099999999,-4.0945348,,,
imu,141.959633,0.06998387760000001,-9.5148165896,2.7664567,1.58521239,0.2312741999999997,-4.0945348,,,
imu,141.96845,0.06519865520000001,-9.513620284000002,2.7682511584,1.8169966,0.2312741999999997,-4.034719519999999,,,
imu,141.977267,0.04246884880000001,-9.527975951200002,2.7646622416,1.73475059,0.3135202100000001,-4.102011709999999,,,
imu,141.986084,0.03289840400000001,-9.519601812000001,2.759877019200001,1.75718132,0.41819695,-3.93004278,,,
imu,141.994901,0.017944584,-9.519601812000001,2.7580825608,1.94410407,0.6051196999999999,-3.75807385,,,
imu,142.003717,0.007775986400000001,-9.513022131200001,2.7509047272,1.83942733,0.72475026,-3.45152054,,,
imu,142.012534,0.0185427368,-9.5148165896,2.7473158104,1.88428879,1.12102649,-3.20478251,,,
imu,142.021351,0.0161501256,-9.514218436800002,2.745521352,1.94410407,1.47991817,-3.07767504,,,
imu,140.551917,,,,,,,-89.6008588,174.617862,118.8920392
imu,140.65351,,,,,,,-89.3323004,174.3859252,119.4169488
imu,140.755073,,,,,,,-89.22243560000001,173.9708804,119.001904
imu,140.856635,,,,,,,-88.78297640000001,173.763358,119.429156
imu,140.958259,,,,,,,-88.8073908,173.7511508,119.2948768
imu,141.059943,,,,,,,-87.2570764,173.641286,118.8065888
imu,141.161323,,,,,,,-88.52662520000001,173.030926,118.940868
imu,141.262916,,,,,,,-86.4025724,172.7135388,117.292896
imu,142.030168,0.0281131816,-9.5219944232,2.7467176576,1.88428879,1.68179474,-2.92065993,,,
imu,142.038985,0.0406743904,-9.5249851872,2.7347546016,1.74970441,1.88367131,-3.00290594,,,
imu,142.047802,0.0550300576,-9.5184055064,2.7239878512,1.73475059,2.08554788,-3.00290594,,,
imu,142.056619,0.068787572,-9.520798117600002,2.706043267200001,1.87681188,2.39210119,-2.91318302,,,
imu,142.065436,0.09869521200000002,-9.517807353600002,2.7203989344,2.04878081,2.44443956,-2.92065993,,,
imu,142.074253,0.110658268,-9.553098368800002,2.7168100176,2.0413039,2.33228591,-2.92813684,,,
imu,142.08307,0.1172379488,-9.568650341600001,2.7221933928,2.06373463,2.25751681,-3.18982869,,,
imu,142.091549,0.1327899216,-9.551902063200002,2.7150155592,2.10111918,2.15284007,-3.22721324,,,
imu,142.100027,0.1297991576,-9.562070660800002,2.7162118648,2.15345755,2.08554788,-3.26459779,,,
imu,142.108506,0.1417622136,-9.582407856000001,2.7162118648,2.0413039,2.03320951,-3.29450543,,,
imu,142.116985,0.1471455888,-9.590183842400002,2.7162118648,1.87681188,1.9509635,-3.24216706,,,
imu,142.125464,0.1351825328,-9.592576453600001,2.717408170400001,1.82447351,1.89114822,-3.20478251,,,
imu,142.133943,0.1327899216,-9.576426328,2.709632184,1.60764312,1.93600968,-3.07767504,,,
imu,142.142421,0.1303973104,-9.5393408544,2.7030525032,1.38333582,1.81637912,-3.01785976,,,
imu,142.1509,0.137575144,-9.536350090400001,2.6970709752,1.21136689,1.68927165,-3.02533667,,,
imu,142.159379,0.1351825328,-9.538742701600002,2.7012580448,1.15902852,1.56964109,-3.29450543,,,
imu,142.167858,0.1447529776,-9.534555632000002,2.6952765168,1.00201341,1.39019525,-3.56367419,,,
imu,142.176337,0.1471455888,-9.523190728800001,2.6773319328,0.94219813,1.17336486,-3.73564312,,,
imu,142.184815,0.1626975616,-9.513620284000002,2.670752252,1.18893616,0.8892422799999999,-3.86275059,,,
imu,142.193294,0.161501256,-9.520798117600002,2.661779960000001,1.50296638,0.7995193599999997,-3.73564312,,,
imu,142.201773,0.1513326584,-9.550705757600001,2.670752252,1.57773548,0.7995193599999997,-3.41413599,,,
imu,142.210252,0.1698753952,-9.569248494400002,2.6779300856,1.61512003,0.8294269999999999,-3.01038285,,,
imu,142.218731,0.1961941184,-9.5907819952,2.6779300856,1.60016621,0.8369039099999998,-2.72626027,,,
imu,142.227209,0.2500278704,-9.590183842400002,2.6773319328,1.68241222,0.6125966099999998,-2.33746095,,,
imu,142.235688,0.2829262744000001,-9.550705757600001,2.670752252,1.68988913,0.47801223,-2.09819983,,,
imu,142.244167,0.3259932760000001,-9.4938812416,2.6492187512,1.77213514,-0.3369709599999999,-2.32250713,,,
imu,142.252646,0.4187069600000001,-9.4753385048,2.637853848,2.03382699,-1.01736977,-2.62158353,,,
imu,142.261125,0.5269726168000001,-9.468160671200001,2.6187129584,2.27308811,-1.95946043,-2.99542903,,,
imu,142.269603,0.7273538048000001,-9.462777296000002,2.6025628328,2.57964142,-3.33521187,-3.32441307,,,
imu,142.278082,0.9474740352000001,-9.474142199200001,2.588207165600001,2.89367164,-5.421269759999999,-3.52628964,,,
imu,142.286561,1.1251254168,-9.450216087200001,2.570860734400001,3.282470959999999,-8.62886415,-3.78798149,,,
imu,142.29503,1.3440493416,-9.427486280800002,2.5523179976,3.70865483,-12.5542419,-4.386134289999999,,,
imu,142.303498,1.5480194464,-9.4555994624,2.5337752608,4.31428454,-17.36937194,-4.78241052,,,
imu,142.311967,1.7489987872,-9.460384684800001,2.530186344,4.90496043,-22.98453135,-5.05905619,,,
imu,142.320435,1.8447032352,-9.440047489600001,2.5098491488,5.42834413,-29.4520585,-4.999240909999999,,,
imu,142.328904,1.89913514,-9.4765348104,2.5026713152,5.88443564,-36.61493828,-5.03662546,,,
imu,142.337373,1.9392113776,-9.524387034400002,2.4590061608,6.26575805,-43.74043351,-4.75250288,,,
imu,142.345841,1.9278464744,-9.527377798400002,2.4542209384,6.59474209,-51.00799003,-4.13939626,,,
imu,142.35431,1.8458995408,-9.562668813600002,2.4219206872,6.85643394,-58.34283874,-3.24964397,,,
imu,142.362779,1.7053336328,-9.554294674400001,2.3860315192,6.93120304,-65.50571851999999,-2.58419898,,,
imu,142.371247,1.5067469032,-9.517807353600002,2.33279592,6.71437265,-72.20502988,-2.24773803,,,
imu,142.379716,1.2878229784,-9.523190728800001,2.2927196824,6.54988063,-78.14169641999999,-1.60472377,,,
imu,142.388185,1.0629175256,-9.546518688,2.2532415976,6.51249608,-83.04654937999999,-0.73740221,,,
imu,142.396653,0.8487788232000001,-9.5423316184,2.207183832,6.33305024,-87.12146532999999,-0.2140185099999998,,,
imu,142.405122,0.5772174520000001,-9.530966715200002,2.1778743448,6.31061951,-90.44869028,-0.04952648999999987,,,
imu,142.41359,0.2889078024000001,-9.5698466472,2.165313136,6.40034243,-92.9310244,0.01028879000000016,,,
imu,142.422059,-0.0101685976,-9.571641105600001,2.150359316,6.33305024,-94.38154494,0.02524261000000028,,,
imu,142.430528,-0.34393786,-9.593772759200002,2.1539482328,6.40034243,-94.45631404,0.1523500800000002,,,
imu,142.438996,-0.6681366776000001,-9.647606511200001,2.2018004568,6.3779117,-93.31234681,0.30188828,,,
imu,142.447465,-0.9642223136000001,-9.739722042400002,2.219146888,6.41529625,-91.20385818999999,0.5112417599999999,,,
imu,142.455934,-1.2573171856,-9.7474980288,2.263410195200001,5.94425092,-88.04112525999999,0.6308723199999999,,,
imu,142.464402,-1.4852134024,-9.7504887928,2.2448674584,5.63769761,-83.87648639,0.8626565300000002,,,
imu,142.472871,-1.6586777144,-9.759461084800002,2.2837473904,5.13674464,-79.03892561999999,1.10191765,,,
imu,142.481339,-1.7364375784,-9.772022293600001,2.3339922256,4.54606875,-74.12659574999999,1.14677911,,,
imu,142.489808,-1.7986454696,-9.76484446,2.3495441984,4.09745415,-68.70583599999999,0.7804105200000002,,,
imu,142.49827,-1.845301388,-9.797742864000002,2.3704795464,3.46939371,-63.47947591,0.09253480000000014,,,
imu,142.506733,-1.830347568,-9.755274015200001,2.383040755200001,2.66936434,-58.19330054,-0.6476792899999999,,,
imu,142.515195,-1.7902713304,-9.724768222400002,2.4153410064,2.10859609,-53.02675573,-1.53743158,,,
imu,142.523657,-1.7711304408,-9.706225485600001,2.4093594784,1.57025857,-48.0695644,-2.24773803,,,
imu,142.532119,-1.7561766208,-9.668541859200001,2.4057705616,1.02444414,-43.41144947,-3.16739796,,,
imu,142.540582,-1.7364375784,-9.657775108800001,2.3991908808,0.55339881,-38.75333454,-3.8702275,,,
imu,142.549044,-1.692772424,-9.6470083584,2.4087613256,0.35899915,-34.21485017,-4.453426479999999,,,
imu,142.557506,-1.6275737688,-9.662560331200002,2.4183317704,0.35152224,-29.60907361,-4.81231816,,,
imu,142.565968,-1.5528046688,-9.658373261600001,2.395601964,0.28423005,-25.27994272,-5.00671782,,,
imu,142.574431,-1.462483596,-9.655382497600002,2.4009853392,0.05992275,-21.41438025,-4.976810179999999,,,
imu,142.582893,-1.3829292736,-9.648204664000001,2.3944056584,-0.03727708,-17.91518637,-4.991764,,,
imu,142.591355,-1.3147398544,-9.633250844,2.401583492,-0.25410747,-14.88703782,-5.20111748,,,
imu,142.599818,-1.2632987136,-9.614708107200002,2.4183317704,-0.16438455,-12.15048876,-5.2908404,,,
imu,142.60828,-1.2076705032,-9.599156134400001,2.4219206872,-0.09709236,-9.60086245,-5.13382529,,,
imu,142.616742,-1.1526404456,-9.599156134400001,2.4159391592,0.05992275,-7.245635800000001,-4.73007215,,,
imu,142.625204,-1.1197420416,-9.5800152448,2.427304062400001,0.08235347999999998,-5.11471645,-4.40108811,,,
imu,142.633667,-1.085647332,-9.5877912312,2.431491132,0.12721494,-3.23053513,-4.25154991,,,
imu,142.642129,-1.064711984,-9.580613397600002,2.443454188,0.33656842,-1.24915398,-3.99733497,,,
imu,142.650591,-1.0383932608,-9.593772759200002,2.414144700800001,0.53096808,0.76213481,-3.69078166,,,
imu,142.659053,-0.9923354952000002,-9.6087265792,2.440463424,0.82256757,2.6238854,-3.31693616,,,
imu,142.667516,-0.9331183680000001,-9.641624983200002,2.4476412576,0.94219813,4.09683667,-3.24964397,,,
imu,142.675978,-0.8744993936000002,-9.6499991224,2.4518283272,1.08425942,5.32304991,-3.53376655,,,
imu,142.68444,-0.8320305448000002,-9.6284656216,2.449435716,1.20388998,6.26514057,-3.93751969,,,
imu,142.692903,-0.7895616960000001,-9.633848996800001,2.4488375632,1.11416706,6.840862639999999,-4.363703559999999,,,
imu,142.701366,-0.7710189592000001,-9.614109954400002,2.4500338688,1.12164397,7.461446169999999,-4.70764142,,,
imu,142.70983,-0.7375224024000001,-9.614109954400002,2.4518283272,1.07678251,7.625938189999999,-5.216071299999999,,,
imu,142.718293,-0.7333353328000001,-9.6015487456,2.4428560352,1.01696723,7.7829533,-5.48524006,,,
imu,142.726757,-0.7297464160000001,-9.600352440000002,2.434481896,1.07678251,7.954922229999999,-5.53010152,,,
imu,142.73522,-0.7464946944,-9.608128426400002,2.423715145600001,0.9272443100000001,8.10446043,-5.47028624,,,
imu,142.743684,-0.7764023344000002,-9.611119190400002,2.428500368,0.9272443100000001,8.20913717,-5.38804023,,,
imu,142.752147,-0.804515516,-9.6039413568,2.440463424,1.03939796,8.52316739,-5.238502029999999,,,
imu,142.760611,-0.8475825176000001,-9.6087265792,2.4488375632,0.88985976,8.76242851,-5.05905619,,,
imu,142.769074,-0.8727049352000001,-9.640428677600001,2.4440523408,0.8823828499999999,9.29328912,-4.68521069,,,
imu,142.777538,-0.8744993936000002,-9.6470083584,2.458408008,0.83004448,9.94378029,-4.48333412,,,
imu,142.786001,-0.8858642968000001,-9.682897526400001,2.4685766056,0.64312173,10.42230253,-4.318842099999999,,,
imu,142.794465,-0.8481806704000001,-9.662560331200002,2.460202466400001,0.3889067899999999,11.14008589,-4.20668845,,,
imu,142.802929,-0.8589474208000002,-9.6499991224,2.4518283272,0.21693786,11.62608504,-4.15435008,,,
imu,142.811392,-0.8487788232000001,-9.635045302400002,2.4500338688,-0.007369440000000005,11.92516144,-4.34874974,,,
imu,142.819856,-0.8296379336000002,-9.611119190400002,2.437472660000001,-0.23167674,12.23171475,-4.40108811,,,
imu,142.828319,-0.8332268504000001,-9.603343204000002,2.4398652712,-0.15690764,12.53079115,-4.4683803,,,
imu,142.836783,-0.8320305448000002,-9.630260080000001,2.4488375632,-0.29149202,12.95697502,-4.35622665,,,
imu,141.364478,,,,,,,-88.88063399999999,172.9820972,119.1972192
imu,141.470924,,,,,,,-86.76878839999999,172.2618724,116.1698336
imu,141.567603,,,,,,,-88.9172556,173.1163764,118.2816792
imu,141.669135,,,,,,,-89.40554359999999,173.7877724,118.513616
imu,141.770698,,,,,,,-89.57644440000001,173.824394,118.330508
imu,141.872321,,,,,,,-89.1491924,174.19061,118.3183008
imu,141.973853,,,,,,,-89.1980212,174.1051596,118.8554176
imu,142.075385,,,,,,,-89.40554359999999,173.58025,119.0751472
imu,142.845246,-0.8152822664000001,-9.621287788000002,2.4380708128,-0.46346095,13.28595906,-4.25154991,,,
imu,142.85371,-0.8098988912000001,-9.6117173432,2.429696673600001,-0.5980453299999999,13.62989692,-4.124442439999999,,,
imu,142.862173,-0.8051136688,-9.5877912312,2.4087613256,-0.45598404,14.05608079,-3.72816621,,,
imu,142.870637,-0.8152822664000001,-9.585398620000001,2.404574256,-0.28401511,14.48226466,-3.38422835,,,
imu,142.8791,-0.8134878080000001,-9.590183842400002,2.40756502,-0.09709236,14.96826381,-3.01785976,,,
imu,142.887564,-0.8439936008000001,-9.602146898400001,2.4213225344,-0.07466163,15.65613953,-2.74121409,,,
imu,142.896028,-0.885266144,-9.633250844,2.4476412576,-0.05970781,16.29167688,-2.46456842,,,
imu,142.904838,-0.9450814240000001,-9.667345553600002,2.4560153968,-0.07466163,17.01693715,-2.21783039,,,
imu,142.913648,-0.9893447312000001,-9.664952942400001,2.4536227856,-0.26906129,18.03379691,-2.19539966,,,
imu,142.922458,-1.0449729416,-9.648802816800002,2.4482394104,-0.32139966,19.39459453,-2.24026112,,,
imu,142.931269,-1.0904325544,-9.639232372,2.4356782016,-0.44850713,20.95726872,-2.15801511,,,
imu,142.940079,-1.1508459872,-9.660765872800003,2.455417244,-0.98684465,22.68443493,-2.21035348,,,
imu,142.948889,-1.193314836,-9.6499991224,2.45242648,-1.25601341,24.69572372,-2.19539966,,,
imu,142.9577,-1.2280076984,-9.6470083584,2.4518283272,-1.3980747,27.0733811,-2.18792275,,,
imu,142.96651,-1.2656913248,-9.646410205600002,2.4512301744,-1.48779762,29.57066904,-2.27016876,,,
imu,142.97532,-1.2997860344,-9.633848996800001,2.4488375632,-1.51022835,32.29974119,-2.49447606,,,
imu,142.984071,-1.3871163432,-9.6535880392,2.4518283272,-1.63733582,35.32041283,-2.9729983,,,
imu,142.992881,-1.444539012,-9.6709344704,2.4572117024,-1.74948947,38.78222216,-3.24216706,,,
imu,143.001691,-1.531271168,-9.701440263200002,2.461398772,-2.1457657,42.66273845,-3.57862801,,,
imu,143.010502,-1.591086448,-9.7086180968,2.45242648,-2.2205348,47.06663844,-3.44404363,,,
imu,143.019312,-1.6461165056,-9.7193848472,2.4302948264,-2.45979592,51.82943011,-3.22721324,,,
imu,143.028122,-1.6945668824,-9.787574266400002,2.4536227856,-2.72148777,57.0557902,-2.98795212,,,
imu,143.036932,-1.6969594936,-9.786377960800001,2.429696673600001,-3.25982529,62.21485809999999,-3.1225365,,,
imu,143.045743,-1.653892492,-9.748096181600001,2.3728721576,-4.00751629,67.50851038,-3.69078166,,,
imu,143.054553,-1.5456268352,-9.736731278400002,2.3561238792,-4.73277656,72.61523991,-4.35622665,,,
imu,143.063363,-1.3691717592,-9.789368724800001,2.3405719064,-5.72720559,77.31073939000001,-4.87213344,,,
imu,143.072174,-1.1317050976,-9.803724392000001,2.359712796,-6.56461951,81.37070152,-5.43290169,,,
imu,143.080984,-0.8774901576000002,-9.8162856008,2.3435626704,-7.48427944,84.36146552000001,-6.14320814,,,
imu,143.089794,-0.6657440664000001,-9.7504887928,2.2891307656,-8.344124090000001,86.50733869,-6.689022570000001,,,
imu,143.098604,-0.4013605288,-9.722973764,2.2783640152,-9.263784020000001,87.71112120000001,-7.09277571,,,
imu,143.107083,-0.137575144,-9.667943706400001,2.2472600696,-9.98904429,87.98776687,-7.15259099,,,
imu,143.115562,0.0466559184,-9.5800152448,2.201202304,-10.51242799,87.59896755,-7.032960429999999,,,
imu,143.124041,0.2613927736,-9.503451686400002,2.1689020528,-10.61710473,86.7391229,-6.62920729,,,
imu,143.13252,0.4037531400000001,-9.477132963200003,2.1527519272,-10.32550524,85.31851,-5.94133157,,,
imu,143.140998,0.5329541448,-9.493283088800002,2.1940244704,-9.95165974,83.38199031,-5.13382529,,,
imu,143.149477,0.6519865520000001,-9.555490980000002,2.2628120424,-9.56286042,81.29593242,-4.17678081,,,
imu,143.157956,0.8116933496000001,-9.550705757600001,2.3232254752,-9.27126093,79.03042869000001,-3.41413599,,,
imu,143.166435,1.043776636,-9.5656595776,2.3973964224,-9.21144565,76.0471416,-2.90570611,,,
imu,143.174914,1.2405689072,-9.531564868,2.4356782016,-8.912369250000001,72.2339175,-2.55429134,,,
imu,143.183392,1.381732968,-9.443038253600001,2.4536227856,-8.85255397,67.64309476,-2.8982292,,,
imu,143.191871,1.4696614296,-9.4005694048,2.4799415088,-8.46375465,62.40178084999999,-3.14496723,,,
imu,143.20035,1.4929893888,-9.403560168800002,2.4978860928,-8.16467825,56.79409835,-3.47395127,,,
imu,143.208829,1.4959801528,-9.395784182400002,2.5403549416,-7.86560185,50.9994931,-3.60105874,,,
imu,143.217308,1.4553057624,-9.389204501600002,2.5618884424,-7.446894889999999,45.81051755999999,-3.44404363,,,
imu,143.225786,1.3960886352,-9.381428515200001,2.5774404152,-6.878649729999999,40.79351095,-3.24216706,,,
imu,143.234265,1.31593616,-9.385017432000001,2.583421943200001,-6.16086637,36.24007276,-3.09262886,,,
imu,143.242744,1.2184372536,-9.350324569600001,2.603759138400001,-5.338406269999999,32.11281844,-2.77112173,,,
imu,143.251223,1.1257235696,-9.372456223200002,2.6252926392,-4.67296128,28.45660945,-2.18044584,,,
imu,143.259702,1.034804344,-9.395186029600001,2.634264931200001,-3.74582444,25.37612253,-1.48509321,,,
imu,143.26818,0.9444832712000001,-9.426888128000002,2.673743016,-2.87850288,22.56480437,-1.26826282,,,
imu,143.276659,0.8595455736000001,-9.436458572800001,2.6970709752,-2.18315025,19.95536278,-1.08134007,,,
imu,143.285138,0.804515516,-9.4250936696,2.718604476,-1.76444329,17.64499759,-1.14115535,,,
imu,143.293617,0.7387187080000002,-9.478329268800001,2.7359509072,-1.36816706,15.62623189,-1.21592445,,,
imu,143.302096,0.7016332344,-9.5249851872,2.7473158104,-1.09152139,13.73457366,-1.41032411,,,
imu,143.310558,0.6501920936000001,-9.5118258256,2.763465936,-1.19619813,12.1195611,-1.74678506,,,
imu,143.31902,0.6424161072,-9.5010590752,2.7706437696,-1.49527453,10.57184073,-2.12810747,,,
imu,143.327483,0.6220789120000001,-9.544126076800001,2.7802142144,-1.57004363,9.203566200000001,-2.48699915,,,
imu,143.335945,0.6023398696000001,-9.5566872856,2.7951680344,-1.82425857,7.92501459,-2.73373718,,,
imu,143.344407,0.5963583416000001,-9.568650341600001,2.796962492800001,-2.04856587,6.863293369999999,-2.70382954,,,
imu,143.352869,0.5550857984,-9.593174606400002,2.792177270400001,-2.26539626,5.726803049999999,-2.94309066,,,
imu,143.361332,0.5042428104000001,-9.560874355200001,2.7826068256,-2.39998064,5.001542779999999,-2.98795212,,,
imu,143.369794,0.4444275304,-9.501657228000001,2.7861957424,-2.54204193,4.29871324,-3.08515195,,,
imu,143.378256,0.4025568344,-9.477132963200003,2.7861957424,-2.75139541,3.76037572,-2.98795212,,,
imu,143.386718,0.376836264,-9.501657228000001,2.8190941464,-2.7439185,3.54354533,-2.99542903,,,
imu,143.395181,0.3247969704000001,-9.5501076048,2.854983314400001,-2.84859524,3.51363769,-2.92065993,,,
imu,143.403643,0.2889078024000001,-9.5566872856,2.877713120800001,-3.25982529,3.42391477,-2.83093701,,,
imu,143.412105,0.2918985664000001,-9.554892827200002,2.8902743296,-3.85797809,3.55849915,-2.80102937,,,
imu,143.420567,0.2590001624000001,-9.5447242296,2.905228149600001,-4.41126943,3.81271409,-2.85336774,,,
imu,143.42903,0.2117460912,-9.578818939200001,2.9297524144,-4.75520729,4.28375942,-2.69635263,,,
imu,143.437492,0.218325772,-9.616502565600001,2.9441080816,-5.338406269999999,4.717420199999999,-2.5243837,,,
imu,143.445954,0.2231109944,-9.578220786400001,2.9375284008,-5.816928509999999,5.12117334,-2.49447606,,,
imu,143.454417,0.2284943696,-9.553098368800002,2.914798594400001,-5.99637435,5.704372319999999,-2.748691,,,
imu,143.462879,0.2434481896,-9.527975951200002,2.910013372,-6.123481819999999,5.95111035,-3.05524431,,,
imu,143.471341,0.245242648,-9.489096019200002,2.898050316,-5.77206705,6.14551001,-3.24964397,,,
imu,143.479803,0.2356722032,-9.471749588000002,2.9171912056,-5.48794447,6.339909669999999,-3.61601256,,,
imu,143.488266,0.2410555784,-9.4424401008,2.918985664,-5.34588318,6.49692478,-4.0945348,,,
imu,143.496728,0.251224176,-9.382624820800002,2.9237708864,-5.01689914,6.7361859,-4.58053395,,,
imu,143.50519,0.2560093984,-9.3658765424,2.9363320952,-4.53089999,6.90067792,-4.86465653,,,
imu,143.513655,0.2733558296,-9.399971252000002,2.971024957600001,-4.134623759999999,7.16236977,-4.9169949,,,
imu,142.176909,,,,,,,-86.74437400000001,173.336106,118.7089312
imu,142.278441,,,,,,,-89.22243560000001,173.5558356,119.6488856
imu,142.380034,,,,,,,-86.622302,172.7623676,116.7679864
imu,142.481718,,,,,,,-85.8532484,172.66471,122.2490192
imu,142.583189,,,,,,,-77.54014520000001,171.6026836,124.86136
imu,142.684843,,,,,,,-77.52793799999999,171.5294404,124.8857744
imu,142.786223,,,,,,,-77.65001000000001,171.0411524,124.6660448
imu,142.887846,,,,,,,-78.2237484,171.1876388,124.251
imu,142.989409,,,,,,,-79.7618556,171.2852964,124.5195584
imu,143.090941,,,,,,,-84.2663124,171.8468276,122.8837936
imu,143.192503,,,,,,,-86.42698680000001,172.847818,119.246048
imu,143.294096,,,,,,,-89.613066,174.5446188,117.8788416
imu,143.395628,,,,,,,-87.35473400000001,174.0319164,115.0711856
imu,143.497221,,,,,,,-90.3210836,175.0695284,117.2074456
