Type,Timestamp,Data Accelerometer X,Data Accelerometer Y,Data Accelerometer Z,Data Gyroscope X,Data Gyroscope Y,Data Gyroscope Z,Data Magnetometer X,Data Magnetometer Y,Data Magnetometer Z
imu,402.294278,0.1387714496,-9.5985579816,2.3997890336,-1.66724346,3.73794499,-3.88518132,,,
imu,402.302739,0.1477437416,-9.623082246400001,2.4003871864,-1.80182784,3.61831443,-4.034719519999999,,,
imu,402.3112,0.1519308112,-9.6284656216,2.4033779504,-1.82425857,3.62579134,-4.06462716,,,
imu,402.319661,0.1573141864,-9.633848996800001,2.4153410064,-1.88407385,3.73046808,-3.8702275,,,
imu,402.328122,0.1692772424,-9.651793580800001,2.4231169928,-2.01118132,3.71551426,-3.76555076,,,
imu,402.336583,0.1722680064,-9.654784344800001,2.431491132,-2.24296553,3.65569898,-3.85527368,,,
imu,402.345044,0.1716698536,-9.652989886400002,2.4488375632,-2.43736519,3.61831443,-3.84031986,,,
imu,402.353505,0.1758569232,-9.662560331200002,2.4518283272,-2.54951884,3.46129932,-3.9449966,,,
imu,402.361966,0.1776513816,-9.652989886400002,2.4536227856,-2.60185721,3.37905331,-4.13939626,,,
imu,402.370427,0.1519308112,-9.648802816800002,2.4691747584,-2.79625687,3.25194584,-4.33379592,,,
imu,402.379255,0.1513326584,-9.635045302400002,2.4769507448,-2.94579507,2.97530017,-4.34874974,,,
imu,402.388082,0.1471455888,-9.611119190400002,2.4775488976,-3.08785636,2.96782326,-4.386134289999999,,,
imu,402.39691,0.1351825328,-9.612315496,2.4841285784,-3.117764,2.88557725,-4.386134289999999,,,
imu,402.405737,0.1327899216,-9.620689635200002,2.4960916344,-3.08785636,2.69117759,-4.341272829999999,,,
imu,402.414565,0.1148453376,-9.623680399200001,2.5104473016,-3.028041079999999,2.50425484,-4.27398064,,,
imu,402.423392,0.101685976,-9.632054538400002,2.515232524,-3.05794872,2.22760917,-4.26650373,,,
imu,402.43222,0.09690075360000001,-9.640428677600001,2.5164288296,-2.99065653,2.19022462,-4.29641137,,,
imu,402.441047,0.0855358504,-9.625474857600002,2.5248029688,-3.14019473,2.07807097,-4.25902682,,,
imu,402.449875,0.06101158560000001,-9.597361676,2.531980802400001,-3.08037945,2.04068642,-4.012288789999999,,,
imu,402.458702,0.06699311360000001,-9.599156134400001,2.5505235392,-3.028041079999999,1.98834805,-3.90761205,,,
imu,402.46753,0.0514411408,-9.638634219200002,2.564879206400001,-3.11028709,1.98834805,-3.92256587,,,
imu,402.476357,0.02990764000000001,-9.61530626,2.5594958312,-3.16262546,1.92105586,-3.90761205,,,
imu,402.485185,0.04007623760000001,-9.591380148,2.5636829008,-3.22244074,2.13040934,-3.65339711,,,
imu,402.494013,0.0502448352,-9.5704448,2.5642810536,-3.45422495,2.30237827,-3.54124346,,,
imu,402.50284,0.0317020984,-9.557285438400001,2.569066276,-3.66357843,2.30237827,-3.5711511,,,
imu,402.511668,0.0352910152,-9.551303910400001,2.5744496512,-3.57385551,2.59397776,-3.2720747,,,
imu,402.520495,0.04964668240000001,-9.572837411200002,2.5923942352,-3.85797809,2.7734236,-3.10010577,,,
imu,402.529323,0.0550300576,-9.591978300800001,2.5983757632,-3.68600916,3.01268472,-2.86832156,,,
imu,402.53815,0.06041343280000001,-9.588389384000001,2.6001702216,-3.7906859,3.2220382,-2.95804448,,,
imu,402.546978,0.06220789120000001,-9.580613397600002,2.613329583200001,-3.70096298,3.28185348,-3.00290594,,,
imu,402.555805,0.0723764888,-9.596763523200002,2.6193111112,-3.70096298,3.26689966,-3.18982869,,,
imu,402.564633,0.0663949608,-9.593174606400002,2.6294797088,-3.70096298,3.27437657,-3.35432071,,,
imu,402.57346,0.05861897440000001,-9.579417092000002,2.6330686256,-3.61124006,3.24446893,-3.48890509,,,
imu,402.581924,0.068787572,-9.557883591200001,2.6372556952,-3.38693276,3.33419185,-3.39918217,,,
imu,402.590387,0.07955432240000002,-9.535153784800002,2.640844612,-3.40188658,3.33419185,-3.44404363,,,
imu,402.598851,0.068787572,-9.5566872856,2.6396483064,-3.09533327,3.31176112,-3.50385891,,,
imu,402.607315,0.06101158560000001,-9.560874355200001,2.64682614,-2.8934567,3.3715764,-3.43656672,,,
imu,402.615778,0.06160973840000001,-9.549509452,2.645629834400001,-2.80373378,3.39400713,-3.39170526,,,
imu,402.624242,0.05861897440000001,-9.548313146400002,2.657592890400001,-2.5943803,3.31923803,-3.22721324,,,
imu,402.632705,0.03947808480000001,-9.553098368800002,2.6611818072,-2.4448421,3.25194584,-3.20478251,,,
imu,402.641169,0.0233279592,-9.571042952800001,2.6665651824,-2.45979592,3.33419185,-3.13001341,,,
imu,402.649632,0.0107667504,-9.593174606400002,2.6880986832,-2.51213429,3.53606842,-3.01785976,,,
imu,402.658096,0.0005981528000000001,-9.6296619272,2.7114266424,-2.36259609,3.61083752,-2.84589083,,,
imu,402.666559,0.023926112,-9.641026830400001,2.7102303368,-2.38502682,3.75289881,-2.8234601,,,
imu,402.675023,0.0221316536,-9.6260730104,2.727576768,-2.63924176,3.91739083,-2.81598319,,,
imu,402.683486,0.0191408896,-9.6290637744,2.7299693792,-2.76634923,4.16412886,-2.62158353,,,
imu,402.69195,0.0191408896,-9.6039413568,2.736549060000001,-3.117764,4.35852852,-2.4496146,,,
imu,402.700414,0.0281131816,-9.5776226336,2.7347546016,-3.27477911,4.72489711,-2.00847691,,,
imu,402.708877,0.02990764000000001,-9.5423316184,2.718604476,-3.48413259,5.07631188,-1.65706214,,,
imu,402.717341,0.0430670016,-9.503451686400002,2.706043267200001,-3.67853225,5.34548064,-1.50004703,,,
imu,402.725804,0.05443190480000001,-9.46576806,2.6892949888,-3.68600916,5.67446468,-1.42527793,,,
imu,402.734268,0.1022841288,-9.451412392800002,2.6928839056,-3.44674804,5.9137258,-1.37293956,,,
imu,402.742731,0.1393696024,-9.437654878400002,2.6851079192,-3.12524091,6.02587945,-1.30564737,,,
imu,402.751195,0.1662864784,-9.439449336800001,2.67673378,-3.03551799,6.08569473,-1.61220068,,,
imu,402.759658,0.1920070488,-9.52558334,2.7347546016,-2.62428794,6.033356359999999,-1.82155416,,,
imu,402.768122,0.206362716,-9.4962738528,2.7192026288,-2.4448421,5.921202709999999,-1.87389253,,,
imu,402.776585,0.2296906752000001,-9.533957479200001,2.7526991856,-2.05604278,5.82400288,-1.87389253,,,
imu,402.785049,0.2410555784,-9.5459205352,2.7658585472,-1.88407385,5.69689541,-2.00847691,,,
imu,402.793512,0.2476352592,-9.574631869600001,2.78141052,-1.98127368,5.67446468,-2.04586146,,,
imu,402.801976,0.2649816904,-9.5740337168,2.7927754232,-1.82425857,5.65203395,-1.83650798,,,
imu,402.81044,0.2996745528,-9.581809703200001,2.8011495624,-2.01118132,5.53240339,-1.83650798,,,
imu,402.818903,0.2799355104,-9.5949690648,2.798756951200001,-2.22801171,5.33800373,-1.91875399,,,
imu,402.827367,0.2781410520000001,-9.5632669664,2.7838031312,-2.370073,5.05388115,-2.1505382,,,
imu,402.83583,0.2643835376,-9.512423978400001,2.7688493112,-2.5196112,4.84452767,-2.35989168,,,
imu,402.844294,0.2793373576,-9.491488630400001,2.7491102688,-2.2205348,4.694989469999999,-2.5243837,,,
imu,402.852757,0.287113344,-9.4699551296,2.7359509072,-2.13828879,4.44825144,-2.89075229,,,
imu,402.861221,0.2829262744000001,-9.450814240000001,2.7377453656,-1.77939711,4.37348234,-3.09262886,,,
imu,402.869684,0.2715613712,-9.4412437952,2.7526991856,-1.46536689,4.25385178,-3.1973056,,,
imu,402.878148,0.2739539824000001,-9.444832712,2.7538954912,-1.0989983,4.0444983,-3.33936689,,,
imu,402.886611,0.275150288,-9.456795768000001,2.7628677832,-0.82235263,3.85757555,-3.33936689,,,
imu,402.895075,0.2500278704,-9.471151435200001,2.769447464,-0.58309151,3.62579134,-3.47395127,,,
imu,402.903539,0.2434481896,-9.475936657600002,2.7879902008,-0.41859949,3.40896095,-3.61601256,,,
imu,402.912002,0.2476352592,-9.505844297600001,2.794569881600001,-0.47093786,3.24446893,-3.81041222,,,
imu,402.920466,0.2326814392,-9.529770409600001,2.7951680344,-0.32887657,3.11736146,-3.91508896,,,
imu,402.928929,0.2266999112,-9.562668813600002,2.799355104,-0.26158438,2.99025399,-3.81041222,,,
imu,402.937393,0.2177276192,-9.553696521600001,2.8101218544,-0.43355331,2.8481927,-3.66835093,,,
imu,402.945856,0.1997830352,-9.567454036,2.815505229600001,-0.46346095,2.78090051,-3.41413599,,,
imu,402.95432,0.191408896,-9.5668558832,2.8406276472,-0.49336859,2.81080815,-3.24216706,,,
imu,402.962783,0.1710717008,-9.6296619272,2.88608726,-0.92702937,2.55659321,-3.20478251,,,
imu,402.971247,0.1632957144,-9.596165370400001,2.8466091752,-1.06909066,2.58650085,-3.01038285,,,
imu,402.97971,0.1531271168,-9.573435564,2.8495999392,-1.05413684,2.66126995,-2.95804448,,,
imu,402.988182,0.1429585192,-9.551303910400001,2.8244775216,-1.24105959,2.80333124,-2.83841392,,,
imu,402.996653,0.116639796,-9.5429297712,2.8310572024,-1.27844414,2.99025399,-2.80102937,,,
imu,403.005124,0.1208268656,-9.554892827200002,2.799355104,-1.37564397,3.28185348,-2.5991528,,,
imu,403.013595,0.1303973104,-9.529770409600001,2.82627198,-1.3980747,3.62579134,-2.65896808,,,
imu,403.022066,0.1668846312,-9.4454308648,2.8131126184,-1.19619813,3.92486774,-2.92813684,,,
imu,403.030639,0.161501256,-9.526181492800001,2.844216564,-0.5756146,4.194036499999999,-3.06272122,,,
imu,403.039111,0.16449202,-9.514218436800002,2.805934784800001,-0.5008455,4.40338998,-3.1973056,,,
imu,403.047582,0.2045682576000001,-9.427486280800002,2.8328516608,-0.35878421,4.56040509,-3.26459779,,,
imu,403.056053,0.2440463424,-9.420906600000002,2.8167015352,-0.21672292,4.59778964,-3.45899745,,,
imu,403.064524,0.2613927736,-9.4250936696,2.8047384792,0.03001510999999998,4.500589809999999,-3.72816621,,,
imu,403.072995,0.2590001624000001,-9.431075197600002,2.796962492800001,-0.06718472,4.4183438,-3.89265823,,,
imu,403.081466,0.2685706072,-9.4526086984,2.8089255488,0.19450713,4.20151341,-3.93004278,,,
imu,403.089938,0.290104108,-9.48072188,2.8286645912,0.42629134,3.99215993,-3.81788913,,,
imu,403.098409,0.2625890792,-9.4801237272,2.8328516608,0.45619898,3.72299117,-3.75059694,,,
imu,403.10688,0.2434481896,-9.450814240000001,2.8406276472,0.44124516,3.53606842,-3.67582784,,,
imu,403.115351,0.2494297176,-9.460384684800001,2.8579740784,0.60573718,3.41643786,-3.47395127,,,
imu,403.123822,0.2470371064,-9.531564868,2.865151912,0.4861066199999999,3.16222292,-3.55619728,,,
imu,403.132293,0.23926112,-9.553696521600001,2.8603666896,0.56835263,2.7734236,-3.62348947,,,
imu,403.140765,0.248233412,-9.546518688,2.8448147168,0.67302937,2.64631613,-3.63844329,,,
imu,403.149236,0.233279592,-9.556089132800002,2.856777772800001,0.9197674,2.45191647,-3.75059694,,,
imu,403.157707,0.2009793408,-9.557285438400001,2.873526051200001,0.9571519499999999,2.34723973,-3.62348947,,,
imu,402.362188,,,,,,,-90.9436508,174.9474564,117.964292
imu,402.46372,,,,,,,-91.1755876,175.4601588,118.3671296
imu,403.166178,0.1848292152,-9.530966715200002,2.8555814672,1.12164397,2.31733209,-3.2720747,,,
imu,403.174649,0.20935348,-9.504647992000002,2.8346461192,1.31604363,2.43696265,-2.92813684,,,
imu,403.18312,0.2081571744,-9.493283088800002,2.8208886048,1.30108981,2.57902394,-2.80102937,,,
imu,403.191646,0.19439966,-9.440645642400002,2.7999532568,1.54035093,2.56407012,-2.79355246,,,
imu,403.200172,0.19439966,-9.440047489600001,2.799355104,1.98896553,2.63136231,-2.92065993,,,
imu,403.208698,0.2117460912,-9.4424401008,2.7855975896,2.18336519,2.65379304,-3.13749032,,,
imu,403.217224,0.1920070488,-9.4322715032,2.7718400752,2.65441052,2.57154703,-3.496382,,,
imu,403.22575,0.170473548,-9.456197615200002,2.7664567,3.05816366,2.35471664,-3.98985806,,,
imu,403.234276,0.1698753952,-9.517807353600002,2.792177270400001,3.34228624,2.33228591,-4.13191935,,,
imu,403.242801,0.1603049504,-9.553098368800002,2.8047384792,3.74603938,2.43696265,-4.0197657,,,
imu,403.251327,0.1387714496,-9.5877912312,2.7790179088,3.96286977,2.5491163,-4.17678081,,,
imu,403.259853,0.1321917688,-9.5704448,2.7550917968,4.04511578,2.6238854,-4.23659609,,,
imu,403.268379,0.1238176296,-9.5865949256,2.7652603944,4.35166909,2.82576197,-4.057150249999999,,,
imu,403.276905,0.1190324072,-9.576426328,2.7957661872,4.39653055,3.03511545,-3.81041222,,,
imu,403.285431,0.101685976,-9.572239258400002,2.7718400752,4.4339151,3.37905331,-3.56367419,,,
imu,403.293956,0.1034804344,-9.568052188800001,2.7742326864,4.2096078,3.64822207,-3.45899745,,,
imu,403.302482,0.1094619624,-9.609324732000001,2.8029440208,4.26194617,3.98468302,-3.26459779,,,
imu,403.311008,0.1028822816,-9.723571916800001,2.82627198,3.89557758,4.23142105,-3.15244414,,,
imu,403.319534,0.09869521200000002,-9.756470320800002,2.8364405776,3.13293276,4.28375942,-3.39170526,,,
imu,403.32806,0.08912476720000001,-9.703234721600001,2.82627198,2.18336519,4.500589809999999,-3.30198234,,,
imu,403.336586,0.09989151760000002,-9.668541859200001,2.7885883536,1.38333582,4.694989469999999,-3.3468438,,,
imu,403.345112,0.10467674,-9.6218859408,2.7419324352,0.7253677399999999,4.85200458,-3.50385891,,,
imu,403.353637,0.1220231712,-9.528574104,2.7078377256,0.56087572,5.046404239999999,-3.39918217,,,
imu,403.362163,0.1309954632,-9.440047489600001,2.6623781128,0.40386061,4.91929677,-3.3468438,,,
imu,403.370689,0.1387714496,-9.372456223200002,2.6115351248,0.79265993,4.90434295,-3.35432071,,,
imu,403.379215,0.17944584,-9.3174261656,2.570860734400001,1.54782784,4.90434295,-3.40665908,,,
imu,403.387741,0.1782495344,-9.313239096000002,2.604955444,2.37776485,4.88938913,-3.54124346,,,
imu,403.396486,0.2015774936,-9.402962016000002,2.6629762656,3.41705534,4.70246638,-3.24216706,,,
imu,403.405231,0.2338777448,-9.509433214400001,2.697669128,4.06754651,4.567882,-2.94309066,,,
imu,403.413977,0.2536167872,-9.5632669664,2.733558296,4.49373038,4.33609779,-2.79355246,,,
imu,403.422722,0.2619909264,-9.606932120800002,2.7682511584,4.75542223,4.02206757,-2.86832156,,,
imu,403.431467,0.2781410520000001,-9.606333968000001,2.7909809648,4.61336094,3.73794499,-2.85336774,,,
imu,403.440212,0.3523119992,-9.655382497600002,2.7927754232,4.38905364,3.39400713,-2.77112173,,,
imu,403.448958,0.4366515440000001,-9.647606511200001,2.7760271448,3.79090084,2.86314652,-2.65149117,,,
imu,403.457703,0.5317578392000001,-9.620091482400001,2.7670548528,3.35724006,1.96591732,-2.4496146,,,
imu,403.466448,0.5927694248,-9.5590798968,2.764064088800001,2.92357928,0.7397040799999997,-2.41223005,,,
imu,403.475194,0.6717255944000001,-9.488497866400001,2.739539824,2.66188743,-0.86035466,-2.47952224,,,
imu,403.483939,0.7596540560000001,-9.4412437952,2.692285752800001,2.7889949,-2.82678199,-2.65896808,,,
imu,403.492684,0.8966310472000002,-9.490292324800002,2.671350404800001,3.06564057,-5.010039709999999,-2.87579847,,,
imu,403.501429,1.0324117328,-9.4729458936,2.6354612368,3.44696298,-7.896126969999999,-3.39170526,,,
imu,403.510175,1.1981000584,-9.4526086984,2.601366527200001,3.8357623,-11.71682798,-4.23659609,,,
imu,403.51892,1.4104443024,-9.478329268800001,2.5816274848,4.232038530000001,-16.00857432,-4.94690254,,,
imu,403.527665,1.6251811576,-9.513620284000002,2.5822256376,4.57597639,-21.03305784,-5.13382529,,,
imu,403.536411,1.8297494152,-9.564463272000001,2.5606921368,4.77037605,-27.09683185,-5.08148692,,,
imu,403.545156,1.9356224608,-9.554294674400001,2.522410357600001,4.97225262,-33.77371248,-4.89456417,,,
imu,403.553901,1.9667264064,-9.4424401008,2.4841285784,4.89748352,-40.9664999,-4.341272829999999,,,
imu,403.562646,1.917079724,-9.4765348104,2.4021816448,4.89000661,-48.20414878,-3.27955161,,,
imu,403.571392,1.857264444,-9.498666464000001,2.3453571288,5.07692936,-55.32964401,-1.95613854,,,
imu,403.580137,1.7178948416,-9.457992073600002,2.3184402528,4.98720644,-62.09624756,-0.4158950799999999,,,
imu,403.588882,1.5809178504,-9.457992073600002,2.2777658624,4.81523751,-68.21235994,1.01219473,,,
imu,403.597412,1.3799385096,-9.522592576000001,2.2245302632,5.15917537,-73.939673,2.24588488,,,
imu,403.605942,1.1681924184,-9.592576453600001,2.1994078456,5.33862121,-78.90434124,3.38985211,,,
imu,403.614471,0.9714001472000001,-9.641026830400001,2.189239248,5.49563632,-83.23347213,4.421665689999999,,,
imu,403.623001,0.8924439776000002,-9.715795930400002,2.192230012,5.66760525,-86.85977347999999,5.08711068,,,
imu,403.63153,0.6065269392000001,-9.621287788000002,2.1060960088,5.79471272,-89.90287584999999,5.363756349999999,,,
imu,403.64006,0.4109309736,-9.603343204000002,2.0731976048,5.92182019,-92.48988671,5.37123326,,,
imu,403.64859,0.1477437416,-9.7193848472,2.102507092,5.94425092,-94.25443747,4.96000321,,,
imu,403.657119,-0.1567160336,-9.788770572,2.096525564,5.79471272,-94.86006717999999,4.83289574,,,
imu,403.665649,-0.4079402096,-9.759461084800002,2.133611037600001,5.29375975,-94.06751471999999,5.11701832,,,
imu,403.674179,-0.6256678288,-9.746899876,2.1479667048,4.76289914,-92.30296395999999,5.431048539999999,,,
imu,403.682708,-0.8445917536,-9.755274015200001,2.1659112888,4.18717707,-89.58884563,5.13197214,,,
imu,403.691238,-1.115554972,-9.745105417600001,2.1730891224,3.62640882,-86.17937466999999,4.6534499,,,
imu,403.699768,-1.3344788968,-9.692467971200001,2.1790706504,3.18527113,-81.92501288,4.56372698,,,
imu,403.708297,-1.5085413616,-9.669140012000002,2.192230012,2.99087147,-77.01268300999999,4.32446586,,,
imu,403.716827,-1.6293682272,-9.638036066400002,2.2107727488,2.75161035,-71.49472343,3.57677486,,,
imu,403.725357,-1.7143059248,-9.617698871200002,2.261017584,2.37028794,-65.71507199999999,2.19354651,,,
imu,403.733886,-1.7029410216,-9.635045302400002,2.2975049048,2.21327283,-59.83822074,0.78788743,,,
imu,403.742416,-1.737633884,-9.6326526912,2.326814392,2.13850373,-53.9015542,-0.40094126,,,
imu,403.750946,-1.7334468144,-9.645213900000002,2.371675852,2.05625772,-48.1443335,-1.64958523,,,
imu,403.759475,-1.7442135648,-9.669738164800002,2.404574256,1.85438115,-42.79086594,-2.86832156,,,
imu,403.768005,-1.7292597448,-9.675121540000001,2.414144700800001,1.7422275,-37.32524473,-4.034719519999999,,,
imu,403.776535,-1.6963613408,-9.6954587352,2.425509604,1.38333582,-32.03159245,-5.17868675,,,
imu,403.785064,-1.6341534496,-9.711608860800002,2.4482394104,0.94219813,-26.93233983,-5.79927028,,,
imu,403.793594,-1.5779270864,-9.734936820000001,2.4709692168,0.3739529699999999,-22.18450198,-6.53948437,,,
imu,403.802248,-1.4840170968,-9.768433376800001,2.491306412,-0.24663056,-17.77312508,-7.21988318,,,
imu,403.810903,-1.4439408592,-9.7606573904,2.520615899200001,-0.8821679099999999,-13.63839385,-7.63859014,,,
imu,403.819557,-1.402668316,-9.770825988000002,2.548729080800001,-1.41302852,-9.64572391,-7.90028199,,,
imu,403.828211,-1.336871508,-9.7845835024,2.5565050672,-1.89155076,-5.85493054,-7.870374350000001,,,
imu,403.836865,-1.2746636168,-9.754675862400001,2.5559069144,-2.48222665,-2.27349065,-7.78812834,,,
imu,403.84552,-1.2375781432,-9.7301515976,2.5463364696,-2.79625687,0.8518577299999999,-7.66102087,,,
imu,403.854174,-1.1855388496,-9.703234721600001,2.5493272336,-3.117764,3.7454219,-7.735789969999999,,,
imu,403.862828,-1.1478552232,-9.669738164800002,2.5439438584,-3.14767164,6.37729422,-7.78812834,,,
imu,403.871483,-1.1227328056,-9.667943706400001,2.5612902896,-3.1925331,8.6801825,-7.795605249999999,,,
imu,403.880137,-1.109573444,-9.673925234400002,2.5894034712,-3.36450203,10.84100949,-7.70588233,,,
imu,403.888791,-1.0952177768,-9.648204664000001,2.6007683744,-3.39440967,13.03174412,-7.578774859999999,,,
imu,403.897445,-1.1137605136,-9.655382497600002,2.601366527200001,-3.46917877,15.00564836,-7.65354396,,,
imu,403.9061,-1.0880399432,-9.626671163200001,2.6031609856,-3.49908641,17.09170625,-7.578774859999999,,,
imu,403.914754,-1.0336080384,-9.596165370400001,2.603759138400001,-3.46170186,19.20019487,-7.34699065,,,
imu,403.923408,-0.980970592,-9.5800152448,2.6025628328,-3.63367079,20.99465327,-7.44419048,,,
imu,403.932063,-0.9379035904000002,-9.530368562400001,2.6007683744,-3.51404023,22.512466,-7.39185211,,,
imu,403.940717,-0.8768920048000002,-9.499264616800001,2.60196468,-3.63367079,23.91812508,-7.59372868,,,
imu,403.949371,-0.8445917536,-9.488497866400001,2.606749902400001,-3.44674804,25.04713849,-7.59372868,,,
imu,403.958025,-0.8350213088000001,-9.516012895200001,2.6312741672,-3.117764,26.00418297,-7.50400576,,,
imu,403.96668,-0.8870606024000001,-9.580613397600002,2.673743016,-2.78877996,26.96122745,-7.34699065,,,
imu,403.975334,-0.9714001472000001,-9.588389384000001,2.6934820584,-2.81121069,28.06781013,-7.54886722,,,
imu,403.983988,-1.0940214712,-9.589585689600002,2.712622948,-2.53456502,29.94451454,-7.41428284,,,
imu,402.565514,,,,,,,-90.56522760000001,175.472366,117.4027608
imu,402.666954,,,,,,,-90.87040760000001,175.6676812,117.9398776
imu,402.768486,,,,,,,-88.81959800000001,176.0461044,116.4505992
imu,402.870049,,,,,,,-90.74833559999999,176.5588068,117.4027608
imu,402.971611,,,,,,,-88.8318052,175.9728612,114.7049696
imu,403.073357,,,,,,,-91.3586956,176.693086,117.2440672
imu,403.174767,,,,,,,-91.39531720000001,175.4357444,114.6805552
imu,403.276329,,,,,,,-91.4197316,176.3512844,117.3417248
imu,403.992642,-1.1891277664,-9.631456385600002,2.6958746696,-2.51213429,32.37451029,-6.85351459,,,
imu,404.001297,-1.262102408,-9.569248494400002,2.6695559464,-2.51213429,35.10358244,-6.58434583,,,
imu,404.00953,-1.3566105504,-9.551303910400001,2.6629762656,-2.40745755,38.36351519999999,-6.748837849999999,,,
imu,404.017764,-1.4379593312,-9.537546396000002,2.6294797088,-2.28782699,41.83280144,-7.122683349999999,,,
imu,404.025997,-1.4588946792,-9.513022131200001,2.6007683744,-2.20558098,45.57873335,-7.09277571,,,
imu,404.03423,-1.4541094568,-9.562668813600002,2.6103388192,-2.28035008,49.59383402,-7.18249863,,,
imu,404.042464,-1.4379593312,-9.6284656216,2.6264889448,-2.31773463,53.39958120999999,-7.4591443,,,
imu,404.050697,-1.3601994672,-9.6709344704,2.6510132096,-2.48970356,57.2053284,-7.690928509999999,,,
imu,404.05893,-1.24116706,-9.668541859200001,2.645629834400001,-2.82616451,60.67461463999999,-7.840466709999999,,,
imu,404.067164,-1.1053863744,-9.678710456800001,2.6270870976,-3.58880933,63.40368678999999,-8.07972783,,,
imu,404.075397,-0.9797742864000001,-9.680504915200002,2.5911979296,-4.538376899999999,65.71405198,-8.49843479,,,
imu,404.083631,-0.8493769760000001,-9.6434194416,2.5672718176,-5.07671442,67.80010987,-8.67040372,,,
imu,404.091864,-0.7381205552000002,-9.593174606400002,2.541551247200001,-5.50289829,69.33287642,-8.54329625,,,
imu,404.100097,-0.6256678288,-9.565061424800001,2.5134380656,-5.71225177,70.33478236,-8.16945075,,,
imu,404.108331,-0.5120187968000001,-9.556089132800002,2.520615899200001,-5.764590139999999,71.49370341000001,-7.48157503,,,
imu,404.116564,-0.3750418056000001,-9.5602762024,2.5439438584,-5.63000576,72.39840952,-6.32265398,,,
imu,404.124868,-0.2296906752000001,-9.597959828800002,2.5684681232,-5.72720559,72.86197794,-5.15625602,,,
imu,404.133101,-0.0693857248,-9.5865949256,2.562486595200001,-5.600098119999999,72.94422395000001,-4.18425772,,,
imu,404.141334,0.1010878232,-9.5842023144,2.5505235392,-5.697297949999999,72.42831716,-3.31693616,,,
imu,404.149568,0.2554112456,-9.555490980000002,2.5523179976,-5.57019048,71.29182684,-2.61410662,,,
imu,404.157801,0.3786307224000001,-9.462777296000002,2.5355697192,-5.56271357,69.43755316000001,-1.94118472,,,
imu,404.166035,0.4641665728000001,-9.3868118904,2.525401121600001,-5.59262121,67.05241887,-1.46266248,,,
imu,404.174268,0.4276792520000001,-9.334174444000002,2.5110454544,-5.27859099,64.74205368,-1.06638625,,,
imu,404.182501,0.3176191368,-9.3144354016,2.5074565376,-4.822499479999999,62.61113433,-0.6775869299999999,,,
imu,404.190735,0.2021756464,-9.280340692000001,2.5080546904,-4.65053055,60.81667593,0.0177657,,,
imu,404.198968,0.1082656568,-9.302472345600002,2.51224176,-4.47108471,60.05403111,0.58601086,,,
imu,404.20742,0.1860255208,-9.565061424800001,2.5702625816,-4.53089999,59.74000089,1.25145585,,,
imu,404.215872,0.4366515440000001,-9.6428212888,2.5714588872,-4.8374533,59.19418646,1.63277826,,,
imu,404.224324,0.6633514552,-9.748694334400001,2.6252926392,-4.800068749999999,57.35486659999999,0.3542266500000002,,,
imu,404.232776,0.8188711832000002,-9.743909112,2.628881556000001,-5.14400661,54.49121006999999,-2.30755331,,,
imu,404.241229,0.9558481744000001,-9.657775108800001,2.6880986832,-5.51785211,51.31352331999999,-4.318842099999999,,,
imu,404.249681,1.1083771384,-9.588389384000001,2.686902377600001,-5.80197469,47.71712960999999,-5.522624609999999,,,
imu,404.258133,1.2166427952,-9.578220786400001,2.6934820584,-6.003851259999999,43.90390550999999,-6.28526943,,,
imu,404.266585,1.2543264216,-9.52558334,2.696472822400001,-6.08609727,40.06077377,-6.60677656,,,
imu,404.275037,1.2429615184,-9.5154147424,2.7221933928,-6.287973839999999,36.41204169,-6.59182274,,,
imu,404.283489,1.1951092944,-9.498666464000001,2.7239878512,-6.11600491,32.85303253,-5.8889932,,,
imu,404.291941,1.109573444,-9.487899713600001,2.7341564488,-6.04123581,29.51833067,-5.05157928,,,
imu,404.300393,0.9941299536000001,-9.457393920800001,2.731165684800001,-5.861789969999999,26.81168925,-3.91508896,,,
imu,404.308845,0.8721067824000002,-9.489694172,2.7550917968,-5.480467559999999,24.70320063,-2.75616791,,,
imu,404.317297,0.7734115704000001,-9.547714993600001,2.7778216032,-5.2860679,22.87883459,-1.52995467,,,
imu,404.32575,0.6783052752000002,-9.527377798400002,2.823281216,-5.084191329999999,21.36102186,-0.5579563699999999,,,
imu,404.334202,0.6083213976,-9.517807353600002,2.8460110224,-4.92717622,20.28434682,-0.04204958000000003,,,
imu,404.342654,0.5772174520000001,-9.5004609224,2.8579740784,-4.82997639,19.33477925,0.2794575500000001,,,
imu,404.351106,0.6101158560000001,-9.517807353600002,2.8854891072,-4.7626842,18.43007314,0.15982699,,,
imu,404.359558,0.6113121616,-9.540537160000001,2.9231727336,-4.85988403,17.36087501,-0.57291019,,,
imu,404.36801,0.6448087184,-9.5219944232,2.9650434296,-5.03932987,16.04493885,-1.33555501,,,
imu,404.376462,0.6896701784000001,-9.5184055064,2.9734175688,-5.02437605,14.61684904,-2.02343073,,,
imu,404.384914,0.7309427216000001,-9.491488630400001,2.978800944,-5.26363717,13.30091288,-2.56924516,,,
imu,404.393366,0.7494854584000001,-9.4765348104,3.0069141256,-5.226252619999999,11.88777689,-2.81598319,,,
imu,404.401818,0.7764023344000002,-9.477731116000001,3.0188771816,-5.151483519999999,10.40734871,-2.66644499,,,
imu,404.410635,0.7859727792000001,-9.478927421600002,3.0111011952,-5.09166824,9.11384328,-2.17296893,,,
imu,404.419452,0.7931506128000001,-9.460384684800001,3.0439995992,-5.061760599999999,7.77547639,-1.52995467,,,
imu,404.428269,0.7847764736,-9.4424401008,3.0493829744,-5.00194532,6.41467877,-1.03647861,,,
imu,404.437086,0.7668318896,-9.427486280800002,3.051775585600001,-4.62062291,5.1660348,-0.52057182,,,
imu,404.445903,0.7357279440000001,-9.384419279200001,3.059551572000001,-4.43370016,3.96225229,-0.1616801399999999,,,
imu,404.45472,0.7070166096,-9.3802322096,3.0679257112,-4.12714685,2.76594669,-0.15420323,,,
imu,404.463537,0.684884956,-9.367671000800001,3.0852721424,-3.81311663,1.66684092,-0.2514030599999999,,,
imu,404.472354,0.646005024,-9.356904250400001,3.0978333512,-3.55890169,0.9341037399999998,-0.60281783,,,
imu,404.481171,0.6119103144000001,-9.357502403200002,3.1032167264,-3.31964057,0.1864127399999997,-0.8944173199999998,,,
imu,404.489988,0.5610673264,-9.3688673064,3.113983476800001,-2.81121069,-0.4192169699999999,-1.3280781,,,
imu,404.498805,0.5413282840000001,-9.371259917600002,3.1271428384,-2.53456502,-0.8902623000000003,-1.69444669,,,
imu,404.507622,0.5048409632,-9.3766432928,3.140900352800001,-2.04108896,-1.39121527,-2.25521494,,,
imu,404.516438,0.4689517952000001,-9.388606348800002,3.1570504784,-1.61490509,-1.48093819,-2.71130645,,,
imu,404.525255,0.481513004,-9.340155972000002,3.154657867200001,-1.23358268,-1.45850746,-2.90570611,,,
imu,404.534072,0.4456238360000001,-9.327594763200002,3.1486763392,-0.90459864,-1.413646,-3.24216706,,,
imu,404.542889,0.4228940296000001,-9.328791068800001,3.1528634088,-0.58309151,-1.09961578,-3.21973633,,,
imu,404.551706,0.4043512928,-9.328192916,3.179182132,-0.31392275,-0.7706317400000002,-3.03281358,,,
imu,404.560523,0.4037531400000001,-9.342548583200001,3.170807992800001,-0.19429219,-0.5313706200000001,-3.10758268,,,
imu,404.56934,0.3804251808,-9.3694654592,3.172004298400001,0.26179932,-0.3668786000000002,-3.36179762,,,
imu,404.578157,0.376836264,-9.3718580704,3.1743969096,0.41133752,-0.1350943900000003,-3.70573548,,,
imu,404.586974,0.3564990688,-9.373054376,3.1576486312,0.27675314,-0.23229422,-4.18425772,,,
imu,404.595791,0.3469286240000001,-9.367671000800001,3.1624338536,0.45619898,-0.1425713000000002,-4.48333412,,,
imu,404.604608,0.3236006648,-9.3904008072,3.1666209232,0.42629134,-0.2173404000000003,-4.87213344,,,
imu,404.613083,0.3122357616,-9.408943544000001,3.164228312,0.3889067899999999,-0.2995864100000003,-5.20859439,,,
imu,404.621558,0.3074505392,-9.420906600000002,3.1690135344,0.42629134,-0.3369709599999999,-5.38804023,,,
imu,404.630033,0.2984782472,-9.4244955168,3.1666209232,0.41133752,-0.3294940500000001,-5.193640569999999,,,
imu,404.638508,0.2727576768,-9.4137287664,3.170209840000001,0.36647606,-0.2023865800000002,-4.79736434,,,
imu,404.646983,0.2542149400000001,-9.422701058400001,3.1690135344,0.30666078,-0.1650020300000001,-4.50576485,,,
imu,404.655458,0.2476352592,-9.423897364000002,3.163630159200001,0.09730729999999999,-0.07527911000000032,-4.08705789,,,
imu,404.663933,0.2560093984,-9.418513988800001,3.1618357008,0.16459949,0.1041667299999998,-3.45152054,,,
imu,404.672408,0.2536167872,-9.422701058400001,3.1630320064,0.25432241,0.3284740299999998,-2.93561375,,,
imu,404.680883,0.2440463424,-9.437654878400002,3.15525602,0.23189168,0.4555814999999996,-2.65149117,,,
imu,404.689358,0.245242648,-9.419112141600001,3.1391058944,0.29170696,0.6499811599999998,-2.3000764,,,
imu,404.697833,0.2625890792,-9.416121377600001,3.1414985056,0.620691,0.8817653699999997,-1.98604618,,,
imu,404.706308,0.28412258,-9.408943544000001,3.1391058944,0.66555246,1.10607267,-1.76173888,,,
imu,404.714783,0.2990764,-9.402962016000002,3.136115130400001,0.7403215599999999,1.06121121,-1.79164652,,,
imu,404.723258,0.3068523864000001,-9.3927934184,3.117572393600001,0.78518302,1.03878048,-1.86641562,,,
imu,404.731733,0.3271895816000001,-9.3904008072,3.1115908656,0.9571519499999999,1.12102649,-1.90380017,,,
imu,404.740207,0.3236006648,-9.4071490856,3.1181705464,1.22632071,1.32290306,-1.96361545,,,
imu,404.748682,0.3307784984000001,-9.419112141600001,3.121759463200001,1.31604363,1.43505671,-2.1505382,,,
imu,404.757157,0.3379563320000001,-9.410139849600002,3.115179782400001,1.50296638,1.47991817,-2.35989168,,,
imu,404.765632,0.3236006648,-9.4077472384,3.1068056432,1.55530475,1.30047233,-2.71130645,,,
imu,404.774107,0.3182172896000001,-9.4071490856,3.117572393600001,1.83942733,1.19579559,-2.92813684,,,
imu,404.782582,0.3104413032000001,-9.4005694048,3.100225962400001,1.99644244,1.10607267,-2.98047521,,,
imu,404.791057,0.2948893304,-9.408943544000001,3.0996278096,2.10859609,1.15841104,-3.09262886,,,
imu,404.799532,0.2727576768,-9.401167557600001,3.082281378400001,2.23570356,1.19579559,-3.13749032,,,
imu,403.377892,,,,,,,-91.4197316,176.0461044,117.4515896
imu,403.479576,,,,,,,-91.45635320000001,175.6066452,117.8055984
imu,403.581017,,,,,,,-91.1877948,175.6066452,117.6102832
imu,403.682579,,,,,,,-88.63649,174.19061,120.0639304
imu,403.784294,,,,,,,-83.1554572,173.1896196,124.1655496
imu,403.885704,,,,,,,-78.6387932,171.9078636,123.2988384
imu,403.990502,,,,,,,-81.5929356,173.4947996,124.2632072
imu,404.089165,,,,,,,-81.9469444,172.3351156,121.1137496
imu,404.808007,0.2607946208,-9.432869656000001,3.084673989600001,2.36281103,1.4275798,-2.99542903,,,
imu,404.816479,0.2619909264,-9.4382530312,3.062542336,2.28804193,1.55468727,-2.77112173,,,
imu,404.82495,0.2590001624000001,-9.4382530312,3.0601497248,2.47496468,1.73413311,-2.61410662,,,
imu,404.833421,0.2763465936,-9.4412437952,3.0481866688,2.49739541,2.1005017,-2.44213769,,,
imu,404.841892,0.2847207328,-9.436458572800001,3.0457940576,2.72917962,2.43696265,-2.36736859,,,
imu,404.850363,0.3002727056,-9.423299211200002,3.0254568624,2.80394872,2.46687029,-2.57672207,,,
imu,404.858834,0.3122357616,-9.432869656000001,3.0188771816,2.81890254,2.56407012,-2.53186061,,,
imu,404.867306,0.3331711096,-9.4633754488,3.0218679456,2.89367164,2.81828506,-2.61410662,,,
imu,404.875777,0.3523119992,-9.481918185600001,3.021269792800001,2.91610237,2.96782326,-2.43466078,,,
imu,404.884248,0.3630787496,-9.516611048000001,3.023662404,2.84133327,3.09493073,-2.5243837,,,
imu,404.892719,0.3732473472,-9.538742701600002,3.021269792800001,2.80394872,3.27437657,-2.46456842,,,
imu,404.90119,0.3750418056000001,-9.5423316184,3.0111011952,2.68431816,3.34166876,-2.46456842,,,
imu,404.909661,0.3696584304000001,-9.551303910400001,3.012895653600001,2.37028794,3.26689966,-2.56176825,,,
imu,404.918133,0.3648732080000001,-9.522592576000001,3.0099048896,2.43010322,3.34166876,-2.49447606,,,
imu,404.926604,0.35889168,-9.51062952,2.9835861664,2.32542648,3.49868387,-2.36736859,,,
imu,404.935075,0.3403489432000001,-9.4962738528,2.9656415824,2.25065738,3.58092988,-2.43466078,,,
imu,404.943546,0.3355637208,-9.492086783200001,2.9746138744,1.98148862,3.73046808,-2.38979932,,,
imu,404.952017,0.3134320672,-9.5118258256,2.9752120272,1.77961205,4.06692903,-2.12063056,,,
imu,404.960488,0.3038616224,-9.5004609224,2.978800944,1.48053565,4.36600543,-1.93370781,,,
imu,404.96896,0.2823281216,-9.474740352000001,2.972819416000001,1.30856672,4.70246638,-1.76921579,,,
imu,404.977431,0.2584020096,-9.5154147424,2.9764083328,0.9272443100000001,5.1660348,-1.83650798,,,
imu,404.985902,0.2261017584,-9.553098368800002,2.990764,0.3889067899999999,5.59969558,-2.12063056,,,
imu,404.994373,0.1818384512,-9.606932120800002,3.0158864176,-0.03727708,6.11560237,-2.36736859,,,
imu,405.002844,0.1268083936,-9.676915998400002,3.0451959048,-0.5681376899999999,6.83338573,-2.36736859,,,
imu,405.011315,0.062806044,-9.7217774584,3.063738641600001,-1.3980747,7.693230379999999,-2.56176825,,,
imu,405.019771,0.0023926112,-9.7217774584,3.0589534192,-2.13081188,9.054027999999999,-2.50195297,,,
imu,405.028227,-0.07656355840000001,-9.7510869456,3.047588516000001,-3.0429949,10.69147129,-2.58419898,,,
imu,405.036683,-0.1543234224,-9.7492924872,3.071514628,-3.84302427,12.7177139,-2.57672207,,,
imu,405.045139,-0.2177276192,-9.7570684736,3.0721127808,-4.59819218,15.1103251,-2.53186061,,,
imu,405.053595,-0.2542149400000001,-9.7301515976,3.055962655200001,-5.368313909999999,17.92164326,-2.61410662,,,
imu,405.062051,-0.3098431504,-9.685290137600001,3.0511774328,-6.42255822,20.76286906,-2.96552139,,,
imu,405.070507,-0.3212080536,-9.612913648800001,3.0254568624,-7.22258759,23.80597143,-3.51133582,,,
imu,405.078963,-0.3361618736,-9.5447242296,3.0021289032,-7.85812494,26.82664307,-4.13191935,,,
imu,405.087419,-0.3331711096,-9.534555632000002,3.0182790288,-8.321693360000001,29.95199145,-4.92447181,,,
imu,405.095875,-0.2990764,-9.534555632000002,3.0260550152,-8.88246161,32.86050944,-5.86656247,,,
imu,405.104331,-0.2225128416,-9.4962738528,3.0398125296,-9.37593767,35.52976631,-7.055391159999999,,,
imu,405.112786,-0.1483418944,-9.486703408,3.0422051408,-9.68996789,38.11677717,-8.109635469999999,,,
imu,405.121242,-0.0442633072,-9.486703408,3.036223612800001,-10.1460594,40.3075118,-9.17135669,,,
imu,405.129698,0.08493769760000001,-9.5184055064,3.0673275584,-10.53485872,42.28889295,-9.8517555,,,
imu,405.138154,0.2566075512,-9.502255380800001,3.063738641600001,-11.10310388,43.79175186,-10.58449268,,,
imu,405.14661,0.4187069600000001,-9.444832712,3.032634696,-11.55919539,44.77122706999999,-11.6462139,,,
imu,405.155066,0.5885823552,-9.370661764800001,3.0182790288,-11.73864123,45.02544201,-12.70045821,,,
imu,405.163522,0.7327371800000001,-9.304864956800001,2.997941833600001,-11.79845651,44.80861161999999,-13.35094938,,,
imu,405.171978,0.8577511152000001,-9.2546201216,2.9943529168,-11.44704174,44.11325899,-13.47057994,,,
imu,405.180434,0.9528574104000002,-9.2300958568,2.9985399864,-11.0432886,42.99172248999999,-13.32851865,,,
imu,405.18889,1.010878232,-9.1930103832,3.033831001600001,-10.15353631,41.39914066,-12.83504259,,,
imu,405.197346,1.0700953592,-9.191215924800002,3.0523737384,-9.06938436,39.53739006999999,-11.83313665,,,
imu,405.205801,1.1083771384,-9.197197452800001,3.073309086400001,-8.17215516,37.63077801999999,-10.77141543,,,
imu,405.21413,1.1466589176,-9.1858325496,3.109796407200001,-7.31978742,35.39518193,-9.69474039,,,
imu,405.222608,1.1532385984,-9.224114328800002,3.1420966584,-6.310404569999999,33.0549091,-8.34141968,,,
imu,405.231087,1.1705850296,-9.2851259144,3.1714061456,-5.46551374,30.72211318,-7.04043734,,,
imu,405.239566,1.1293124864,-9.254021968800002,3.212678688800001,-4.8374533,28.29959434,-6.053485220000001,,,
imu,405.248045,1.1107697496,-9.2408626072,3.233614036800001,-4.17948522,25.96679842,-5.09644074,,,
imu,405.256524,1.10658268,-9.234881079200001,3.237801106400001,-3.92527028,23.58914104,-4.46090339,,,
imu,405.265002,1.0521507752,-9.259405344000001,3.241988176,-3.43179422,21.47317551,-4.25154991,,,
imu,405.273481,1.0126726904,-9.2552182744,3.2455770928,-2.83364142,19.50674818,-3.69825857,,,
imu,405.28196,0.9977188704000002,-9.2312921624,3.2641198296,-2.4448421,17.85435107,-3.26459779,,,
imu,405.290439,0.9666149248000001,-9.198991911200002,3.2677087464,-1.87659694,16.27672306,-3.05524431,,,
imu,405.298918,0.9498666464000002,-9.1894214664,3.2581383016,-1.28592105,14.71404887,-2.83093701,,,
imu,405.307396,0.9385017432000002,-9.178056563200002,3.2653161352,-0.51579932,13.69718911,-2.56176825,,,
imu,405.315875,0.9103885616000001,-9.207964203200001,3.2952237752,0.007584380000000002,12.80743682,-2.05333837,,,
imu,405.324354,0.8816772272000001,-9.262994260800001,3.332309248800001,0.43376825,11.83543852,-1.6271545,,,
imu,405.332833,0.8344231560000002,-9.2641905664,3.3394870824,0.83004448,11.08774752,-1.47013939,,,
imu,405.341312,0.7758041816000001,-9.28632222,3.3364963184,1.23379762,10.51950236,-1.42527793,,,
imu,405.34979,0.7195778184000001,-9.290509289600001,3.340085235200001,1.50296638,10.28771815,-1.4776163,,,
imu,405.358269,0.6741182056000001,-9.287518525600001,3.340085235200001,1.76465823,10.21294905,-1.63463141,,,
imu,405.366748,0.6382290376000002,-9.274957316800002,3.31974804,2.10111918,10.27276433,-1.74678506,,,
imu,405.375227,0.61310662,-9.264788719200002,3.310775748,2.46748777,10.48211781,-2.0757691,,,
imu,405.383706,0.5760211464000001,-9.246844135200002,3.293429316800001,2.84881018,10.71390202,-2.35989168,,,
imu,405.392184,0.5323559920000001,-9.218132800800001,3.286849636000001,3.06564057,11.20737808,-2.78607555,,,
imu,405.400663,0.5090280328000001,-9.212151272800002,3.2802699552,3.55163972,11.88029998,-2.92813684,,,
imu,405.409142,0.4940742128000001,-9.194804841600002,3.2802699552,4.20213089,12.62799098,-2.98795212,,,
imu,405.417621,0.4665591840000001,-9.231890315200001,3.2874477888,4.79280678,13.3906358,-3.15244414,,,
imu,405.426428,0.4486146000000001,-9.234881079200001,3.2695032048,5.3311443,14.31777264,-3.04029049,,,
imu,405.435236,0.4474182944000001,-9.281536997600002,3.2784754968,5.92182019,15.34958622,-2.72626027,,,
imu,405.444044,0.4719425592000001,-9.325800304800001,3.2814662608,6.25080423,16.44869199,-2.38979932,,,
imu,405.452851,0.4151180432000001,-9.352119028,3.288045941600001,6.35548097,17.54779776,-2.34493786,,,
imu,405.461659,0.1722680064,-9.364082084000001,3.2952237752,6.41529625,18.51231915,-2.4496146,,,
imu,405.470467,-0.09091922560000001,-9.3975786408,3.277877344000001,6.66203428,20.38154665,-2.73373718,,,
imu,405.479274,-0.2769447464000001,-9.408345391200001,3.216267605600001,6.64708046,23.99289418,-2.35241477,,,
imu,404.190241,,,,,,,-87.3303196,174.1051596,122.1025328
imu,404.291895,,,,,,,-89.93045319999999,175.10615,116.9144728
imu,404.393366,,,,,,,-92.6526588,177.0348876,115.9256896
imu,404.494959,,,,,,,-92.33527160000001,177.5597972,115.7425816
imu,404.596491,,,,,,,-92.20099239999999,177.120338,115.8524464
imu,404.698054,,,,,,,-91.48076760000001,177.181374,115.3519512
imu,404.799616,,,,,,,-91.8836052,177.3888964,116.2064552
imu,404.90127,,,,,,,-89.47878680000001,176.4733564,114.0701952
imu,405.488082,-0.3756399584,-9.413130613600002,3.1935377992,6.01154311,28.58371692,-1.41032411,,,
imu,405.49689,-0.4205014184,-9.392195265600002,3.143292964,5.83209727,33.69792336,-0.93927878,,,
imu,405.505697,-0.5323559920000001,-9.363483931200001,3.0930481288,5.7049898,38.90185271999999,-1.36546265,,,
imu,405.514505,-0.6561736216000001,-9.360493167200001,3.021269792800001,5.64517452,44.06839753,-2.46456842,,,
imu,405.523312,-0.6681366776000001,-9.360493167200001,2.948893304,5.66760525,49.81814132,-3.56367419,,,
imu,405.53212,-0.5796100632000001,-9.361091320000002,2.9076207608,5.71994362,56.03145352999999,-4.31136519,,,
imu,405.540928,-0.4743351704000001,-9.3658765424,2.870535287200001,5.72742053,61.82605878,-5.08148692,,,
imu,405.549735,-0.3289840400000001,-9.4424401008,2.841225800000001,5.83209727,67.06737269,-6.34508471,,,
imu,405.558543,-0.1477437416,-9.434065961600002,2.771241922400001,5.76480508,71.74044144,-7.70588233,,,
imu,405.567351,0.09390998960000001,-9.435262267200002,2.7030525032,5.7797589,75.80040357,-9.03677231,,,
imu,405.576158,0.340947096,-9.422102905600001,2.6605836544,5.62274379,78.97061341,-10.42747757,,,
imu,405.584966,0.6041343280000001,-9.391597112800001,2.640844612,5.49563632,81.13891731,-11.58639862,,,
imu,405.593774,0.8110951968000001,-9.402363863200002,2.6025628328,5.78723581,82.35765364000001,-12.52101237,,,
imu,405.602581,0.9833632032,-9.453206851200001,2.576244109600001,5.839574180000001,82.88103734,-13.41824157,,,
imu,405.611389,1.1167512776,-9.4831144912,2.5289900384,5.84705109,82.51466875,-13.88180999,,,
imu,405.620196,1.2579153384,-9.513022131200001,2.5146343712,5.4806825,81.86417758,-14.18088639,,,
imu,405.628673,1.4439408592,-9.536948243200001,2.4667821472,5.65265143,80.91461001,-14.03134819,,,
imu,405.637149,1.594077212,-9.5638651192,2.4649876888,5.71994362,79.59867385,-13.91919454,,,
imu,405.645625,1.7519895512,-9.6015487456,2.464389536000001,5.50311323,77.4677545,-13.89676381,,,
imu,405.654102,1.8967425288,-9.5459205352,2.4560153968,5.21151374,74.55923651,-13.73227179,,,
imu,405.662578,2.031326908800001,-9.537546396000002,2.4566135496,4.98720644,71.0376119,-13.49301067,,,
imu,405.671054,2.133611037600001,-9.558481744000002,2.471567369600001,4.77785296,66.95521904,-13.28365719,,,
imu,405.67953,2.1629205248,-9.611119190400002,2.5056620792,4.46382274,62.70833416,-12.87990405,,,
imu,405.688007,2.1940244704,-9.655382497600002,2.5080546904,4.03016196,58.22218815999999,-12.0200594,,,
imu,405.696483,2.249054528,-9.659569567200002,2.4966897872,3.40210152,53.90801109,-11.17516857,,,
imu,405.704959,2.2305117912,-9.638036066400002,2.4799415088,2.76656417,49.51158801,-10.36018538,,,
imu,405.713435,2.1695002056,-9.6224840936,2.449435716,2.21327283,45.13011874999999,-9.52277146,,,
imu,405.721912,2.1216479816,-9.597361676,2.4147428536,1.74970441,41.01034134,-8.633019169999999,,,
imu,405.730388,2.0803754384,-9.5393408544,2.36270356,1.47305874,37.33917853,-7.780651429999999,,,
imu,405.738864,2.0588419376,-9.5154147424,2.3381792952,1.33099745,33.69792336,-6.995575880000001,,,
imu,405.74734,1.98885806,-9.506442450400002,2.3184402528,1.45062801,30.34079077,-6.352561619999999,,,
imu,405.755817,1.9439966,-9.5004609224,2.3034864328,1.47305874,27.26778076,-5.94880848,,,
imu,405.764293,1.9242575576,-9.512423978400001,2.299897516,1.5926893,24.27701676,-5.500193879999999,,,
imu,405.772769,1.9134908072,-9.5327611736,2.3160476416,1.80204278,21.45074478,-5.10391765,,,
imu,405.781245,1.8823868616,-9.5040498392,2.3136550304,2.03382699,18.72914954,-4.85717962,,,
imu,405.789722,1.851282916,-9.4873015608,2.2981030576,2.1908421,15.91035447,-4.82727198,,,
imu,405.798198,1.8417124712,-9.486105255200002,2.2951122936,2.13850373,13.30838979,-4.79736434,,,
imu,405.806674,1.8016362336,-9.533957479200001,2.3070753496,2.18336519,10.90082477,-4.59548777,,,
imu,405.81515,1.797449164,-9.536350090400001,2.3046827384,2.25813429,8.76242851,-4.31136519,,,
imu,405.823627,1.7830934968,-9.564463272000001,2.3256180864,2.22074974,6.78852427,-4.034719519999999,,,
imu,405.832089,1.728661592,-9.475936657600002,2.2795603208,2.21327283,4.84452767,-3.48890509,,,
imu,405.840551,1.7184929944,-9.429878892000001,2.2801584736,2.31794957,3.19213056,-2.92813684,,,
imu,405.849013,1.7214837584,-9.474142199200001,2.2681954176,2.37776485,1.59207182,-2.60662971,,,
imu,405.857476,1.7304560504,-9.5213962704,2.2975049048,2.28804193,-0.2173404000000003,-2.33746095,,,
imu,405.865938,1.761559996,-9.5172092008,2.293915988,2.40019558,-1.83235296,-2.24773803,,,
imu,405.8744,1.7896731776,-9.519601812000001,2.3046827384,2.42262631,-3.52961153,-2.12063056,,,
imu,405.882863,1.8494884576,-9.5357519376,2.293915988,2.51234923,-5.58576178,-1.96361545,,,
imu,405.891325,1.8853776256,-9.5459205352,2.3034864328,2.64693361,-7.85874242,-1.93370781,,,
imu,405.899787,1.9266501688,-9.584800467200001,2.3274125448,2.84881018,-10.43827637,-2.0757691,,,
imu,405.908249,1.9386132248,-9.613511801600001,2.3232254752,2.82637945,-12.92061049,-2.15801511,,,
imu,405.916712,1.9362206136,-9.647606511200001,2.3321977672,2.72170271,-15.57491354,-2.31503022,,,
imu,405.925174,1.923061252,-9.639830524800002,2.307673502400001,2.57216451,-18.2366935,-2.49447606,,,
imu,405.933636,1.9009295984,-9.641026830400001,2.299897516,2.116073,-20.77136599,-2.5991528,,,
imu,405.942098,1.8985369872,-9.6494009696,2.2843455432,1.98896553,-23.18640792,-2.6739219,,,
imu,405.950561,1.8590589024,-9.635045302400002,2.2658028064,1.75718132,-25.60144985,-2.92065993,,,
imu,405.959023,1.812402984,-9.613511801600001,2.2658028064,1.35342818,-27.90433813,-3.17487487,,,
imu,405.967485,1.7579710792,-9.619493329600001,2.2586249728,1.15902852,-30.14741113,-3.38422835,,,
imu,405.975948,1.6855945904,-9.672728928800002,2.2568305144,0.82256757,-32.24094593,-3.496382,,,
imu,405.98441,1.603049504,-9.669738164800002,2.269989876,0.60573718,-33.99054287,-3.43656672,,,
imu,405.992872,1.4977746112,-9.666149248000002,2.2843455432,0.16459949,-35.33638667,-3.33936689,,,
imu,406.001334,1.3984812464,-9.6709344704,2.293915988,-0.09709236,-36.35324643,-3.03281358,,,
imu,406.009797,1.3255066048,-9.655980650400002,2.307673502400001,-0.56066078,-37.0785067,-2.69635263,,,
imu,406.018259,1.2686820888,-9.6458120528,2.323823628,-1.00179847,-37.63927495,-2.6739219,,,
imu,406.026721,1.2070723504,-9.6494009696,2.341768212,-1.54013599,-37.81124388,-2.65149117,,,
imu,406.035219,1.145462612,-9.627269316000001,2.3638998656,-2.20558098,-38.15518174,-2.75616791,,,
imu,406.043717,1.085647332,-9.596763523200002,2.3674887824,-2.75139541,-38.08788955,-2.8234601,,,
imu,406.052215,1.0443747888,-9.593772759200002,2.3740684632,-3.20748692,-38.2748123,-2.81598319,,,
imu,406.060713,1.0192523712,-9.559678049600002,2.3770592272,-3.53647096,-38.10284337,-2.92813684,,,
imu,406.06921,1.0312154272,-9.530368562400001,2.4039761032,-3.62619388,-38.00564354,-3.36927453,,,
imu,406.077708,0.9965225648000002,-9.455001309600002,2.4039761032,-3.62619388,-37.93087444,-3.75807385,,,
imu,406.086206,0.980970592,-9.3904008072,2.4033779504,-3.37945585,-37.99816663,-4.06462716,,,
imu,406.094704,0.9708019944000001,-9.329389221600001,2.3818444496,-2.76634923,-38.02059736,-4.37865738,,,
imu,406.103202,0.963026008,-9.325800304800001,2.4009853392,-2.2205348,-38.08788955,-4.58801086,,,
imu,406.1117,0.9522592576000002,-9.3174261656,2.4213225344,-1.56256672,-38.15518174,-4.70764142,,,
imu,406.120198,0.9432869656,-9.260003496800001,2.4183317704,-0.9644139199999999,-38.40939668,-4.80484125,,,
imu,406.128696,0.9181645480000001,-9.288714831200002,2.428500368,-0.14195382,-38.4243505,-4.94690254,,,
imu,406.137193,0.9109867144000001,-9.367072848000001,2.473361828,0.620691,-38.8729651,-5.07401001,,,
imu,406.145691,0.9097904088000002,-9.396980488,2.494895328800001,1.25622835,-39.31410279,-5.16373293,,,
imu,406.154189,0.9223516176000001,-9.405952780000002,2.499082398400001,1.7422275,-39.68047138,-5.29831731,,,
imu,406.162687,0.9522592576000002,-9.384419279200001,2.5008768568,2.37028794,-40.34591637,-5.13382529,,,
imu,406.171185,0.9618297024000001,-9.3832229736,2.500278704,2.70674889,-41.07865355,-5.11887147,,,
imu,406.179683,0.9678112304000002,-9.364680236800002,2.5026713152,3.09554821,-41.66932944,-5.01419473,,,
imu,406.188181,0.9749890640000002,-9.382624820800002,2.5134380656,3.73856247,-42.29738988,-4.35622665,,,
imu,406.196679,1.0037003984,-9.4107380024,2.5493272336,4.31428454,-42.88806577,-3.54872037,,,
imu,406.205176,1.007887468,-9.460982837600001,2.5917960824,4.66569931,-43.6581875,-2.91318302,,,
imu,406.213674,1.0354024968,-9.453805004000001,2.6091425136,4.964775710000001,-44.62270889,-2.55429134,,,
imu,406.222172,1.058730456,-9.4215047528,2.5828237904,5.31619048,-45.81901449,-2.18792275,,,
imu,406.23067,1.0282246632,-9.456795768000001,2.6270870976,5.67508216,-47.09008919,-2.21035348,,,
imu,406.239108,0.9863539672000001,-9.46576806,2.6540039736,5.99658929,-48.90697832,-2.38232241,,,
imu,406.247546,0.9265386872000001,-9.502853533600002,2.6510132096,6.18351204,-50.35749886,-2.5991528,,,
imu,406.255984,0.8242545584000001,-9.612315496,2.6928839056,6.25828114,-51.86783468,-2.86084465,,,
imu,406.264423,0.7429057776,-9.634447149600001,2.703650656000001,6.14612749,-53.06414028,-2.8982292,,,
imu,406.272861,0.6693329832000001,-9.593772759200002,2.6880986832,6.06388148,-53.81930819,-3.02533667,,,
imu,406.281299,0.5514968816000001,-9.536350090400001,2.6803226968,5.73489744,-54.2753997,-3.21973633,,,
imu,406.289737,0.4474182944000001,-9.431075197600002,2.6504150568,5.6302207,-54.47727627,-3.30198234,,,
imu,406.298175,0.31403022,-9.432869656000001,2.655798432,5.66012834,-54.18567678,-3.20478251,,,
imu,405.002894,,,,,,,-91.932434,176.815158,115.7914104
imu,405.104517,,,,,,,-90.0281108,176.9250228,112.6053312
imu,405.205866,,,,,,,-94.00765799999999,178.7316884,112.6175384
imu,405.307429,,,,,,,-94.3860812,179.0246612,109.8342968
imu,405.409022,,,,,,,-94.66684679999999,179.3664628,110.762044
imu,405.510554,,,,,,,-94.3860812,179.2932196,109.5047024
imu,405.612177,,,,,,,-94.77671160000001,180.0012372,107.6003792
imu,405.713679,,,,,,,-95.472522,180.29421,103.9748408
imu,406.30647,0.19439966,-9.483712644000002,2.6510132096,5.80218963,-53.55761634,-2.93561375,,,
imu,406.314908,0.09869521200000002,-9.520798117600002,2.6791263912,6.05640457,-52.52580276,-2.68887572,,,
imu,406.323346,0.0005981528000000001,-9.6009505928,2.7233896984,5.839574180000001,-51.25472806,-2.48699915,,,
imu,406.331784,-0.1274065464,-9.70502918,2.7568862552,5.50311323,-49.66962314,-2.39727623,,,
imu,406.340223,-0.206362716,-9.694860582400002,2.7664567,5.12926773,-47.63590362,-1.97109236,,,
imu,406.348661,-0.2703650656,-9.665551095200001,2.761671477600001,4.5834533,-45.34796916,-1.79164652,,,
imu,406.357099,-0.3182172896000001,-9.6051376624,2.7347546016,3.94043904,-42.85068122,-1.58976995,,,
imu,406.365537,-0.3295821928000001,-9.5704448,2.700659892,3.32733242,-40.38330092,-1.57481613,,,
imu,406.373975,-0.3355637208,-9.531564868,2.6934820584,2.96844074,-37.8261977,-1.54490849,,,
imu,406.382413,-0.2954874832,-9.5172092008,2.6988654336,2.72170271,-35.57564779,-1.39537029,,,
imu,406.390851,-0.2595983152,-9.519003659200001,2.6916876,2.51234923,-33.54940518,-1.38789338,,,
imu,406.399289,-0.260196468,-9.543527924000001,2.7102303368,2.7142258,-31.73999296,-1.36546265,,,
imu,406.407727,-0.248233412,-9.5812115504,2.7192026288,2.4899185,-30.25956478,-1.51500085,,,
imu,406.416166,-0.2416537312,-9.582407856000001,2.725184156800001,2.46748777,-28.83895188,-1.58229304,,,
imu,406.424604,-0.245242648,-9.5907819952,2.7413342824,2.45253395,-27.42581589,-1.70940051,,,
imu,406.433042,-0.2506260232,-9.636241608,2.7610733248,2.24318047,-25.97529535,-1.82903107,,,
imu,406.441847,-0.2655798432,-9.672130776000001,2.789186506400001,1.80204278,-24.64440537,-1.81407725,,,
imu,406.450652,-0.2936930248,-9.672130776000001,2.7957661872,1.40576655,-23.03686972,-1.64210832,,,
imu,406.459457,-0.3014690112,-9.651195428000001,2.7826068256,1.07678251,-21.19754986,-1.43275484,,,
imu,406.468262,-0.3188154424,-9.6159044128,2.7652603944,0.6132140899999999,-19.2834609,-1.17106299,,,
imu,406.477067,-0.31403022,-9.577024480800002,2.760475172,0.29170696,-17.50395632,-0.9318018699999999,,,
imu,406.485872,-0.2835244272,-9.557883591200001,2.743726893600001,0.03001510999999998,-15.58239045,-0.6925407499999998,,,
imu,406.494677,-0.2356722032,-9.540537160000001,2.7413342824,0.03749201999999999,-13.75802441,-0.5355256399999999,,,
imu,406.503482,-0.1979885768,-9.481918185600001,2.717408170400001,0.09730729999999999,-12.24768859,-0.4682334499999998,,,
imu,406.512287,-0.1692772424,-9.451412392800002,2.709632184,0.12721494,-11.08129063,-0.57291019,,,
imu,406.521092,-0.1339862272,-9.4460290176,2.699463586400001,0.3963837,-10.0120925,-0.6476792899999999,,,
imu,406.529897,-0.1082656568,-9.462777296000002,2.7090340312,0.67302937,-8.92046364,-0.5953409199999999,,,
imu,406.538702,-0.080750628,-9.462777296000002,2.725184156800001,0.9347212199999999,-7.9933268,-0.57291019,,,
imu,406.547507,-0.07656355840000001,-9.495077547200001,2.724586004,1.10669015,-7.178343610000001,-0.7224483899999998,,,
imu,406.556312,-0.0466559184,-9.520199964800002,2.7281749208,1.4431511,-6.348406600000001,-0.57291019,,,
imu,406.565117,-0.0257205704,-9.523190728800001,2.7341564488,1.65250458,-5.54090032,-0.51309491,,,
imu,406.573922,-0.0101685976,-9.5381445488,2.7449231992,1.89924261,-4.87545533,-0.5355256399999999,,,
imu,406.582727,0.009570444800000001,-9.548313146400002,2.7299693792,1.94410407,-4.22496416,-0.6402023799999998,,,
imu,406.591532,0.04545961280000001,-9.550705757600001,2.739539824,1.99644244,-3.66419591,-0.73740221,,,
imu,406.600337,0.07955432240000002,-9.555490980000002,2.739539824,2.116073,-3.30530423,-0.82712513,,,
imu,406.609142,0.0933118368,-9.5393408544,2.730567532,1.97401171,-2.85668963,-0.73740221,,,
imu,406.617946,0.1142471848,-9.5291722568,2.718604476,1.93662716,-2.46789031,-0.7224483899999998,,,
imu,406.626751,0.1363788384,-9.562070660800002,2.7263804624,1.85438115,-2.15386009,-0.43832581,,,
imu,406.635556,0.1507345056,-9.596165370400001,2.7221933928,1.65998149,-1.97441425,-0.3635567099999999,,,
imu,406.644052,0.1561178808,-9.6015487456,2.7168100176,1.63755076,-1.69776858,-0.26635688,,,
imu,406.652547,0.176455076,-9.6159044128,2.7221933928,1.75718132,-1.40616909,-0.1990646899999999,,,
imu,406.661042,0.1908107432,-9.613511801600001,2.700659892,1.75718132,-1.09961578,0.02524261000000028,,,
imu,406.669538,0.2105497856,-9.541135312800002,2.6701540992,1.67493531,-0.9650314,-0.1691570499999999,,,
imu,406.678033,0.2344758976,-9.495077547200001,2.671350404800001,1.83942733,-0.8977392100000001,-0.1915877799999999,,,
imu,406.686528,0.2500278704,-9.486703408,2.668957793600001,1.73475059,-0.7407241,-0.46075654,,,
imu,406.695024,0.2966837888,-9.533359326400001,2.6982672808,1.97401171,-0.5313706200000001,-0.5355256399999999,,,
imu,406.703519,0.3247969704000001,-9.592576453600001,2.726978615200001,2.07121154,-0.4117400600000001,-0.54300255,,,
imu,406.712014,0.3325729568,-9.651195428000001,2.757484408000001,2.30299575,-0.3893093300000001,-0.3635567099999999,,,
imu,406.72051,0.334965568,-9.665551095200001,2.7730363808,2.116073,-0.4939860700000001,-0.3635567099999999,,,
imu,406.729005,0.331974804,-9.620689635200002,2.754493644000001,1.92915025,-0.7482010100000003,-0.6925407499999998,,,
imu,406.7375,0.3259932760000001,-9.556089132800002,2.740736129600001,1.58521239,-0.9874621299999999,-1.16358608,,,
imu,406.745996,0.296085636,-9.5357519376,2.7287730736,1.35342818,-1.17438488,-1.5523854,,,
imu,406.754491,0.2913004136,-9.5148165896,2.682715308000001,1.28613599,-1.2641078,-1.88136944,,,
imu,406.762986,0.287113344,-9.4831144912,2.6743411688,1.5179202,-1.27906162,-2.03090764,,,
imu,406.771482,0.2745521352,-9.444234559200002,2.6426390704,1.65250458,-1.31644617,-2.27016876,,,
imu,406.779977,0.2829262744000001,-9.409541696800002,2.6282834032,1.82447351,-1.35383072,-2.36736859,,,
imu,406.788472,0.2823281216,-9.419710294400002,2.628881556000001,2.07868845,-1.36130763,-2.23278421,,,
imu,406.796968,0.2709632184,-9.4244955168,2.6390501536,2.03382699,-1.35383072,-2.08324601,,,
imu,406.805463,0.2793373576,-9.4555994624,2.6294797088,2.10111918,-1.4884151,-1.97109236,,,
imu,406.813958,0.2607946208,-9.4735440464,2.6157221944,2.36281103,-1.45850746,-1.88136944,,,
imu,406.822454,0.2560093984,-9.481918185600001,2.6043572912,2.68431816,-1.46598437,-1.84398489,,,
imu,406.830949,0.2464389536,-9.514218436800002,2.60196468,2.90114855,-1.39121527,-1.61967759,,,
imu,406.839444,0.2506260232,-9.549509452,2.6115351248,2.98339456,-1.23420016,-1.35798574,,,
imu,406.847895,0.2625890792,-9.5812115504,2.631872320000001,3.03573293,-1.03232359,-1.05890934,,,
imu,406.856346,0.2697669128,-9.609324732000001,2.6127314304,3.11050203,-0.68090882,-0.6177716499999999,,,
imu,406.864797,0.28412258,-9.557285438400001,2.58701086,3.30490169,-0.35192478,-0.25887997,,,
imu,406.873248,0.2847207328,-9.5172092008,2.5654773592,3.46939371,-0.06780220000000003,-0.11681868,,,
imu,406.881699,0.2996745528,-9.513022131200001,2.5606921368,3.79837775,0.27613566,0.05515025000000007,,,
imu,406.890149,0.2781410520000001,-9.559678049600002,2.5816274848,4.03763887,0.4331507699999997,-0.1616801399999999,,,
imu,406.8986,0.2763465936,-9.597959828800002,2.5917960824,4.14231561,0.6275504299999999,-0.52057182,,,
imu,406.907051,0.287113344,-9.636241608,2.619909264,4.32176145,1.00139593,-0.8495558599999999,,,
imu,406.915502,0.2805336632,-9.710412555200001,2.625890792,4.32176145,1.1285034,-1.11872462,,,
imu,406.923953,0.2829262744000001,-9.685290137600001,2.597179457600001,3.81333157,1.26308778,-1.34303192,,,
imu,406.932404,0.2775428992,-9.627269316000001,2.551121692,3.60397809,1.50982581,-1.35050883,,,
imu,406.940854,0.2625890792,-9.580613397600002,2.4889138008,3.48434753,1.85376367,-1.4776163,,,
imu,406.949305,0.2853188856,-9.550705757600001,2.476352592,3.33480933,2.16779389,-1.76173888,,,
imu,406.957756,0.3307784984000001,-9.591380148,2.4805396616,3.4619168,2.45191647,-1.83650798,,,
imu,406.966207,0.4049494456000001,-9.633250844,2.4966897872,3.4619168,2.57154703,-1.87389253,,,
imu,406.974658,0.3804251808,-9.5459205352,2.471567369600001,3.37967079,2.53416248,-1.97856927,,,
imu,406.983108,0.3499193880000001,-9.5704448,2.4590061608,3.5366859,2.49677793,-2.08324601,,,
imu,406.991559,0.334965568,-9.668541859200001,2.470371064,3.43948607,2.29490136,-2.50942988,,,
imu,407.00001,0.3517138464,-9.671532623200001,2.481137814400001,2.84881018,2.08554788,-2.95804448,,,
imu,407.008461,0.3457323184,-9.667943706400001,2.5116436072,2.47496468,1.84628676,-3.14496723,,,
imu,407.016912,0.3445360128,-9.688879054400001,2.5355697192,2.09364227,1.76404075,-3.11505959,,,
imu,407.025363,0.3236006648,-9.6703363176,2.51224176,1.38333582,1.75656384,-3.15992105,,,
imu,407.033813,0.3523119992,-9.669738164800002,2.515232524,0.7552753799999999,1.64441019,-2.9729983,,,
imu,407.042264,0.3511156936,-9.6775141512,2.5074565376,0.4861066199999999,1.70422547,-2.60662971,,,
imu,407.050791,0.3212080536,-9.706823638400001,2.5176251352,0.11973803,1.79394839,-2.21783039,,,
imu,407.059318,0.3194135952000001,-9.709216249600003,2.5080546904,-0.04475399000000001,1.94348659,-1.70940051,,,
imu,407.067846,0.3493212352000001,-9.594370912,2.467380300000001,-0.26906129,2.26499372,-1.23835518,,,
imu,407.076373,0.340947096,-9.614708107200002,2.5176251352,-0.11952309,2.40705501,-0.9766633299999998,,,
imu,407.0849,0.3206099008000001,-9.669738164800002,2.5517198448,-0.26906129,2.43696265,-0.90937114,,,
imu,407.093427,0.3032634696000001,-9.6535880392,2.566075512,-0.5008455,2.46687029,-0.82712513,,,
imu,407.101954,0.3247969704000001,-9.635045302400002,2.578038568,-0.77001426,2.45191647,-1.07386316,,,
imu,407.110481,0.3457323184,-9.604539509600002,2.5654773592,-0.89712173,2.58650085,-1.26826282,,,
imu,407.119008,0.3182172896000001,-9.591380148,2.5744496512,-1.16629049,2.48930102,-1.73183124,,,
imu,405.815166,,,,,,,-95.48472919999999,181.270786,101.9606528
imu,405.916698,,,,,,,-94.89878359999999,180.6115972,102.949436
imu,406.01823,,,,,,,-93.1165324,180.1355164,101.423536
imu,406.119823,,,,,,,-95.9852244,179.8181292,105.9646144
imu,406.222118,,,,,,,-93.5926132,177.8893916,105.8059208
imu,406.322948,,,,,,,-95.2527924,178.3044364,111.4456472
imu,406.424541,,,,,,,-94.3372524,176.4855636,112.9959616
imu,406.526043,,,,,,,-93.49495560000001,176.0094828,115.9867256
imu,407.127535,0.334965568,-9.593174606400002,2.554112456,-1.21115195,2.63136231,-2.01595382,,,
imu,407.136063,0.3672658192000001,-9.567454036,2.5594958312,-1.0242292,2.81080815,-1.84398489,,,
imu,407.14459,0.391790084,-9.595567217600001,2.5941886936,-1.25601341,2.81828506,-1.82903107,,,
imu,407.153117,0.3947808480000001,-9.593772759200002,2.601366527200001,-1.33825942,2.91548489,-2.02343073,,,
imu,407.161644,0.400762376,-9.597361676,2.610936972000001,-1.22610577,3.06502309,-2.12063056,,,
imu,407.170171,0.4001642232,-9.576426328,2.6127314304,-1.13638285,3.16222292,-2.14306129,,,
imu,407.178698,0.4390441552000001,-9.577024480800002,2.6091425136,-0.9943215599999999,3.13979219,-2.26269185,,,
imu,407.187225,0.4354552384000001,-9.554892827200002,2.6055535968,-1.03170611,3.05754618,-2.51690679,,,
imu,407.195752,0.4288755576000001,-9.528574104,2.6175166528,-1.11395212,3.04259236,-2.56176825,,,
imu,407.20428,0.4504090584,-9.462777296000002,2.5965813048,-0.95693701,2.88557725,-2.57672207,,,
imu,407.212807,0.4498109056,-9.4980683112,2.619909264,-0.6503837,2.73603905,-2.42718387,,,
imu,407.221334,0.4384460024000001,-9.481918185600001,2.6145258888,-0.38121494,2.52668557,-2.33746095,,,
imu,407.229861,0.4456238360000001,-9.455001309600002,2.6121332776,-0.16438455,2.2500399,-2.47204533,,,
imu,407.238388,0.4324644744,-9.4765348104,2.6043572912,0.22441477,2.04068642,-2.57672207,,,
imu,407.246915,0.4163143488000001,-9.4801237272,2.5888053184,0.5982602699999999,2.07807097,-2.65149117,,,
imu,407.25566,0.3935845424,-9.4765348104,2.5953849992,1.11416706,2.0257326,-2.748691,,,
imu,407.264406,0.3600879856,-9.519003659200001,2.6157221944,1.36090509,1.86124058,-2.98047521,,,
imu,407.273151,0.370854736,-9.517807353600002,2.6324704728,1.57773548,2.04816333,-3.05524431,,,
imu,407.281896,0.3696584304000001,-9.536350090400001,2.6061517496,1.86185806,2.16779389,-3.29450543,,,
imu,407.290641,0.3385544848000001,-9.520199964800002,2.6001702216,1.97401171,2.40705501,-3.50385891,,,
imu,406.627605,,,,,,,-93.21419,175.8874108,116.1820408
imu,406.729168,,,,,,,-92.43292920000002,176.204798,115.9378968
imu,406.83073,,,,,,,-92.56720840000001,175.6066452,115.8036176
imu,406.932323,,,,,,,-92.481758,175.4235372,115.1688432
imu,407.033825,,,,,,,-92.23761400000001,175.4845732,116.4750136
imu,407.135418,,,,,,,-90.345498,174.984078,114.48524
imu,407.23698,,,,,,,-92.00567720000001,175.5700236,116.8778512
