Type,Timestamp,Data Accelerometer X,Data Accelerometer Y,Data Accelerometer Z,Data Gyroscope X,Data Gyroscope Y,Data Gyroscope Z,Data Magnetometer X,Data Magnetometer Y,Data Magnetometer Z
imu,424.569716,-0.4737370176,-9.452010545600002,3.023662404,0.77770611,1.84628676,-4.67773378,,,
imu,424.578177,-0.472540712,-9.450216087200001,3.0099048896,0.81509066,1.83133294,-4.82727198,,,
imu,424.586638,-0.5000557408,-9.4591883792,2.9949510696,0.80013684,1.80890221,-4.9169949,,,
imu,424.595102,-0.5006538936,-9.495077547200001,3.0111011952,0.77770611,1.94348659,-4.77493361,,,
imu,424.603565,-0.4851019208000001,-9.4974701584,3.007512278400001,0.77770611,1.95844041,-4.46090339,,,
imu,424.612029,-0.4791203928000001,-9.489096019200002,3.0194753344,0.6954601,1.92105586,-4.3936112,,,
imu,424.620492,-0.4880926848000001,-9.474740352000001,3.029045779200001,0.8749059399999999,2.01077878,-4.33379592,,,
imu,424.628956,-0.4988594352000001,-9.470553282400001,3.023662404,0.80013684,1.7266562,-4.29641137,,,
imu,424.637419,-0.4982612824000001,-9.475936657600002,3.017082723200001,0.80761375,1.76404075,-4.19173463,,,
imu,424.645883,-0.4982612824000001,-9.48072188,3.0194753344,1.00201341,1.89862513,-3.98985806,,,
imu,424.654346,-0.5066354216000001,-9.486703408,3.029045779200001,1.15902852,2.03320951,-3.75059694,,,
imu,424.66281,-0.5030465048,-9.502853533600002,3.0284476264,0.8375213899999999,2.0257326,-3.66087402,,,
imu,424.671273,-0.4976631296000001,-9.496872005600002,3.012895653600001,0.67302937,2.05564024,-3.51881273,,,
imu,424.679737,-0.5144114080000001,-9.517807353600002,3.021269792800001,0.5010604399999999,2.13788625,-3.45152054,,,
imu,424.688201,-0.5138132552000001,-9.5423316184,3.02067164,0.49358353,2.39210119,-3.33936689,,,
imu,424.696664,-0.5060372688000001,-9.555490980000002,3.0099048896,-0.02232326000000001,2.33976282,-3.45152054,,,
imu,424.705128,-0.5030465048,-9.532163020800002,3.003325208800001,-0.4260764,2.35471664,-3.52628964,,,
imu,424.713591,-0.502448352,-9.488497866400001,3.0122975008,-0.67281443,2.44443956,-3.47395127,,,
imu,424.722055,-0.5084298800000001,-9.4633754488,3.038616224000001,-0.73262971,2.42200883,-3.52628964,,,
imu,424.730518,-0.5066354216000001,-9.4669643656,3.044597752,-0.98684465,2.41453192,-3.78798149,,,
imu,424.738982,-0.5102243384,-9.4490197816,3.044597752,-0.9943215599999999,2.38462428,-3.95247351,,,
imu,424.747445,-0.517402172,-9.4454308648,3.047588516000001,-0.91955246,2.37714737,-3.93751969,,,
imu,424.755909,-0.5287670752,-9.435860420000001,3.0547663496,-0.79244499,2.31733209,-3.81041222,,,
imu,424.764372,-0.5287670752,-9.435262267200002,3.0673275584,-0.62047606,2.46687029,-3.69078166,,,
imu,424.772836,-0.520392936,-9.437654878400002,3.0679257112,-0.54570696,2.43696265,-3.62348947,,,
imu,424.7813,-0.5239818528000001,-9.4490197816,3.080486920000001,-0.50832241,2.45191647,-3.52628964,,,
imu,424.789763,-0.5138132552000001,-9.462777296000002,3.0840758368,-0.4260764,2.38462428,-3.43656672,,,
imu,424.798225,-0.5185984776000001,-9.456197615200002,3.0930481288,-0.46346095,2.324809,-3.42908981,,,
imu,424.806688,-0.5156077136000001,-9.4669643656,3.0882629064,-0.65786061,2.39210119,-3.50385891,,,
imu,424.81515,-0.5132151024,-9.481320032800001,3.084673989600001,-0.71767589,2.3995781,-3.45899745,,,
imu,424.823612,-0.5168040192000001,-9.457992073600002,3.071514628,-0.91207555,2.33228591,-3.24216706,,,
imu,424.832074,-0.5060372688000001,-9.4699551296,3.1038148792,-0.73262971,2.51920866,-2.95056757,,,
imu,424.840537,-0.4910834488,-9.451412392800002,3.0816832256,-0.60552224,2.46687029,-2.86084465,,,
imu,424.848999,-0.4874945320000001,-9.444234559200002,3.0679257112,-0.59056842,2.4743472,-2.89075229,,,
imu,424.857461,-0.4695499480000001,-9.438851184,3.086468448,-0.47841477,2.46687029,-2.98047521,,,
imu,424.865923,-0.4671573368000001,-9.4280844336,3.098431504000001,-0.7999219,2.51173175,-3.07767504,,,
imu,424.874386,-0.4689517952000001,-9.405952780000002,3.1026185736,-0.69524516,2.46687029,-2.96552139,,,
imu,424.882848,-0.4605776560000001,-9.391597112800001,3.092449976,-0.45598404,2.60145467,-2.8982292,,,
imu,424.89131,-0.4605776560000001,-9.3904008072,3.098431504000001,-0.13447691,2.54163939,-3.09262886,,,
imu,424.899773,-0.4510072112,-9.4316733504,3.1086001016,0.11226112,2.52668557,-3.28702852,,,
imu,424.908235,-0.4533998224,-9.444832712,3.09544074,0.15712258,2.48930102,-3.36927453,,,
imu,424.916697,-0.4665591840000001,-9.406550932800002,3.086468448,0.34404533,2.51920866,-3.36179762,,,
imu,424.925159,-0.4797185456,-9.408943544000001,3.0876647536,0.46367589,2.57902394,-3.50385891,,,
imu,424.933622,-0.4779240872000001,-9.457393920800001,3.107403796,0.3963837,2.52668557,-3.70573548,,,
imu,424.942084,-0.4833074624000001,-9.446627170400001,3.0786924616,0.42629134,2.49677793,-3.87770441,,,
imu,424.950546,-0.4803166984,-9.4454308648,3.12534838,0.56087572,2.55659321,-3.70573548,,,
imu,424.959008,-0.472540712,-9.438851184,3.1259465328,0.59078336,2.58650085,-3.57862801,,,
imu,424.967471,-0.472540712,-9.443636406400001,3.1397040472,0.65059864,2.38462428,-3.95247351,,,
imu,424.975933,-0.4940742128000001,-9.4490197816,3.1474800336,0.79265993,2.24256299,-4.42351884,,,
imu,424.984395,-0.5257763112000001,-9.393391571200002,3.1301336024,0.7552753799999999,2.19770153,-4.41604193,,,
imu,424.992858,-0.5467116592000001,-9.3383615136,3.1600412424,0.9272443100000001,2.25751681,-3.95995042,,,
imu,425.001674,-0.550300576,-9.309052026400002,3.1618357008,1.30108981,2.45939338,-3.60853565,,,
imu,425.010491,-0.5425245896,-9.2689757888,3.1456855752,1.60764312,2.57154703,-3.42908981,,,
imu,425.019308,-0.517402172,-9.282135150400002,3.1379095888,2.33290339,2.84071579,-2.94309066,,,
imu,425.028125,-0.4803166984,-9.2964908176,3.109796407200001,3.17031731,3.12483837,-2.73373718,,,
imu,425.036942,-0.4533998224,-9.298285276000001,3.105609337600001,3.85071612,3.20708438,-2.69635263,,,
imu,425.045759,-0.4199032656,-9.286920372800001,3.096637045600001,4.35166909,2.95286944,-2.80850628,,,
imu,425.054576,-0.4187069600000001,-9.3036686512,3.100225962400001,4.89748352,2.78090051,-2.86832156,,,
imu,425.063393,-0.430670016,-9.360493167200001,3.0912536704,5.41339031,2.63883922,-2.8234601,,,
imu,425.07221,-0.4492127528000001,-9.374848834400002,3.078094308800001,5.5554516,2.42200883,-2.65896808,,,
imu,425.081027,-0.4563905864000001,-9.379035904000002,3.091851823200001,5.5554516,2.27994754,-2.74121409,,,
imu,425.089844,-0.4755314760000001,-9.390998960000001,3.0739072392,5.67508216,2.2500399,-2.92813684,,,
imu,425.098661,-0.4749333232000001,-9.468758824,3.049981127200001,5.86200491,2.42948574,-2.8234601,,,
imu,425.107478,-0.4504090584,-9.495675700000001,3.022466098400001,5.69751289,2.51920866,-2.65149117,,,
imu,425.116295,-0.4318663216,-9.498666464000001,3.012895653600001,5.37600576,2.52668557,-2.48699915,,,
imu,425.125111,-0.4193051128000001,-9.499862769600002,2.996147375200001,5.46572868,2.75099287,-2.36736859,,,
imu,425.133928,-0.3947808480000001,-9.4962738528,2.978800944,5.21899065,2.51920866,-2.50942988,,,
imu,425.142745,-0.3834159448,-9.528574104,2.9626508184,5.19655992,2.25751681,-2.5991528,,,
imu,425.151562,-0.382817792,-9.544126076800001,2.9261634976,5.02459099,2.08554788,-2.94309066,,,
imu,425.160379,-0.3929863896,-9.5423316184,2.931546872800001,4.83766824,1.8014253,-3.1973056,,,
imu,425.169196,-0.3953790008,-9.551303910400001,2.9159949,4.81523751,1.67431783,-3.48890509,,,
imu,425.178013,-0.4193051128000001,-9.5638651192,2.9165930528,4.63579167,1.58459491,-3.63844329,,,
imu,425.18683,-0.4324644744,-9.575230022400001,2.9159949,4.4339151,1.49487199,-3.5711511,,,
imu,425.195647,-0.4498109056,-9.575828175200002,2.9267616504,4.21708471,1.47991817,-3.496382,,,
imu,425.204235,-0.4683536424000001,-9.572837411200002,2.942911776,3.84323921,1.56216418,-3.60105874,,,
imu,425.212823,-0.4797185456,-9.575230022400001,2.943509928800001,3.40210152,1.50982581,-3.69825857,,,
imu,425.221411,-0.4683536424000001,-9.571042952800001,2.9387247064,3.03573293,1.55468727,-3.78798149,,,
imu,425.229999,-0.4599795032,-9.541135312800002,2.945304387200001,2.96096383,1.45001053,-3.80293531,,,
imu,425.238588,-0.4528016696000001,-9.5357519376,2.9393228592,2.93105619,1.38271834,-3.71321239,,,
imu,425.247176,-0.430670016,-9.556089132800002,2.933939484000001,2.75908726,1.28551851,-3.77302767,,,
imu,425.255764,-0.4384460024000001,-9.5602762024,2.931546872800001,2.60954906,1.03130357,-3.75059694,,,
imu,425.264352,-0.4779240872000001,-9.594370912,2.918985664,2.22074974,0.7696117199999999,-3.86275059,,,
imu,425.27294,-0.4982612824000001,-9.575828175200002,2.904031844000001,2.14598064,0.6125966099999998,-3.84031986,,,
imu,425.281528,-0.5227855472,-9.546518688,2.9028355384,1.98148862,0.6948426199999997,-3.60105874,,,
imu,425.290117,-0.5556839512000001,-9.537546396000002,2.907022608,1.5179202,0.7322271699999998,-3.5711511,,,
imu,425.298705,-0.5377393672000002,-9.517807353600002,2.8813020376,1.4431511,1.0537343,-3.28702852,,,
imu,425.307293,-0.5096261856000001,-9.519601812000001,2.8908724824,1.32352054,1.40514907,-2.78607555,,,
imu,425.315881,-0.4857000736000001,-9.508835061600001,2.8824983432,1.35342818,1.53973345,-2.68887572,,,
imu,425.324469,-0.4563905864000001,-9.4801237272,2.875918662400001,1.45062801,1.64441019,-2.62906044,,,
imu,425.333057,-0.4408386136,-9.4526086984,2.870535287200001,1.48053565,1.56964109,-2.94309066,,,
imu,425.341645,-0.4348570856000001,-9.454403156800002,2.875918662400001,1.50296638,1.577118,-3.26459779,,,
imu,425.350234,-0.4390441552000001,-9.469356976800002,2.8627593008,1.76465823,1.52477963,-3.47395127,,,
imu,425.358822,-0.4551942808000001,-9.526779645600001,2.8579740784,2.13102682,1.45001053,-3.43656672,,,
imu,425.36741,-0.4707462536000001,-9.537546396000002,2.8448147168,2.00391935,1.36028761,-3.39918217,,,
imu,425.375998,-0.4982612824000001,-9.5501076048,2.8609648424,2.0413039,1.48739508,-3.27955161,,,
imu,425.384586,-0.5006538936,-9.5800152448,2.8495999392,1.85438115,1.46496435,-3.22721324,,,
imu,425.393174,-0.505439116,-9.609922884800001,2.8484036336,1.48801256,1.56216418,-3.24964397,,,
imu,425.401763,-0.4940742128000001,-9.604539509600002,2.833449813600001,1.06182869,1.83880985,-3.27955161,,,
imu,425.410117,-0.4916816016,-9.588389384000001,2.8484036336,0.79265993,1.94348659,-3.13749032,,,
imu,425.418471,-0.4749333232000001,-9.557883591200001,2.8537870088,0.42629134,1.88367131,-3.27955161,,,
imu,425.426825,-0.4665591840000001,-9.536350090400001,2.8603666896,0.42629134,1.81637912,-3.27955161,,,
imu,425.435179,-0.4557924336,-9.535153784800002,2.85617962,0.53096808,1.8761944,-3.30945925,,,
imu,425.443534,-0.4563905864000001,-9.5249851872,2.859768536800001,0.43376825,1.68179474,-3.31693616,,,
imu,425.451888,-0.4528016696000001,-9.540537160000001,2.8675445232,0.3963837,1.71170238,-3.18235178,,,
imu,425.460242,-0.4701481008,-9.5704448,2.8669463704,0.57582954,1.79394839,-3.10758268,,,
imu,425.468596,-0.4821111568000001,-9.571042952800001,2.8699371344,0.35899915,1.75656384,-3.14496723,,,
imu,425.47695,-0.4880926848000001,-9.573435564,2.8723297456,0.11226112,1.85376367,-3.0477674,,,
imu,425.485304,-0.4940742128000001,-9.551902063200002,2.892068788,-0.02980017,2.00330187,-2.9729983,,,
imu,425.493659,-0.5185984776000001,-9.539939007200001,2.9153967472,-0.28401511,2.12293243,-2.98047521,,,
imu,425.502013,-0.5329541448,-9.575828175200002,2.883096496000001,-0.4260764,2.324809,-2.86832156,,,
imu,425.510367,-0.550300576,-9.6535880392,2.8519925504,-0.53823005,2.66874686,-2.73373718,,,
imu,425.518721,-0.5514968816000001,-9.661364025600001,2.8478054808,-1.15133667,2.89305416,-2.77859864,,,
imu,425.527075,-0.5628617848,-9.618895176800002,2.883096496000001,-1.7719202,3.0725,-2.85336774,,,
imu,425.53543,-0.5826008272000001,-9.6218859408,2.8615629952,-2.19810407,3.38653022,-2.79355246,,,
imu,425.543784,-0.580208216,-9.6326526912,2.864553759200001,-2.53456502,3.76785263,-2.63653735,,,
imu,425.552055,-0.5766192992000001,-9.5776226336,2.8783112736,-2.99065653,4.23889796,-2.62158353,,,
imu,425.560409,-0.5461135064000001,-9.5219944232,2.887283565600001,-3.29720984,4.50806672,-2.5991528,,,
imu,425.568764,-0.5275707696,-9.489694172,2.8848909544,-3.27477911,4.74732784,-2.44213769,,,
imu,425.577118,-0.4970649768000001,-9.460982837600001,2.8807038848,-3.34954821,4.82209694,-2.26269185,,,
imu,425.585472,-0.46356842,-9.444234559200002,2.8944613992,-3.31964057,4.979112049999999,-2.05333837,,,
imu,425.593826,-0.4145198904,-9.429878892000001,2.9046299968,-2.9682258,4.91929677,-2.02343073,,,
imu,425.60218,-0.4031549872,-9.436458572800001,2.910611524800001,-2.6691494,4.807143119999999,-2.02343073,,,
imu,425.610738,-0.4115291264,-9.453805004000001,2.9273598032,-2.49718047,4.672558739999999,-1.94118472,,,
imu,425.619296,-0.4097346680000001,-9.4322715032,2.920181969600001,-2.39998064,4.523020539999999,-1.91875399,,,
imu,425.627853,-0.4091365152000001,-9.4203084472,2.945304387200001,-2.11585806,4.32114397,-1.86641562,,,
imu,425.636411,-0.4169125016,-9.425691822400001,2.972819416000001,-2.01865823,4.32114397,-1.82903107,,,
imu,425.644969,-0.4240903352000001,-9.422701058400001,2.9764083328,-1.83173548,4.17908268,-1.73930815,,,
imu,425.653526,-0.4378478496000001,-9.4286825864,2.980595402400001,-1.61490509,4.149175039999999,-1.5523854,,,
imu,425.662084,-0.4438293776000001,-9.408943544000001,2.9883713888,-1.51770526,4.06692903,-1.34303192,,,
imu,425.670641,-0.4414367664,-9.402363863200002,3.0009325976,-1.28592105,4.18655959,-1.14115535,,,
imu,425.679199,-0.4378478496000001,-9.3898026544,3.007512278400001,-1.1737674,4.149175039999999,-1.253309,,,
imu,425.687757,-0.4187069600000001,-9.3796340568,3.002727056,-0.67281443,4.32114397,-1.11872462,,,
imu,425.696314,-0.4127254320000001,-9.3862137376,3.002727056,-0.31392275,4.36600543,-1.19349372,,,
imu,425.704872,-0.3989679176000001,-9.405354627200001,3.003325208800001,0.13469185,4.3435747,-1.09629389,,,
imu,425.71343,-0.3965753064,-9.384419279200001,2.9955492224,0.35899915,4.33609779,-1.26078591,,,
imu,425.721987,-0.4013605288,-9.382026668000002,3.02067164,0.73284465,4.30619015,-1.31312428,,,
imu,425.730545,-0.4061457512000001,-9.398176793600001,3.0069141256,1.11416706,4.32862088,-1.31312428,,,
imu,425.739103,-0.4013605288,-9.409541696800002,3.005717820000001,1.43567419,4.32862088,-1.14115535,,,
imu,425.74766,-0.415716196,-9.4250936696,3.0284476264,1.50296638,4.39591307,-0.8794635,,,
imu,425.756218,-0.4187069600000001,-9.447225323200001,3.0302420848,1.6674584,4.48563599,-0.90937114,,,
imu,425.764776,-0.43366078,-9.454403156800002,3.021269792800001,1.64502767,4.30619015,-1.4028472,,,
imu,425.773333,-0.454596128,-9.444832712,3.014690112,1.57773548,4.31366706,-1.54490849,,,
imu,425.781891,-0.4468201416000001,-9.441841948000002,3.0278494736,1.69736604,4.4183438,-1.05890934,,,
imu,425.790448,-0.4330626272,-9.444832712,3.033831001600001,1.63755076,4.4183438,-0.9318018699999999,,,
imu,425.799006,-0.4228940296000001,-9.4322715032,3.021269792800001,1.6674584,4.4931129,-0.71497148,,,
imu,425.807564,-0.4175106544000001,-9.4113361552,3.026653168000001,1.87681188,4.76975857,-0.29626452,,,
imu,425.815932,-0.3744436528,-9.419112141600001,3.0069141256,2.19831901,4.88938913,0.2719806400000002,,,
imu,425.8243,-0.3553027632,-9.396980488,2.980595402400001,2.52730305,5.03892733,0.6308723199999999,,,
imu,425.832668,-0.3313766512,-9.401167557600001,2.9740157216,2.69179507,5.03145042,0.9374256299999999,,,
imu,425.841036,-0.3146283728000001,-9.3802322096,2.963847124,3.06564057,5.24828081,1.25893276,,,
imu,425.849405,-0.3044597752,-9.413130613600002,2.96085636,3.35724006,5.27818845,1.50567079,,,
imu,425.857773,-0.2823281216,-9.429878892000001,2.945304387200001,3.8357623,5.32304991,2.0365314,,,
imu,425.866141,-0.2697669128,-9.437654878400002,2.924967192,3.9853005,5.29314227,2.21597724,,,
imu,425.874509,-0.2428500368,-9.433467808800001,2.9076207608,4.24699235,5.36043446,2.20102342,,,
imu,425.882877,-0.2009793408,-9.4412437952,2.8824983432,4.26942308,5.33800373,2.17859269,,,
imu,425.891245,-0.1561178808,-9.4490197816,2.863955606400001,4.374099820000001,5.18098862,2.3356078,,,
imu,425.899614,-0.1303973104,-9.464571754400001,2.8519925504,4.48625347,5.06135806,2.45523836,,,
imu,425.907982,-0.101685976,-9.506442450400002,2.8675445232,4.55354566,4.85200458,2.47019218,,,
imu,425.91635,-0.09211553120000002,-9.5393408544,2.8537870088,4.374099820000001,4.82209694,2.52253055,,,
imu,425.924718,-0.07775986400000001,-9.557285438400001,2.8406276472,4.00773123,4.47068217,2.36551544,,,
imu,425.933086,-0.06400234960000001,-9.596763523200002,2.856777772800001,3.77594702,4.25385178,2.38046926,,,
imu,425.941454,-0.06519865520000001,-9.596165370400001,2.865151912,3.42453225,4.104313579999999,2.19354651,,,
imu,425.949823,-0.07656355840000001,-9.610521037600002,2.8484036336,3.08059439,3.98468302,1.96923921,,,
imu,424.578136,,,,,,,-85.58469,171.9078636,117.4027608
imu,424.679699,,,,,,,-83.61933079999999,171.1510172,115.4251944
imu,424.781292,,,,,,,-86.0485636,171.7369628,117.53704
imu,424.882854,,,,,,,-85.5114468,171.4806116,116.865644
imu,424.984417,,,,,,,-85.59689720000002,172.2130436,117.6224904
imu,425.085918,,,,,,,-85.7433836,172.0299356,117.0853736
imu,425.187511,,,,,,,-85.6823476,171.9688996,117.3905536
imu,425.958191,-0.07058203040000001,-9.636241608,2.8400294944,2.89367164,3.80523718,1.64773208,,,
imu,425.966559,-0.08194693360000001,-9.645213900000002,2.819692299200001,2.44505704,3.60336061,1.00471782,,,
imu,425.974927,-0.1184342544,-9.611119190400002,2.8256738272,1.94410407,3.37905331,0.3542266500000002,,,
imu,425.983295,-0.140565908,-9.633250844,2.8268701328,1.76465823,3.32671494,-0.17663396,,,
imu,425.991664,-0.182436604,-9.656578803200002,2.804140326400001,1.48053565,3.39400713,-0.5953409199999999,,,
imu,426.000032,-0.2434481896,-9.6733270816,2.801747715200001,1.03939796,3.43886859,-0.8719865899999999,,,
imu,426.0084,-0.305057928,-9.709216249600003,2.8149070768,0.4861066199999999,3.86505246,-1.08134007,,,
imu,426.017381,-0.3236006648,-9.7612555432,2.8184959936,0.05992275,4.63517419,-0.9243249599999999,,,
imu,426.026363,-0.3218062064,-9.801929933600002,2.814308924,-0.65786061,5.50249575,-0.8046943999999998,,,
imu,426.035344,-0.3259932760000001,-9.7911631832,2.8119163128,-1.67472037,6.25766366,-0.8645096799999998,,,
imu,426.044326,-0.3313766512,-9.788172419200002,2.817299688,-2.54204193,6.96797011,-1.4776163,,,
imu,426.053307,-0.3481249296000001,-9.7474980288,2.7838031312,-3.34954821,7.76052257,-2.28512258,,,
imu,426.062289,-0.3559009160000001,-9.7923594888,2.8340479664,-4.28416196,8.6054134,-2.85336774,,,
imu,426.07127,-0.4629702672000001,-9.853371074400002,2.8747223568,-5.03932987,9.37553513,-2.78607555,,,
imu,426.080252,-0.6406216488000002,-9.967020106400001,2.8974521632,-6.37021985,10.48211781,-2.91318302,,,
imu,426.089233,-0.8368157672000002,-10.0932303472,2.8795075792,-7.873078759999999,12.71023699,-3.5711511,,,
imu,426.098214,-0.9642223136000001,-10.147662252,2.88608726,-10.01895193,15.64118571,-4.7674567,,,
imu,426.107196,-1.0084856208,-10.2068793792,2.9064244552,-12.5386706,19.03570285,-5.94133157,,,
imu,426.116177,-1.0922270128,-10.1997015456,2.875918662400001,-15.20045056,22.79658858,-7.41428284,,,
imu,426.125159,-1.1711831824,-10.1853458784,2.8717315928,-17.75007687,26.6995356,-9.12649523,,,
imu,426.13414,-1.2638968664,-10.2421703944,2.8077292432,-20.4641952,30.75202082,-11.23498385,,,
imu,426.143122,-1.3530216336,-10.279255868,2.7580825608,-23.1558828,35.47742794,-13.32104174,,,
imu,426.152103,-1.3751532872,-10.2846392432,2.6958746696,-25.7728013,40.48695764,-15.24260761,,,
imu,426.161085,-1.2698783944,-10.2571242144,2.6773319328,-28.50935036,45.27218003999999,-17.3286655,,,
imu,426.170066,-1.1927166832,-10.3803436912,2.6988654336,-31.24589942,49.86300278,-19.45958485,,,
imu,426.179048,-1.1047882216,-10.3253136336,2.5726551928,-33.96001775,53.88558036,-21.35871999,,,
imu,426.188029,-0.9797742864000001,-10.28822816,2.548729080800001,-36.55450552,57.39225115,-23.43730097,,,
imu,426.19701,-0.7847764736,-10.0806691384,2.4787452032,-39.02936273,60.69704537,-25.01492898,,,
imu,426.205992,-0.5897786608000001,-9.867128588800002,2.4649876888,-40.61446765,63.13451803,-25.87477363,,,
imu,426.214973,-0.3995660704000001,-9.663158484000002,2.473959980800001,-41.03317461,64.95888407,-26.15889621,,,
imu,426.223314,-0.2045682576000001,-9.541135312800002,2.5493272336,-41.01822079,65.96826692,-26.26357295,,,
imu,426.231654,-0.06160973840000001,-9.4663662128,2.655200279200001,-40.43502181,66.07294365999999,-25.94954273,,,
imu,426.239994,0.0592171272,-9.419112141600001,2.7676530056,-39.77705373,65.34768339,-25.4037283,,,
imu,426.248334,0.170473548,-9.432869656000001,2.9165930528,-38.90225526,64.41306964,-24.43920691,,,
imu,426.256674,0.2595983152,-9.418513988800001,3.0248587096,-38.40130229,62.91021073,-23.42982406,,,
imu,426.265015,0.305057928,-9.401167557600001,3.1157779352,-37.99007224,61.25781361999999,-22.46530267,,,
imu,426.273355,0.3870048616000001,-9.340155972000002,3.233614036800001,-37.86296477,59.42597067,-21.34376617,,,
imu,426.281695,0.4916816016,-9.280938844800001,3.3502538328,-37.59379601,57.41468188,-19.19041609,,,
imu,426.290035,0.5586747152,-9.1648972016,3.4351915304,-37.25733506,55.02954759,-16.64078978,,,
imu,426.298375,0.61310662,-9.081155809600002,3.535083048000001,-36.71899754,52.23318325,-14.62950099,,,
imu,426.306716,0.6298548984000001,-9.0751742816,3.663087747200001,-35.82924525,49.27232689,-12.88738096,,,
imu,426.315056,0.6376308848000001,-9.135587714400002,3.7958776688,-34.98435442,46.14697851,-10.8985229,,,
imu,426.323396,0.6077232448000001,-9.234881079200001,3.913713770400001,-34.4460169,42.89452266,-8.99191085,,,
imu,426.331736,0.5700396184000001,-9.291107442400001,3.9729308976,-34.20675578,40.09815832,-7.42175975,,,
imu,426.340076,0.5778156048000002,-9.226506940000002,4.014801593600001,-34.19927887,37.41394763,-6.02357758,,,
imu,426.348417,0.6160973840000001,-9.153532298400002,4.106318972,-34.22918651,34.64749093,-4.931948719999999,,,
imu,426.356757,0.6035361752000001,-9.065603836800001,4.2014252672,-34.2217096,32.03057243,-4.0197657,,,
imu,426.365097,0.5999472584000001,-9.0093774736,4.3138779936,-33.91515629,29.49589994,-3.21973633,,,
imu,426.373437,0.5491042704000001,-8.993825500800002,4.45623836,-33.38429568,26.79673543,-2.15801511,,,
imu,426.381777,0.4862982264000001,-8.9645160136,4.526820390400001,-33.36934186,24.57609316,-1.09629389,,,
imu,426.390118,0.4641665728000001,-8.8418946896,4.554335419200001,-33.42168023,22.69191184,0.13739626,,,
imu,426.398458,0.4868963792000001,-8.713889990400002,4.6171414632,-32.98801945,21.05446855,1.5131477,,,
imu,426.406798,0.4916816016,-8.661252544000002,4.7248089672,-32.32257446,19.43945599,2.91132987,,,
imu,426.415138,0.4587831976000001,-8.718675212800001,4.839654304800001,-31.80666767,17.95902781,3.98800491,,,
imu,426.423599,0.4539979752000001,-8.7276475048,4.813335581600001,-31.14122268,16.57579946,4.645972990000001,,,
imu,426.43206,0.4749333232000001,-8.699534323200002,4.845037680000001,-31.1561765,15.44678605,4.71326518,,,
imu,426.440521,0.5305615336,-8.6032317224,4.888702834400001,-31.26833015,14.14580371,4.989910849999999,,,
imu,426.448982,0.5742266880000001,-8.4746288704,4.903656654400001,-31.08888431,12.792483,5.408617809999999,,,
imu,426.457443,0.6352382736000001,-8.369353977600001,4.9682571568,-30.84962319,11.3718701,5.431048539999999,,,
imu,426.465904,0.6657440664000001,-8.280229210400002,5.036446576000001,-30.62531589,10.01107248,5.543202190000001,,,
imu,426.474365,0.6238733704,-8.206058263200001,5.154282677600001,-30.11688601,8.710090139999998,6.081539709999999,,,
imu,426.482826,0.6023398696000001,-8.2359659032,5.291857821600001,-29.75051742,7.35676943,6.50772358,,,
imu,426.491287,0.5688433128,-8.2491252648,5.3432989624,-29.98977854,6.33243276,6.971292,,,
imu,426.499748,0.5365430616000001,-8.2323769864,5.381580741600001,-30.4084855,5.592218669999999,7.771321370000001,,,
imu,426.508209,0.5347486032000001,-8.180337692800002,5.4180680624,-30.59540825,5.158557889999999,8.39938181,,,
imu,426.51667,0.5257763112000001,-8.098988912000001,5.4090957704,-30.57297752,4.814620029999999,8.70593512,,,
imu,426.525131,0.5317578392000001,-7.999695547200002,5.42823666,-30.44587005,4.7921893,8.466674000000001,,,
imu,426.533592,0.5778156048000002,-7.840586902400001,5.441396021600001,-30.10193219,4.75480475,7.988151760000001,,,
imu,426.542053,0.6388271904000001,-7.697628383200001,5.513174357600001,-29.52621012,4.59778964,7.42738351,,,
imu,426.550514,0.7004369288000002,-7.575007059200001,5.617252944800001,-28.44953508,4.28375942,6.717077060000001,,,
imu,426.558975,0.8260490168000001,-7.535528974400002,5.7087703232,-27.17098347,3.7454219,5.70769421,,,
imu,426.567436,0.7704208064000001,-7.576203364800001,5.8158396744,-25.71298602,2.80333124,4.56372698,,,
imu,426.575897,0.7554669864000001,-7.630635269600002,5.888814316000001,-24.44191132,2.2500399,3.98800491,,,
imu,426.584358,0.7255593464000001,-7.722152648000001,5.981528000000001,-23.05868297,1.92853277,3.95062036,,,
imu,426.592819,0.6920627896000001,-7.834605374400001,6.0497174192,-22.29603815,1.6518871,4.182404569999999,,,
imu,426.60128,0.6627533024,-7.809482956800001,6.034763599200001,-22.07173085,1.83880985,4.59363462,,,
imu,426.609741,0.7261574992000001,-7.7383027736,6.038352516000001,-21.76517754,2.26499372,4.93757248,,,
imu,426.618202,0.8266471696000001,-7.646187242400001,6.080821364800001,-21.24179384,2.65379304,4.78803428,,,
imu,426.626673,0.9600352440000001,-7.537323432800001,6.1173086856,-20.22493408,2.76594669,4.316988950000001,,,
imu,426.635144,1.0312154272,-7.444011596000001,6.129869894400001,-19.01367466,2.53416248,3.56182104,,,
imu,426.643719,1.0383932608,-7.368046190400001,6.156786770400001,-17.3986621,1.86871749,2.58234583,,,
imu,426.65219,1.0659082896,-7.336344092000001,6.201648230400001,-15.44718859,1.37524143,1.52810152,,,
imu,426.660661,1.0443747888,-7.346512689600001,6.223779884000002,-13.27140778,0.98644211,0.6906876,,,
imu,426.669133,1.0060930096,-7.376420329600001,6.271033955200001,-11.13301152,0.52287369,0.3317959200000002,,,
imu,426.677604,0.9666149248000001,-7.496050889600001,6.339821527200002,-9.525475870000001,0.2537049300000001,0.10001171,,,
imu,426.686075,0.9079959504000001,-7.592951643200001,6.332643693600001,-8.32917027,0.13407437,-0.04204958000000003,,,
imu,426.694546,0.8960328944000001,-7.595344254400001,6.330849235200001,-7.62634073,0.2312741999999997,-0.71497148,,,
imu,426.703017,0.9462777296000001,-7.513397320800001,6.348793819200001,-7.088003209999999,0.6125966099999998,-1.4028472,,,
imu,426.711488,1.019850524,-7.449394971200001,6.360756875200002,-6.355266029999999,0.8144731799999998,-2.06081528,,,
imu,426.71996,1.0964140824,-7.329166258400002,6.3410178328,-5.293544809999999,0.7097964399999999,-2.77859864,,,
imu,426.728431,1.1855388496,-7.232265504800001,6.3619531808,-4.02994702,0.3284740299999998,-3.6459202,,,
imu,426.736902,1.2465504352,-7.144337043200001,6.3876737512,-2.11585806,-0.3070633200000001,-4.46090339,,,
imu,426.745373,1.2256150872,-7.083325457600001,6.387075598400001,0.02253820000000001,-1.27158471,-5.23102512,,,
imu,426.753844,1.1861370024,-7.025902788800001,6.407412793600001,2.51234923,-2.19124464,-5.545055339999999,,,
imu,426.762315,1.1741739464,-6.9762561064,6.395449737600001,5.21151374,-3.15576603,-5.56000916,,,
imu,426.770787,1.2226243232,-6.955918911200001,6.391262668,7.83590915,-3.91841085,-5.61982444,,,
imu,425.289074,,,,,,,-85.53586120000001,171.5538548,117.7323552
imu,425.390636,,,,,,,-84.66914999999999,171.566062,116.0599688
imu,425.492382,,,,,,,-85.42599639999999,172.0299356,117.4882112
imu,425.593761,,,,,,,-83.4728444,170.6627292,115.7547888
imu,425.695324,,,,,,,-86.2682932,172.2130436,117.5858688
imu,425.796886,,,,,,,-83.2775292,171.3951612,114.8636632
imu,425.898479,,,,,,,-85.4504108,171.7003412,117.3295176
imu,426.000011,,,,,,,-85.14523080000001,172.298494,116.8900584
imu,426.779258,1.321917688,-6.907468534400001,6.3751125424,10.82667315,-4.69600949,-5.477763149999999,,,
imu,426.787729,1.4110424552,-6.887131339200001,6.3775051536,14.13146737,-5.996991830000001,-5.60487062,,,
imu,426.7962,1.4529131512,-6.960105980800001,6.3619531808,17.51103069,-7.724158040000001,-5.97123921,,,
imu,426.804671,1.4702595824,-7.097681124800001,6.327260318400001,20.47936396,-9.92236958,-6.352561619999999,,,
imu,426.813142,1.4648762072,-7.175440988800001,6.2991471368,23.33554358,-12.3299346,-6.636684199999999,,,
imu,426.821614,1.3362733552,-7.225087671200001,6.3123064984,25.99732354,-14.44590013,-6.61425347,,,
imu,426.830226,1.2369799904,-7.319595813600001,6.313502804000001,28.2104889,-16.23288162,-6.509576729999999,,,
imu,426.838838,1.1879314608,-7.460759874400001,6.2752210248,30.28159297,-17.73574053,-6.247884879999999,,,
imu,426.847451,1.1287143336,-7.581586740000001,6.190881480000001,31.8741748,-19.38813764,-6.15068505,,,
imu,426.856063,1.0180560656,-7.638411256,6.108336393600001,33.43684898999999,-20.67416616,-5.97123921,,,
imu,426.864675,0.9205571592,-7.672505965600001,6.036558057600001,34.67801605,-21.84056412,-5.918900839999999,,,
imu,426.873287,0.8864624496000001,-7.6850671744,5.960592652000001,35.65001435,-22.95462371,-5.829177919999999,,,
imu,426.8819,0.8589474208000002,-7.774790094400001,5.895393996800001,36.91361214,-24.09111403,-5.49271697,,,
imu,426.890512,0.7548688336000001,-7.871690848000001,5.799091396000001,37.82579516,-25.01825087,-5.09644074,,,
imu,426.899124,0.6095177032000001,-7.969189754400001,5.707574017600001,38.72302436,-25.76594187,-4.73007215,,,
imu,426.907737,0.5371412144000001,-8.0589126744,5.620841861600001,39.68754575,-26.46877141,-4.18425772,,,
imu,426.916349,0.4892889904,-8.0912129256,5.520950344,40.53991349,-26.75289399,-3.66087402,,,
imu,426.924961,0.4013605288,-8.127102093600001,5.441396021600001,41.38480431999999,-27.08935494,-3.51133582,,,
imu,426.933574,0.3511156936,-8.155215275200002,5.358850935200001,41.93061874999999,-27.52301572,-3.74312003,,,
imu,426.942186,0.3325729568,-8.212637944,5.2631464872,42.65587901999999,-27.65012319,-3.72816621,,,
imu,426.950798,0.3176191368,-8.283219974400001,5.1794050952,43.3138471,-28.01649178,-3.59358183,,,
imu,426.959411,0.2865151912,-8.357390921600002,5.0986544672,43.986769,-28.42024492,-3.39918217,,,
imu,426.968023,0.245242648,-8.429767410400002,5.034652117600001,44.0615381,-29.10812064,-3.20478251,,,
imu,426.976635,0.1620994088,-8.5242755528,4.946125503200001,44.25593775999999,-29.60907361,-2.58419898,,,
imu,426.985248,0.1381732968,-8.6032317224,4.869561944800001,44.32322995,-29.98291911,-1.94866163,,,
imu,426.99386,0.1160416432,-8.668430377600002,4.794194692,44.09144574,-30.3492877,-1.20097063,,,
imu,427.002472,0.1028822816,-8.713889990400002,4.700882855200001,43.87461535,-30.80537921,-0.4757103599999999,,,
imu,427.011085,0.1010878232,-8.7551625336,4.608169171200001,43.92695371999999,-31.14184016,0.4663803,,,
imu,427.019697,0.0813487808,-8.825744564,4.487940458400001,44.03163046,-31.6203624,1.11687147,,,
imu,427.028309,-0.017944584,-8.8837653856,4.4113769,43.93443062999999,-32.33814576,1.53557843,,,
imu,427.036925,-0.0227298064,-8.938197290400002,4.347374550400001,43.82227698,-32.87648328,2.10382359,,,
imu,427.045541,-0.05383375200000001,-9.015359001600002,4.2618387,43.6876926,-33.25032878,2.59729965,,,
imu,427.054158,-0.1429585192,-9.056033392000002,4.181088072000001,43.27646255,-33.62417428,2.87394532,,,
imu,427.062774,-0.2368685088,-9.085941032000001,4.123067250400001,43.17178581,-33.7138972,3.05339116,,,
imu,427.07139,-0.3164228312,-9.184038091200001,4.0471018448,42.79794030999999,-33.33257479,3.42723666,,,
imu,427.080006,-0.4109309736,-9.24146076,3.974725356,42.31941807,-32.77928345,3.78612834,,,
imu,427.088622,-0.4528016696000001,-9.319220624000002,3.923882368,41.64649617,-32.12879228,3.99548182,,,
imu,427.097238,-0.5263744640000001,-9.371259917600002,3.862272629600001,40.89880517,-30.96987123,4.01791255,,,
imu,427.105854,-0.5730303824,-9.419112141600001,3.786307224000001,39.97914523999999,-29.75861181,4.10763547,,,
imu,427.11447,-0.5897786608000001,-9.471749588000002,3.6983787624,39.22397733,-28.35295273,4.249696759999999,,,
imu,427.123087,-0.5933675776,-9.510031367200002,3.6104503008,38.27440976,-26.79027854,4.25717367,,,
imu,427.131703,-0.5945638832000001,-9.531564868,3.5314941312,37.37718056,-25.40705019,4.00295873,,,
imu,427.140319,-0.5479079648000001,-9.5423316184,3.4447619752,36.16592113999999,-24.16588313,3.34499065,,,
imu,427.148935,-0.4958686712000001,-9.531564868,3.3693947224,35.014477,-23.13406955,2.82160695,,,
imu,427.157551,-0.4539979752000001,-9.509433214400001,3.356833513600001,34.00509415,-22.40133237,2.28326943,,,
imu,427.166167,-0.4181088072000001,-9.495675700000001,3.3203461928,32.90598838,-21.87047176,1.86456247,,,
imu,427.174783,-0.3959771536000001,-9.506442450400002,3.2533530792,32.00875918,-21.39942643,1.5879168,,,
imu,427.183399,-0.3816214864,-9.5393408544,3.203108244,31.44799093,-20.853612,1.72250118,,,
imu,427.192016,-0.400762376,-9.555490980000002,3.1528634088,30.78254594,-20.29284375,2.16363887,,,
imu,427.200632,-0.424688488,-9.585996772800002,3.1145816296,30.10214713,-19.5825373,2.36551544,,,
imu,427.209248,-0.4300718632,-9.638036066400002,3.03562546,29.31707158,-18.81989248,2.87394532,,,
imu,427.217864,-0.43366078,-9.669140012000002,2.953678526400001,28.56190367,-18.14697058,3.47209812,,,
imu,427.22648,-0.4252866408000001,-9.669738164800002,2.877114968,27.79178194,-17.39927958,3.91323581,,,
imu,427.235096,-0.4019586816,-9.70502918,2.8280664384,27.02913712,-16.7413115,4.227266029999999,,,
imu,427.243574,-0.3606861384,-9.702038416,2.7975606456,26.22163084,-16.1431587,4.48148097,,,
imu,427.252051,-0.3080486920000001,-9.685888290400001,2.772438228,25.19729417,-15.67211337,4.45905024,,,
imu,427.260528,-0.2697669128,-9.701440263200002,2.7652603944,24.37483407,-15.51509826,4.34689659,,,
imu,427.269005,-0.2757484408,-9.770825988000002,2.7526991856,23.3504974,-15.41789843,4.249696759999999,,,
imu,427.277483,-0.2907022608000001,-9.803126239200001,2.697669128,22.48317584,-15.29079096,4.18988148,,,
imu,427.28596,-0.3086468448,-9.8198745176,2.6372556952,21.66071574,-14.83469945,4.406711870000001,,,
imu,427.294437,-0.3020671640000001,-9.8270523512,2.5923942352,20.75600963,-14.31879266,4.817941919999999,,,
imu,427.302914,-0.3212080536,-9.835426490400001,2.5642810536,19.54475021,-13.84774733,5.236648880000001,,,
imu,427.311392,-0.3259932760000001,-9.887465784000002,2.533177108,18.62509028,-13.13744088,5.842278589999999,,,
imu,427.319869,-0.2966837888,-9.893447312000001,2.4596043136,17.76524563,-12.49442662,6.03667825,,,
imu,427.328346,-0.2954874832,-9.876699033600001,2.4362763544,16.65866295,-11.9560891,5.932001509999999,,,
imu,427.336823,-0.2488315648,-9.9030177568,2.4386689656,15.77638757,-11.67196652,5.61797129,,,
imu,427.345301,-0.206362716,-9.867128588800002,2.4279022152,14.68475871,-11.25325956,5.01981849,,,
imu,427.353778,-0.1740624648,-9.891054700800002,2.440463424,13.76509878,-11.07381372,4.511388609999999,,,
imu,427.362255,-0.1495382,-9.905410368000002,2.4153410064,12.95011559,-10.82707569,4.21231221,,,
imu,427.370732,-0.152528964,-9.886867631200001,2.398592728,11.94073274,-10.385938,4.294558220000001,,,
imu,427.37921,-0.1537252696,-9.8581562968,2.3962001168,11.17808792,-9.98218486,4.660926809999999,,,
imu,427.387687,-0.1489400472,-9.803724392000001,2.3698813936,10.52759675,-9.48123189,5.0272954,,,
imu,427.396164,-0.1531271168,-9.7809945856,2.3441608232,10.08645906,-8.99523274,4.945049389999999,,,
imu,427.404641,-0.1238176296,-9.803724392000001,2.3184402528,9.77990575,-8.44941831,4.8777572,,,
imu,427.413119,-0.1363788384,-9.798341016800002,2.3100661136,9.286429689999999,-7.769019500000001,5.19926433,,,
imu,427.421596,-0.1363788384,-9.7911631832,2.3184402528,8.807907449999998,-7.043759229999999,5.1768336,,,
imu,427.430073,-0.1178361016,-9.802528086400002,2.3124587248,8.344339029999999,-6.632529180000001,4.668403720000001,,,
imu,427.438551,-0.0933118368,-9.824659740000001,2.3046827384,7.7985246,-6.056807109999999,3.77865143,,,
imu,427.447028,-0.07596540560000001,-9.802528086400002,2.3034864328,7.16298725,-5.56333105,3.13563717,,,
imu,427.455506,-0.0203371952,-9.7815927384,2.3381792952,6.37043479,-5.167054820000001,2.47019218,,,
imu,427.463983,0.03289840400000001,-9.734936820000001,2.369283240800001,5.80966654,-4.82311696,1.89447011,,,
imu,427.472461,0.06460050240000001,-9.715795930400002,2.379451838400001,5.20403683,-4.53899438,0.9374256299999999,,,
imu,427.480938,0.05562821040000001,-9.690673512800002,2.3962001168,4.77037605,-4.19505652,0.04767334000000023,,,
imu,427.489416,0.05203929360000001,-9.672130776000001,2.4159391592,4.29185381,-3.85111866,-0.34860289,,,
imu,427.497893,0.07716171120000001,-9.636839760800001,2.423715145600001,3.97034668,-3.45484243,-0.5056179999999999,,,
imu,427.506371,0.07716171120000001,-9.637437913600001,2.4332855904,3.64136264,-2.94641255,-0.9617095099999999,,,
imu,427.514848,0.0723764888,-9.6326526912,2.4488375632,3.49930135,-2.55013632,-1.7766927,,,
imu,427.523326,0.04366515440000001,-9.658971414400002,2.4566135496,3.67127028,-2.2361061,-2.36736859,,,
imu,427.531803,0.03648732080000001,-9.696056888000001,2.4751562864,3.81333157,-1.82487605,-2.76364482,,,
imu,427.540281,0.0167482784,-9.7570684736,2.494297176,3.72360865,-1.6379533,-3.45152054,,,
imu,427.548758,-0.017944584,-9.803126239200001,2.515232524,3.35724006,-1.50336892,-4.37865738,,,
imu,427.557236,-0.04785222400000001,-9.8467913936,2.5176251352,2.98339456,-1.17438488,-5.1413022,,,
imu,427.565714,-0.04007623760000001,-9.865932283200001,2.5349715664,2.37028794,-0.8678315700000003,-5.6646859,,,
imu,427.574191,-0.0442633072,-9.8300431152,2.551121692,1.62259694,-0.6210935399999999,-5.95628539,,,
imu,427.582669,-0.0406743904,-9.7911631832,2.5499253864,0.7702292,-0.1201405700000002,-6.15068505,,,
imu,427.591146,-0.04785222400000001,-9.766040765600001,2.5678699704,0.27675314,0.2088434699999997,-6.292746339999999,,,
imu,426.101724,,,,,,,-84.9255012,172.0909716,116.8168152
imu,426.203256,,,,,,,-86.35374360000002,172.0665572,116.0355544
imu,426.304849,,,,,,,-89.3200932,174.3248892,112.5442952
imu,426.406381,,,,,,,-91.1023444,176.6198428,109.5657384
imu,426.507944,,,,,,,-89.24685000000001,180.0378588,106.5139384
imu,426.609751,,,,,,,-90.29666920000001,182.0886684,104.4387144
imu,426.711252,,,,,,,-86.74437400000001,183.1262804,100.202816
imu,426.813242,,,,,,,-88.75856200000001,184.078442,101.9362384
imu,427.599624,-0.06400234960000001,-9.737329431200001,2.5606921368,-0.16438455,0.47801223,-6.36751544,,,
imu,427.608101,-0.09570444800000001,-9.6799067624,2.590001624000001,-0.63542988,0.72475026,-6.54696128,,,
imu,427.616579,-0.09091922560000001,-9.602745051200001,2.588207165600001,-0.69524516,0.9640113799999996,-6.554438189999999,,,
imu,427.625056,-0.1010878232,-9.557285438400001,2.607946208,-0.58309151,1.06868812,-6.51705364,,,
imu,427.633534,-0.1088638096,-9.554892827200002,2.6157221944,-0.2765382,1.22570323,-6.50209982,,,
imu,427.642,-0.1321917688,-9.575828175200002,2.622900028000001,0.08983038999999998,1.41262598,-6.45723836,,,
imu,427.650466,-0.1369769912,-9.590183842400002,2.648022445600001,0.34404533,1.56216418,-6.509576729999999,,,
imu,427.658932,-0.131593616,-9.5704448,2.6653688768,0.20198404,1.63693328,-6.2628387,,,
imu,427.667398,-0.1238176296,-9.564463272000001,2.6773319328,0.19450713,1.73413311,-6.06096213,,,
imu,427.675864,-0.1250139352,-9.571042952800001,2.6623781128,-0.01484635000000001,1.8761944,-6.053485220000001,,,
imu,427.68433,-0.131593616,-9.554294674400001,2.655200279200001,-0.02980017,1.98087114,-6.17311578,,,
imu,427.692796,-0.1459492832,-9.533957479200001,2.6312741672,0.06739966,1.85376367,-6.19554651,,,
imu,427.701262,-0.1543234224,-9.491488630400001,2.5941886936,0.23936859,1.9509635,-6.14320814,,,
imu,427.709729,-0.167482784,-9.4663662128,2.590001624000001,0.46367589,2.13788625,-5.9637623,,,
imu,427.718195,-0.1698753952,-9.4873015608,2.5894034712,0.81509066,2.36967046,-5.94133157,,,
imu,427.726661,-0.161501256,-9.490292324800002,2.5612902896,1.13659779,2.55659321,-5.896470109999999,,,
imu,427.735092,-0.1417622136,-9.4962738528,2.551121692,1.33099745,2.69117759,-5.67216281,,,
imu,427.743558,-0.09869521200000002,-9.477132963200003,2.5517198448,1.69736604,2.9977309,-5.41794787,,,
imu,427.752024,-0.07118018320000001,-9.4591883792,2.562486595200001,1.86933497,2.86314652,-5.33570186,,,
imu,427.760491,-0.08254508640000002,-9.4735440464,2.5565050672,2.16093446,2.93043871,-5.260932759999999,,,
imu,427.768957,-0.07895616960000001,-9.5638651192,2.5594958312,2.5646876,3.00520781,-5.216071299999999,,,
imu,427.777423,-0.06519865520000001,-9.597361676,2.5499253864,2.69927198,3.02016163,-5.216071299999999,,,
imu,427.785889,-0.04246884880000001,-9.630858232800001,2.552916150400001,2.55721069,3.02763854,-5.283363489999999,,,
imu,427.794355,-0.110658268,-9.772620446400001,2.670752252,2.28804193,2.87062343,-5.47028624,,,
imu,427.802821,-0.1351825328,-9.772620446400001,2.5050639264,1.83195042,2.95286944,-5.25345585,,,
imu,427.811287,-0.08374139200000001,-9.635643455200002,2.4536227856,1.33847436,3.02763854,-5.20859439,,,
imu,427.819753,-0.04187069600000001,-9.5566872856,2.527793732800001,0.8823828499999999,3.16222292,-5.33570186,,,
imu,427.828219,-0.02871133440000001,-9.6505972752,2.5379623304,1.12164397,3.30428421,-4.759979789999999,,,
imu,427.836685,-0.02990764000000001,-9.745703570400002,2.4817359672,1.13659779,3.13231528,-4.16182699,,,
imu,427.84515,-0.003588916800000001,-9.702636568800001,2.4787452032,0.76275229,3.13979219,-3.97490424,,,
imu,427.853615,0.011963056,-9.597361676,2.51224176,0.007584380000000002,3.04259236,-4.25154991,,,
imu,427.86208,0.0125612088,-9.4944793944,2.4966897872,0.11226112,2.9229618,-4.4683803,,,
imu,427.870545,-0.0005981528000000001,-9.437056725600002,2.4769507448,0.47862971,2.72856214,-4.715118329999999,,,
imu,427.879009,0.007775986400000001,-9.544126076800001,2.529588191200001,0.8973366700000001,2.67622377,-5.021671639999999,,,
imu,427.887474,-0.0227298064,-9.639232372,2.4721655224,1.27118217,2.64631613,-5.11139456,,,
imu,427.895939,-0.0855358504,-9.6876827488,2.476352592,1.00949032,2.60893158,-5.13382529,,,
imu,427.904404,-0.08852661440000001,-9.617100718400001,2.469772911200001,0.53096808,2.78837742,-5.238502029999999,,,
imu,427.912869,-0.1022841288,-9.5698466472,2.497287940000001,0.30666078,3.19960747,-5.238502029999999,,,
imu,427.921333,-0.1172379488,-9.6248767048,2.4960916344,0.34404533,3.45382241,-5.29831731,,,
imu,427.929798,-0.1232194768,-9.7074217912,2.464389536000001,0.14964567,3.6706528,-5.53757843,,,
imu,427.938263,-0.1303973104,-9.7301515976,2.4290985208,-0.21672292,3.73046808,-5.91142393,,,
imu,427.946728,-0.1303973104,-9.6296619272,2.431491132,-0.44103022,3.82766791,-6.45723836,,,
imu,427.955193,-0.1321917688,-9.584800467200001,2.4536227856,-0.4260764,3.88748319,-6.920806779999999,,,
imu,427.963658,-0.128602852,-9.580613397600002,2.4536227856,-0.32887657,3.85757555,-7.35446756,,,
imu,427.972122,-0.125612088,-9.604539509600002,2.427304062400001,-0.08961545,3.88000628,-7.518959579999999,,,
imu,427.980587,-0.1381732968,-9.578818939200001,2.431491132,0.01506129,3.75289881,-7.41428284,,,
imu,427.989052,-0.1740624648,-9.536350090400001,2.4452486464,0.03001510999999998,3.63326825,-7.39932902,,,
imu,427.997517,-0.1848292152,-9.535153784800002,2.455417244,0.25432241,3.85009864,-7.30212919,,,
imu,428.005982,-0.1746606176,-9.555490980000002,2.454819091200001,0.41133752,3.97720611,-7.294652279999999,,,
imu,428.014446,-0.2039701048,-9.581809703200001,2.4416597296,0.68798319,4.16412886,-7.100252619999999,,,
imu,428.022911,-0.1722680064,-9.536350090400001,2.4560153968,0.8674290299999999,4.32862088,-6.860991499999999,,,
imu,428.031376,-0.1429585192,-9.5812115504,2.491306412,0.9945364999999999,4.35852852,-6.61425347,,,
imu,428.039841,-0.2147368552,-9.6523917336,2.4560153968,0.9945364999999999,4.28375942,-6.17311578,,,
imu,428.048655,-0.2877114968,-9.627269316000001,2.4368745072,0.88985976,4.15665195,-5.94133157,,,
imu,428.057469,-0.3014690112,-9.588987536800001,2.4649876888,0.80761375,4.16412886,-6.2628387,,,
imu,428.066284,-0.3080486920000001,-9.6458120528,2.4859230368,0.66555246,4.194036499999999,-6.86846841,,,
imu,428.075098,-0.3445360128,-9.692467971200001,2.4865211896,0.56835263,4.149175039999999,-7.189975539999999,,,
imu,428.083912,-0.3433397072,-9.7570684736,2.4709692168,0.5010604399999999,4.18655959,-7.43671357,,,
imu,428.092726,-0.3391526376000001,-9.7163940832,2.458408008,0.06739966,4.246374869999999,-7.59372868,,,
imu,428.101541,-0.3553027632,-9.595567217600001,2.458408008,-0.37373803,4.07440594,-7.758220699999999,,,
imu,428.110355,-0.3792288752000001,-9.596165370400001,2.521214052,-0.48589168,4.11179049,-7.818035979999999,,,
imu,428.119169,-0.3636769024000001,-9.709814402400001,2.5056620792,-0.26158438,4.23889796,-7.361944469999999,,,
imu,428.127984,-0.3481249296000001,-9.766638918400002,2.467380300000001,-0.48589168,4.44077453,-6.711453300000001,,,
imu,428.136798,-0.352910152,-9.6799067624,2.4530246328,-0.91207555,4.65760492,-5.896470109999999,,,
imu,428.145612,-0.340947096,-9.5632669664,2.5026713152,-1.13638285,4.84452767,-5.13382529,,,
imu,428.154426,-0.281131816,-9.557285438400001,2.499082398400001,-1.13638285,4.94920441,-4.96185636,,,
imu,428.163241,-0.2434481896,-9.626671163200001,2.4829322728,-1.05413684,4.76975857,-4.89456417,,,
imu,428.172055,-0.2207183832,-9.657176956,2.4536227856,-1.24105959,4.44825144,-4.59548777,,,
imu,428.180869,-0.212344244,-9.605735815200001,2.4661839944,-1.46536689,4.38095925,-4.32631901,,,
imu,428.189683,-0.191408896,-9.573435564,2.506260232,-1.59995127,4.09683667,-4.46090339,,,
imu,428.198498,-0.1848292152,-9.554294674400001,2.494297176,-1.59995127,3.73046808,-4.453426479999999,,,
imu,428.207312,-0.2536167872,-9.558481744000002,2.5158306768,-1.56256672,3.47625314,-3.90761205,,,
imu,428.216126,-0.2476352592,-9.577024480800002,2.5194195936,-1.45041307,3.69308353,-3.31693616,,,
imu,428.224941,-0.248233412,-9.581809703200001,2.5612902896,-1.42050543,3.71551426,-3.2720747,,,
imu,428.233755,-0.263187232,-9.609922884800001,2.545738316800001,-1.50275144,3.46877623,-3.17487487,,,
imu,428.242569,-0.257205704,-9.592576453600001,2.5367660248,-1.60742818,3.47625314,-3.23469015,,,
imu,428.251124,-0.242251884,-9.526181492800001,2.5259992744,-1.54013599,3.50616078,-3.52628964,,,
imu,428.259679,-0.2446444952,-9.531564868,2.5768422624,-1.27096723,3.45382241,-3.90761205,,,
imu,428.268234,-0.2177276192,-9.5949690648,2.566075512,-1.08404448,3.25194584,-4.15435008,,,
imu,428.276789,-0.1949978128,-9.609922884800001,2.552916150400001,-1.06161375,3.15474601,-4.34874974,,,
imu,428.285345,-0.206362716,-9.599754287200001,2.5798330264,-1.06909066,3.13231528,-4.386134289999999,,,
imu,428.2939,-0.2117460912,-9.551902063200002,2.5678699704,-1.29339796,3.04259236,-4.30388828,,,
imu,428.302455,-0.2039701048,-9.5590798968,2.5923942352,-1.1737674,2.81828506,-4.22911918,,,
imu,428.31101,-0.1920070488,-9.604539509600002,2.5935905408,-1.12890594,2.79585433,-4.22164227,,,
imu,428.319565,-0.2320832864,-9.602146898400001,2.595983152,-1.15133667,2.89305416,-4.10948862,,,
imu,428.32812,-0.242251884,-9.5907819952,2.6127314304,-1.23358268,2.81080815,-3.9449966,,,
imu,428.336675,-0.2165313136,-9.554892827200002,2.580431179200001,-1.06909066,2.91548489,-3.78798149,,,
imu,428.34523,-0.2296906752000001,-9.5668558832,2.604955444,-0.8672140899999999,3.05006927,-3.55619728,,,
imu,428.353785,-0.1961941184,-9.588389384000001,2.6217037224,-0.79244499,3.13979219,-3.46647436,,,
imu,428.36234,-0.101685976,-9.630858232800001,2.601366527200001,-0.93450628,2.90053107,-3.63844329,,,
imu,428.370896,-0.1232194768,-9.627867468800002,2.6121332776,-0.95693701,2.6986545,-3.84779677,,,
imu,428.379451,-0.1513326584,-9.614708107200002,2.603759138400001,-1.20367504,2.37714737,-3.96742733,,,
imu,428.388006,-0.2195220776,-9.565061424800001,2.613927736,-1.3980747,2.01077878,-4.0945348,,,
imu,428.396561,-0.275150288,-9.516012895200001,2.6145258888,-1.53265908,1.9509635,-4.28893446,,,
imu,428.405116,-0.2278962168,-9.519003659200001,2.6193111112,-1.1737674,1.83880985,-4.32631901,,,
imu,428.413671,-0.2709632184,-9.5985579816,2.6073480552,-1.26349032,1.89114822,-4.13939626,,,
imu,426.914255,,,,,,,-87.2814908,182.857722,100.8620048
imu,427.015756,,,,,,,-89.2346428,181.881146,107.0876768
imu,427.117349,,,,,,,-87.5500492,176.143762,114.3875824
imu,427.226724,,,,,,,-86.072978,173.8976372,116.7069504
imu,427.320474,,,,,,,-84.96212279999999,172.5304308,116.5238424
imu,427.422006,,,,,,,-84.37617720000001,172.1520076,116.377356
imu,427.523569,,,,,,,-81.8248724,171.4561972,116.01114
imu,427.625131,,,,,,,-83.5949164,171.5538548,117.353932
imu,428.422226,-0.3343674152,-9.625474857600002,2.5798330264,-1.24105959,2.13788625,-3.74312003,,,
imu,428.430781,-0.3415452488,-9.583604161600002,2.580431179200001,-1.3980747,2.33976282,-3.75059694,,,
imu,428.439336,-0.3648732080000001,-9.557883591200001,2.6390501536,-1.4728438,2.74351596,-3.81041222,,,
imu,428.447891,-0.3451341656,-9.545322382400002,2.6115351248,-1.4728438,2.89305416,-3.74312003,,,
imu,428.456275,-0.3804251808,-9.572837411200002,2.625890792,-1.5476129,3.05006927,-3.81041222,,,
imu,428.464658,-0.4205014184,-9.544126076800001,2.6193111112,-1.78687402,3.38653022,-4.26650373,,,
imu,428.473042,-0.4599795032,-9.519601812000001,2.6163203472,-1.7719202,3.46877623,-4.66277996,,,
imu,428.481425,-0.4055475984,-9.5148165896,2.6492187512,-1.71210492,3.80523718,-4.77493361,,,
imu,428.489809,-0.3714528888,-9.564463272000001,2.6821171552,-1.59995127,4.20899032,-4.81231816,,,
imu,428.498192,-0.3259932760000001,-9.536350090400001,2.6420409176,-1.28592105,4.40338998,-4.70764142,,,
imu,428.506575,-0.3218062064,-9.523190728800001,2.6444335288,-1.16629049,4.478159079999999,-4.46090339,,,
imu,428.514959,-0.3756399584,-9.568052188800001,2.7233896984,-0.97189083,4.410866889999999,-4.20668845,,,
imu,428.523342,-0.3864067088000001,-9.5668558832,2.648022445600001,-0.98684465,4.37348234,-4.3936112,,,
imu,428.531726,-0.3846122504,-9.583604161600002,2.678528238400001,-0.78496808,4.36600543,-4.79736434,,,
imu,428.540109,-0.3379563320000001,-9.557285438400001,2.682715308000001,-0.81487572,4.53797436,-5.05905619,,,
imu,428.548493,-0.3277877344,-9.6470083584,2.757484408000001,-0.7401066199999999,4.39591307,-4.85717962,,,
imu,428.556876,-0.340947096,-9.547116840800001,2.659387348800001,-0.8821679099999999,4.35105161,-4.42351884,,,
imu,428.565259,-0.3786307224000001,-9.572239258400002,2.6982672808,-0.7401066199999999,4.3435747,-3.93751969,,,
imu,428.573643,-0.35889168,-9.520798117600002,2.673144863200001,-0.78496808,4.62769728,-3.93751969,,,
imu,428.582026,-0.3481249296000001,-9.501657228000001,2.6546021264,-0.70272207,4.76975857,-4.08705789,,,
imu,428.59041,-0.2709632184,-9.560874355200001,2.6743411688,-0.84478336,4.58283582,-3.92256587,,,
imu,428.598793,-0.2135405496,-9.575230022400001,2.6761356272,-0.81487572,4.837050759999999,-3.33188998,,,
imu,428.607177,-0.2087553272,-9.588389384000001,2.7078377256,-0.7999219,4.65760492,-2.9729983,,,
imu,428.61556,-0.2045682576000001,-9.574631869600001,2.7150155592,-0.83730645,4.35105161,-2.90570611,,,
imu,428.623943,-0.2027737992,-9.5704448,2.7233896984,-0.98684465,3.90243701,-3.45152054,,,
imu,428.632327,-0.2278962168,-9.553696521600001,2.715613712000001,-1.14385976,3.43139168,-3.58610492,,,
imu,428.64071,-0.2584020096,-9.5118258256,2.724586004,-1.23358268,3.19960747,-3.59358183,,,
imu,428.649094,-0.2655798432,-9.475936657600002,2.730567532,-1.22610577,3.24446893,-3.67582784,,,
imu,428.657556,-0.2643835376,-9.4962738528,2.736549060000001,-1.0242292,3.25942275,-3.33936689,,,
imu,428.666018,-0.272159524,-9.536350090400001,2.725184156800001,-0.9494601,3.2968073,-3.09262886,,,
imu,428.674481,-0.2715613712,-9.5656595776,2.727576768,-0.8821679099999999,3.38653022,-2.83841392,,,
imu,428.682943,-0.251224176,-9.610521037600002,2.7377453656,-0.9644139199999999,3.57345297,-2.71130645,,,
imu,428.691405,-0.2440463424,-9.633848996800001,2.731165684800001,-1.18872122,3.65569898,-2.71130645,,,
imu,428.699867,-0.2398592728,-9.635643455200002,2.726978615200001,-1.52518217,3.76037572,-2.80850628,,,
imu,428.70833,-0.2147368552,-9.630260080000001,2.7221933928,-1.78687402,3.78280645,-3.10010577,,,
imu,428.716792,-0.2027737992,-9.6159044128,2.7329601432,-2.26539626,3.73794499,-3.48890509,,,
imu,428.725254,-0.206362716,-9.6009505928,2.7072395728,-2.45979592,3.79028336,-3.88518132,,,
imu,428.733716,-0.2051664104,-9.575230022400001,2.704248808800001,-2.57942648,3.83514482,-3.95247351,,,
imu,428.742179,-0.2135405496,-9.541135312800002,2.7120247952,-2.57194957,3.70803735,-4.04219643,,,
imu,428.750641,-0.2129423968,-9.5184055064,2.7221933928,-2.41493446,3.61831443,-3.97490424,,,
imu,428.759103,-0.2219146888,-9.490292324800002,2.7323619904,-2.34016536,3.46877623,-4.00481188,,,
imu,428.767566,-0.2356722032,-9.474740352000001,2.7323619904,-1.91398149,3.54354533,-3.82536604,,,
imu,428.776028,-0.2219146888,-9.489096019200002,2.7526991856,-1.71958183,3.50616078,-3.77302767,,,
imu,428.78449,-0.2177276192,-9.533957479200001,2.7521010328,-1.56256672,3.46877623,-3.8702275,,,
imu,428.792952,-0.2189239248,-9.571641105600001,2.743726893600001,-1.52518217,3.34914567,-4.11696553,,,
imu,428.801415,-0.2069608688,-9.562668813600002,2.7150155592,-1.53265908,3.20708438,-4.17678081,,,
imu,428.809877,-0.2356722032,-9.562070660800002,2.7233896984,-1.56256672,3.16222292,-4.15435008,,,
imu,428.818339,-0.212344244,-9.633848996800001,2.762269630400001,-1.57004363,3.07997691,-4.17678081,,,
imu,428.826793,-0.1609031032,-9.703234721600001,2.7838031312,-1.8466893,2.91548489,-4.19921154,,,
imu,428.835255,-0.125612088,-9.980179468000001,2.949491456800001,-2.58690339,2.70613141,-3.78798149,,,
imu,428.843717,-0.0011963056,-10.1368955016,2.8974521632,-4.22434668,2.25751681,-3.32441307,,,
imu,428.852179,0.08493769760000001,-10.1889347952,2.8029440208,-6.474896589999999,1.43505671,-2.57672207,,,
imu,428.860645,-0.008374139200000002,-9.987357301600001,2.8029440208,-9.241353290000001,0.08921290999999965,-1.26826282,,,
imu,428.869112,-0.1926052016,-10.1638123776,3.212080536000001,-11.44704174,-1.22672325,0.09253480000000014,,,
imu,428.877578,-0.3511156936,-10.6686533408,3.053570044,-14.0340526,-2.17629082,0.64582614,,,
imu,428.886044,-0.5144114080000001,-9.6667474008,2.45242648,-16.74069402,-2.56509014,0.4514264799999999,,,
imu,428.89451,-0.6047324808000001,-8.4710399536,2.325019933600001,-18.17626074,-2.78192053,-0.4757103599999999,,,
imu,428.902976,-0.6507902464,-7.863914861600001,2.7855975896,-15.44718859,-2.49032104,-0.96918642,,,
imu,428.911442,-0.3714528888,-8.76293852,2.8986484688,-9.93670592,-1.43607673,-1.30564737,,,
imu,428.919908,-0.2278962168,-9.7989391696,2.6635744184,-5.906651429999999,-0.7482010100000003,0.07758098000000002,,,
imu,428.928374,-0.3361618736,-10.2128609072,2.8244775216,-5.674867219999999,-0.5238937100000003,2.61973038,,,
imu,428.93684,-0.3935845424,-9.859950755200002,3.1600412424,-7.753448199999999,-0.03041764999999996,3.11320644,,,
imu,428.945306,-0.2500278704,-9.4699551296,3.2695032048,-9.592768060000001,0.5378275100000001,2.1860696,,,
imu,428.953772,-0.08433954480000001,-9.289312984,3.0906555176,-9.90679828,0.5901658799999998,2.07391595,,,
imu,428.962238,-0.1842310624,-9.197197452800001,2.88608726,-9.55538351,0.3733354899999997,2.23093106,,,
imu,428.970705,-0.4420349192,-9.1511396872,2.8490017864,-8.8749847,0.2013665599999999,1.41594787,,,
imu,428.979171,-0.4522035168,-9.0961096296,2.859768536800001,-7.66372528,0.66493498,-0.05700339999999993,,,
imu,428.987637,-0.272159524,-9.045864794400002,2.868142676,-6.474896589999999,1.38271834,-1.05890934,,,
imu,428.996103,-0.2416537312,-9.072781670400001,2.9183875112,-5.03932987,1.89862513,-0.9841402399999999,,,
imu,429.004569,-0.3385544848000001,-9.151737840000001,3.005717820000001,-3.42431731,2.36219355,-0.4981410899999998,,,
imu,429.013035,-0.3684621248000001,-9.3479319584,3.0553645024,-2.07847351,2.90053107,-0.6551562,,,
imu,429.021501,-0.272159524,-9.477132963200003,3.033831001600001,-1.55508981,3.39400713,-1.66453905,,,
imu,429.029967,-0.1238176296,-9.474740352000001,3.017082723200001,-1.6971511,3.9697292,-2.41970696,,,
imu,429.038433,-0.09869521200000002,-9.3832229736,3.029045779200001,-1.58499745,4.22394414,-2.43466078,,,
imu,429.046899,-0.20935348,-9.429280739200001,3.1020204208,-1.44293616,4.15665195,-2.50942988,,,
imu,429.055365,-0.2404574256,-9.541135312800002,3.0990296568,-1.21115195,4.246374869999999,-2.77112173,,,
imu,429.064184,-0.1698753952,-9.551303910400001,3.087066600800001,-1.30835178,4.23889796,-3.40665908,,,
imu,429.073002,-0.1788476872,-9.408345391200001,3.0810850728,-1.44293616,4.30619015,-3.75807385,,,
imu,429.08182,-0.2380648144,-9.251629357600002,3.107403796,-1.3980747,4.126744309999999,-4.17678081,,,
imu,429.090638,-0.1991848824,-9.176860257600001,3.0828795312,-0.6503837,4.44825144,-4.16182699,,,
imu,429.099457,-0.0861340032,-9.2133475784,3.0679257112,0.44872207,4.523020539999999,-3.80293531,,,
imu,429.108275,-0.08852661440000001,-9.1858325496,3.0643367944,1.30108981,4.47068217,-3.41413599,,,
imu,429.117093,-0.170473548,-9.2001882168,3.176191368,2.28804193,4.410866889999999,-3.33188998,,,
imu,429.125911,-0.2607946208,-9.187627008000002,3.2025100912,3.13293276,4.32114397,-3.57862801,,,
imu,429.13473,-0.2237091472,-9.2067678976,3.221650980800001,4.06754651,4.51554363,-3.47395127,,,
imu,429.143548,-0.2081571744,-9.290509289600001,3.1959304104,4.67317622,4.672558739999999,-3.14496723,,,
imu,429.152366,-0.2446444952,-9.28632222,3.2055008552,5.18908301,4.82957385,-2.8234601,,,
imu,429.161184,-0.2685706072,-9.302472345600002,3.212080536000001,5.28628284,4.99406587,-2.83093701,,,
imu,429.170003,-0.3014690112,-9.3413522776,3.233015884,5.54049778,5.136127159999999,-3.33936689,,,
imu,429.178821,-0.3343674152,-9.3718580704,3.237801106400001,5.75732817,5.36791137,-3.33936689,,,
imu,429.187639,-0.287113344,-9.3993730992,3.2294269672,5.78723581,5.592218669999999,-3.41413599,,,
imu,429.196457,-0.1543234224,-9.370063612000001,3.221650980800001,5.61526688,5.943633439999999,-3.52628964,,,
imu,429.205276,-0.0340947096,-9.3317818328,3.2055008552,5.75732817,6.07074091,-3.36179762,,,
imu,429.214094,-0.0442633072,-9.350324569600001,3.1618357008,5.83209727,6.02587945,-3.16739796,,,
imu,429.222912,-0.0861340032,-9.3545116392,3.107403796,5.98911238,5.726803049999999,-2.9729983,,,
imu,429.23173,-0.0370854736,-9.3383615136,3.0643367944,6.12369676,5.614649399999999,-2.86084465,,,
imu,427.726668,,,,,,,-81.7028004,171.077774,114.1068168
imu,427.828261,,,,,,,-84.24189799999999,171.2120532,117.2562744
imu,427.929976,,,,,,,-83.570502,170.711558,114.7171768
imu,428.031417,,,,,,,-84.5714924,170.9068732,116.743572
imu,428.134353,,,,,,,-84.25410520000001,171.016738,117.1219952
imu,428.234511,,,,,,,-84.51045640000001,170.7848012,116.682536
imu,428.336104,,,,,,,-84.6569428,171.4561972,116.9388872
imu,428.437636,,,,,,,-85.0597804,171.3951612,117.048752
imu,429.240549,0.04127254320000001,-9.4244955168,3.059551572000001,6.40034243,5.27818845,-2.89075229,,,
imu,429.249367,0.05861897440000001,-9.555490980000002,3.0523737384,6.5274499,4.88191222,-2.95804448,,,
imu,429.258185,0.0191408896,-9.593772759200002,3.0164845704,6.3031426,4.33609779,-2.98795212,,,
imu,429.266663,0.0693857248,-9.6703363176,3.089459212,5.71994362,3.94729847,-2.84589083,,,
imu,429.27514,0.08972292000000001,-9.6523917336,3.029643932,5.14422155,3.34914567,-2.44213769,,,
imu,429.283618,-0.0861340032,-9.620091482400001,2.963248971200001,4.62831476,2.58650085,-2.50195297,,,
imu,429.292095,-0.2386629672,-9.648802816800002,2.953678526400001,4.15726943,2.42200883,-3.00290594,,,
imu,429.300573,-0.2356722032,-9.755274015200001,3.002727056,3.76847011,2.51173175,-3.39918217,,,
imu,429.30905,-0.1686790896,-9.738525736800002,2.938126553600001,3.12545585,2.54163939,-3.15244414,,,
imu,429.317528,-0.0634041968,-9.553696521600001,2.880105732000001,2.116073,2.33228591,-2.63653735,,,
imu,429.326005,-0.04366515440000001,-9.330585527200002,2.844216564,2.12354991,2.25751681,-2.001,,,
imu,429.334483,-0.2434481896,-9.372456223200002,2.8765168152,2.6394567,1.98834805,-2.13558438,,,
imu,429.342961,-0.2590001624000001,-9.509433214400001,2.8585722312,3.29742478,2.00330187,-2.71878336,,,
imu,429.351438,-0.113649032,-9.595567217600001,2.895059552,3.49182444,2.19022462,-3.5711511,,,
imu,429.359916,0.03349655680000001,-9.623680399200001,2.9136022888,3.5366859,2.23508608,-3.90013514,,,
imu,429.368393,0.1363788384,-9.536350090400001,2.892068788,3.2376095,2.14536316,-3.13001341,,,
imu,429.376871,0.320011748,-9.468758824,2.825075674400001,2.96844074,1.92105586,-2.29259949,,,
imu,429.385348,0.5036446576000001,-9.416121377600001,2.7897846592,3.11797894,1.33785688,-1.76173888,,,
imu,429.393826,0.6675385248000001,-9.678710456800001,2.873526051200001,3.43948607,0.33595094,-0.9766633299999998,,,
imu,429.402303,0.5491042704000001,-9.810304072800001,2.8364405776,3.10302512,-0.9201699400000001,-0.26635688,,,
imu,429.410781,0.2548130928,-9.7911631832,2.870535287200001,2.03382699,-2.4604134,-0.2214954199999999,,,
imu,429.419258,-0.1004896704,-9.5590798968,2.892068788,0.97958268,-3.8810263,-1.22340136,,,
imu,429.427736,-0.2314851336,-9.453206851200001,2.9423136232,0.5010604399999999,-4.12028742,-3.61601256,,,
imu,429.436213,-0.3720510416,-9.418513988800001,2.8298608968,0.53844499,-3.67167282,-6.15068505,,,
imu,429.444691,-0.5431227424,-9.395784182400002,2.7138192536,0.73284465,-3.0585662,-7.13763717,,,
imu,429.453168,-0.5425245896,-9.440047489600001,2.7180063232,1.06182869,-1.74263004,-7.055391159999999,,,
imu,429.461646,-0.3373581792000001,-9.489096019200002,2.7670548528,1.2188438,-0.0603252900000002,-6.860991499999999,,,
imu,429.470117,-0.2643835376,-9.4980683112,2.79636434,1.21136689,1.17336486,-6.352561619999999,,,
imu,429.478588,-0.287113344,-9.477132963200003,2.8615629952,1.33847436,1.68179474,-5.49271697,,,
imu,429.487059,-0.3182172896000001,-9.458590226400002,2.82627198,1.09921324,2.16031698,-5.07401001,,,
imu,429.495531,-0.2823281216,-9.450814240000001,2.8507962448,1.2188438,2.42948574,-5.5151477,,,
imu,429.504002,-0.272159524,-9.656578803200002,2.938126553600001,1.17398234,2.6238854,-6.711453300000001,,,
imu,429.512473,-0.3337692624,-9.7074217912,2.8585722312,1.00201341,2.60145467,-7.20492936,,,
imu,429.520944,-0.2972819416,-9.626671163200001,2.7790179088,0.5982602699999999,2.7734236,-7.257267730000001,,,
imu,429.529415,-0.2536167872,-9.6290637744,2.9363320952,-0.03727708,3.19960747,-7.384375199999999,,,
imu,429.537886,-0.218325772,-9.6775141512,2.94590254,-0.28401511,3.1472691,-6.80865313,,,
imu,429.546358,-0.1752587704,-9.7331423616,2.88608726,-0.64290679,3.05754618,-6.158161959999999,,,
imu,429.554829,-0.08972292000000001,-9.751685098400001,2.8484036336,-1.48779762,3.32671494,-5.94880848,,,
imu,429.5633,-0.13458438,-9.644615747200001,2.8005514096,-2.16819643,2.94539253,-5.42542478,,,
imu,428.539168,,,,,,,-84.6935644,171.2486748,117.0365448
imu,428.640761,,,,,,,-82.715998,171.1632244,115.9989328
imu,428.742293,,,,,,,-85.096402,170.9068732,116.8168152
imu,428.843856,,,,,,,-82.9235204,170.7237652,113.8870872
imu,428.953261,,,,,,,-85.1818524,171.8590348,117.414968
imu,429.047042,,,,,,,-84.852258,171.2364676,114.057988
imu,429.148757,,,,,,,-84.9865372,172.3961516,116.3529416
imu,429.250136,,,,,,,-85.1208164,171.9688996,116.5238424
imu,429.351787,,,,,,,-84.77901480000001,172.5060164,116.1576264
imu,429.453349,,,,,,,-84.6569428,172.4327732,116.5482568
imu,429.554942,,,,,,,-84.4616276,172.1031788,116.4017704
