Type,Timestamp,Data Accelerometer X,Data Accelerometer Y,Data Accelerometer Z,Data Gyroscope X,Data Gyroscope Y,Data Gyroscope Z,Data Magnetometer X,Data Magnetometer Y,Data Magnetometer Z
imu,414.809367,-4.7505295376,-9.456795768000001,1.776513816,12.1351324,77.95375365000001,-5.20111748,,,
imu,414.817837,-4.6937050216,-9.520199964800002,1.656883256,12.97254632,91.19536126,-7.21988318,,,
imu,414.826307,-4.515455487200001,-9.593772759200002,1.5318693208,13.60060676,104.1603232,-9.52277146,,,
imu,414.834777,-4.273801756000001,-9.6075302736,1.3865181904,13.73519114,116.72900891,-11.87799811,,,
imu,414.843246,-4.007025607200001,-9.641624983200002,1.2447559768,13.86229861,128.13877357,-14.09864038,,,
imu,414.851716,-3.7043602904,-9.638036066400002,1.085647332,14.09408282,138.50177083,-16.12488299,,,
imu,414.860186,-3.3604224304,-9.640428677600001,0.9636241608000001,14.44549759,147.86286215,-17.95672594,,,
imu,414.868656,-3.007512278400001,-9.6248767048,0.8368157672000002,14.78943545,156.22952444,-19.53435395,,,
imu,414.877126,-2.566673664800001,-9.672728928800002,0.7638411256000001,15.38011134,163.3774504,-20.90262848,,,
imu,414.885596,-2.0977218696,-9.7008421104,0.7034276928000001,16.06798706,169.17953256,-22.08398026,,,
imu,414.894066,-1.5898901424,-9.9030177568,0.7722152648000001,16.67361677,173.31426379,-22.85410199,,,
imu,414.902527,-1.073684276,-10.060930096,0.7141944432000001,16.72595514,175.62462898,-22.98120946,,,
imu,414.910988,-0.6597625384000001,-10.0842580552,0.7393168608000001,15.94087959,176.1629665,-22.68960997,,,
imu,414.919449,-0.2930948720000001,-10.0944266528,0.8236564056000001,15.01374275,175.13115292,-21.91201133,,,
imu,414.92791,-0.0137575144,-10.0543504152,0.8290397808000001,13.81743715,172.68620335,-20.99982831,,,
imu,414.936371,0.2207183832,-10.025040928,0.9026125752,13.09217688,169.20196329,-19.39976957,,,
imu,414.944832,0.4109309736,-10.0094889552,0.8918458248000001,12.21737841,164.67843274,-18.19598706,,,
imu,414.953293,0.631051204,-9.9849646904,0.9576426328000002,11.37248758,159.85582579,-16.79780489,,,
imu,414.961754,0.8715086296000001,-9.9030177568,1.0389914136,10.34815091,154.15842037,-15.41457654,,,
imu,414.970215,1.0862454848,-9.860548908000002,1.13649032,9.77242884,147.376863,-14.29304004,,,
imu,414.978676,1.2034834336,-9.867726741600002,1.2268113928,9.323814239999999,140.11678339,-13.54534904,,,
imu,414.987137,1.2573171856,-9.800733628000001,1.2896174368,8.733138349999999,132.32584317,-12.55092001,,,
imu,414.995598,1.2597097968,-9.745703570400002,1.3769477456,8.232185379999999,124.46761076,-11.11535329,,,
imu,415.004059,1.2405689072,-9.7474980288,1.4212110528,8.194800829999998,116.84116256,-9.45547927,,,
imu,415.01252,1.1915203776,-9.719983000000001,1.4606891376,7.977970440000001,109.3193911,-8.37880423,,,
imu,415.020981,1.1083771384,-9.6643547896,1.5187099592,7.9480628,101.87986565,-7.474098119999999,,,
imu,415.029442,0.9995133288000001,-9.6326526912,1.576132628,8.164893189999999,94.89643171,-6.50209982,,,
imu,415.037903,0.8828735328,-9.6817012208,1.6287700744,8.254616109999999,88.35413546000001,-5.71702427,,,
imu,415.046364,0.8529658928000001,-9.704431027200002,1.6885853544,8.31443139,82.40999201,-4.954379449999999,,,
imu,415.054825,0.7488873056,-9.671532623200001,1.68978166,8.46396959,76.53314075,-4.66277996,,,
imu,415.063286,0.6214807592000001,-9.664952942400001,1.7262689808,8.890153459999999,71.42641122,-4.0945348,,,
imu,415.071747,0.5616654792000001,-9.680504915200002,1.752587704,9.07707621,66.58137354,-3.32441307,,,
imu,415.080208,0.5455153536,-9.6942624296,1.7214837584,9.136891489999998,62.09522754,-2.70382954,,,
imu,415.088669,0.5263744640000001,-9.683495679200002,1.7232782168,9.174276039999999,57.81843502,-2.3748455,,,
imu,415.09713,0.4868963792000001,-9.730749750400001,1.7430172592,9.31633733,53.76594979999999,-1.88884635,,,
imu,415.105601,0.4833074624000001,-9.773816752000002,1.710717008,9.27895278,49.82561823,-1.27573973,,,
imu,415.114072,0.4910834488,-9.780396432800002,1.7065299384,9.2939066,46.16940924,-0.9318018699999999,,,
imu,415.122543,0.4773259344000001,-9.786377960800001,1.7208856056,9.25652205,42.57301553,-0.7897405799999999,,,
imu,415.131014,0.472540712,-9.8210708232,1.7172966888,9.106983849999999,39.07382165,-0.5803870999999998,,,
imu,415.139486,0.4468201416000001,-9.862343366400001,1.7310542032,8.68827689,35.68678142,-0.31869525,,,
imu,415.147957,0.3995660704000001,-9.885671325600002,1.7220819112,8.172370099999998,32.71844815,-0.28878761,,,
imu,415.156428,0.334965568,-9.9000269928,1.7155022304,7.64150949,29.90712999,-0.28878761,,,
imu,415.164899,0.2685706072,-9.9000269928,1.7202874528,7.10317197,27.46965733,-0.2514030599999999,,,
imu,415.17337,0.2410555784,-9.869521200000003,1.7125114664,6.5274499,25.39855326,-0.54300255,,,
imu,415.181842,0.206362716,-9.8653341304,1.701744716,6.09378912,23.37978756,-0.99161715,,,
imu,415.190313,0.1680809368,-9.835426490400001,1.6814075208,5.42086722,21.5404677,-1.41032411,,,
imu,415.198784,0.1573141864,-9.7845835024,1.6646592424,4.94982189,19.97779351,-1.76921579,,,
imu,415.207255,0.1429585192,-9.722973764,1.6616684784,4.59840712,18.30296567,-2.16549202,,,
imu,415.215726,0.09630260080000001,-9.6817012208,1.647910964,4.48625347,16.74776839,-2.51690679,,,
imu,415.224197,0.0346928624,-9.667943706400001,1.641929436,4.44139201,15.17014038,-2.79355246,,,
imu,415.232669,0.008972292000000002,-9.661364025600001,1.638938672,4.658222400000001,14.00374242,-2.66644499,,,
imu,415.24114,0.0155519728,-9.672728928800002,1.6233866992,5.06945245,13.10651322,-2.4496146,,,
imu,415.249611,0.0125612088,-9.689477207200001,1.6174051712,5.23394447,12.01488436,-2.60662971,,,
imu,415.258082,0.0137575144,-9.7074217912,1.6353497552,5.47320559,10.87091713,-2.56924516,,,
imu,415.266553,0.0352910152,-9.7540777096,1.6371442136,5.59283615,9.52507333,-2.62906044,,,
imu,415.275024,0.062806044,-9.807313308800001,1.6491072696,5.74237435,8.32129082,-2.46456842,,,
imu,415.283496,0.07058203040000001,-9.8617452136,1.6622666312,5.50311323,6.98292393,-2.51690679,,,
imu,415.291967,0.10467674,-9.908999284800002,1.6682481592,5.23394447,5.56231103,-2.54681443,,,
imu,415.300438,0.0980970592,-9.947879216800002,1.6754259928,4.68065313,4.05945212,-2.5991528,,,
imu,415.308887,0.1028822816,-9.937112466400002,1.6933705768,4.15726943,2.6986545,-2.50195297,,,
imu,415.317337,0.0747691,-9.955655203200001,1.7059317856,3.55163972,1.2780416,-2.5243837,,,
imu,415.325787,0.04246884880000001,-9.9747960928,1.7101188552,2.863764,0.1265974599999997,-2.60662971,,,
imu,415.334236,0.0293094872,-9.980179468000001,1.6993521048,2.38524176,-1.00989286,-2.91318302,,,
imu,415.342686,0.017944584,-9.9747960928,1.6933705768,1.71231986,-2.00432189,-3.48890509,,,
imu,415.351135,-0.0113649032,-9.9448884528,1.6772204512,1.12164397,-3.29035041,-4.35622665,,,
imu,415.359585,-0.05742266880000001,-9.8820824088,1.6473128112,0.9048135799999999,-4.3296409,-4.715118329999999,,,
imu,415.368034,-0.08194693360000001,-9.803126239200001,1.6293682272,0.74779847,-5.30911611,-5.01419473,,,
imu,415.376484,-0.122621324,-9.735534972800002,1.612021796,0.56835263,-6.20634531,-5.42542478,,,
imu,415.384933,-0.1495382,-9.7074217912,1.612021796,0.7702292,-7.07366687,-5.50767079,,,
imu,415.393383,-0.1770532288,-9.706823638400001,1.6132181016,1.12912088,-7.896126969999999,-5.48524006,,,
imu,415.401833,-0.176455076,-9.752283251200002,1.6084328792,1.30108981,-8.49427977,-5.41047096,,,
imu,415.410282,-0.1878199792,-9.7325442088,1.5857030728,1.47305874,-9.24197077,-5.41794787,,,
imu,415.418732,-0.2027737992,-9.682897526400001,1.5946753648,1.62259694,-9.87750812,-5.3656095,,,
imu,415.427181,-0.1985867296,-9.638036066400002,1.6078347264,1.87681188,-10.47566092,-4.98428709,,,
imu,415.435592,-0.1662864784,-9.6326526912,1.594077212,2.10859609,-11.12615209,-4.47585721,,,
imu,415.444041,-0.1262102408,-9.6218859408,1.5898901424,2.15345755,-12.11310421,-4.169303899999999,,,
imu,415.452491,-0.080750628,-9.619493329600001,1.6174051712,2.09364227,-13.24211762,-3.93004278,,,
imu,415.46094,-0.08433954480000001,-9.666149248000002,1.618003324,1.94410407,-14.43842322,-3.54872037,,,
imu,415.46939,0.04964668240000001,-9.578220786400001,1.5845067672,1.8169966,-15.6945441,-3.18235178,,,
imu,415.47784,0.08912476720000001,-9.552500216,1.6455183528,1.6674584,-17.34694121,-2.86832156,,,
imu,415.486289,0.1417622136,-9.5668558832,1.6245830048,1.54782784,-19.42552219,-2.47952224,,,
imu,415.494739,0.1758569232,-9.647606511200001,1.6383405192,1.48801256,-21.57887227,-1.76173888,,,
imu,415.503188,0.191408896,-9.694860582400002,1.6580795616,1.27865908,-23.88176055,-1.20844754,,,
imu,415.51204,0.1423603664,-9.744507264800001,1.7238763696,0.8823828499999999,-26.27437175,-1.0290017,,,
imu,415.520891,0.04964668240000001,-9.805518850400002,1.7591673848,0.44124516,-28.42024492,-0.7224483899999998,,,
imu,415.529742,-0.0442633072,-9.850380310400002,1.788476872,-0.02232326000000001,-30.1249804,-0.2289723299999999,,,
imu,415.538594,-0.1381732968,-9.863539672000002,1.8189826648,-0.54570696,-31.30633218,0.1897346300000002,,,
imu,415.547445,-0.2536167872,-9.865932283200001,1.8536755272,-1.20367504,-32.31571503,0.02524261000000028,,,
imu,415.556297,-0.3977716120000001,-9.855763685600001,1.8548718328,-1.4728438,-32.9662062,-0.3336490699999999,,,
imu,415.565148,-0.5114206440000001,-9.8049206976,1.8417124712,-1.55508981,-33.07835985,-0.7299252999999999,,,
imu,415.574,-0.6238733704,-9.769031529600001,1.8249641928,-1.51770526,-32.7418989,-1.20844754,,,
imu,415.582851,-0.7112036792,-9.752881404000002,1.8088140672,-0.93450628,-31.92691571,-1.67949287,,,
imu,415.591702,-0.7901598488000001,-9.7122070136,1.7836916496,-0.16438455,-30.82033303,-2.1505382,,,
imu,415.600554,-0.8517695872000001,-9.7086180968,1.7998417752,0.9048135799999999,-29.64645816,-2.68139881,,,
imu,415.609405,-0.9091922560000001,-9.737927584000001,1.7836916496,2.08616536,-28.1809838,-3.13001341,,,
imu,415.618257,-0.9444832712000001,-9.755872168000002,1.7591673848,3.06564057,-26.56597124,-3.61601256,,,
imu,415.627108,-0.9600352440000001,-9.725366375200002,1.74959694,4.17970016,-24.83132812,-4.057150249999999,,,
imu,415.63596,-0.9923354952000002,-9.7056273328,1.7280634392,5.05449863,-23.13406955,-4.647826139999999,,,
imu,415.644811,-1.0150653016,-9.6703363176,1.683800132,6.0788353,-21.42185716,-5.03662546,,,
imu,415.653662,-1.0120745376,-9.6428212888,1.6556869504,6.84895703,-19.56758348,-5.238502029999999,,,
imu,415.662514,-0.9965225648000002,-9.612913648800001,1.6156107128,7.29757163,-17.82546345,-5.193640569999999,,,
imu,415.671365,-0.9731946056000002,-9.595567217600001,1.5677584888,7.85833988,-16.13568179,-5.238502029999999,,,
imu,415.680217,-0.9558481744000001,-9.5907819952,1.5246914872,8.20227774,-14.60291524,-5.29831731,,,
imu,415.689068,-0.9271368400000001,-9.578818939200001,1.4947838472,8.456492679999998,-13.21968689,-5.11139456,,,
imu,415.69792,-0.8762938520000002,-9.588987536800001,1.4642780544,8.64341543,-12.05328893,-4.87213344,,,
imu,415.706771,-0.8170767248000002,-9.600352440000002,1.4170239832,8.88267655,-10.97661389,-4.737549059999999,,,
imu,415.715218,-0.7596540560000001,-9.6434194416,1.3930978712,9.25652205,-9.95227722,-4.47585721,,,
imu,415.723665,-0.6986424704000002,-9.7008421104,1.3643865368,9.54064463,-9.44384734,-4.057150249999999,,,
imu,415.732112,-0.6388271904000001,-9.7540777096,1.3631902312,9.592982999999998,-8.95037128,-3.58610492,,,
imu,415.740559,-0.5939657304000001,-9.801929933600002,1.3590031616,9.675229009999999,-8.58400269,-3.13749032,,,
imu,415.749006,-0.5879842024,-9.851576616000001,1.3500308696,9.23409132,-8.45689522,-2.73373718,,,
imu,415.757453,-0.5688433128,-9.9101955904,1.357806856,8.98735329,-8.20268028,-2.05333837,,,
imu,415.7659,-0.5425245896,-9.963431189600001,1.3560123976,8.449015769999999,-7.93351152,-1.6271545,,,
imu,415.774347,-0.5138132552000001,-9.9969277464,1.357806856,7.90320134,-7.724158040000001,-1.28321664,,,
imu,415.782794,-0.4958686712000001,-10.001114816,1.342853036,7.22280253,-7.477420009999999,-1.08881698,,,
imu,415.791241,-0.4862982264000001,-10.0118815664,1.3290955216,6.53492681,-7.29049726,-1.23835518,,,
imu,415.799688,-0.4743351704000001,-10.0166667888,1.324908452,5.6302207,-7.20825125,-1.48509321,,,
imu,415.808135,-0.46356842,-10.0364058312,1.3111509376,5.02459099,-7.10357451,-1.80660034,,,
imu,415.816582,-0.4797185456,-10.0256390808,1.2973934232,4.45634583,-6.9465594,-2.1505382,,,
imu,415.825029,-0.4785222400000001,-9.998722204800002,1.3027767984,3.70117792,-6.69982137,-2.57672207,,,
imu,415.833476,-0.4964668240000001,-9.990946218400001,1.321917688,3.17031731,-6.43812952,-2.95804448,,,
imu,415.841923,-0.5185984776000001,-9.977188704000001,1.3183287712,2.75161035,-6.340929689999999,-3.2720747,,,
imu,415.85037,-0.5461135064000001,-9.942495841600001,1.3117490904,2.10111918,-6.0493302,-3.78798149,,,
imu,415.858817,-0.5790119104,-9.8778953392,1.3332825912,1.50296638,-5.72034616,-4.25902682,,,
imu,415.867264,-0.6035361752000001,-9.8228652816,1.3410585776,0.9571519499999999,-5.226870099999999,-4.65530305,,,
imu,415.875711,-0.6166955368000001,-9.8049206976,1.3613957728,0.60573718,-4.84554769,-4.909517989999999,,,
imu,415.884158,-0.6400234960000001,-9.797144711200001,1.3536197864,0.30666078,-4.47170219,-5.20111748,,,
imu,415.892605,-0.6561736216000001,-9.752283251200002,1.3572087032,0.19450713,-4.17262579,-5.328224949999999,,,
imu,415.901052,-0.6747163584000001,-9.744507264800001,1.3596013144,0.47862971,-3.73896501,-5.27588658,,,
imu,415.909499,-0.6783052752000002,-9.7809945856,1.3560123976,0.68798319,-3.35016569,-5.20859439,,,
imu,415.917964,-0.6651459136000001,-9.812098531200002,1.3596013144,1.09173633,-2.84921272,-5.07401001,,,
imu,415.926429,-0.6501920936000001,-9.8234634344,1.3464419528,1.39828964,-2.42302885,-4.90204108,,,
imu,415.934894,-0.6334438152,-9.834230184800003,1.3554142448,1.74970441,-2.3108752,-4.80484125,,,
imu,415.943358,-0.6196863008000001,-9.837819101600003,1.3422548832,1.92915025,-2.04918335,-4.67773378,,,
imu,415.951823,-0.6154992312,-9.8497821576,1.3404604248,2.07121154,-1.89216824,-4.52071867,,,
imu,415.960288,-0.5975546472000001,-9.860548908000002,1.348834564,2.10111918,-1.83235296,-4.46090339,,,
imu,415.968753,-0.5855915912,-9.856959991200002,1.3434511888,1.98148862,-1.83235296,-4.3936112,,,
imu,415.977218,-0.5820026744000001,-9.845595088000001,1.3374696608,1.70484295,-1.90712206,-4.25154991,,,
imu,414.830952,,,,,,,32.72749240000001,-21.75936440000001,50.1655032
imu,414.932484,,,,,,,21.44803960000001,-23.88341720000003,48.993612
imu,415.034291,,,,,,,13.171558,-22.84580520000002,47.78509919999999
imu,415.13564,,,,,,,9.875614000000004,-22.11337320000002,45.03847919999999
imu,415.237202,,,,,,,9.143182000000005,-21.86922920000001,44.0619032
imu,415.985683,-0.5808063688,-9.835426490400001,1.3362733552,1.22632071,-2.12395245,-4.102011709999999,,,
imu,415.994147,-0.5933675776,-9.817481906400001,1.327899216,0.9571519499999999,-2.21367537,-4.06462716,,,
imu,416.002612,-0.5993491056000001,-9.802528086400002,1.3302918272,0.6281679099999999,-2.22862919,-3.98985806,,,
imu,416.011077,-0.6202844536000002,-9.788770572,1.3267029104,0.32909151,-2.21367537,-3.96742733,,,
imu,416.019542,-0.6370327320000001,-9.786976113600002,1.3255066048,-0.01484635000000001,-2.11647554,-3.72816621,,,
imu,416.028007,-0.6358364264000002,-9.788770572,1.3225158408,-0.32139966,-1.95946043,-3.67582784,,,
imu,416.036471,-0.6430142600000001,-9.789368724800001,1.3201232296,-0.62047606,-1.69776858,-3.60853565,,,
imu,416.044936,-0.6454068712000001,-9.801929933600002,1.3476382584,-0.7251528,-1.54075347,-3.66087402,,,
imu,416.053401,-0.6364345792000001,-9.815687448000002,1.3590031616,-0.81487572,-1.30149235,-3.63096638,,,
imu,416.061866,-0.6394253432000001,-9.849184004800001,1.3793403568,-1.01675229,-1.24915398,-3.86275059,,,
imu,416.070331,-0.6298548984000001,-9.902419604000002,1.3763495928,-0.9943215599999999,-0.9201699400000001,-4.13939626,,,
imu,416.078795,-0.6250696760000001,-9.895241770400002,1.37575144,-1.16629049,-0.6958626400000001,-4.46090339,,,
imu,416.08726,-0.6166955368000001,-9.850978463200002,1.3643865368,-1.29339796,-0.39678624,-4.64034923,,,
imu,416.095725,-0.6244715232,-9.820472670400001,1.3601994672,-1.42050543,-0.17247894,-4.65530305,,,
imu,416.10419,-0.6250696760000001,-9.824659740000001,1.3542179392,-1.52518217,0.0368745399999999,-4.59548777,,,
imu,416.112655,-0.6184899952000001,-9.8228652816,1.3500308696,-1.53265908,0.3060432999999998,-4.4683803,,,
imu,416.121146,-0.6017417168000001,-9.838417254400001,1.3536197864,-1.51770526,0.5378275100000001,-4.44594957,,,
imu,416.129638,-0.5909749664,-9.839015407200002,1.3470401056,-1.41302852,0.6350273399999997,-4.47585721,,,
imu,416.138129,-0.580208216,-9.8198745176,1.3470401056,-1.39059779,0.78456554,-4.44594957,,,
imu,416.146621,-0.5927694248,-9.7815927384,1.3536197864,-1.3980747,0.76213481,-4.49828794,,,
imu,416.155112,-0.6095177032000001,-9.783985349600002,1.3380678136,-1.36069015,0.7172733499999997,-4.49828794,,,
imu,416.163604,-0.6286585928,-9.785779808000001,1.3446474944,-1.25601341,0.7097964399999999,-4.4683803,,,
imu,416.172095,-0.6388271904000001,-9.741516500800001,1.351825328,-1.36816706,0.7995193599999997,-4.55810322,,,
imu,416.180587,-0.6627533024,-9.7283571392,1.3703680648,-1.45041307,0.80699627,-4.715118329999999,,,
imu,416.189078,-0.666940372,-9.7534795568,1.3841255792,-1.33078251,1.11354958,-4.56558013,,,
imu,416.19757,-0.6741182056000001,-9.764246307200002,1.393696024,-1.46536689,1.50982581,-4.363703559999999,,,
imu,416.206061,-0.6938572480000001,-9.7959484056,1.4242018168,-1.59995127,1.73413311,-4.18425772,,,
imu,416.214553,-0.7040258456,-9.802528086400002,1.4242018168,-1.77939711,2.01825569,-4.26650373,,,
imu,416.223044,-0.6962498592000002,-9.822267128800002,1.4427445536,-2.06351969,2.38462428,-4.169303899999999,,,
imu,416.231536,-0.6795015808000001,-9.831837573600001,1.4559039152,-2.33268845,2.90053107,-3.77302767,,,
imu,416.240027,-0.6633514552,-9.8581562968,1.4720540408,-2.57942648,3.25942275,-3.6459202,,,
imu,416.248519,-0.6699311360000001,-9.880287950400001,1.5007653752,-2.72148777,3.6706528,-3.66087402,,,
imu,416.257011,-0.6585662328000002,-9.897634381600001,1.5294767096,-3.07290254,3.88748319,-3.63096638,,,
imu,416.265502,-0.6615569968000001,-9.9030177568,1.546224988,-3.44674804,4.30619015,-3.66087402,,,
imu,416.273994,-0.6765108168000001,-9.892849159200003,1.5569917384,-3.75330135,4.62769728,-3.82536604,,,
imu,416.282485,-0.6902683312000001,-9.88447502,1.5827123088,-4.05985466,5.12117334,-3.73564312,,,
imu,416.290977,-0.7076147624000001,-9.8617452136,1.6072365736,-4.38136179,5.64455704,-3.65339711,,,
imu,416.299468,-0.7357279440000001,-9.860548908000002,1.6293682272,-4.658007459999999,6.12307928,-3.7206893,,,
imu,416.30796,-0.7746078760000001,-9.828846809600002,1.6544906448,-5.084191329999999,6.810955,-3.70573548,,,
imu,416.316451,-0.8260490168000001,-9.803724392000001,1.6832019792,-5.2860679,7.40163089,-3.68330475,,,
imu,416.324892,-0.9355109792000001,-9.801929933600002,1.7322505088,-5.46551374,8.396059919999999,-3.7206893,,,
imu,416.333332,-1.0653101368,-9.802528086400002,1.7639526072,-5.68982104,9.54750406,-3.74312003,,,
imu,416.341773,-1.178361016,-9.7809945856,1.7872805664,-5.80197469,11.04288606,-3.56367419,,,
imu,416.350214,-1.3374696608,-9.7427128064,1.8261604984,-6.07862036,13.05417485,-3.52628964,,,
imu,416.358654,-1.567160336,-9.7151977776,1.8411143184,-6.13843564,15.67857026,-3.496382,,,
imu,416.367095,-1.8578625968,-9.7331423616,1.8734145696,-6.04123581,19.03570285,-3.40665908,,,
imu,416.375536,-2.2586249728,-9.754675862400001,1.8805924032,-6.190774009999999,23.5592334,-3.3468438,,,
imu,416.383976,-2.6366575424,-9.752881404000002,1.9009295984,-6.310404569999999,29.5407614,-3.45899745,,,
imu,416.392417,-2.980595402400001,-9.752283251200002,1.8817887088,-6.62443479,37.21207106,-4.034719519999999,,,
imu,416.400858,-3.2898404,-9.806715156000001,1.8411143184,-6.72911153,46.3638089,-5.021671639999999,,,
imu,416.409298,-3.500390185600001,-9.828248656800001,1.7938602472,-7.21511068,56.74923689,-6.52453055,,,
imu,416.417739,-3.5554202432,-9.803126239200001,1.7382320368,-7.79083275,67.98703262000001,-8.40871187,,,
imu,416.42618,-3.490221588,-9.730749750400001,1.6544906448,-8.14224752,79.49399711000001,-10.56206195,,,
imu,416.43462,-3.3203461928,-9.686486443200002,1.5474212936,-8.24692426,90.82899267,-12.68550439,,,
imu,416.443061,-3.1205631576,-9.689477207200001,1.4517168456,-8.20953971,101.58078925,-14.74165464,,,
imu,416.451502,-2.9303505672,-9.696056888000001,1.3643865368,-8.06747842,111.38301826,-16.34171338,,,
imu,416.459942,-2.7108284896,-9.7504887928,1.2698783944,-7.81326348,120.3852179,-17.68755718,,,
imu,416.468383,-2.3668906296,-9.7714241408,1.2220261704,-7.66372528,128.61729581,-18.65955548,,,
imu,416.476824,-2.0235509224,-9.7780038216,1.2196335592,-7.678679099999999,135.58577593,-19.07826244,,,
imu,416.485264,-1.6885853544,-9.8402117128,1.2304003096,-7.85812494,141.10373551,-19.48201558,,,
imu,416.493705,-1.3805366624,-9.8749045752,1.1711831824,-8.00766314,145.27585129,-19.7960458,,,
imu,416.502145,-1.1149568192,-9.870119352800002,1.1358921672,-8.71049268,148.35633821,-19.71379979,,,
imu,416.510586,-0.7309427216000001,-9.8270523512,1.1628090432,-9.20396874,150.73399559,-18.36047908,,,
imu,416.519027,-0.3295821928000001,-9.7074217912,1.175370252,-9.51799896,151.51159423,-16.67817433,,,
imu,416.528198,0.0382817792,-9.665551095200001,1.1963056,-9.34603003,150.37510391,-15.88562187,,,
imu,416.537007,0.3499193880000001,-9.602146898400001,1.2298021568,-9.099292,147.64603176,-15.50429946,,,
imu,416.545816,0.6573699272000001,-9.568650341600001,1.3081601736,-8.321693360000001,144.13936097,-14.15845566,,,
imu,416.554624,1.0150653016,-9.453206851200001,1.351825328,-7.588956179999999,139.09244672,-12.99953461,,,
imu,416.563433,1.1478552232,-9.376045140000002,1.3464419528,-6.44498895,132.76698086,-12.66307366,,,
imu,416.572242,1.2405689072,-9.402962016000002,1.46547436,-5.23372953,126.32936135,-11.57892171,,,
imu,416.581051,1.366779148,-9.408943544000001,1.4750448048,-4.0149932,119.34592741,-9.440525449999999,,,
imu,416.58986,1.4798300272,-9.4424401008,1.5276822512,-2.79625687,111.96621724,-7.825512890000001,,,
imu,416.598669,1.5127284312,-9.447225323200001,1.5779270864,-1.75696638,104.2350923,-7.032960429999999,,,
imu,416.607478,1.5276822512,-9.489096019200002,1.6640610896,-0.62047606,96.6086441,-5.75440882,,,
imu,416.616287,1.5779270864,-9.4873015608,1.6784167568,0.29918387,88.99714972,-4.19173463,,,
imu,416.625096,1.5175136536,-9.520199964800002,1.7280634392,1.23379762,81.19873259,-2.86084465,,,
imu,416.633905,1.4517168456,-9.5842023144,1.7842898024,1.97401171,73.78911478,-1.73183124,,,
imu,416.642714,1.411640608,-9.639830524800002,1.7938602472,2.22822665,66.55894281,-0.8196482199999999,,,
imu,416.651523,1.3643865368,-9.680504915200002,1.8100103728,2.51982614,59.92692364,0.0177657,,,
imu,416.660332,1.2944026592,-9.6703363176,1.8219734288,2.64693361,53.65379615,0.6383492300000002,,,
imu,416.669141,1.175370252,-9.661962178400001,1.83931986,2.89367164,47.72460651999999,1.1393022,,,
imu,416.67795,1.0354024968,-9.6984494992,1.8560681384,2.93105619,42.42347733,1.60287062,,,
imu,416.686759,0.9373054376000002,-9.760059237600002,1.85427368,2.92357928,37.83265459,2.20850033,,,
imu,416.695568,0.8613400320000001,-9.7780038216,1.8608533608,2.77404108,33.66801572,2.26831561,,,
imu,416.704377,0.8015247520000001,-9.761853696000001,1.8668348888,2.57964142,30.22116021,2.35803853,,,
imu,416.713186,0.7363260968000002,-9.745105417600001,1.8584607496,2.52730305,26.93879672,2.29822325,,,
imu,416.721995,0.6603606912000002,-9.7492924872,1.8698256528,2.59459524,24.007848,2.44776145,,,
imu,416.730479,0.6059287864000001,-9.776209363200001,1.89913514,2.5646876,21.44326787,2.44028454,,,
imu,416.738963,0.5700396184000001,-9.805518850400002,1.9278464744,2.53477996,19.35720998,2.42533072,,,
imu,416.747446,0.5030465048,-9.803126239200001,1.932033544,2.15345755,17.44312102,2.14120814,,,
imu,416.75593,0.4234921824,-9.805518850400002,1.9368187664,1.92167334,15.96269284,1.99914685,,,
imu,416.764414,0.376836264,-9.805518850400002,1.9637356424,1.52539711,14.79629488,1.95428539,,,
imu,416.772898,0.3911919312,-9.813892989600001,1.9463892112,1.2188438,14.07851152,1.92437775,,,
imu,416.781382,0.4575868920000001,-9.755274015200001,1.9439966,0.81509066,13.48035872,1.50567079,,,
imu,416.789866,0.5018501992000001,-9.696056888000001,1.9751005456,0.76275229,12.84482137,0.8477027100000001,,,
imu,416.79835,0.5227855472,-9.7056273328,1.9864654488,0.91229049,12.07469964,0.4140419300000002,,,
imu,415.339115,,,,,,,9.2896684,-22.06454440000001,43.6712728
imu,415.441684,,,,,,,9.5948484,-21.93026520000001,43.98866
imu,415.54227,,,,,,,9.948857200000006,-22.69931880000002,44.7332992
imu,415.643833,,,,,,,13.8673684,-23.33409320000002,45.9784336
imu,415.745395,,,,,,,12.5245764,-24.44494840000002,47.32122559999999
imu,415.849643,,,,,,,15.1979532,-25.99526280000002,44.1961824
imu,415.94852,,,,,,,13.4034948,-24.87220040000002,47.1137032
imu,416.050083,,,,,,,15.18574600000001,-26.01967720000003,44.76992079999999
imu,416.806834,0.5562821040000001,-9.744507264800001,1.9810820736,1.11416706,11.19242426,0.2719806400000002,,,
imu,416.815318,0.5873860496000001,-9.684093832000002,1.9727079344,1.30856672,10.36996416,0.1149655300000001,,,
imu,416.823801,0.601143564,-9.609324732000001,1.9691190176,1.368382,9.39048895,-0.14672632,,,
imu,416.832285,0.6137047728000001,-9.564463272000001,1.932033544,1.73475059,8.44839829,-0.23644924,,,
imu,416.840769,0.61310662,-9.596165370400001,1.9105000432,2.20579592,7.319384879999999,-0.2289723299999999,,,
imu,416.849253,0.6119103144000001,-9.638634219200002,1.8847794728,2.69927198,6.489447869999999,0.1149655300000001,,,
imu,416.857737,0.62806044,-9.6733270816,1.9033222096,3.09554821,5.53240339,0.3691804699999999,,,
imu,416.866221,0.6274622872000001,-9.70502918,1.8883683896,3.17779422,4.59031273,0.09253480000000014,,,
imu,416.874705,0.6286585928,-9.7086180968,1.8584607496,3.42453225,3.70803735,-0.2065416,,,
imu,416.883189,0.6346401208000001,-9.690075360000002,1.8488903048,3.56659354,2.95286944,-0.3859874399999998,,,
imu,416.891673,0.6454068712000001,-9.672130776000001,1.8321420264,3.63388573,2.16031698,-0.68506384,,,
imu,416.900156,0.6555754688000001,-9.6709344704,1.8159919008,3.52173208,1.45748744,-1.20844754,,,
imu,416.90864,0.6836886504,-9.6643547896,1.803430692,3.6862241,0.5901658799999998,-1.76921579,,,
imu,416.917124,0.7052221512000001,-9.664952942400001,1.8022343864,3.80585466,-0.35192478,-2.46456842,,,
imu,416.925608,0.726755652,-9.697851346400002,1.7944584,3.60397809,-1.413646,-3.03281358,,,
imu,416.934065,0.7656355840000001,-9.7128051664,1.785486108,3.62640882,-2.59499778,-3.40665908,,,
imu,416.942522,0.7961413768000002,-9.711608860800002,1.7878787192,3.57407045,-3.9557954,-3.84779677,,,
imu,416.95098,0.8314323920000001,-9.728955292000002,1.791467636,3.51425517,-5.48108504,-4.146873169999999,,,
imu,416.959437,0.8679197128000001,-9.767237071200002,1.7962528584,3.46939371,-7.29797417,-4.430995749999999,,,
imu,416.967894,0.9109867144000001,-9.777405668800002,1.7950565528,3.40957843,-9.33169369,-4.66277996,,,
imu,416.976351,0.9767835224000002,-9.803126239200001,1.7812990384,3.20770186,-11.64953579,-4.909517989999999,,,
imu,416.984808,1.0144671488,-9.8330338792,1.7693359824,3.11797894,-13.99728553,-4.81231816,,,
imu,416.993266,1.0401877192,-9.80970592,1.7657470656,2.94601001,-16.63663476,-4.56558013,,,
imu,417.001723,1.034804344,-9.797742864000002,1.7663452184,2.91610237,-19.51524511,-4.46090339,,,
imu,417.01018,0.998915176,-9.773218599200002,1.74959694,2.76656417,-22.4985322,-4.0945348,,,
imu,417.018637,0.9803724392000001,-9.782789044000001,1.7478024816,2.75908726,-25.45938856,-3.41413599,,,
imu,417.027094,0.9343146736000002,-9.769031529600001,1.7292597448,2.863764,-28.20341453,-2.8982292,,,
imu,417.035552,0.8960328944000001,-9.780396432800002,1.7220819112,2.84133327,-31.02968651,-2.56176825,,,
imu,417.044009,0.7925524600000001,-9.792957641600001,1.7621581488,3.0880713,-33.77371248,-2.05333837,,,
imu,417.052466,0.646005024,-9.850380310400002,1.7872805664,2.91610237,-36.13641604,-1.47013939,,,
imu,417.060923,0.5359449088000001,-9.963431189600001,1.7836916496,2.53477996,-38.20752011,-1.14115535,,,
imu,417.06938,0.4605776560000001,-10.0029092744,1.7890750248,1.82447351,-39.45616408,-0.8794635,,,
imu,417.077837,0.4031549872,-9.964627495200002,1.7944584,0.9347212199999999,-40.70480805,-1.05890934,,,
imu,417.086295,0.3923882368,-9.889858395200001,1.791467636,0.03001510999999998,-41.83382146,-1.52247776,,,
imu,417.094752,0.4001642232,-9.8061170032,1.7747193576,-0.78496808,-42.99274251,-1.87389253,,,
imu,417.103209,0.4312681688,-9.7301515976,1.7759156632,-1.1737674,-43.9572639,-2.14306129,,,
imu,417.111666,0.490485296,-9.657775108800001,1.7723267464,-1.1737674,-45.13113877,-2.38979932,,,
imu,417.120123,0.4964668240000001,-9.614109954400002,1.7693359824,-0.98684465,-46.47698257,-2.65149117,,,
imu,417.128581,0.5239818528000001,-9.577024480800002,1.7699341352,-0.5980453299999999,-48.07704131,-2.95804448,,,
imu,417.137044,0.5580765624000001,-9.550705757600001,1.7753175104,-0.07466163,-49.91636117,-3.43656672,,,
imu,417.145508,0.5778156048000002,-9.5602762024,1.7639526072,0.42629134,-51.83792704,-3.97490424,,,
imu,417.153971,0.5634599376000001,-9.621287788000002,1.7968510112,1.0693056,-53.80435437,-4.55810322,,,
imu,417.162435,0.5556839512000001,-9.651195428000001,1.7902713304,1.62259694,-55.72592024,-4.647826139999999,,,
imu,417.170898,0.5413282840000001,-9.6643547896,1.8088140672,1.75718132,-57.69982448,-4.85717962,,,
imu,417.179362,0.5778156048000002,-9.676915998400002,1.7926639416,1.86185806,-59.53914434,-5.11887147,,,
imu,417.187825,0.6214807592000001,-9.658971414400002,1.8016362336,1.86185806,-61.61024841,-5.17120984,,,
imu,417.196289,0.6388271904000001,-9.573435564,1.8249641928,2.01887317,-64.06267489,-4.999240909999999,,,
imu,417.204752,0.6890720256,-9.604539509600002,1.8088140672,2.28056502,-66.64968574999999,-4.27398064,,,
imu,417.213216,0.7429057776,-9.606932120800002,1.7501950928,2.72917962,-69.36380408,-2.92065993,,,
imu,417.221679,0.5939657304000001,-9.593772759200002,1.7567747736,2.96096383,-72.76579813,-1.91875399,,,
imu,417.230143,0.4001642232,-9.6434194416,1.7657470656,3.36471697,-75.77899285999999,-1.1037708,,,
imu,417.238607,0.2942911776,-9.758264779200001,1.728661592,3.63388573,-78.04449659,-0.03457266999999997,,,
imu,417.24707,0.1609031032,-9.85456738,1.7178948416,3.70117792,-79.98101627999999,0.5411494000000001,,,
imu,417.255534,0.003588916800000001,-9.9030177568,1.7322505088,3.37967079,-81.52873665,0.4140419300000002,,,
imu,417.263997,-0.1339862272,-9.895241770400002,1.7202874528,2.75161035,-82.39605820999999,0.03271952000000011,,,
imu,417.272461,-0.2284943696,-9.861147060800002,1.7238763696,2.09364227,-82.70261151999999,-0.02709575999999991,,,
imu,417.280924,-0.3194135952000001,-9.847389546400002,1.7268671336,1.69736604,-82.37362748,-0.05700339999999993,,,
imu,417.289388,-0.442633072,-9.845595088000001,1.7238763696,1.07678251,-82.08202798999999,-0.5056179999999999,,,
imu,417.297851,-0.5820026744000001,-9.8013317808,1.728661592,0.41133752,-81.28199862,-1.19349372,,,
imu,417.306315,-0.7668318896,-9.772022293600001,1.7543821624,0.05992275,-80.02587774,-1.30564737,,,
imu,417.314778,-0.9223516176000001,-9.741516500800001,1.7842898024,-0.03727708,-78.09683496,-1.33555501,,,
imu,417.323242,-1.0724879704,-9.793555794400001,1.791467636,-0.11952309,-75.67431611999999,-1.63463141,,,
imu,417.331706,-1.154434904,-9.755274015200001,1.8195808176,-0.51579932,-72.80318267999999,-1.97109236,,,
imu,417.340177,-1.205277892,-9.722973764,1.8518810688,-0.80739881,-69.59558829,-2.5991528,,,
imu,417.348648,-1.2166427952,-9.6984494992,1.8554699856,-0.8522602699999999,-66.40294771999999,-3.54124346,,,
imu,417.357119,-1.2088668088,-9.630260080000001,1.8787979448,-0.9494601,-63.32993771,-4.430995749999999,,,
imu,417.36559,-1.1879314608,-9.595567217600001,1.890162848,-0.82982954,-60.3316968,-5.27588658,,,
imu,417.374061,-1.1239291112,-9.557883591200001,1.89913514,-0.52327623,-57.66243993,-5.72450118,,,
imu,417.382533,-1.1029937632,-9.541135312800002,1.908107432,-0.11952309,-55.247398,-6.075915950000001,,,
imu,417.391004,-1.0898344016,-9.5154147424,1.9188741824,0.4861066199999999,-53.12395556,-6.374992349999999,,,
imu,417.399475,-1.0533470808,-9.4980683112,1.9433984472,1.09921324,-51.17248205,-6.1880696,,,
imu,417.407946,-1.0354024968,-9.513022131200001,1.9445947528,1.84690424,-49.22848545,-5.75440882,,,
imu,417.416417,-0.9869521200000001,-9.520199964800002,1.9475855168,2.51234923,-47.64338053,-5.37308641,,,
imu,417.424888,-0.9492684936000001,-9.5291722568,1.9780913096,3.10302512,-46.22276763,-5.10391765,,,
imu,417.43336,-0.9079959504000001,-9.5877912312,2.00381188,3.47687062,-44.89935456,-4.999240909999999,,,
imu,417.441831,-0.8625363376,-9.636839760800001,1.9972321992,3.91800831,-43.70304896,-4.70016451,,,
imu,417.450302,-0.8087025856000001,-9.6505972752,2.0032137272,4.12736179,-42.72357375,-4.48333412,,,
imu,417.458773,-0.7883653904000001,-9.676317845600002,2.0002229632,4.25446926,-42.05065185,-4.31136519,,,
imu,417.467244,-0.76264482,-9.722375611200002,1.9733060872,4.30680763,-41.57212961,-4.19921154,,,
imu,417.475715,-0.7614485144,-9.714001472000001,1.9655301008,4.23951544,-41.15342265,-3.8702275,,,
imu,417.484187,-0.7692245008,-9.703234721600001,1.9822783792,4.232038530000001,-40.72723878,-3.70573548,,,
imu,417.492658,-0.8021229048,-9.711608860800002,1.9697171704,4.1348387,-40.42068547,-3.70573548,,,
imu,417.501129,-0.8236564056000001,-9.702038416,1.9595485728,4.2096078,-39.96459396,-3.41413599,,,
imu,417.5096,-0.86732156,-9.678112304,1.9643337952,4.1348387,-39.41877953,-3.13001341,,,
imu,417.518071,-0.8942384360000002,-9.703234721600001,1.9541651976,4.19465398,-38.798196,-3.10010577,,,
imu,417.526542,-0.9091922560000001,-9.7086180968,1.9428002944,4.25446926,-38.050505,-2.9729983,,,
imu,417.535014,-0.9067996448000001,-9.7122070136,1.9577541144,4.16474634,-37.28786018,-3.15244414,,,
imu,417.543829,-0.9091922560000001,-9.727758986400001,1.9751005456,4.09745415,-36.66727665,-3.46647436,,,
imu,417.552645,-0.9109867144000001,-9.7809945856,1.9631374896,4.33671527,-36.09903149,-3.72816621,,,
imu,417.56146,-0.9014162696000001,-9.792957641600001,1.9481836696,3.99277741,-35.56069397,-4.19173463,,,
imu,417.570276,-0.8960328944000001,-9.766040765600001,1.9356224608,3.85819303,-34.91767971,-4.58801086,,,
imu,417.579092,-0.8870606024000001,-9.7510869456,1.9314353912,3.55911663,-34.57374185,-4.81979507,,,
imu,417.587907,-0.8996218112000001,-9.745703570400002,1.902125904,3.44696298,-34.22232708,-4.68521069,,,
imu,417.596723,-0.9008181168,-9.728955292000002,1.8877702368,3.17779422,-33.77371248,-4.453426479999999,,,
imu,417.605538,-0.86732156,-9.740918348000001,1.8770034864,3.15536349,-33.25032878,-4.146873169999999,,,
imu,417.614354,-0.8709104768000001,-9.7534795568,1.8608533608,3.282470959999999,-32.83909873,-3.76555076,,,
imu,416.151645,,,,,,,13.3912876,-24.98206520000002,47.96820719999999
imu,416.259128,,,,,,,14.026062,-24.61584920000002,48.12690079999999
imu,416.354801,,,,,,,13.5499812,-24.59143480000001,48.2855944
imu,416.456333,,,,,,,13.0983148,-23.83458840000001,47.07708159999999
imu,416.557895,,,,,,,7.898047600000002,-21.93026520000001,41.9988864
imu,416.659427,,,,,,,4.699761200000002,-19.14702360000003,33.8444768
imu,416.76102,,,,,,,5.9937244,-17.86526760000002,30.2433528
imu,416.862583,,,,,,,5.175842000000003,-17.1694572,29.66961439999999
imu,417.623042,-0.8583492680000002,-9.730749750400001,1.8405161656,3.20022495,-32.39048413,-3.27955161,,,
imu,417.631857,-0.8451899064,-9.709814402400001,1.8261604984,3.05068675,-32.01663863,-2.65149117,,,
imu,417.640673,-0.8236564056000001,-9.672728928800002,1.8028325392,3.11797894,-31.65027004,-2.27016876,,,
imu,417.649488,-0.8290397808000001,-9.660765872800003,1.7657470656,3.2376095,-31.38110128,-2.0757691,,,
imu,417.658304,-0.8290397808000001,-9.644017594400001,1.7579710792,3.32733242,-31.23156308,-1.91875399,,,
imu,417.66712,-0.8302360864000001,-9.634447149600001,1.7478024816,3.41705534,-31.08950179,-1.85893871,,,
imu,417.675935,-0.8457880592000001,-9.666149248000002,1.7334468144,3.66379337,-31.06707106,-2.01595382,,,
imu,417.684751,-0.8517695872000001,-9.706823638400001,1.7244745224,3.79837775,-30.88762522,-2.34493786,,,
imu,417.693566,-0.8727049352000001,-9.725366375200002,1.7262689808,3.78342393,-30.64088719,-2.64401426,,,
imu,417.702382,-0.8954347416000001,-9.718188541600002,1.7083243968,3.85819303,-30.29694933,-2.73373718,,,
imu,417.711198,-0.9187627008000002,-9.738525736800002,1.7292597448,3.97034668,-30.08011894,-2.68887572,,,
imu,417.720013,-0.9265386872000001,-9.785181655200002,1.7274652864,3.75351629,-29.66141198,-2.6739219,,,
imu,417.728829,-0.9289312984000001,-9.8132948368,1.73464312,3.56659354,-29.05578227,-2.65896808,,,
imu,417.737644,-0.9379035904000002,-9.817481906400001,1.7370357312,3.18527113,-28.82399806,-2.69635263,,,
imu,417.746121,-0.9301276040000002,-9.825257892800002,1.7507932456,2.78151799,-28.30061436,-2.58419898,,,
imu,417.754597,-0.9181645480000001,-9.859950755200002,1.7454098704,2.40019558,-28.04639942,-2.47952224,,,
imu,417.763073,-0.9020144224000001,-9.876699033600001,1.7292597448,1.97401171,-27.77723066,-2.27764567,,,
imu,417.771549,-0.9235479232000001,-9.836622796,1.7352412728,1.39081273,-27.53049263,-1.97109236,,,
imu,417.780026,-0.9576426328000002,-9.800135475200001,1.7501950928,0.9347212199999999,-27.35104679,-1.74678506,,,
imu,417.788502,-0.9743909112000002,-9.806715156000001,1.7561766208,0.67302937,-26.97720129,-1.3280781,,,
imu,417.796978,-0.9833632032,-9.828846809600002,1.7418209536,0.56087572,-26.57344815,-1.32060119,,,
imu,417.805454,-1.0180560656,-9.803126239200001,1.7340449672,0.3216146,-26.10987973,-1.42527793,,,
imu,417.813931,-1.0593286088,-9.746301723200002,1.755578468,0.07487657,-25.4892962,-1.45518557,,,
imu,417.822407,-1.0383932608,-9.746899876,1.7687378296,0.03001510999999998,-24.77151284,-1.67201596,,,
imu,417.830883,-1.0467674,-9.767835224,1.761559996,-0.02980017,-23.97896038,-1.88884635,,,
imu,417.83936,-1.0575341504,-9.755872168000002,1.767541524,-0.09709236,-23.38080758,-2.09072292,,,
imu,417.847836,-1.0671045952,-9.731946056000002,1.782495344,-0.11952309,-22.76022405,-2.18792275,,,
imu,417.856312,-1.064711984,-9.7265626808,1.77950458,-0.15690764,-21.98262541,-2.30755331,,,
imu,417.864788,-1.0521507752,-9.737329431200001,1.7729248992,-0.2765382,-21.19754986,-2.1505382,,,
imu,417.873265,-1.0599267616,-9.737927584000001,1.7741212048,-0.2765382,-20.66668925,-1.98604618,,,
imu,417.881741,-1.0545433864,-9.7128051664,1.7669433712,-0.23167674,-19.92647516,-1.78416961,,,
imu,417.890217,-1.067702748,-9.706225485600001,1.7531858568,-0.45598404,-19.26103017,-1.73183124,,,
imu,417.898693,-1.0659082896,-9.673925234400002,1.7489987872,-0.19429219,-18.65540046,-1.64210832,,,
imu,417.90717,-1.0605249144,-9.640428677600001,1.7501950928,-0.14195382,-17.85537109,-1.68696978,,,
imu,417.915646,-1.085647332,-9.634447149600001,1.7442135648,0.17955331,-17.19740301,-1.86641562,,,
imu,417.924122,-1.0790676512,-9.648802816800002,1.746606176,0.41133752,-16.53195802,-2.10567674,,,
imu,417.932598,-1.094619624,-9.6499991224,1.7484006344,0.8674290299999999,-15.71697483,-2.20287657,,,
imu,417.941075,-1.1311069448,-9.6499991224,1.7513913984,1.17398234,-14.99171456,-2.36736859,,,
imu,417.949555,-1.1652016544,-9.6745233872,1.7478024816,1.23379762,-14.06457772,-2.61410662,,,
imu,417.958035,-1.1628090432,-9.703832874400002,1.755578468,1.42072037,-13.07014869,-2.65149117,,,
imu,417.966515,-1.1741739464,-9.734338667200001,1.7579710792,1.65250458,-12.12058112,-2.77112173,,,
imu,417.974995,-1.1741739464,-9.756470320800002,1.76455076,1.64502767,-11.11867518,-2.91318302,,,
imu,417.983475,-1.1801554744,-9.749890640000002,1.7597655376,1.54782784,-10.1616307,-2.83093701,,,
imu,417.991955,-1.1801554744,-9.7492924872,1.7537840096,1.33099745,-9.08495566,-2.92065993,,,
imu,418.000435,-1.1616127376,-9.7606573904,1.7501950928,1.42072037,-7.97089607,-2.77859864,,,
imu,418.008915,-1.1550330568,-9.786377960800001,1.76455076,1.27865908,-7.03628232,-2.78607555,,,
imu,418.017395,-1.1215365,-9.736731278400002,1.752587704,1.05435178,-6.101668569999999,-2.74121409,,,
imu,418.025875,-1.1119660552,-9.689477207200001,1.7609618432,0.9945364999999999,-5.11471645,-2.748691,,,
imu,418.034355,-1.1113679024,-9.700243957600001,1.7627563016,1.12912088,-4.42684073,-2.92065993,,,
imu,418.042835,-1.1119660552,-9.718188541600002,1.7489987872,1.30856672,-3.66419591,-3.01038285,,,
imu,418.051316,-1.1047882216,-9.696056888000001,1.731652356,1.58521239,-2.91650491,-3.23469015,,,
imu,418.059796,-1.0880399432,-9.696655040800001,1.7543821624,1.78708896,-2.24358301,-3.48142818,,,
imu,418.068276,-1.0599267616,-9.7163940832,1.743615412,1.86933497,-1.53327656,-3.54872037,,,
imu,418.076756,-1.0611230672,-9.692467971200001,1.7190911472,1.86933497,-1.0398005,-3.71321239,,,
imu,418.085236,-1.0748805816,-9.667345553600002,1.7340449672,2.15345755,-0.39678624,-3.76555076,,,
imu,418.093716,-1.0551415392,-9.688280901600002,1.7609618432,2.46748777,0.1490281899999997,-3.81788913,,,
imu,418.102196,-1.0425803304,-9.714001472000001,1.7328486616,2.72917962,0.7546578999999998,-3.66835093,,,
imu,418.110676,-1.0216449824,-9.736731278400002,1.752587704,2.72170271,1.12102649,-3.75059694,,,
imu,418.119156,-1.019850524,-9.755274015200001,1.7573729264,2.75161035,1.577118,-3.72816621,,,
imu,418.127636,-1.0240375936,-9.752881404000002,1.7358394256,2.70674889,1.93600968,-3.69078166,,,
imu,418.136116,-1.0025040928,-9.743909112,1.7442135648,2.74413344,2.30237827,-3.53376655,,,
imu,418.144596,-0.9857558144000002,-9.740918348000001,1.7442135648,2.66936434,2.59397776,-3.496382,,,
imu,418.153041,-0.9474740352000001,-9.746301723200002,1.7484006344,2.72170271,2.89305416,-3.51881273,,,
imu,418.161485,-0.9307257568000001,-9.737329431200001,1.7310542032,2.57964142,3.07997691,-3.31693616,,,
imu,418.16993,-0.9247442288000001,-9.709814402400001,1.7035391744,2.46001086,3.13979219,-3.32441307,,,
imu,418.178374,-0.9097904088000002,-9.727758986400001,1.7322505088,2.43758013,3.1472691,-3.15244414,,,
imu,418.186819,-0.9091922560000001,-9.7510869456,1.6903798128,2.36281103,3.2220382,-3.08515195,,,
imu,418.195263,-0.9157719368000001,-9.745105417600001,1.68978166,2.28804193,3.0725,-3.07767504,,,
imu,418.203708,-0.8810790744000001,-9.7427128064,1.701744716,2.43758013,3.16222292,-3.02533667,,,
imu,418.212152,-0.8535640456000001,-9.751685098400001,1.7035391744,2.42262631,3.26689966,-3.03281358,,,
imu,418.220597,-0.8475825176000001,-9.7612555432,1.6885853544,2.19831901,3.09493073,-3.01038285,,,
imu,418.229041,-0.8679197128000001,-9.7540777096,1.67482784,2.1908421,3.04259236,-3.01038285,,,
imu,418.237485,-0.8715086296000001,-9.7504887928,1.6885853544,2.38524176,2.9977309,-3.00290594,,,
imu,418.24593,-0.8750975464000001,-9.767237071200002,1.67482784,2.3403803,2.8481927,-3.04029049,,,
imu,418.254374,-0.8870606024000001,-9.759461084800002,1.662864784,2.25813429,2.90053107,-3.11505959,,,
imu,418.262819,-0.8900513664000002,-9.742114653600002,1.6742296872,2.49739541,3.06502309,-3.08515195,,,
imu,418.271263,-0.8954347416000001,-9.739123889600002,1.7035391744,2.3403803,3.0725,-3.23469015,,,
imu,418.279708,-0.8619381848000001,-9.749890640000002,1.6969594936,2.20579592,3.28185348,-3.18235178,,,
imu,418.288152,-0.8619381848000001,-9.7534795568,1.686790896,1.94410407,3.40896095,-3.18235178,,,
imu,418.296597,-0.8643307960000001,-9.734338667200001,1.7101188552,1.77961205,3.35662258,-3.31693616,,,
imu,418.305041,-0.8535640456000001,-9.766040765600001,1.710717008,1.70484295,3.31176112,-3.4216129,,,
imu,418.313486,-0.8284416280000001,-9.812696684000002,1.6796130624,1.65998149,3.13231528,-3.84779677,,,
imu,418.32193,-0.8302360864000001,-9.801929933600002,1.6706407704,1.70484295,3.01268472,-3.92256587,,,
imu,418.330375,-0.8272453224,-9.765442612800001,1.6861927432,1.57025857,2.99025399,-3.90013514,,,
imu,418.338819,-0.8296379336000002,-9.7636481544,1.6754259928,1.68988913,2.83323888,-3.57862801,,,
imu,418.347264,-0.8350213088000001,-9.7504887928,1.6580795616,1.55530475,2.58650085,-3.3468438,,,
imu,418.355726,-0.8290397808000001,-9.7265626808,1.6652573952,1.54035093,2.57154703,-3.03281358,,,
imu,418.364188,-0.8284416280000001,-9.728955292000002,1.6652573952,1.61512003,2.36219355,-2.84589083,,,
imu,418.37265,-0.8218619472,-9.760059237600002,1.6544906448,1.73475059,2.34723973,-2.59167589,,,
imu,418.381113,-0.8104970440000001,-9.761853696000001,1.6532943392,1.92915025,2.26499372,-2.49447606,,,
imu,418.389575,-0.8081044328000001,-9.7325442088,1.6431257416,2.09364227,2.34723973,-2.47952224,,,
imu,418.398037,-0.8176748776000001,-9.709814402400001,1.6443220472,2.05625772,2.19770153,-2.62158353,,,
imu,418.406499,-0.8140859608000002,-9.697253193600002,1.6514998808,1.98896553,2.1752708,-2.65149117,,,
imu,418.414962,-0.8110951968000001,-9.706225485600001,1.6514998808,1.88428879,2.07807097,-2.88327538,,,
imu,418.423424,-0.8194693360000002,-9.715795930400002,1.6503035752,2.06373463,2.25751681,-2.94309066,,,
imu,418.431886,-0.8266471696000001,-9.706823638400001,1.650901728,1.85438115,2.2500399,-3.22721324,,,
imu,416.964035,,,,,,,8.0323268,-17.64553800000002,26.94740879999999
imu,417.065597,,,,,,,5.481022000000002,-16.92531320000001,29.85272239999999
imu,417.16716,,,,,,,7.898047600000002,-18.40238440000002,29.4254704
imu,417.268722,,,,,,,5.822823600000005,-18.92729400000002,34.52808
imu,417.370285,,,,,,,8.874623600000003,-21.55184200000002,43.37829999999999
imu,417.471847,,,,,,,11.13295560000001,-22.21103080000002,45.575596
imu,417.57341,,,,,,,13.0616932,-23.22422840000002,47.13811759999999
imu,417.675033,,,,,,,15.307818,-23.95666040000002,48.82271119999999
imu,418.440349,-0.8248527112,-9.718786694400002,1.6604721728,1.80951969,2.11545552,-3.36927453,,,
imu,418.448811,-0.8248527112,-9.748096181600001,1.6724352288,1.91419643,2.2500399,-3.43656672,,,
imu,418.457273,-0.8212637944000001,-9.763050001600002,1.6586777144,1.80951969,2.24256299,-3.45899745,,,
imu,418.465735,-0.8152822664000001,-9.7821908912,1.67482784,1.78708896,2.22013226,-3.51881273,,,
imu,418.474198,-0.8284416280000001,-9.775611210400001,1.6981557992,1.78708896,2.28742445,-3.45152054,,,
imu,418.48266,-0.8200674888,-9.794153947200002,1.6861927432,1.78708896,2.25751681,-3.51881273,,,
imu,418.491122,-0.8110951968000001,-9.810304072800001,1.665855548,1.63007385,2.26499372,-3.60853565,,,
imu,418.499584,-0.8170767248000002,-9.818678212000002,1.686790896,1.57025857,1.99582496,-3.62348947,,,
imu,418.508047,-0.8254508640000001,-9.801929933600002,1.6969594936,1.368382,1.85376367,-3.51133582,,,
imu,418.516509,-0.8547603512000002,-9.793555794400001,1.7089225496,1.13659779,1.79394839,-3.32441307,,,
imu,418.524971,-0.8589474208000002,-9.7995373224,1.7113151608,1.09921324,1.74908693,-3.21973633,,,
imu,418.533434,-0.8697141712000002,-9.800733628000001,1.698753952,1.1440747,1.71170238,-3.25712088,,,
imu,418.541896,-0.8613400320000001,-9.7780038216,1.6969594936,1.18145925,1.8014253,-3.24216706,,,
imu,418.550358,-0.8727049352000001,-9.741516500800001,1.7035391744,0.9048135799999999,1.8761944,-3.2720747,,,
imu,418.559175,-0.8739012408000001,-9.7217774584,1.6993521048,0.9571519499999999,1.77899457,-3.18235178,,,
imu,418.567992,-0.8733030880000001,-9.699047652,1.6969594936,1.10669015,1.79394839,-3.18235178,,,
imu,418.576809,-0.8804809216,-9.685888290400001,1.68978166,0.97958268,1.81637912,-3.13749032,,,
imu,418.585626,-0.8804809216,-9.697851346400002,1.6879872016,1.22632071,1.74161002,-3.18235178,,,
imu,418.594443,-0.8679197128000001,-9.703832874400002,1.671837076,1.52539711,1.82385603,-3.10758268,,,
imu,418.60326,-0.8625363376,-9.688280901600002,1.6682481592,1.47305874,1.88367131,-3.11505959,,,
imu,418.612077,-0.8589474208000002,-9.678112304,1.6574814088,1.77213514,2.07059406,-3.1225365,,,
imu,418.620893,-0.8463862120000001,-9.675121540000001,1.6556869504,1.90671952,2.16031698,-2.98795212,,,
imu,418.62971,-0.8272453224,-9.679308609600001,1.6526961864,2.15345755,2.16779389,-2.90570611,,,
imu,418.638527,-0.8158804192000001,-9.693066124000001,1.6592758672,2.43010322,2.11545552,-2.96552139,,,
imu,418.647344,-0.8093007384,-9.699047652,1.647910964,2.62450288,2.03320951,-3.0477674,,,
imu,418.656161,-0.804515516,-9.7128051664,1.632957144,2.66936434,2.00330187,-3.09262886,,,
imu,418.664978,-0.7949450712000001,-9.725366375200002,1.6365460608,2.85628709,1.88367131,-3.10010577,,,
imu,418.673795,-0.7997302936000001,-9.745105417600001,1.6401349776,2.95348692,1.79394839,-2.94309066,,,
imu,418.682612,-0.8051136688,-9.7474980288,1.6311626856,2.85628709,1.59207182,-2.99542903,,,
imu,418.691429,-0.8182730304000002,-9.748694334400001,1.6275737688,2.77404108,1.55468727,-3.01785976,,,
imu,418.700246,-0.8081044328000001,-9.772620446400001,1.626975616,2.92357928,1.49487199,-2.99542903,,,
imu,418.709063,-0.7949450712000001,-9.789966877600001,1.6233866992,2.72917962,1.51730272,-2.81598319,,,
imu,418.717787,-0.7985339880000002,-9.782789044000001,1.6174051712,2.84881018,1.52477963,-2.86832156,,,
imu,418.726604,-0.7889635432000001,-9.768433376800001,1.6245830048,2.61702597,1.24065705,-2.98047521,,,
imu,418.735421,-0.7949450712000001,-9.786377960800001,1.61501256,2.51982614,1.13598031,-2.86832156,,,
imu,418.744238,-0.7925524600000001,-9.7845835024,1.609031032,2.57964142,1.15093413,-2.9729983,,,
imu,418.753055,-0.7889635432000001,-9.800135475200001,1.6162088656,2.55721069,1.14345722,-2.98795212,,,
imu,418.761532,-0.7859727792000001,-9.801929933600002,1.6084328792,2.37028794,1.02382666,-2.96552139,,,
imu,418.77001,-0.7871690848,-9.782789044000001,1.62996638,2.25065738,0.9789651999999998,-2.93561375,,,
imu,418.778487,-0.7907580016000001,-9.7845835024,1.6251811576,2.20579592,0.9191499199999997,-2.80102937,,,
imu,418.786965,-0.7943469184000002,-9.772022293600001,1.6018531984,2.01139626,0.78456554,-2.86084465,,,
imu,418.795442,-0.7770004872000001,-9.7606573904,1.620994088,1.8917657,0.7397040799999997,-2.99542903,,,
imu,418.80392,-0.7811875568000001,-9.7815927384,1.6156107128,1.80204278,0.7097964399999999,-3.00290594,,,
imu,418.812397,-0.7853746264000001,-9.769031529600001,1.6078347264,1.7422275,0.6724118899999998,-2.90570611,,,
imu,418.820875,-0.7764023344000002,-9.7540777096,1.6138162544,1.74970441,0.72475026,-2.68887572,,,
imu,418.829352,-0.7841783208,-9.7283571392,1.6096291848,1.79456587,0.64250425,-2.81598319,,,
imu,418.83783,-0.7823838624,-9.7510869456,1.6108254904,1.82447351,0.50044296,-2.88327538,,,
imu,418.846307,-0.7865709320000001,-9.7570684736,1.6036476568,1.88428879,0.5378275100000001,-3.04029049,,,
imu,418.854785,-0.7847764736,-9.741516500800001,1.5916846008,1.86185806,0.5976427899999996,-3.18235178,,,
imu,418.863262,-0.7770004872000001,-9.7295534448,1.5976661288,2.09364227,0.5752120599999997,-3.15992105,,,
imu,418.87174,-0.7770004872000001,-9.744507264800001,1.5904882952,2.09364227,0.5677351499999999,-3.15992105,,,
imu,418.880218,-0.7979358352000001,-9.746301723200002,1.5874975312,2.16093446,0.5677351499999999,-3.29450543,,,
imu,418.888695,-0.8093007384,-9.7510869456,1.5868993784,2.22074974,0.4929660499999997,-3.44404363,,,
imu,418.897173,-0.8122915024000001,-9.766040765600001,1.576132628,2.16093446,0.5901658799999998,-3.48890509,,,
imu,418.90565,-0.8188711832000002,-9.758264779200001,1.5839086144,2.3403803,0.7397040799999997,-3.36927453,,,
imu,418.914128,-0.8421991424,-9.788172419200002,1.58510492,2.53477996,0.8369039099999998,-3.28702852,,,
imu,418.922605,-0.8481806704000001,-9.8061170032,1.5599825024,2.62450288,1.22570323,-3.33188998,,,
imu,418.931083,-0.8511714344000001,-9.8144911424,1.5623751136,2.44505704,1.23318014,-3.39918217,,,
imu,418.93956,-0.8445917536,-9.8049206976,1.5713474056,2.30299575,1.53225654,-3.53376655,,,
imu,418.948038,-0.8523677400000002,-9.808509614400002,1.5659640304,2.01139626,1.76404075,-3.60105874,,,
imu,418.956515,-0.8493769760000001,-9.831239420800001,1.5635714192,2.05625772,2.04816333,-3.50385891,,,
imu,418.96498,-0.8386102256000002,-9.837819101600003,1.5653658776,1.8917657,2.23508608,-3.39170526,,,
imu,418.973445,-0.8374139200000001,-9.825856045600002,1.5653658776,1.54782784,2.30237827,-3.48890509,,,
imu,418.98191,-0.8296379336000002,-9.803126239200001,1.5605806552,1.26370526,2.45939338,-3.59358183,,,
imu,418.990375,-0.8421991424,-9.7821908912,1.5749363224,0.97210577,2.61640849,-3.42908981,,,
imu,418.998839,-0.8057118216000001,-9.786377960800001,1.588095684,0.67302937,2.6238854,-3.37675144,,,
imu,419.007304,-0.7889635432000001,-9.802528086400002,1.5934790592,0.44872207,2.88557725,-3.21225942,,,
imu,419.015769,-0.7770004872000001,-9.788770572,1.6024513512,0.11973803,2.8481927,-3.25712088,,,
imu,419.024234,-0.7787949456000002,-9.793555794400001,1.6221903936,-0.06718472,2.9229618,-3.496382,,,
imu,419.032699,-0.76264482,-9.791761336000002,1.6024513512,-0.0522309,2.75099287,-3.57862801,,,
imu,419.041163,-0.7704208064000001,-9.7995373224,1.5958716704,0.06739966,2.52668557,-3.75807385,,,
imu,419.049628,-0.7542706808000001,-9.802528086400002,1.5904882952,0.21693786,2.46687029,-3.90013514,,,
imu,419.058093,-0.7476910000000001,-9.789966877600001,1.58510492,0.25432241,2.27994754,-3.88518132,,,
imu,419.066558,-0.7423076248,-9.754675862400001,1.5815160032,0.28423005,2.15284007,-3.84779677,,,
imu,419.075023,-0.7536725280000001,-9.731347903200001,1.5647677248,0.53844499,2.1005017,-3.74312003,,,
imu,419.083488,-0.7632429728000001,-9.714599624800002,1.5647677248,0.71789083,1.97339423,-3.66087402,,,
imu,419.091952,-0.7764023344000002,-9.722375611200002,1.5653658776,0.77770611,1.90610204,-3.45899745,,,
imu,419.100417,-0.7787949456000002,-9.743310959200002,1.5593843496,0.9272443100000001,1.71170238,-3.3468438,,,
imu,419.108882,-0.7728134176000001,-9.7492924872,1.5510102104,0.9945364999999999,1.79394839,-3.39918217,,,
imu,419.117347,-0.7704208064000001,-9.728955292000002,1.5540009744,1.12912088,1.91357895,-3.33188998,,,
imu,419.125812,-0.7811875568000001,-9.715795930400002,1.55519728,1.13659779,1.92853277,-3.23469015,,,
imu,419.134276,-0.7841783208,-9.708019944000002,1.5534028216,1.12912088,1.98087114,-3.26459779,,,
imu,419.142741,-0.8039173632000001,-9.711608860800002,1.543234224,1.00949032,1.99582496,-3.35432071,,,
imu,419.151206,-0.8164785720000002,-9.743909112,1.5396453072,0.9870595899999999,2.2500399,-3.5711511,,,
imu,419.159671,-0.8075062800000001,-9.769031529600001,1.5545991272,0.9197674,2.48182411,-3.67582784,,,
imu,419.168138,-0.8104970440000001,-9.762451848800001,1.561178808,0.79265993,2.60145467,-3.54124346,,,
imu,419.176606,-0.8194693360000002,-9.7953502528,1.567160336,0.64312173,2.66126995,-3.65339711,,,
imu,419.185073,-0.8212637944000001,-9.824061587200001,1.5605806552,0.4711528,2.80333124,-3.69825857,,,
imu,419.19354,-0.7979358352000001,-9.830641268,1.5785252392,0.20198404,2.87810034,-3.60853565,,,
imu,419.202008,-0.7829820152,-9.844996935200001,1.5904882952,-0.0522309,2.99025399,-3.53376655,,,
imu,419.210475,-0.7775986400000001,-9.851576616000001,1.5952735176,-0.21672292,2.96782326,-3.54124346,,,
imu,419.218942,-0.7740097232000002,-9.855165532800001,1.5952735176,-0.41859949,2.96782326,-3.56367419,,,
imu,419.22741,-0.7781967928000002,-9.8330338792,1.5845067672,-0.63542988,2.81080815,-3.50385891,,,
imu,419.235877,-0.7865709320000001,-9.802528086400002,1.5964698232,-0.7401066199999999,2.69117759,-3.60105874,,,
imu,419.244344,-0.7943469184000002,-9.775611210400001,1.6048439624,-1.00179847,2.6238854,-3.60105874,,,
imu,419.252812,-0.7943469184000002,-9.7995373224,1.606040268,-0.82982954,2.67622377,-3.59358183,,,
imu,417.776565,,,,,,,17.1511052,-24.48157000000002,48.98140479999999
imu,417.878097,,,,,,,18.17651000000001,-24.26184040000001,50.458476
imu,417.979751,,,,,,,22.1804716,-25.20179480000002,48.2489728
imu,418.081222,,,,,,,20.11745480000001,-24.22521880000001,50.7148272
imu,418.182785,,,,,,,22.510066,-25.33607400000002,48.2855944
imu,418.284347,,,,,,,19.9221396,-24.89661480000001,50.43406159999999
imu,418.38591,,,,,,,20.31277000000001,-23.92003880000002,49.54293599999999
imu,418.487472,,,,,,,19.60475240000001,-24.49377720000001,51.1664936
imu,419.261279,-0.8087025856000001,-9.802528086400002,1.5916846008,-0.71019898,2.7734236,-3.73564312,,,
imu,419.269746,-0.8224601,-9.7540777096,1.5946753648,-0.76253735,2.81828506,-3.76555076,,,
imu,419.278214,-0.8392083784000002,-9.7295534448,1.597067976,-0.82982954,2.99025399,-3.76555076,,,
imu,419.286681,-0.8559566568000001,-9.719983000000001,1.5827123088,-0.68029134,3.08745382,-3.78050458,,,
imu,419.295149,-0.8750975464000001,-9.7074217912,1.5779270864,-0.51579932,3.25942275,-3.77302767,,,
imu,419.303616,-0.9044070336000001,-9.701440263200002,1.5916846008,-0.67281443,3.53606842,-3.81041222,,,
imu,419.312083,-0.9253423816,-9.701440263200002,1.5946753648,-0.41859949,4.06692903,-3.69078166,,,
imu,419.320551,-0.9450814240000001,-9.694860582400002,1.60005874,-0.28401511,4.62022037,-3.61601256,,,
imu,419.329018,-0.9779798280000002,-9.739123889600002,1.5958716704,-0.20924601,5.08378879,-3.59358183,,,
imu,419.337485,-0.9941299536000001,-9.7953502528,1.6048439624,-0.28401511,5.82400288,-3.67582784,,,
imu,419.345953,-0.9899428840000002,-9.802528086400002,1.5952735176,-0.32139966,6.706278259999999,-3.69825857,,,
imu,419.35442,-0.9863539672000001,-9.783387196800001,1.6102273376,-0.38869185,7.461446169999999,-3.95995042,,,
imu,419.362887,-1.0001114816,-9.7750130576,1.6203959352,-0.32887657,8.29138318,-4.012288789999999,,,
imu,419.371343,-0.9815687448000001,-9.801929933600002,1.620994088,-0.56066078,9.188612379999999,-4.22164227,,,
imu,419.379799,-0.9516611048000001,-9.8043225448,1.6138162544,-0.9644139199999999,9.9512572,-4.48333412,,,
imu,419.388255,-0.9396980488000001,-9.8198745176,1.6257793104,-1.11395212,10.60922528,-4.61044159,,,
imu,419.396711,-0.9456795768000001,-9.802528086400002,1.6293682272,-1.23358268,11.26719336,-4.70016451,,,
imu,419.405167,-0.9325202152000002,-9.818080059200001,1.6401349776,-1.43545925,11.99993054,-4.647826139999999,,,
imu,419.413623,-0.9175663952000002,-9.822267128800002,1.6335552968,-1.59995127,12.55322188,-4.602964679999999,,,
imu,419.422079,-0.9044070336000001,-9.8168837536,1.6574814088,-1.7719202,13.09903631,-4.55810322,,,
imu,419.430535,-0.8840698384000001,-9.828846809600002,1.662864784,-2.00370441,13.59251237,-4.52071867,,,
imu,419.438991,-0.8661252544000001,-9.824659740000001,1.6712389232,-2.20558098,14.11589607,-4.43847266,,,
imu,419.447447,-0.8433954480000001,-9.803126239200001,1.6784167568,-2.41493446,14.48974157,-4.49081103,,,
imu,419.455902,-0.8350213088000001,-9.802528086400002,1.6843982848,-2.64671867,14.77386415,-4.41604193,,,
imu,419.464358,-0.8272453224,-9.782789044000001,1.686790896,-2.75887232,14.97574072,-4.49828794,,,
imu,419.472814,-0.8248527112,-9.773218599200002,1.695763188,-2.82616451,15.22247875,-4.3936112,,,
imu,419.48127,-0.8398065312,-9.765442612800001,1.7053336328,-2.92336434,15.53650897,-4.341272829999999,,,
imu,419.489726,-0.8421991424,-9.761853696000001,1.713707772,-3.0429949,15.89540065,-4.35622665,,,
imu,419.498182,-0.8302360864000001,-9.758264779200001,1.7328486616,-3.08785636,16.22438469,-4.51324176,,,
imu,419.506638,-0.8200674888,-9.7606573904,1.7268671336,-2.97570271,16.71038384,-4.72259524,,,
imu,419.515094,-0.8087025856000001,-9.742114653600002,1.7262689808,-3.02056417,17.07675243,-4.72259524,,,
imu,419.52355,-0.7997302936000001,-9.7283571392,1.7400264952,-3.17757928,17.42069029,-4.8422258,,,
imu,419.532006,-0.7853746264000001,-9.7283571392,1.737633884,-3.117764,17.80948961,-5.05905619,,,
imu,419.540462,-0.7907580016000001,-9.725366375200002,1.7591673848,-3.22991765,18.04127382,-5.26840967,,,
imu,419.548917,-0.7871690848,-9.7163940832,1.7567747736,-3.14019473,18.18333511,-5.35813259,,,
imu,419.557373,-0.7943469184000002,-9.724170069600001,1.7681396768,-2.92336434,18.45998078,-5.44785551,,,
imu,419.565829,-0.8021229048,-9.724768222400002,1.7789064272,-2.87102597,18.72167263,-5.55253225,,,
imu,419.574648,-0.8128896552000001,-9.706225485600001,1.7890750248,-2.87102597,19.05813358,-5.70207045,,,
imu,419.583466,-0.8362176144000002,-9.696655040800001,1.8106085256,-2.92336434,19.39459453,-5.851608649999999,,,
imu,419.592284,-0.8278434752000001,-9.709216249600003,1.8309457208,-2.87850288,19.76096312,-5.93385466,,,
imu,419.601102,-0.8386102256000002,-9.711010708000002,1.8476939992,-2.75139541,20.17219317,-5.84413174,,,
imu,419.609921,-0.8368157672000002,-9.704431027200002,1.8524792216,-2.67662631,20.46379266,-5.851608649999999,,,
imu,419.618739,-0.8290397808000001,-9.6954587352,1.8829850144,-2.69158013,20.69557687,-5.8142241,,,
imu,419.627557,-0.8170767248000002,-9.6846919848,1.8853776256,-2.60933412,20.95726872,-5.589916799999999,,,
imu,419.636375,-0.8015247520000001,-9.675719692800001,1.8925554592,-2.42988828,21.14419147,-5.31327113,,,
imu,419.645194,-0.7919543072000002,-9.672130776000001,1.9045185152,-2.16071952,21.14419147,-5.00671782,,,
imu,419.654012,-0.7680281952000001,-9.666149248000002,1.9152852656,-1.9962275,21.18157602,-4.5431494,,,
imu,419.66283,-0.7435039304000001,-9.6709344704,1.9218649464,-1.58499745,21.20400675,-4.23659609,,,
imu,419.671648,-0.7249611936,-9.6733270816,1.932033544,-1.42050543,21.00213018,-4.11696553,,,
imu,419.680467,-0.7046239984,-9.658971414400002,1.938015072,-1.19619813,20.68809996,-3.97490424,,,
imu,419.689285,-0.6938572480000001,-9.6458120528,1.938015072,-0.89712173,20.32920828,-3.78050458,,,
imu,419.698103,-0.6830904976000001,-9.633250844,1.9422021416,-0.80739881,19.9703166,-3.54124346,,,
imu,419.706921,-0.6687348304,-9.634447149600001,1.9493799752,-0.64290679,19.73853239,-3.3468438,,,
imu,419.71574,-0.6789034280000001,-9.633848996800001,1.9703153232,-0.41112258,19.45440981,-3.20478251,,,
imu,419.724558,-0.6842868032,-9.6535880392,1.9936432824,-0.47841477,19.17776414,-3.24964397,,,
imu,419.733376,-0.6711274416,-9.683495679200002,1.9756986984,-0.2765382,18.93850302,-3.44404363,,,
imu,419.742194,-0.6573699272000001,-9.6912716656,1.9756986984,-0.09709236,18.58708825,-3.83284295,,,
imu,419.751013,-0.6561736216000001,-9.682299373600001,1.982876532,-0.09709236,18.21324275,-4.08705789,,,
imu,419.759831,-0.6519865520000001,-9.682897526400001,1.9900543656,0.16459949,17.96650472,-4.23659609,,,
imu,419.768649,-0.648995788,-9.684093832000002,1.9762968512,0.17955331,17.55527467,-4.23659609,,,
imu,419.777136,-0.6495939408000001,-9.645213900000002,1.9631374896,0.05244583999999999,17.13656771,-4.25902682,,,
imu,419.785622,-0.6615569968000001,-9.606932120800002,1.9565578088,0.3216146,16.91973732,-3.98985806,,,
imu,419.794108,-0.6657440664000001,-9.623680399200001,1.9577541144,0.5459219,16.65056856,-3.75807385,,,
imu,419.802595,-0.6699311360000001,-9.658971414400002,1.9481836696,0.78518302,16.52346109,-3.44404363,,,
imu,418.589417,,,,,,,20.21511240000001,-24.21301160000002,51.19090799999999
imu,418.69101,,,,,,,20.2395268,-24.54260600000002,50.946764
imu,418.800355,,,,,,,20.41042760000001,-24.92102920000001,50.9223496
imu,418.901917,,,,,,,20.1418692,-24.49377720000001,50.11667439999999
imu,419.00348,,,,,,,20.44704920000001,-24.35949800000001,51.2275296
imu,419.105012,,,,,,,22.43682280000001,-25.20179480000002,50.03122399999999
imu,419.206666,,,,,,,20.25173400000001,-24.90882200000002,51.5449168
imu,419.308167,,,,,,,22.68096680000001,-25.58021800000001,48.59077439999999
imu,419.40973,,,,,,,19.9099324,-24.26184040000001,51.05662879999999
imu,419.511262,,,,,,,19.5315092,-24.28625480000002,48.5785672
imu,419.612855,,,,,,,18.115474,-23.77355240000001,50.8002776
imu,419.714417,,,,,,,17.5783572,-23.16319240000002,49.78708
