Type,Timestamp,Data Accelerometer X,Data Accelerometer Y,Data Accelerometer Z,Data Gyroscope X,Data Gyroscope Y,Data Gyroscope Z,Data Magnetometer X,Data Magnetometer Y,Data Magnetometer Z
imu,413.87772,-0.8846679912000001,-9.663158484000002,2.1934263176,1.40576655,2.04816333,-4.16182699,,,
imu,413.886188,-0.8798827688,-9.684093832000002,2.1940244704,1.42072037,2.14536316,-4.25154991,,,
imu,413.894655,-0.8655271016000001,-9.7086180968,2.195220776,1.43567419,2.21265535,-4.19921154,,,
imu,413.903114,-0.8691160184000001,-9.706823638400001,2.2023986096,1.61512003,2.46687029,-3.95995042,,,
imu,413.911572,-0.8601437264,-9.7151977776,2.2167542768,1.26370526,2.37714737,-4.00481188,,,
imu,413.920031,-0.8517695872000001,-9.731946056000002,2.2203431936,1.01696723,2.29490136,-3.83284295,,,
imu,413.928489,-0.8398065312,-9.7427128064,2.232306249600001,0.80761375,2.34723973,-3.70573548,,,
imu,413.936947,-0.8272453224,-9.751685098400001,2.2317080968,0.47862971,2.31733209,-3.5711511,,,
imu,413.945406,-0.8320305448000002,-9.7295534448,2.2394840832,0.21693786,2.19770153,-3.3468438,,,
imu,413.953864,-0.8284416280000001,-9.716992236000001,2.2568305144,0.03001510999999998,2.03320951,-3.29450543,,,
imu,413.962323,-0.8236564056000001,-9.7265626808,2.2532415976,-0.32887657,1.97339423,-3.24216706,,,
imu,413.970781,-0.8188711832000002,-9.717590388800001,2.2526434448,-0.54570696,1.8761944,-3.23469015,,,
imu,413.97924,-0.8104970440000001,-9.706823638400001,2.2478582224,-0.67281443,1.67431783,-3.18982869,,,
imu,413.987698,-0.8272453224,-9.682897526400001,2.253839750400001,-0.71767589,1.74908693,-3.16739796,,,
imu,413.996157,-0.8242545584000001,-9.656578803200002,2.2478582224,-0.77749117,1.58459491,-3.17487487,,,
imu,414.004615,-0.8278434752000001,-9.633250844,2.2556342088,-0.79244499,1.53225654,-3.15244414,,,
imu,414.013074,-0.8356194616000001,-9.631456385600002,2.249652680800001,-0.5980453299999999,1.58459491,-3.1973056,,,
imu,414.021532,-0.8493769760000001,-9.612315496,2.249054528,-0.60552224,1.58459491,-3.33188998,,,
imu,414.02999,-0.8607418792,-9.592576453600001,2.2418766944,-0.41112258,1.80890221,-3.26459779,,,
imu,414.038449,-0.8601437264,-9.590183842400002,2.2478582224,-0.09709236,1.88367131,-3.38422835,,,
imu,414.046907,-0.8511714344000001,-9.600352440000002,2.246063764000001,0.21693786,2.01825569,-3.46647436,,,
imu,414.055366,-0.8427972952,-9.594370912,2.2436711528,0.5459219,2.23508608,-3.496382,,,
imu,414.063824,-0.8368157672000002,-9.5907819952,2.246063764000001,0.8375213899999999,2.30985518,-3.63844329,,,
imu,414.072283,-0.8236564056000001,-9.609922884800001,2.2723824872,0.9571519499999999,2.27994754,-3.78050458,,,
imu,414.080741,-0.8021229048,-9.625474857600002,2.263410195200001,1.09921324,2.25751681,-3.86275059,,,
imu,414.0892,-0.7919543072000002,-9.641624983200002,2.2777658624,1.17398234,2.33228591,-3.97490424,,,
imu,414.097658,-0.7841783208,-9.648802816800002,2.2783640152,1.2188438,2.2500399,-3.89265823,,,
imu,414.106122,-0.7847764736,-9.654784344800001,2.284943696,1.30108981,2.01077878,-3.97490424,,,
imu,414.114585,-0.7734115704000001,-9.669738164800002,2.281952932,1.27865908,1.89862513,-3.81788913,,,
imu,414.123049,-0.7710189592000001,-9.6733270816,2.2801584736,1.45062801,1.6518871,-3.68330475,,,
imu,414.131512,-0.7883653904000001,-9.6667474008,2.2711861816,1.31604363,1.4275798,-3.74312003,,,
imu,414.139976,-0.7919543072000002,-9.668541859200001,2.264008348,1.2936129,1.36028761,-3.63844329,,,
imu,414.148439,-0.8110951968000001,-9.659569567200002,2.27298064,1.41324346,1.22570323,-3.51881273,,,
imu,414.156903,-0.8344231560000002,-9.668541859200001,2.2568305144,1.53287402,1.15093413,-3.36927453,,,
imu,414.165366,-0.8332268504000001,-9.669140012000002,2.264008348,1.54035093,1.06868812,-3.31693616,,,
imu,414.17383,-0.8463862120000001,-9.6733270816,2.252045292,1.48801256,1.10607267,-3.41413599,,,
imu,414.182294,-0.8643307960000001,-9.6637566368,2.253839750400001,1.36090509,1.09111885,-3.46647436,,,
imu,414.190757,-0.86732156,-9.655382497600002,2.2652046536,1.31604363,1.24813396,-3.57862801,,,
imu,414.199221,-0.8637326432000001,-9.6703363176,2.2723824872,1.4431511,1.54721036,-3.63096638,,,
imu,414.207684,-0.8709104768000001,-9.708019944000002,2.2664009592,1.2936129,1.60702564,-3.81041222,,,
imu,414.216148,-0.8541621984000002,-9.709814402400001,2.269989876,1.27118217,1.78647148,-3.78798149,,,
imu,414.224611,-0.8338250032000001,-9.682299373600001,2.2502508336,1.23379762,1.98834805,-3.60105874,,,
imu,414.233075,-0.8308342392000001,-9.648802816800002,2.249054528,1.01696723,2.0257326,-3.496382,,,
imu,414.241538,-0.8200674888,-9.645213900000002,2.2382877776,1.06182869,2.1005017,-3.54124346,,,
imu,414.250002,-0.7985339880000002,-9.609324732000001,2.2179505824,1.30856672,2.07059406,-3.60105874,,,
imu,414.258465,-0.7871690848,-9.6009505928,2.2346988608,1.31604363,1.93600968,-3.9449966,,,
imu,414.266929,-0.7973376824000001,-9.613511801600001,2.2335025552,1.48053565,1.81637912,-3.98238115,,,
imu,414.275301,-0.7931506128000001,-9.668541859200001,2.246063764000001,1.58521239,1.47244126,-4.02724261,,,
imu,414.283765,-0.8110951968000001,-9.708019944000002,2.2388859304,1.65998149,1.42010289,-4.19173463,,,
imu,414.292228,-0.8069081272,-9.690075360000002,2.253839750400001,1.6674584,1.22570323,-4.26650373,,,
imu,414.300692,-0.8051136688,-9.683495679200002,2.249054528,1.46558183,0.9116730099999999,-4.102011709999999,,,
imu,414.309514,-0.8272453224,-9.6918698184,2.246063764000001,1.34595127,1.02382666,-3.73564312,,,
imu,414.318337,-0.8475825176000001,-9.6817012208,2.240082236,1.41324346,1.09111885,-3.2720747,,,
imu,414.327159,-0.8559566568000001,-9.680504915200002,2.22811918,1.48801256,1.03130357,-2.84589083,,,
imu,414.335981,-0.8553585040000001,-9.664952942400001,2.216156124,1.37585891,1.10607267,-2.58419898,,,
imu,414.344803,-0.8523677400000002,-9.651793580800001,2.1964170816,1.46558183,1.37524143,-2.77859864,,,
imu,414.353625,-0.8529658928000001,-9.633848996800001,2.204193068,1.71231986,1.45001053,-3.01038285,,,
imu,414.362448,-0.8625363376,-9.637437913600001,2.1886410952,1.92167334,1.63693328,-3.36927453,,,
imu,414.37127,-0.8697141712000002,-9.6434194416,2.1760798864,2.13850373,1.67431783,-3.69825857,,,
imu,414.380092,-0.8523677400000002,-9.641624983200002,2.1760798864,2.16841137,1.88367131,-3.99733497,,,
imu,414.388914,-0.8344231560000002,-9.651793580800001,2.191631859200001,2.22822665,1.98087114,-4.244073,,,
imu,414.397737,-0.8134878080000001,-9.664952942400001,2.1928281648,2.28804193,2.16031698,-4.37865738,,,
imu,414.406559,-0.7967395296000002,-9.672728928800002,2.1976133872,2.47496468,2.11545552,-4.34874974,,,
imu,414.415381,-0.7901598488000001,-9.689477207200001,2.2059875264,2.3403803,1.96591732,-4.34874974,,,
imu,414.424203,-0.7901598488000001,-9.710412555200001,2.1940244704,2.10111918,1.7266562,-4.40108811,,,
imu,414.433026,-0.7919543072000002,-9.7295534448,2.1946226232,2.03382699,1.577118,-4.341272829999999,,,
imu,414.441848,-0.804515516,-9.7331423616,2.1946226232,1.75718132,1.26308778,-4.13191935,,,
imu,414.45067,-0.8164785720000002,-9.7193848472,2.1934263176,1.54782784,1.15841104,-3.93751969,,,
imu,414.459492,-0.8260490168000001,-9.711608860800002,2.1928281648,1.41324346,0.8742884599999998,-3.89265823,,,
imu,414.468314,-0.8481806704000001,-9.7265626808,2.2047912208,1.35342818,0.6724118899999998,-3.84031986,,,
imu,414.477137,-0.8655271016000001,-9.727160833600001,2.204193068,0.97210577,0.5079198699999998,-3.86275059,,,
imu,414.485959,-0.8846679912000001,-9.7193848472,2.2119690544,0.85995212,0.6051196999999999,-3.81788913,,,
imu,414.494781,-0.8924439776000002,-9.7163940832,2.2023986096,0.7403215599999999,0.7770886299999997,-3.63844329,,,
imu,414.503603,-0.9050051864,-9.715795930400002,2.1994078456,0.63564482,1.0537343,-3.61601256,,,
imu,414.512075,-0.9133793256000001,-9.7056273328,2.205389373600001,0.53844499,1.18831868,-3.72816621,,,
imu,414.520546,-0.9008181168,-9.702038416,2.1928281648,0.65807555,1.48739508,-3.62348947,,,
imu,414.529017,-0.8966310472000002,-9.675121540000001,2.1940244704,0.7552753799999999,1.88367131,-3.6459202,,,
imu,414.537488,-0.8876587552000001,-9.663158484000002,2.191631859200001,0.68050628,2.07059406,-3.78798149,,,
imu,414.545959,-0.8858642968000001,-9.661962178400001,2.2173524296,0.5982602699999999,2.30985518,-3.89265823,,,
imu,414.55443,-0.8625363376,-9.699047652,2.2215394992,0.80761375,2.42948574,-4.00481188,,,
imu,414.562902,-0.8206656416,-9.701440263200002,2.1970152344,0.65059864,2.41453192,-4.20668845,,,
imu,414.571373,-0.8081044328000001,-9.673925234400002,2.2035949152,0.60573718,2.44443956,-4.28893446,,,
imu,414.579844,-0.8188711832000002,-9.6535880392,2.2185487352,0.4861066199999999,2.2500399,-4.31136519,,,
imu,414.588315,-0.8140859608000002,-9.6733270816,2.2155579712,0.7104139199999999,2.27247063,-3.82536604,,,
imu,414.596786,-0.7997302936000001,-9.6918698184,2.207183832,0.6954601,2.13788625,-3.42908981,,,
imu,414.605257,-0.780589404,-9.662560331200002,2.2209413464,0.65807555,2.08554788,-3.15244414,,,
imu,414.613729,-0.7710189592000001,-9.66016772,2.2209413464,0.5459219,1.80890221,-3.00290594,,,
imu,414.6222,-0.7823838624,-9.676915998400002,2.219146888,0.77770611,1.53973345,-3.01038285,,,
imu,414.630671,-0.7913561544000001,-9.702038416,2.2269228744,0.7104139199999999,1.34533379,-3.09262886,,,
imu,414.639142,-0.7985339880000002,-9.6876827488,2.222735804800001,0.6132140899999999,1.12102649,-3.30198234,,,
imu,414.647613,-0.8170767248000002,-9.669738164800002,2.2317080968,0.60573718,1.17336486,-3.30945925,,,
imu,414.656085,-0.8200674888,-9.672728928800002,2.2245302632,0.34404533,1.03878048,-3.53376655,,,
imu,414.664556,-0.8093007384,-9.669140012000002,2.2143616656,0.32909151,1.03130357,-3.496382,,,
imu,414.673027,-0.8194693360000002,-9.667943706400001,2.216156124,0.46367589,1.18084177,-3.51133582,,,
imu,414.681498,-0.8278434752000001,-9.665551095200001,2.2155579712,0.52349117,1.30047233,-3.53376655,,,
imu,413.88653,,,,,,,73.01125239999999,-1.825006800000017,0.824000799999991
imu,413.988123,,,,,,,72.9380092,-2.093565200000014,0.4944063999999915
imu,414.689969,-0.8284416280000001,-9.66016772,2.208978290400001,0.51601426,1.55468727,-3.66835093,,,
imu,414.69844,-0.8260490168000001,-9.660765872800003,2.2209413464,0.4711528,1.55468727,-3.73564312,,,
imu,414.706912,-0.8200674888,-9.667345553600002,2.2245302632,0.41133752,1.60702564,-3.8702275,,,
imu,414.715431,-0.8212637944000001,-9.675121540000001,2.228717332800001,0.56835263,1.63693328,-3.84031986,,,
imu,414.723951,-0.8206656416,-9.694860582400002,2.2299136384,0.51601426,1.76404075,-3.82536604,,,
imu,414.73247,-0.8098988912000001,-9.690075360000002,2.22811918,0.44124516,1.74908693,-3.7206893,,,
imu,414.740989,-0.7997302936000001,-9.6954587352,2.231109944,0.46367589,1.75656384,-3.82536604,,,
imu,414.749509,-0.8009265992000001,-9.706823638400001,2.2418766944,0.3963837,1.81637912,-3.74312003,,,
imu,414.758028,-0.7907580016000001,-9.689477207200001,2.243073,0.38142988,1.85376367,-3.76555076,,,
imu,414.766548,-0.7859727792000001,-9.6799067624,2.2454656112,0.15712258,1.68179474,-3.75059694,,,
imu,414.775067,-0.7865709320000001,-9.6876827488,2.249652680800001,0.13469185,1.5023489,-3.75059694,,,
imu,414.783587,-0.7871690848,-9.683495679200002,2.261017584,0.18703022,1.26308778,-3.67582784,,,
imu,414.792106,-0.7853746264000001,-9.6876827488,2.25802682,0.03749201999999999,1.25561087,-3.69078166,,,
imu,414.800626,-0.7871690848,-9.686486443200002,2.261017584,0.007584380000000002,1.34533379,-3.72816621,,,
imu,414.809145,-0.7931506128000001,-9.672130776000001,2.2664009592,-0.08961545,1.24065705,-3.7954584,,,
imu,414.817665,-0.8033192104000001,-9.661364025600001,2.2711861816,0.14216876,1.16588795,-3.69825857,,,
imu,414.826184,-0.8116933496000001,-9.652989886400002,2.2652046536,0.03749201999999999,1.12102649,-3.76555076,,,
imu,414.834704,-0.8212637944000001,-9.641624983200002,2.2646065008,0.0001074699999999984,0.98644211,-3.85527368,,,
imu,414.843223,-0.8182730304000002,-9.637437913600001,2.269989876,0.04496892999999999,0.9939190199999999,-3.84031986,,,
imu,414.851743,-0.8296379336000002,-9.634447149600001,2.275971404,0.20198404,0.9640113799999996,-3.78798149,,,
imu,414.860262,-0.8410028368000001,-9.638634219200002,2.2687935704,0.17955331,0.9565344699999998,-3.77302767,,,
imu,414.868782,-0.8362176144000002,-9.633250844,2.2693917232,0.35899915,1.07616503,-3.86275059,,,
imu,414.877301,-0.8451899064,-9.6224840936,2.275971404,0.34404533,1.0537343,-3.93004278,,,
imu,414.885821,-0.8398065312,-9.632054538400002,2.275971404,0.47862971,1.09859576,-3.95247351,,,
imu,414.89434,-0.8320305448000002,-9.638634219200002,2.2723824872,0.6132140899999999,1.09859576,-3.85527368,,,
imu,414.90286,-0.8338250032000001,-9.640428677600001,2.2735787928,0.66555246,1.16588795,-3.78798149,,,
imu,414.911379,-0.8224601,-9.654784344800001,2.2717843344,0.85995212,1.13598031,-3.71321239,,,
imu,414.919788,-0.8242545584000001,-9.651793580800001,2.27298064,0.8449983,0.98644211,-3.77302767,,,
imu,414.928197,-0.8164785720000002,-9.661962178400001,2.2957104464,0.8449983,1.0537343,-3.70573548,,,
imu,414.936606,-0.8063099744000001,-9.6667474008,2.2861400016,0.80761375,0.9640113799999996,-3.78798149,,,
imu,414.945015,-0.8104970440000001,-9.661364025600001,2.2813547792,0.88985976,0.8593346399999997,-3.7206893,,,
imu,414.953424,-0.8152822664000001,-9.661364025600001,2.2687935704,0.8375213899999999,0.80699627,-3.80293531,,,
imu,414.961832,-0.8170767248000002,-9.661364025600001,2.278962168,0.80013684,0.70231953,-3.74312003,,,
imu,414.970241,-0.8272453224,-9.6505972752,2.2783640152,0.77770611,0.70231953,-3.78798149,,,
imu,414.97865,-0.8278434752000001,-9.666149248000002,2.2711861816,0.79265993,0.6499811599999998,-3.77302767,,,
imu,414.987059,-0.8344231560000002,-9.676317845600002,2.2753732512,0.9646288599999999,0.7322271699999998,-3.75807385,,,
imu,414.995468,-0.8386102256000002,-9.672728928800002,2.2687935704,0.9048135799999999,0.7471809899999999,-3.70573548,,,
imu,415.003877,-0.8427972952,-9.669140012000002,2.2741769456,0.8823828499999999,0.84438082,-3.63844329,,,
imu,415.012286,-0.8332268504000001,-9.6667474008,2.2711861816,0.79265993,0.8967191899999998,-3.77302767,,,
imu,415.020695,-0.8338250032000001,-9.667943706400001,2.255036056,0.74779847,0.94905756,-3.71321239,,,
imu,415.029103,-0.8416009896000001,-9.6458120528,2.266999112000001,0.65059864,0.8892422799999999,-3.84031986,,,
imu,415.037512,-0.8427972952,-9.655980650400002,2.2616157368,0.6132140899999999,0.86681155,-4.13191935,,,
imu,415.045921,-0.8410028368000001,-9.681103068,2.2693917232,0.7702292,0.8967191899999998,-4.057150249999999,,,
imu,415.05433,-0.8386102256000002,-9.6912716656,2.2664009592,0.7552753799999999,1.02382666,-4.07210407,,,
imu,415.062739,-0.8451899064,-9.682299373600001,2.2574286672,0.76275229,1.1285034,-3.97490424,,,
imu,415.071148,-0.8410028368000001,-9.646410205600002,2.2604194312,0.73284465,1.32290306,-3.69078166,,,
imu,415.079557,-0.8541621984000002,-9.624278552000002,2.2664009592,0.7104139199999999,1.33785688,-3.69825857,,,
imu,415.087965,-0.840404684,-9.635643455200002,2.25802682,0.82256757,1.29299542,-3.83284295,,,
imu,415.096374,-0.8350213088000001,-9.6499991224,2.2544379032,0.8524752099999999,1.2780416,-4.07210407,,,
imu,415.104783,-0.8344231560000002,-9.644615747200001,2.2765695568,0.85995212,1.26308778,-4.35622665,,,
imu,415.113192,-0.8421991424,-9.664952942400001,2.2927196824,0.73284465,1.08364194,-4.58053395,,,
imu,415.121654,-0.8523677400000002,-9.711010708000002,2.286738154400001,0.73284465,1.02382666,-4.66277996,,,
imu,415.130117,-0.8589474208000002,-9.739722042400002,2.311860572000001,0.56087572,0.9939190199999999,-4.58801086,,,
imu,415.138579,-0.8463862120000001,-9.728955292000002,2.3046827384,0.26179932,0.98644211,-4.46090339,,,
imu,415.147041,-0.8499751288000001,-9.688280901600002,2.296906752,0.20946095,1.07616503,-4.057150249999999,,,
imu,415.155503,-0.8762938520000002,-9.673925234400002,2.2873363072,0.10478421,1.18831868,-3.60853565,,,
imu,415.163966,-0.8978273528000001,-9.655980650400002,2.2837473904,0.21693786,1.40514907,-3.13749032,,,
imu,415.172428,-0.8840698384000001,-9.6637566368,2.2681954176,0.28423005,1.38271834,-2.83841392,,,
imu,415.18089,-0.8709104768000001,-9.651793580800001,2.2628120424,0.3216146,1.47244126,-2.89075229,,,
imu,415.189352,-0.8649289488,-9.6218859408,2.2652046536,0.53844499,1.59207182,-2.98047521,,,
imu,415.197815,-0.8691160184000001,-9.623082246400001,2.2658028064,0.80013684,1.56216418,-3.24216706,,,
imu,415.206277,-0.8607418792,-9.633848996800001,2.2622138896,0.7702292,1.63693328,-3.63096638,,,
imu,415.214739,-0.8571529624000002,-9.627867468800002,2.2664009592,0.9646288599999999,1.69674856,-3.73564312,,,
imu,415.223202,-0.8451899064,-9.620091482400001,2.2658028064,1.03939796,1.73413311,-3.95247351,,,
imu,415.231664,-0.8284416280000001,-9.599156134400001,2.2664009592,1.0693056,1.75656384,-4.22164227,,,
imu,415.240126,-0.8093007384,-9.599754287200001,2.2723824872,1.13659779,1.83133294,-4.16182699,,,
imu,415.248588,-0.8206656416,-9.5985579816,2.2765695568,1.18893616,1.79394839,-4.07210407,,,
imu,415.257051,-0.8194693360000002,-9.619493329600001,2.2681954176,1.12164397,1.56964109,-4.10948862,,,
imu,415.265513,-0.8206656416,-9.637437913600001,2.2777658624,1.1440747,1.42010289,-4.18425772,,,
imu,415.273975,-0.8176748776000001,-9.651195428000001,2.2861400016,1.15902852,1.29299542,-4.079580979999999,,,
imu,415.282437,-0.8260490168000001,-9.6637566368,2.2861400016,1.12912088,1.12102649,-4.06462716,,,
imu,415.2909,-0.8410028368000001,-9.6876827488,2.2981030576,1.1440747,0.8817653699999997,-4.07210407,,,
imu,415.299362,-0.8523677400000002,-9.688879054400001,2.30288828,1.17398234,0.8219500899999996,-3.93004278,,,
imu,415.307824,-0.8559566568000001,-9.713403319200001,2.3172439472,0.9197674,0.6724118899999998,-3.80293531,,,
imu,415.316287,-0.8715086296000001,-9.717590388800001,2.3256180864,0.80761375,0.76213481,-3.60105874,,,
imu,415.32511,-0.8739012408000001,-9.724170069600001,2.3244217808,0.77770611,0.8593346399999997,-3.37675144,,,
imu,415.333934,-0.8924439776000002,-9.699047652,2.3178421,0.55339881,0.9415806499999997,-3.38422835,,,
imu,415.342757,-0.8894532136000001,-9.683495679200002,2.3160476416,0.35899915,1.2032725,-3.38422835,,,
imu,415.351581,-0.8966310472000002,-9.703832874400002,2.3220291696,0.3739529699999999,1.46496435,-3.33188998,,,
imu,415.360404,-0.8936402832000001,-9.675121540000001,2.321431016800001,0.34404533,1.62945637,-3.39918217,,,
imu,415.369363,-0.8804809216,-9.633250844,2.3124587248,0.26179932,1.96591732,-3.39918217,,,
imu,415.378186,-0.8948365888000002,-9.627867468800002,2.3256180864,0.26179932,2.1752708,-3.42908981,,,
imu,415.38701,-0.8888550608000001,-9.673925234400002,2.3465534344,0.49358353,2.27994754,-3.66087402,,,
imu,415.395833,-0.8463862120000001,-9.686486443200002,2.323823628,0.46367589,2.29490136,-3.85527368,,,
imu,415.404657,-0.8170767248000002,-9.634447149600001,2.33279592,0.18703022,2.33976282,-4.13939626,,,
imu,415.41348,-0.8356194616000001,-9.625474857600002,2.3405719064,0.14964567,2.40705501,-4.16182699,,,
imu,415.422304,-0.8475825176000001,-9.630260080000001,2.341768212,0.25432241,2.33976282,-3.81788913,,,
imu,415.431127,-0.8320305448000002,-9.638634219200002,2.3339922256,0.40386061,2.31733209,-3.46647436,,,
imu,415.439951,-0.8027210576,-9.620091482400001,2.341768212,0.5010604399999999,2.37714737,-3.17487487,,,
imu,415.448775,-0.8033192104000001,-9.596165370400001,2.3381792952,0.58330645,2.30237827,-2.83093701,,,
imu,415.457598,-0.8152822664000001,-9.609324732000001,2.3441608232,0.67302937,2.19770153,-2.85336774,,,
imu,415.466422,-0.8134878080000001,-9.6218859408,2.3363848368,0.7552753799999999,2.12293243,-3.03281358,,,
imu,415.475245,-0.8302360864000001,-9.634447149600001,2.3333940728,1.08425942,2.14536316,-3.06272122,,,
imu,415.484069,-0.8266471696000001,-9.634447149600001,2.3411700592,1.18893616,2.18274771,-3.16739796,,,
imu,415.492892,-0.8158804192000001,-9.6284656216,2.3274125448,1.27118217,2.13788625,-3.29450543,,,
imu,415.501716,-0.8170767248000002,-9.612315496,2.3262162392,1.13659779,2.16031698,-3.50385891,,,
imu,414.089776,,,,,,,73.6704412,-2.142394000000003,0.531027999999989
imu,414.191308,,,,,,,72.95021639999999,-1.849421200000023,0.2258479999999952
imu,414.292901,,,,,,,73.48733320000001,-1.825006800000017,-0.3600976000000089
imu,414.394525,,,,,,,73.2187748,-1.873835600000007,0.824000799999991
imu,414.496026,,,,,,,75.5991788,-2.64288920000002,-1.116944000000009
imu,414.597589,,,,,,,73.27981079999999,-1.995907600000013,0.5920639999999922
imu,414.699121,,,,,,,75.8433228,-2.78937560000001,-2.056898400000007
imu,414.800897,,,,,,,73.5849908,-1.617484400000002,0.1281903999999945
imu,415.510539,-0.8063099744000001,-9.609922884800001,2.326814392,1.11416706,2.1005017,-3.63096638,,,
imu,415.519363,-0.8063099744000001,-9.603343204000002,2.3172439472,1.27865908,2.13040934,-3.69078166,,,
imu,415.527838,-0.8051136688,-9.609922884800001,2.3106642664,1.42819728,2.1752708,-3.75807385,,,
imu,415.536313,-0.7895616960000001,-9.623680399200001,2.3064771968,1.48801256,2.00330187,-3.77302767,,,
imu,415.544788,-0.8015247520000001,-9.641026830400001,2.3064771968,1.5179202,2.03320951,-3.84779677,,,
imu,415.553263,-0.7991321408000002,-9.641026830400001,2.321431016800001,1.54782784,1.81637912,-3.91508896,,,
imu,415.561738,-0.7991321408000002,-9.6499991224,2.3160476416,1.62259694,1.80890221,-3.87770441,,,
imu,415.570213,-0.8009265992000001,-9.682897526400001,2.3226273224,1.67493531,1.65936401,-3.81788913,,,
imu,415.578688,-0.8051136688,-9.692467971200001,2.3202347112,1.5926893,1.46496435,-3.76555076,,,
imu,415.587163,-0.8128896552000001,-9.702636568800001,2.3160476416,1.45810492,1.39019525,-3.73564312,,,
imu,415.595638,-0.8326286976000001,-9.7056273328,2.321431016800001,1.31604363,1.32290306,-3.68330475,,,
imu,415.604113,-0.8427972952,-9.690075360000002,2.305879044,1.16650543,1.23318014,-3.78050458,,,
imu,415.612588,-0.8583492680000002,-9.685290137600001,2.3034864328,1.02444414,1.32290306,-3.68330475,,,
imu,415.621063,-0.8649289488,-9.673925234400002,2.2992993632,1.02444414,1.3528107,-3.67582784,,,
imu,415.629538,-0.8804809216,-9.6745233872,2.3172439472,0.8973366700000001,1.47244126,-3.6459202,,,
imu,415.638013,-0.8762938520000002,-9.667943706400001,2.307673502400001,0.94219813,1.77899457,-3.45152054,,,
imu,415.646488,-0.8786864632000002,-9.654784344800001,2.3016919744,0.97958268,1.90610204,-3.40665908,,,
imu,415.654963,-0.8744993936000002,-9.633848996800001,2.2963085992,0.91229049,2.14536316,-3.4216129,,,
imu,415.663438,-0.8744993936000002,-9.6260730104,2.3004956688,0.97958268,2.36219355,-3.35432071,,,
imu,415.671913,-0.8715086296000001,-9.6290637744,2.293915988,1.0693056,2.324809,-3.50385891,,,
imu,415.680388,-0.8619381848000001,-9.609324732000001,2.2933178352,1.12912088,2.37714737,-3.52628964,,,
imu,415.688863,-0.8493769760000001,-9.5907819952,2.290327071200001,1.33847436,2.39210119,-3.55619728,,,
imu,415.697338,-0.8386102256000002,-9.600352440000002,2.2783640152,1.51044329,2.46687029,-3.53376655,,,
imu,415.705813,-0.8254508640000001,-9.5907819952,2.2861400016,1.71979677,2.48182411,-3.60853565,,,
imu,415.714288,-0.8224601,-9.6051376624,2.281952932,1.84690424,2.40705501,-3.72816621,,,
imu,415.722763,-0.8236564056000001,-9.625474857600002,2.2658028064,2.01887317,2.38462428,-3.69825857,,,
imu,415.731222,-0.8182730304000002,-9.6326526912,2.281952932,2.10111918,2.22013226,-3.78050458,,,
imu,415.739682,-0.8134878080000001,-9.633250844,2.2604194312,2.22822665,2.16031698,-3.75059694,,,
imu,415.748142,-0.8242545584000001,-9.648802816800002,2.278962168,2.4151494,2.07059406,-3.62348947,,,
imu,415.756602,-0.8182730304000002,-9.656578803200002,2.2711861816,2.44505704,1.78647148,-3.52628964,,,
imu,415.765061,-0.8182730304000002,-9.679308609600001,2.2783640152,2.54973378,1.8014253,-3.56367419,,,
imu,415.773521,-0.8350213088000001,-9.678710456800001,2.281952932,2.46748777,1.80890221,-3.46647436,,,
imu,415.781981,-0.8350213088000001,-9.678710456800001,2.2705880288,2.31047266,1.59954873,-3.57862801,,,
imu,415.790441,-0.8445917536,-9.672728928800002,2.2652046536,2.14598064,1.577118,-3.66835093,,,
imu,415.7989,-0.8487788232000001,-9.679308609600001,2.27298064,2.18336519,1.62197946,-3.58610492,,,
imu,415.80736,-0.8499751288000001,-9.6876827488,2.264008348,1.9665348,1.56216418,-3.51133582,,,
imu,415.81582,-0.8511714344000001,-9.697253193600002,2.2586249728,1.94410407,1.73413311,-3.4216129,,,
imu,415.824279,-0.8433954480000001,-9.6846919848,2.2508489864,1.91419643,1.92105586,-3.33936689,,,
imu,415.832739,-0.8481806704000001,-9.6799067624,2.2556342088,1.83942733,2.0257326,-3.3468438,,,
imu,415.841199,-0.8416009896000001,-9.6912716656,2.2628120424,1.55530475,2.06311715,-3.33936689,,,
imu,415.849659,-0.8272453224,-9.676317845600002,2.2693917232,1.52539711,2.15284007,-3.33188998,,,
imu,415.858118,-0.8134878080000001,-9.709814402400001,2.2783640152,1.39081273,2.14536316,-3.33188998,,,
imu,415.866578,-0.7931506128000001,-9.7301515976,2.27298064,1.23379762,2.30237827,-3.15244414,,,
imu,415.875038,-0.7799912512000001,-9.724170069600001,2.27298064,1.03939796,2.30237827,-3.07767504,,,
imu,415.883498,-0.7722152648000001,-9.6745233872,2.27298064,0.9048135799999999,2.28742445,-3.00290594,,,
imu,415.891957,-0.7841783208,-9.656578803200002,2.2592231256,0.8375213899999999,2.27994754,-2.98047521,,,
imu,415.900417,-0.7668318896,-9.634447149600001,2.2394840832,0.7104139199999999,1.97339423,-3.09262886,,,
imu,415.908877,-0.7662337368000001,-9.617698871200002,2.2628120424,1.04687487,1.83133294,-3.32441307,,,
imu,415.917336,-0.7728134176000001,-9.620091482400001,2.278962168,1.19641307,1.8014253,-3.45152054,,,
imu,415.925796,-0.7889635432000001,-9.66016772,2.281952932,1.368382,1.577118,-3.52628964,,,
imu,415.934261,-0.7961413768000002,-9.6984494992,2.286738154400001,1.368382,1.52477963,-3.76555076,,,
imu,415.942726,-0.7895616960000001,-9.702636568800001,2.2915233768,1.10669015,1.55468727,-3.76555076,,,
imu,415.951191,-0.7841783208,-9.688280901600002,2.28793446,1.04687487,1.56216418,-3.65339711,,,
imu,415.959655,-0.7943469184000002,-9.6458120528,2.2765695568,1.18893616,1.53973345,-3.56367419,,,
imu,415.96812,-0.8051136688,-9.631456385600002,2.269989876,1.30108981,1.77151766,-3.21973633,,,
imu,415.976585,-0.8051136688,-9.6296619272,2.255036056,1.41324346,1.94348659,-2.8982292,,,
imu,415.98505,-0.7943469184000002,-9.631456385600002,2.246063764000001,1.68988913,1.99582496,-2.748691,,,
imu,415.993515,-0.771617112,-9.6296619272,2.2454656112,1.72727368,2.0257326,-2.72626027,,,
imu,416.001979,-0.7632429728000001,-9.630260080000001,2.2406803888,2.13102682,2.14536316,-2.88327538,,,
imu,416.010444,-0.7458965416000001,-9.635045302400002,2.2346988608,2.35533412,2.05564024,-3.09262886,,,
imu,416.018909,-0.7441020832,-9.6499991224,2.232306249600001,2.54225687,1.91357895,-3.43656672,,,
imu,416.027374,-0.7530743752000001,-9.6470083584,2.22811918,2.59459524,1.92853277,-3.7206893,,,
imu,416.035839,-0.7435039304000001,-9.652989886400002,2.2376896248,2.60207215,1.6518871,-3.98238115,,,
imu,416.044304,-0.7470928472,-9.684093832000002,2.2382877776,2.63197979,1.64441019,-4.10948862,,,
imu,416.052768,-0.7470928472,-9.693066124000001,2.2317080968,2.66188743,1.71917929,-4.19921154,,,
imu,416.061233,-0.7369242496000001,-9.686486443200002,2.2376896248,2.42262631,1.53225654,-4.28145755,,,
imu,416.069698,-0.7548688336000001,-9.6942624296,2.2329044024,2.36281103,1.39019525,-4.29641137,,,
imu,416.078163,-0.7746078760000001,-9.702636568800001,2.2412785416,2.13102682,1.17336486,-4.42351884,,,
imu,416.086628,-0.771617112,-9.711608860800002,2.222137652,1.95158098,1.04625739,-4.42351884,,,
imu,416.095092,-0.7883653904000001,-9.7217774584,2.2293154856,1.73475059,0.7995193599999997,-4.4683803,,,
imu,416.103557,-0.7961413768000002,-9.7163940832,2.2257265688,1.41324346,0.6574580699999997,-4.48333412,,,
imu,416.112022,-0.7919543072000002,-9.715795930400002,2.225128416,1.31604363,0.80699627,-4.22911918,,,
imu,416.120487,-0.8146841136000001,-9.711608860800002,2.246063764000001,1.12912088,0.7920424499999998,-4.146873169999999,,,
imu,416.128952,-0.8314323920000001,-9.711608860800002,2.2382877776,0.9048135799999999,0.6051196999999999,-4.034719519999999,,,
imu,416.137415,-0.8487788232000001,-9.711608860800002,2.225128416,0.71789083,0.64250425,-3.95995042,,,
imu,416.145879,-0.8571529624000002,-9.7086180968,2.2269228744,0.7552753799999999,0.7546578999999998,-3.87770441,,,
imu,416.154342,-0.8577511152000001,-9.6745233872,2.240082236,0.6281679099999999,0.84438082,-3.84779677,,,
imu,416.162806,-0.8715086296000001,-9.662560331200002,2.228717332800001,0.5982602699999999,1.04625739,-3.67582784,,,
imu,416.171269,-0.8756956992000001,-9.656578803200002,2.225128416,0.63564482,1.14345722,-3.72816621,,,
imu,416.179733,-0.8571529624000002,-9.660765872800003,2.2209413464,0.8375213899999999,1.51730272,-3.61601256,,,
imu,416.188196,-0.8774901576000002,-9.6470083584,2.2352970136,0.91229049,1.65936401,-3.60853565,,,
imu,416.19666,-0.8643307960000001,-9.671532623200001,2.2652046536,1.01696723,1.9509635,-3.7206893,,,
imu,416.205124,-0.8278434752000001,-9.694860582400002,2.237091472,1.00949032,2.00330187,-3.96742733,,,
imu,416.213587,-0.8122915024000001,-9.657775108800001,2.2394840832,0.8973366700000001,1.98834805,-4.23659609,,,
imu,416.222051,-0.8194693360000002,-9.621287788000002,2.2508489864,0.9048135799999999,2.01825569,-4.26650373,,,
imu,416.230514,-0.8260490168000001,-9.6326526912,2.2586249728,0.91229049,2.05564024,-4.06462716,,,
imu,416.238978,-0.8296379336000002,-9.667345553600002,2.255036056,1.06182869,1.90610204,-3.76555076,,,
imu,416.247441,-0.8009265992000001,-9.675719692800001,2.2544379032,1.11416706,2.01077878,-3.43656672,,,
imu,416.255905,-0.7847764736,-9.6637566368,2.249054528,1.03192105,1.95844041,-3.25712088,,,
imu,416.264368,-0.7877672376000001,-9.6667474008,2.2568305144,1.17398234,1.80890221,-3.05524431,,,
imu,416.272832,-0.8003284464,-9.664952942400001,2.2472600696,1.16650543,1.59207182,-3.15244414,,,
imu,416.281295,-0.8087025856000001,-9.664952942400001,2.2664009592,1.24875144,1.51730272,-3.24216706,,,
imu,416.289759,-0.8081044328000001,-9.679308609600001,2.2687935704,1.20388998,1.43505671,-3.27955161,,,
imu,416.298223,-0.8051136688,-9.671532623200001,2.2568305144,1.09173633,1.36776452,-3.33188998,,,
imu,416.306686,-0.8200674888,-9.647606511200001,2.2466619168,1.06182869,1.36776452,-3.40665908,,,
imu,416.31515,-0.8104970440000001,-9.639830524800002,2.252045292,1.10669015,1.33037997,-3.45899745,,,
imu,414.902276,,,,,,,73.41409000000002,-1.556448400000021,-2.16676320000001
imu,415.003869,,,,,,,72.986838,-1.385547600000003,0.604271199999995
imu,415.105401,,,,,,,73.6338196,-0.7629804000000018,0.2014335999999894
imu,415.206933,,,,,,,73.41409000000002,-1.287890000000003,-0.006088800000003669
imu,415.308526,,,,,,,73.3286396,-1.263475600000019,0.311298399999993
imu,415.410089,,,,,,,73.6338196,-1.60527720000001,-0.6774848000000055
imu,415.511651,,,,,,,73.4995404,-1.544241200000007,0.1770191999999948
imu,415.613214,,,,,,,75.70904359999999,-2.337709200000004,-0.9216288000000072
imu,416.323613,-0.8200674888,-9.638634219200002,2.2424748472,1.17398234,1.42010289,-3.48890509,,,
imu,416.332077,-0.8176748776000001,-9.6434194416,2.2436711528,1.31604363,1.43505671,-3.61601256,,,
imu,416.340895,-0.8194693360000002,-9.6494009696,2.2478582224,1.48801256,1.65936401,-3.45899745,,,
imu,416.349713,-0.8146841136000001,-9.6703363176,2.2346988608,1.45062801,1.70422547,-3.44404363,,,
imu,416.358531,-0.8098988912000001,-9.671532623200001,2.255036056,1.54782784,1.61450255,-3.42908981,,,
imu,416.36735,-0.8027210576,-9.6703363176,2.2412785416,1.60764312,1.62945637,-3.39918217,,,
imu,416.376168,-0.7955432240000001,-9.6775141512,2.2454656112,1.46558183,1.69674856,-3.36927453,,,
imu,416.384986,-0.7997302936000001,-9.681103068,2.2508489864,1.40576655,1.65936401,-3.27955161,,,
imu,416.393804,-0.7955432240000001,-9.687084596000002,2.2484563752,1.24875144,1.74161002,-3.18982869,,,
imu,416.402623,-0.7979358352000001,-9.6703363176,2.2358951664,1.34595127,1.73413311,-3.18982869,,,
imu,416.411441,-0.7979358352000001,-9.662560331200002,2.2346988608,1.28613599,1.63693328,-3.26459779,,,
imu,416.420259,-0.8015247520000001,-9.655382497600002,2.2275210272,1.368382,1.74161002,-3.24216706,,,
imu,416.429077,-0.8087025856000001,-9.666149248000002,2.2299136384,1.4431511,1.89862513,-3.21225942,,,
imu,416.437896,-0.7961413768000002,-9.676915998400002,2.2305117912,1.48053565,1.88367131,-3.18982869,,,
imu,416.446714,-0.7871690848,-9.675719692800001,2.222735804800001,1.52539711,1.95844041,-3.29450543,,,
imu,416.455532,-0.7895616960000001,-9.667943706400001,2.222137652,1.56278166,2.07059406,-3.27955161,,,
imu,416.464301,-0.7877672376000001,-9.666149248000002,2.22811918,1.4431511,2.08554788,-3.496382,,,
imu,416.473119,-0.7841783208,-9.6709344704,2.2185487352,1.42819728,2.16031698,-3.51881273,,,
imu,416.481938,-0.7698226536000001,-9.680504915200002,2.2155579712,1.45062801,2.15284007,-3.58610492,,,
imu,416.490756,-0.7692245008,-9.689477207200001,2.2155579712,1.38333582,2.15284007,-3.74312003,,,
imu,416.499574,-0.7692245008,-9.675121540000001,2.222735804800001,1.41324346,2.05564024,-3.85527368,,,
imu,416.508392,-0.7698226536000001,-9.676915998400002,2.2197450408,1.4431511,1.86871749,-3.9449966,,,
imu,416.517211,-0.7686263480000001,-9.686486443200002,2.2137635128,1.33099745,1.78647148,-3.93751969,,,
imu,416.526029,-0.7578595976000001,-9.678710456800001,2.207183832,1.45810492,1.80890221,-3.97490424,,,
imu,416.534847,-0.7638411256000001,-9.668541859200001,2.205389373600001,1.4431511,1.8014253,-3.91508896,,,
imu,416.543353,-0.7692245008,-9.675719692800001,2.2083801376,1.53287402,1.69674856,-3.95247351,,,
imu,416.551858,-0.7656355840000001,-9.675719692800001,2.2023986096,1.54782784,1.64441019,-3.99733497,,,
imu,416.560364,-0.7590559032000002,-9.679308609600001,2.2077819848,1.46558183,1.5023489,-4.00481188,,,
imu,416.568869,-0.7817857096,-9.696655040800001,2.207183832,1.53287402,1.42010289,-4.00481188,,,
imu,416.577375,-0.7811875568000001,-9.699645804800001,2.2143616656,1.37585891,1.49487199,-4.07210407,,,
imu,416.58588,-0.7919543072000002,-9.706225485600001,2.2269228744,1.26370526,1.37524143,-4.06462716,,,
imu,416.594386,-0.7979358352000001,-9.7151977776,2.216156124,1.32352054,1.21074941,-4.02724261,,,
imu,416.602891,-0.8051136688,-9.714599624800002,2.2233339576,1.18893616,1.2780416,-4.012288789999999,,,
imu,416.611397,-0.8224601,-9.7086180968,2.2209413464,0.8524752099999999,1.36028761,-3.95995042,,,
imu,416.619902,-0.8290397808000001,-9.688879054400001,2.2155579712,0.8375213899999999,1.31542615,-4.08705789,,,
imu,416.628408,-0.8326286976000001,-9.683495679200002,2.210174596,0.7702292,1.47244126,-4.012288789999999,,,
imu,416.636913,-0.8392083784000002,-9.673925234400002,2.201202304,0.82256757,1.59954873,-4.04219643,,,
imu,416.645419,-0.8439936008000001,-9.662560331200002,2.2035949152,0.65807555,1.81637912,-4.102011709999999,,,
imu,416.653924,-0.8451899064,-9.656578803200002,2.204193068,0.63564482,2.05564024,-4.04967334,,,
imu,416.66243,-0.8427972952,-9.668541859200001,2.201202304,0.80013684,2.30237827,-3.87770441,,,
imu,416.670935,-0.8242545584000001,-9.673925234400002,2.2047912208,0.7702292,2.46687029,-3.95247351,,,
imu,416.679441,-0.8039173632000001,-9.675719692800001,2.2083801376,0.8449983,2.58650085,-3.95995042,,,
imu,416.687946,-0.7883653904000001,-9.683495679200002,2.2119690544,0.8449983,2.66874686,-4.07210407,,,
imu,416.696452,-0.7674300424000001,-9.688879054400001,2.2388859304,0.73284465,2.71360832,-4.0945348,,,
imu,416.704957,-0.7662337368000001,-9.692467971200001,2.2472600696,0.50853735,2.6238854,-4.07210407,,,
imu,416.713463,-0.7470928472,-9.728955292000002,2.261017584,0.57582954,2.33228591,-4.22911918,,,
imu,416.721968,-0.7231667352000001,-9.7151977776,2.2424748472,0.3739529699999999,2.20517844,-4.16182699,,,
imu,416.730474,-0.7106055264000001,-9.683495679200002,2.2394840832,0.1720764,1.98834805,-3.98985806,,,
imu,416.738979,-0.726755652,-9.6745233872,2.2472600696,0.07487657,1.71170238,-3.76555076,,,
imu,416.747458,-0.7291482632,-9.657775108800001,2.228717332800001,0.20198404,1.43505671,-3.78798149,,,
imu,416.755937,-0.7369242496000001,-9.630858232800001,2.2269228744,0.17955331,1.12102649,-3.93004278,,,
imu,416.764416,-0.7602522088000001,-9.618297024,2.2466619168,0.22441477,0.8369039099999998,-4.04219643,,,
imu,416.772894,-0.7865709320000001,-9.639232372,2.2628120424,0.38142988,0.4929660499999997,-4.13191935,,,
imu,416.781373,-0.8093007384,-9.703234721600001,2.2681954176,0.6954601,0.3434278499999999,-4.20668845,,,
imu,416.789852,-0.8230582528,-9.735534972800002,2.2873363072,0.49358353,0.3209971199999999,-4.29641137,,,
imu,416.798331,-0.8332268504000001,-9.694860582400002,2.290327071200001,0.28423005,0.3808123999999999,-4.29641137,,,
imu,416.80681,-0.8523677400000002,-9.66016772,2.2933178352,0.16459949,0.5677351499999999,-4.19921154,,,
imu,416.815288,-0.8750975464000001,-9.658373261600001,2.2861400016,0.08983038999999998,0.7172733499999997,-3.75807385,,,
imu,416.823767,-0.8870606024000001,-9.6523917336,2.2825510848,0.2468455,1.19579559,-3.13749032,,,
imu,416.832246,-0.8810790744000001,-9.641026830400001,2.2574286672,0.3216146,1.4275798,-2.87579847,,,
imu,416.840725,-0.8649289488,-9.613511801600001,2.2502508336,0.4711528,1.83880985,-2.80102937,,,
imu,416.849204,-0.8655271016000001,-9.591380148,2.2568305144,0.79265993,2.23508608,-2.77859864,,,
imu,416.857682,-0.840404684,-9.594370912,2.2675972648,0.91229049,2.4743472,-3.09262886,,,
imu,416.866161,-0.8266471696000001,-9.596763523200002,2.252045292,1.23379762,2.75846978,-3.32441307,,,
imu,416.87464,-0.8081044328000001,-9.608128426400002,2.2544379032,1.30856672,2.90800798,-3.63096638,,,
imu,416.883119,-0.7865709320000001,-9.6039413568,2.2466619168,1.48801256,2.93043871,-3.90761205,,,
imu,416.891598,-0.7674300424000001,-9.609922884800001,2.2592231256,1.67493531,2.98277708,-3.98238115,,,
imu,416.900076,-0.7339334856000002,-9.635643455200002,2.252045292,1.78708896,2.83323888,-4.012288789999999,,,
imu,416.908555,-0.7225685824,-9.6494009696,2.2592231256,1.84690424,2.64631613,-4.07210407,,,
imu,416.917034,-0.7201759712000001,-9.6505972752,2.2598212784,1.83195042,2.41453192,-3.95247351,,,
imu,416.925513,-0.7147925960000001,-9.6637566368,2.2687935704,1.68988913,2.12293243,-4.04967334,,,
imu,416.933992,-0.7165870544000001,-9.672130776000001,2.2646065008,1.86933497,1.67431783,-4.034719519999999,,,
imu,416.94247,-0.7321390272000001,-9.687084596000002,2.2646065008,1.77213514,1.28551851,-3.9449966,,,
imu,416.950882,-0.7375224024000001,-9.690075360000002,2.263410195200001,1.72727368,0.8144731799999998,-3.95995042,,,
imu,416.959294,-0.7680281952000001,-9.692467971200001,2.2628120424,1.64502767,0.5677351499999999,-3.95995042,,,
imu,416.967706,-0.7847764736,-9.7008421104,2.2658028064,1.60016621,0.2686587499999997,-3.9449966,,,
imu,416.976118,-0.804515516,-9.699645804800001,2.2586249728,1.48053565,0.09668981999999993,-3.90761205,,,
imu,416.98453,-0.8194693360000002,-9.706225485600001,2.2687935704,1.33099745,0.09668981999999993,-3.75807385,,,
imu,416.992942,-0.8487788232000001,-9.6876827488,2.2622138896,1.39828964,0.02192071999999978,-3.7954584,,,
imu,417.001353,-0.8547603512000002,-9.6745233872,2.2568305144,1.15155161,0.1041667299999998,-3.5711511,,,
imu,417.009765,-0.8756956992000001,-9.6709344704,2.2502508336,1.06182869,0.27613566,-3.66835093,,,
imu,417.018177,-0.88227538,-9.675121540000001,2.2424748472,1.15902852,0.5153967799999997,-3.71321239,,,
imu,417.026589,-0.88227538,-9.6703363176,2.240082236,1.32352054,0.94905756,-3.81041222,,,
imu,417.035001,-0.8739012408000001,-9.654186192000001,2.2346988608,1.30856672,1.18084177,-3.82536604,,,
imu,417.043413,-0.8721067824000002,-9.635643455200002,2.2604194312,1.17398234,1.53973345,-3.73564312,,,
imu,417.051825,-0.8589474208000002,-9.678710456800001,2.2574286672,1.43567419,1.71917929,-3.82536604,,,
imu,417.060236,-0.8308342392000001,-9.689477207200001,2.2388859304,1.45062801,1.92853277,-3.92256587,,,
imu,417.068648,-0.8003284464,-9.648204664000001,2.2442693056,1.31604363,2.00330187,-4.034719519999999,,,
imu,417.07706,-0.8057118216000001,-9.621287788000002,2.2472600696,1.26370526,2.07807097,-4.0945348,,,
imu,417.085472,-0.8248527112,-9.635045302400002,2.2406803888,1.24127453,2.13788625,-3.81041222,,,
imu,417.093884,-0.7997302936000001,-9.669738164800002,2.2293154856,1.42819728,2.16031698,-3.48890509,,,
imu,417.102296,-0.7799912512000001,-9.662560331200002,2.2305117912,1.37585891,2.0257326,-3.4216129,,,
imu,417.110708,-0.7674300424000001,-9.6494009696,2.2466619168,1.30856672,2.01077878,-3.29450543,,,
imu,417.119119,-0.7728134176000001,-9.661962178400001,2.2388859304,1.60764312,1.92853277,-3.20478251,,,
imu,417.127531,-0.7823838624,-9.6709344704,2.2245302632,1.58521239,1.63693328,-3.496382,,,
imu,417.135943,-0.7823838624,-9.666149248000002,2.231109944,1.60016621,1.54721036,-3.61601256,,,
imu,415.714715,,,,,,,73.230982,-1.470998000000012,0.6408927999999925
imu,415.816247,,,,,,,75.5991788,-2.679510800000018,-2.520772000000004
imu,415.917809,,,,,,,73.37746839999998,-1.93487160000001,-0.2502328000000054
imu,416.019494,,,,,,,73.13332439999999,-1.617484400000002,-3.131132000000003
imu,416.120934,,,,,,,73.3896756,-1.373340400000012,-0.1281608000000101
imu,416.222558,,,,,,,73.4995404,-1.666313200000014,-0.2258184000000107
imu,416.32412,,,,,,,73.2676036,-1.275682800000011,0.4944063999999915
imu,416.425622,,,,,,,72.77931559999999,-1.470998000000012,0.4211631999999965
imu,417.144355,-0.7853746264000001,-9.6709344704,2.2269228744,1.70484295,1.43505671,-3.68330475,,,
imu,417.152767,-0.7907580016000001,-9.669140012000002,2.2137635128,1.55530475,1.25561087,-3.58610492,,,
imu,417.161229,-0.7943469184000002,-9.669140012000002,2.219146888,1.76465823,1.36776452,-3.55619728,,,
imu,417.169691,-0.7889635432000001,-9.6846919848,2.2083801376,1.9665348,1.42010289,-3.56367419,,,
imu,417.178154,-0.8021229048,-9.656578803200002,2.2113709016,1.85438115,1.36028761,-3.58610492,,,
imu,417.186616,-0.8081044328000001,-9.655980650400002,2.2018004568,1.72727368,1.29299542,-3.66087402,,,
imu,417.195078,-0.8134878080000001,-9.673925234400002,2.201202304,1.83942733,1.26308778,-3.81788913,,,
imu,417.203541,-0.7961413768000002,-9.696056888000001,2.205389373600001,1.82447351,1.30794924,-3.81788913,,,
imu,417.212003,-0.7997302936000001,-9.703832874400002,2.2095764432,1.77213514,1.42010289,-3.81788913,,,
imu,417.220465,-0.8104970440000001,-9.708019944000002,2.2119690544,1.57025857,1.62945637,-3.80293531,,,
imu,417.228927,-0.8069081272,-9.708019944000002,2.2119690544,1.53287402,1.54721036,-3.77302767,,,
imu,417.23739,-0.7961413768000002,-9.718188541600002,2.2077819848,1.25622835,1.46496435,-3.78050458,,,
imu,417.245852,-0.7859727792000001,-9.714599624800002,2.2083801376,1.15902852,1.41262598,-3.67582784,,,
imu,417.254314,-0.7817857096,-9.711010708000002,2.2119690544,1.08425942,1.53973345,-3.80293531,,,
imu,417.262776,-0.7865709320000001,-9.706225485600001,2.2083801376,1.01696723,1.55468727,-3.8702275,,,
imu,417.271239,-0.7758041816000001,-9.693664276800002,2.21316536,0.81509066,1.53973345,-3.73564312,,,
imu,417.279701,-0.7811875568000001,-9.6876827488,2.2113709016,0.7702292,1.43505671,-3.69825857,,,
imu,417.288163,-0.7871690848,-9.676317845600002,2.2035949152,0.7552753799999999,1.50982581,-3.85527368,,,
imu,417.296626,-0.7871690848,-9.6709344704,2.2077819848,0.58330645,1.39767216,-3.95247351,,,
imu,417.305088,-0.7752060288000001,-9.661364025600001,2.2065856792,0.65807555,1.4275798,-3.95995042,,,
imu,417.31355,-0.7853746264000001,-9.672130776000001,2.210174596,0.8674290299999999,1.33785688,-4.0197657,,,
imu,417.322012,-0.7853746264000001,-9.6733270816,2.2239321104,0.68050628,1.14345722,-4.012288789999999,,,
imu,417.330475,-0.7841783208,-9.6703363176,2.2239321104,0.7104139199999999,1.19579559,-4.00481188,,,
imu,417.338937,-0.7883653904000001,-9.6745233872,2.2275210272,0.76275229,1.2032725,-4.057150249999999,,,
imu,417.347399,-0.8075062800000001,-9.667345553600002,2.2143616656,0.71789083,1.14345722,-4.23659609,,,
imu,417.355861,-0.8051136688,-9.668541859200001,2.2173524296,0.78518302,1.2032725,-4.124442439999999,,,
imu,417.364664,-0.7967395296000002,-9.659569567200002,2.2185487352,0.6954601,1.1285034,-4.13939626,,,
imu,417.373466,-0.8122915024000001,-9.669738164800002,2.222735804800001,0.58330645,1.09859576,-4.32631901,,,
imu,417.382268,-0.8075062800000001,-9.663158484000002,2.219146888,0.71789083,1.08364194,-4.22164227,,,
imu,417.391071,-0.8152822664000001,-9.664952942400001,2.210174596,0.78518302,1.09111885,-4.169303899999999,,,
imu,417.399873,-0.8326286976000001,-9.669140012000002,2.2179505824,0.85995212,1.13598031,-4.079580979999999,,,
imu,417.408675,-0.8374139200000001,-9.6733270816,2.222735804800001,0.97958268,1.1285034,-4.10948862,,,
imu,417.417478,-0.8344231560000002,-9.683495679200002,2.228717332800001,0.94967504,1.1285034,-4.13939626,,,
imu,417.42628,-0.8344231560000002,-9.699645804800001,2.2436711528,0.94219813,1.28551851,-4.0945348,,,
imu,417.435082,-0.8445917536,-9.689477207200001,2.2352970136,0.71789083,1.15093413,-4.07210407,,,
imu,417.443885,-0.8529658928000001,-9.6745233872,2.228717332800001,0.620691,1.24813396,-4.012288789999999,,,
imu,417.452687,-0.8523677400000002,-9.684093832000002,2.2293154856,0.41881443,1.21822632,-4.102011709999999,,,
imu,417.461489,-0.8457880592000001,-9.680504915200002,2.228717332800001,0.46367589,1.45748744,-4.04219643,,,
imu,417.470292,-0.8433954480000001,-9.6918698184,2.2269228744,0.32909151,1.51730272,-4.012288789999999,,,
imu,417.479094,-0.8362176144000002,-9.692467971200001,2.243073,0.34404533,1.62945637,-3.98985806,,,
imu,417.487896,-0.8398065312,-9.6817012208,2.2329044024,0.31413769,1.68927165,-3.98985806,,,
imu,417.496699,-0.8350213088000001,-9.672130776000001,2.2317080968,0.13469185,1.76404075,-3.89265823,,,
imu,417.505501,-0.8194693360000002,-9.667943706400001,2.2436711528,0.05992275,1.8014253,-3.73564312,,,
imu,417.514303,-0.8266471696000001,-9.669738164800002,2.246063764000001,0.15712258,1.79394839,-3.59358183,,,
imu,417.523106,-0.8314323920000001,-9.6667474008,2.264008348,-0.06718472,1.75656384,-3.65339711,,,
imu,417.531908,-0.8230582528,-9.663158484000002,2.2586249728,-0.02980017,1.83880985,-3.72816621,,,
imu,417.54071,-0.8039173632000001,-9.676915998400002,2.2586249728,-0.08961545,1.68179474,-3.58610492,,,
imu,417.549513,-0.8033192104000001,-9.659569567200002,2.2592231256,-0.11952309,1.53973345,-3.51133582,,,
imu,417.558264,-0.8027210576,-9.6428212888,2.25802682,-0.02232326000000001,1.62197946,-3.60105874,,,
imu,417.56674,-0.8081044328000001,-9.651793580800001,2.252045292,0.25432241,1.55468727,-3.45899745,,,
imu,417.575217,-0.8021229048,-9.633848996800001,2.2652046536,0.27675314,1.59207182,-3.29450543,,,
imu,417.583693,-0.7991321408000002,-9.6470083584,2.2532415976,0.45619898,1.53973345,-3.24964397,,,
imu,417.592169,-0.8116933496000001,-9.647606511200001,2.2574286672,0.49358353,1.44253362,-3.32441307,,,
imu,417.600646,-0.8164785720000002,-9.623082246400001,2.2574286672,0.53844499,1.49487199,-3.37675144,,,
imu,417.609122,-0.8236564056000001,-9.608128426400002,2.2574286672,0.60573718,1.46496435,-3.44404363,,,
imu,417.617598,-0.8260490168000001,-9.635643455200002,2.2675972648,0.91229049,1.60702564,-3.61601256,,,
imu,417.626074,-0.8290397808000001,-9.667345553600002,2.269989876,0.88985976,1.77899457,-3.69825857,,,
imu,417.634551,-0.8152822664000001,-9.678710456800001,2.2616157368,1.15155161,1.92853277,-3.6459202,,,
imu,417.643027,-0.8087025856000001,-9.66016772,2.2568305144,1.07678251,2.03320951,-3.59358183,,,
imu,417.651503,-0.8015247520000001,-9.646410205600002,2.2658028064,1.09173633,2.00330187,-3.41413599,,,
imu,417.659979,-0.7973376824000001,-9.636839760800001,2.2628120424,1.20388998,2.04068642,-3.52628964,,,
imu,417.668456,-0.7817857096,-9.635045302400002,2.2478582224,1.37585891,1.99582496,-3.65339711,,,
imu,417.676932,-0.7704208064000001,-9.621287788000002,2.2646065008,1.38333582,1.76404075,-3.90761205,,,
imu,417.685408,-0.7764023344000002,-9.6494009696,2.2747750984,1.46558183,1.69674856,-3.96742733,,,
imu,417.693884,-0.7722152648000001,-9.697253193600002,2.278962168,1.38333582,1.38271834,-4.08705789,,,
imu,417.702361,-0.7740097232000002,-9.721179305600002,2.2843455432,1.18145925,1.30047233,-4.22164227,,,
imu,417.710837,-0.7752060288000001,-9.687084596000002,2.28793446,1.02444414,1.09111885,-4.22911918,,,
imu,417.719313,-0.7859727792000001,-9.660765872800003,2.2825510848,0.8375213899999999,0.94905756,-4.057150249999999,,,
imu,417.727789,-0.8027210576,-9.672130776000001,2.2765695568,1.00201341,1.08364194,-3.60853565,,,
imu,417.736266,-0.8075062800000001,-9.686486443200002,2.2681954176,1.07678251,1.1285034,-3.15992105,,,
imu,417.744742,-0.8188711832000002,-9.685290137600001,2.2466619168,0.94967504,0.9939190199999999,-2.92065993,,,
imu,417.753218,-0.8176748776000001,-9.652989886400002,2.2412785416,1.1440747,0.98644211,-2.84589083,,,
imu,417.761694,-0.8152822664000001,-9.641026830400001,2.2436711528,1.20388998,1.23318014,-2.87579847,,,
imu,417.770157,-0.8254508640000001,-9.636241608,2.234100708,1.38333582,1.1285034,-3.25712088,,,
imu,417.778619,-0.8350213088000001,-9.648204664000001,2.2209413464,1.42072037,1.21822632,-3.54872037,,,
imu,417.787081,-0.8362176144000002,-9.6470083584,2.2364933192,1.56278166,1.38271834,-3.7206893,,,
imu,417.795543,-0.8248527112,-9.646410205600002,2.2382877776,1.63755076,1.47991817,-4.02724261,,,
imu,417.804006,-0.8081044328000001,-9.672130776000001,2.240082236,1.82447351,1.54721036,-4.0945348,,,
imu,417.812468,-0.8057118216000001,-9.676317845600002,2.2394840832,1.68988913,1.74161002,-4.012288789999999,,,
imu,417.82093,-0.7925524600000001,-9.6709344704,2.2418766944,1.80951969,1.81637912,-3.99733497,,,
imu,417.829393,-0.7847764736,-9.671532623200001,2.246063764000001,1.64502767,1.74908693,-3.99733497,,,
imu,417.837855,-0.7722152648000001,-9.676915998400002,2.2376896248,1.48053565,1.59954873,-3.96742733,,,
imu,417.846317,-0.7853746264000001,-9.667943706400001,2.222735804800001,1.39828964,1.45748744,-3.7954584,,,
imu,417.854779,-0.7895616960000001,-9.651195428000001,2.231109944,1.32352054,1.30794924,-3.67582784,,,
imu,417.863242,-0.7847764736,-9.657176956,2.2335025552,1.27865908,1.36028761,-3.52628964,,,
imu,417.871704,-0.780589404,-9.680504915200002,2.2269228744,1.33099745,0.9565344699999998,-3.43656672,,,
imu,417.880166,-0.7847764736,-9.699047652,2.2424748472,1.18893616,0.9041961000000001,-3.37675144,,,
imu,417.888628,-0.8081044328000001,-9.6846919848,2.2436711528,1.06182869,0.78456554,-3.2720747,,,
imu,417.897091,-0.8057118216000001,-9.667943706400001,2.2382877776,1.0693056,0.7471809899999999,-3.03281358,,,
imu,417.905553,-0.8128896552000001,-9.6775141512,2.2448674584,1.08425942,0.8369039099999998,-3.04029049,,,
imu,417.914015,-0.8188711832000002,-9.688280901600002,2.243073,0.94219813,0.9041961000000001,-3.07019813,,,
imu,417.922478,-0.8081044328000001,-9.7074217912,2.2472600696,0.97958268,0.9565344699999998,-3.13001341,,,
imu,417.93094,-0.8110951968000001,-9.701440263200002,2.243073,1.03192105,1.18831868,-3.30945925,,,
imu,417.939402,-0.8200674888,-9.687084596000002,2.2412785416,0.97210577,1.28551851,-3.54872037,,,
imu,417.947864,-0.8104970440000001,-9.6709344704,2.2466619168,0.94219813,1.24065705,-3.87770441,,,
imu,417.956327,-0.8200674888,-9.6799067624,2.2646065008,0.88985976,1.45001053,-3.88518132,,,
imu,416.527215,,,,,,,73.169946,-1.336718800000014,0.5676495999999975
imu,416.628747,,,,,,,72.8159372,-1.45879080000002,-0.03050320000000939
imu,416.73034,,,,,,,75.6846292,-2.569646000000003,-0.03050320000000939
imu,416.831902,,,,,,,75.2085484,-2.264466000000009,-2.337664000000006
imu,416.933434,,,,,,,73.18215320000002,-1.45879080000002,0.4333703999999883
imu,417.035027,,,,,,,73.07228839999999,-2.349916400000018,-2.899195200000004
imu,417.144524,,,,,,,73.25539640000001,-1.251268400000005,0.6653071999999982
imu,417.246728,,,,,,,72.9013876,-1.837214000000009,0.1403975999999973
imu,417.964789,-0.8015247520000001,-9.719983000000001,2.2711861816,0.8524752099999999,1.56964109,-4.02724261,,,
imu,417.973252,-0.7793930984000002,-9.722375611200002,2.2544379032,0.68050628,1.44253362,-4.146873169999999,,,
imu,417.981716,-0.7650374312,-9.665551095200001,2.255036056,0.38142988,1.48739508,-4.341272829999999,,,
imu,417.99018,-0.7787949456000002,-9.640428677600001,2.2544379032,0.30666078,1.31542615,-4.47585721,,,
imu,417.998643,-0.8021229048,-9.646410205600002,2.25802682,0.40386061,1.16588795,-4.08705789,,,
imu,418.007107,-0.8033192104000001,-9.668541859200001,2.2508489864,0.42629134,1.15841104,-3.69825857,,,
imu,418.01557,-0.7931506128000001,-9.639232372,2.252045292,0.40386061,1.15841104,-3.47395127,,,
imu,418.024034,-0.7883653904000001,-9.614708107200002,2.2472600696,0.53096808,1.16588795,-3.18982869,,,
imu,418.032497,-0.8075062800000001,-9.630260080000001,2.2436711528,0.7702292,1.00887284,-3.18235178,,,
imu,418.040961,-0.8224601,-9.640428677600001,2.232306249600001,1.05435178,0.9341037399999998,-3.26459779,,,
imu,418.049424,-0.8248527112,-9.6284656216,2.249652680800001,1.18145925,1.00139593,-3.48142818,,,
imu,418.057888,-0.8170767248000002,-9.638036066400002,2.2556342088,1.48801256,1.2032725,-3.40665908,,,
imu,418.066351,-0.8194693360000002,-9.655382497600002,2.2478582224,1.61512003,1.06868812,-3.54124346,,,
imu,418.074815,-0.8230582528,-9.667345553600002,2.2562323616,1.76465823,1.19579559,-3.69078166,,,
imu,418.083278,-0.8200674888,-9.667943706400001,2.2616157368,1.7422275,1.23318014,-3.85527368,,,
imu,418.091742,-0.8146841136000001,-9.662560331200002,2.2544379032,1.80204278,1.25561087,-3.93751969,,,
imu,418.100206,-0.8254508640000001,-9.672728928800002,2.2544379032,1.77961205,1.22570323,-4.012288789999999,,,
imu,418.108669,-0.8272453224,-9.669738164800002,2.2526434448,1.80951969,1.30047233,-4.13191935,,,
imu,418.117133,-0.8122915024000001,-9.676915998400002,2.2586249728,1.8169966,1.32290306,-4.06462716,,,
imu,418.125596,-0.8069081272,-9.690673512800002,2.2526434448,1.69736604,1.27056469,-4.012288789999999,,,
imu,418.13406,-0.8140859608000002,-9.689477207200001,2.2598212784,1.40576655,1.16588795,-3.96742733,,,
imu,418.142523,-0.8009265992000001,-9.680504915200002,2.249054528,1.24127453,1.18831868,-3.87770441,,,
imu,418.150987,-0.804515516,-9.6876827488,2.2478582224,1.24127453,1.30047233,-3.66835093,,,
imu,418.15945,-0.8075062800000001,-9.680504915200002,2.243073,1.07678251,1.28551851,-3.496382,,,
imu,418.167914,-0.8164785720000002,-9.667345553600002,2.249054528,1.03192105,1.24065705,-3.54872037,,,
imu,418.176385,-0.8110951968000001,-9.663158484000002,2.2466619168,1.03192105,1.19579559,-3.3468438,,,
imu,418.184856,-0.8176748776000001,-9.6703363176,2.243073,0.94967504,1.06868812,-3.35432071,,,
imu,418.193327,-0.8128896552000001,-9.669738164800002,2.240082236,0.94219813,1.11354958,-3.46647436,,,
imu,418.201799,-0.8200674888,-9.671532623200001,2.2454656112,1.06182869,1.11354958,-3.48142818,,,
imu,418.21027,-0.8344231560000002,-9.676317845600002,2.246063764000001,1.04687487,1.06868812,-3.61601256,,,
imu,418.218741,-0.8344231560000002,-9.667345553600002,2.2436711528,1.12164397,1.30047233,-3.50385891,,,
imu,418.227212,-0.8266471696000001,-9.651195428000001,2.2604194312,1.06182869,1.39019525,-3.71321239,,,
imu,418.235683,-0.8427972952,-9.658373261600001,2.2532415976,1.15902852,1.47244126,-3.77302767,,,
imu,418.244154,-0.8260490168000001,-9.648802816800002,2.2382877776,1.22632071,1.81637912,-3.65339711,,,
imu,418.252626,-0.8284416280000001,-9.6535880392,2.2335025552,1.36090509,1.83880985,-3.69825857,,,
imu,418.261097,-0.8104970440000001,-9.655980650400002,2.2436711528,1.26370526,1.78647148,-3.93004278,,,
imu,418.269568,-0.8075062800000001,-9.662560331200002,2.2358951664,1.41324346,1.89862513,-4.00481188,,,
imu,418.278039,-0.8021229048,-9.665551095200001,2.2245302632,1.4431511,1.89114822,-4.10948862,,,
imu,418.28651,-0.8039173632000001,-9.657775108800001,2.2215394992,1.69736604,1.89862513,-3.99733497,,,
imu,418.294981,-0.7985339880000002,-9.6745233872,2.225128416,1.71979677,1.86871749,-4.08705789,,,
imu,418.303453,-0.7955432240000001,-9.676317845600002,2.2203431936,1.68988913,1.82385603,-4.0945348,,,
imu,418.311924,-0.8021229048,-9.6745233872,2.2275210272,1.69736604,1.63693328,-4.15435008,,,
imu,418.320395,-0.8009265992000001,-9.669738164800002,2.2095764432,1.65250458,1.577118,-4.169303899999999,,,
imu,418.328866,-0.7973376824000001,-9.678112304,2.208978290400001,1.50296638,1.58459491,-4.16182699,,,
imu,418.337337,-0.8009265992000001,-9.6775141512,2.2209413464,1.47305874,1.49487199,-4.057150249999999,,,
imu,418.345808,-0.8015247520000001,-9.6799067624,2.225128416,1.42072037,1.41262598,-3.85527368,,,
imu,418.35428,-0.8039173632000001,-9.684093832000002,2.222137652,1.50296638,1.41262598,-3.7954584,,,
imu,418.362751,-0.8081044328000001,-9.6918698184,2.2173524296,1.368382,1.36776452,-3.85527368,,,
imu,418.371222,-0.8110951968000001,-9.709216249600003,2.231109944,1.15902852,1.32290306,-3.80293531,,,
imu,418.380032,-0.8212637944000001,-9.715795930400002,2.234100708,1.03939796,1.29299542,-3.72816621,,,
imu,418.388843,-0.8254508640000001,-9.703832874400002,2.2394840832,1.00201341,1.39019525,-3.66835093,,,
imu,418.397653,-0.8158804192000001,-9.708019944000002,2.2442693056,0.67302937,1.43505671,-3.74312003,,,
imu,418.406463,-0.8194693360000002,-9.709814402400001,2.231109944,0.53096808,1.52477963,-3.66087402,,,
imu,418.415273,-0.8218619472,-9.711608860800002,2.2466619168,0.5010604399999999,1.51730272,-3.68330475,,,
imu,418.424084,-0.8122915024000001,-9.706823638400001,2.2364933192,0.35899915,1.62197946,-3.72816621,,,
imu,418.432894,-0.8248527112,-9.702636568800001,2.2394840832,0.11226112,1.59207182,-3.7206893,,,
imu,418.441704,-0.8248527112,-9.682299373600001,2.2239321104,0.10478421,1.69674856,-3.75059694,,,
imu,418.450515,-0.8290397808000001,-9.680504915200002,2.237091472,0.22441477,1.88367131,-3.65339711,,,
imu,418.459325,-0.8278434752000001,-9.660765872800003,2.2424748472,0.18703022,1.89862513,-3.53376655,,,
imu,418.468135,-0.8266471696000001,-9.666149248000002,2.2317080968,0.12721494,1.99582496,-3.57862801,,,
imu,418.476945,-0.8158804192000001,-9.655980650400002,2.2418766944,0.35152224,2.11545552,-3.46647436,,,
imu,418.485756,-0.8134878080000001,-9.635643455200002,2.231109944,0.4861066199999999,2.07807097,-3.44404363,,,
imu,418.494566,-0.8128896552000001,-9.6260730104,2.2317080968,0.5459219,2.16779389,-3.51881273,,,
imu,418.503376,-0.804515516,-9.6260730104,2.2388859304,0.5459219,2.28742445,-3.70573548,,,
imu,418.512187,-0.7889635432000001,-9.655382497600002,2.2478582224,0.65807555,2.36219355,-3.88518132,,,
imu,418.520997,-0.7865709320000001,-9.6709344704,2.2604194312,1.02444414,2.49677793,-3.67582784,,,
imu,418.529807,-0.7638411256000001,-9.678112304,2.2556342088,0.88985976,2.53416248,-3.5711511,,,
imu,418.538618,-0.7548688336000001,-9.654186192000001,2.2454656112,0.78518302,2.51920866,-3.48142818,,,
imu,418.547428,-0.7608503616000001,-9.646410205600002,2.2616157368,0.74779847,2.3995781,-3.38422835,,,
imu,418.556238,-0.7572614448000001,-9.6499991224,2.2592231256,0.78518302,2.26499372,-3.59358183,,,
imu,418.565048,-0.7512799168000001,-9.654186192000001,2.255036056,0.7104139199999999,2.06311715,-3.91508896,,,
imu,418.573859,-0.7458965416000001,-9.667943706400001,2.2813547792,0.6281679099999999,1.86124058,-4.26650373,,,
imu,418.582334,-0.7680281952000001,-9.6984494992,2.2777658624,0.51601426,1.6518871,-4.33379592,,,
imu,418.590809,-0.7775986400000001,-9.739123889600002,2.2927196824,0.45619898,1.71170238,-4.25154991,,,
imu,418.599284,-0.7919543072000002,-9.748694334400001,2.2987012104,0.25432241,1.62197946,-4.31136519,,,
imu,418.607759,-0.7937487656000001,-9.7151977776,2.284943696,0.09730729999999999,1.64441019,-4.32631901,,,
imu,418.616234,-0.8093007384,-9.6876827488,2.2843455432,0.02253820000000001,1.65936401,-4.02724261,,,
imu,418.624709,-0.8433954480000001,-9.696655040800001,2.278962168,0.01506129,1.69674856,-3.62348947,,,
imu,418.633184,-0.8613400320000001,-9.692467971200001,2.28793446,0.10478421,1.91357895,-3.25712088,,,
imu,418.641659,-0.8577511152000001,-9.676317845600002,2.2771677096,0.06739966,2.22760917,-3.32441307,,,
imu,417.348034,,,,,,,72.742694,-1.495412400000018,0.4944063999999915
imu,417.449261,,,,,,,72.7549012,-1.678520400000005,0.4211631999999965
imu,417.550824,,,,,,,72.9990452,-1.959286000000016,0.1281903999999945
imu,417.652356,,,,,,,72.77931559999999,-1.654106000000022,0.7263431999999903
imu,417.753888,,,,,,,75.58697160000001,-1.910457200000004,-0.4699624000000013
imu,417.85545,,,,,,,73.12111720000001,-1.837214000000009,0.3723343999999962
imu,417.957043,,,,,,,75.0986836,-2.21563720000002,-2.313249600000011
imu,418.058606,,,,,,,73.59719799999999,-1.763970800000014,-0.04271040000000115
imu,418.650319,-0.8493769760000001,-9.654784344800001,2.2532415976,0.10478421,2.34723973,-3.42908981,,,
imu,418.658794,-0.8290397808000001,-9.630260080000001,2.2568305144,0.23189168,2.72108523,-3.75059694,,,
imu,418.667269,-0.8152822664000001,-9.636839760800001,2.25802682,0.49358353,2.82576197,-4.06462716,,,
imu,418.675744,-0.7853746264000001,-9.635643455200002,2.2514471392,0.70293701,2.90800798,-4.146873169999999,,,
imu,418.684219,-0.7770004872000001,-9.639830524800002,2.261017584,0.7104139199999999,2.87062343,-4.34874974,,,
imu,418.692694,-0.7692245008,-9.637437913600001,2.2622138896,0.6954601,2.87062343,-4.408565019999999,,,
imu,418.701169,-0.7542706808000001,-9.647606511200001,2.269989876,0.77770611,2.86314652,-4.42351884,,,
imu,418.709644,-0.7333353328000001,-9.657176956,2.286738154400001,0.6281679099999999,2.68370068,-4.4683803,,,
imu,418.718119,-0.7375224024000001,-9.673925234400002,2.2825510848,0.43376825,2.30237827,-4.43847266,,,
imu,418.726594,-0.7393168608000001,-9.671532623200001,2.2921215296,0.19450713,2.00330187,-4.430995749999999,,,
imu,418.735069,-0.7488873056,-9.6709344704,2.293915988,-0.007369440000000005,1.69674856,-4.341272829999999,,,
imu,418.743544,-0.7554669864000001,-9.6876827488,2.3004956688,-0.13447691,1.34533379,-4.102011709999999,,,
imu,418.752019,-0.7674300424000001,-9.669738164800002,2.2873363072,-0.15690764,1.08364194,-3.93004278,,,
imu,418.760494,-0.8027210576,-9.667943706400001,2.3004956688,-0.18681528,0.9415806499999997,-3.75807385,,,
imu,418.768969,-0.8170767248000002,-9.66016772,2.2963085992,-0.23915365,0.72475026,-3.7206893,,,
imu,418.777444,-0.8332268504000001,-9.672728928800002,2.3022901272,-0.11952309,0.6948426199999997,-3.72816621,,,
imu,418.786016,-0.8571529624000002,-9.672728928800002,2.304084585600001,-0.0522309,0.70231953,-3.57862801,,,
imu,418.794587,-0.8697141712000002,-9.654784344800001,2.3070753496,-0.02980017,0.7097964399999999,-3.48890509,,,
imu,418.803159,-0.8816772272000001,-9.656578803200002,2.30288828,0.04496892999999999,1.06121121,-3.45152054,,,
imu,418.811731,-0.8936402832000001,-9.664952942400001,2.3166457944,0.23936859,1.25561087,-3.48142818,,,
imu,418.820302,-0.8894532136000001,-9.6494009696,2.307673502400001,0.32909151,1.59954873,-3.24964397,,,
imu,418.828874,-0.8780883104000001,-9.644017594400001,2.3046827384,0.3216146,1.81637912,-3.51133582,,,
imu,418.837445,-0.8691160184000001,-9.6248767048,2.3052808912,0.4711528,2.16031698,-3.47395127,,,
imu,418.846017,-0.8756956992000001,-9.610521037600002,2.3274125448,0.63564482,2.42948574,-3.33188998,,,
imu,418.854589,-0.8386102256000002,-9.6667474008,2.338777448000001,0.52349117,2.49677793,-3.51881273,,,
imu,418.86316,-0.8063099744000001,-9.685888290400001,2.326814392,0.4711528,2.54163939,-3.7206893,,,
imu,418.160168,,,,,,,73.84134200000001,-2.594060400000009,-3.155546400000009
imu,418.2617,,,,,,,73.7436844,-2.044736400000002,0.3601271999999933
imu,418.363415,,,,,,,73.3286396,-1.666313200000014,-0.3112688000000086
imu,418.464886,,,,,,,73.42629720000001,-1.446583600000007,-0.1769896000000104
imu,418.566418,,,,,,,73.42629720000001,-1.593070000000019,-0.4699624000000013
imu,418.667981,,,,,,,73.4995404,-1.348926000000006,-0.3845120000000035
imu,418.769543,,,,,,,73.292018,-1.556448400000021,-0.1037464000000043
