Type,Timestamp,Data Accelerometer X,Data Accelerometer Y,Data Accelerometer Z,Data Gyroscope X,Data Gyroscope Y,Data Gyroscope Z,Data Magnetometer X,Data Magnetometer Y,Data Magnetometer Z
imu,379.841703,-0.8792846160000001,-9.568052188800001,2.545738316800001,-3.40188658,2.51920866,-3.63844329,,,
imu,379.850193,-0.8727049352000001,-9.5632669664,2.529588191200001,-3.36450203,2.52668557,-3.53376655,,,
imu,379.858684,-0.8631344904,-9.578818939200001,2.5385604832,-3.32711748,2.46687029,-3.38422835,,,
imu,379.867174,-0.8816772272000001,-9.577024480800002,2.548130928,-3.14019473,2.29490136,-3.3468438,,,
imu,379.875664,-0.8661252544000001,-9.572837411200002,2.560093984,-3.03551799,2.22760917,-3.30198234,,,
imu,379.884154,-0.8398065312,-9.557883591200001,2.563084748,-2.90841052,2.24256299,-3.28702852,,,
imu,379.892645,-0.8338250032000001,-9.5381445488,2.5732533456,-2.82616451,2.27247063,-3.23469015,,,
imu,379.901135,-0.8326286976000001,-9.516012895200001,2.5792348736,-2.72148777,2.24256299,-3.17487487,,,
imu,379.909625,-0.8122915024000001,-9.5213962704,2.587609012800001,-2.60933412,2.16031698,-3.01785976,,,
imu,379.918115,-0.7985339880000002,-9.522592576000001,2.5894034712,-2.41493446,2.23508608,-2.96552139,,,
imu,379.926606,-0.7931506128000001,-9.531564868,2.6001702216,-2.10838115,2.16779389,-2.9729983,,,
imu,379.935096,-0.7937487656000001,-9.5429297712,2.607946208,-1.9962275,2.06311715,-2.8234601,,,
imu,379.943885,-0.7913561544000001,-9.5740337168,2.6145258888,-1.72705874,1.93600968,-2.86084465,,,
imu,379.952674,-0.7829820152,-9.577024480800002,2.6223018752,-1.65228964,1.94348659,-2.84589083,,,
imu,379.961463,-0.7841783208,-9.572837411200002,2.6372556952,-1.52518217,1.8014253,-2.9729983,,,
imu,379.970252,-0.780589404,-9.5668558832,2.6504150568,-1.75696638,1.7266562,-3.01785976,,,
imu,379.979041,-0.7817857096,-9.594370912,2.658789196,-1.52518217,1.73413311,-2.92813684,,,
imu,379.98783,-0.7835801680000001,-9.630858232800001,2.6534058208,-1.41302852,1.52477963,-2.98047521,,,
imu,379.996619,-0.7889635432000001,-9.592576453600001,2.664770724000001,-1.59995127,1.31542615,-3.22721324,,,
imu,380.005408,-0.7787949456000002,-9.591380148,2.6486205984,-1.46536689,1.29299542,-3.44404363,,,
imu,380.014197,-0.7686263480000001,-9.645213900000002,2.6665651824,-1.29339796,1.28551851,-3.45899745,,,
imu,380.022987,-0.7925524600000001,-9.6817012208,2.7084358784,-1.33825942,1.17336486,-3.54124346,,,
imu,380.031776,-0.8039173632000001,-9.684093832000002,2.697669128,-1.74948947,1.15093413,-3.69825857,,,
imu,380.040565,-0.7979358352000001,-9.672130776000001,2.696472822400001,-2.22801171,1.03878048,-3.75807385,,,
imu,380.049354,-0.804515516,-9.669140012000002,2.7198007816,-2.70653395,0.9565344699999998,-4.012288789999999,,,
imu,380.058143,-0.8314323920000001,-9.668541859200001,2.7114266424,-3.16262546,0.7920424499999998,-4.15435008,,,
imu,380.066932,-0.8643307960000001,-9.637437913600001,2.7054451144,-3.46170186,0.8593346399999997,-4.0945348,,,
imu,380.075721,-0.8619381848000001,-9.5812115504,2.6880986832,-3.66357843,1.00139593,-4.012288789999999,,,
imu,380.08451,-0.8804809216,-9.529770409600001,2.6892949888,-3.7906859,1.18831868,-3.81041222,,,
imu,380.093299,-0.8834716856000001,-9.478927421600002,2.694678364,-3.92527028,1.28551851,-3.92256587,,,
imu,380.102088,-0.8900513664000002,-9.455001309600002,2.689893141600001,-3.59628624,1.42010289,-3.87770441,,,
imu,380.110877,-0.8762938520000002,-9.474142199200001,2.703650656000001,-3.16262546,1.51730272,-3.86275059,,,
imu,380.119666,-0.8589474208000002,-9.481918185600001,2.7263804624,-2.78877996,1.67431783,-3.98238115,,,
imu,380.128455,-0.8487788232000001,-9.465169907200002,2.7431287408,-2.52708811,1.65936401,-3.97490424,,,
imu,380.137244,-0.8290397808000001,-9.460384684800001,2.783204978400001,-2.10838115,1.68179474,-3.75807385,,,
imu,380.145723,-0.8368157672000002,-9.4699551296,2.787392048000001,-1.74201256,1.73413311,-3.47395127,,,
imu,380.154202,-0.8230582528,-9.475936657600002,2.8190941464,-1.53265908,1.75656384,-3.23469015,,,
imu,380.162681,-0.8230582528,-9.495077547200001,2.8519925504,-1.36069015,1.78647148,-3.00290594,,,
imu,380.17116,-0.8206656416,-9.504647992000002,2.8490017864,-1.36816706,1.62945637,-2.8234601,,,
imu,380.179638,-0.8194693360000002,-9.5148165896,2.887283565600001,-1.48779762,1.59207182,-2.66644499,,,
imu,380.188117,-0.8075062800000001,-9.482516338400002,2.899246621600001,-1.41302852,1.66684092,-2.41223005,,,
imu,380.196596,-0.8087025856000001,-9.477731116000001,2.8854891072,-1.33078251,1.79394839,-2.27016876,,,
imu,380.205075,-0.7973376824000001,-9.475936657600002,2.874124204,-1.30087487,1.7266562,-2.21783039,,,
imu,380.213554,-0.8110951968000001,-9.453805004000001,2.8585722312,-1.31582869,1.77151766,-1.99352309,,,
imu,380.222032,-0.8170767248000002,-9.447823476,2.8573759256,-1.10647521,1.7266562,-1.84398489,,,
imu,380.230511,-0.8158804192000001,-9.4424401008,2.8364405776,-0.7401066199999999,1.74161002,-1.91127708,,,
imu,380.23899,-0.8272453224,-9.4765348104,2.8214867576,-0.31392275,1.66684092,-2.27764567,,,
imu,380.247469,-0.8266471696000001,-9.4765348104,2.8370387304,-0.14195382,1.67431783,-2.5991528,,,
imu,380.255948,-0.8320305448000002,-9.487899713600001,2.8490017864,-0.09709236,1.67431783,-2.98047521,,,
imu,380.264426,-0.8260490168000001,-9.556089132800002,2.870535287200001,0.10478421,1.73413311,-3.33188998,,,
imu,380.272905,-0.8158804192000001,-9.5812115504,2.8854891072,0.26179932,1.75656384,-3.6459202,,,
imu,380.281384,-0.8009265992000001,-9.580613397600002,2.889676176800001,0.1720764,1.55468727,-3.77302767,,,
imu,380.289863,-0.7835801680000001,-9.603343204000002,2.9159949,0.07487657,1.5023489,-3.77302767,,,
imu,380.298342,-0.8081044328000001,-9.638634219200002,2.9333413312,0.05244583999999999,1.64441019,-3.36179762,,,
imu,380.30682,-0.8027210576,-9.6075302736,2.9333413312,-0.26906129,1.7266562,-2.8982292,,,
imu,380.315299,-0.7961413768000002,-9.549509452,2.9064244552,-0.63542988,1.88367131,-2.53186061,,,
imu,380.323778,-0.7865709320000001,-9.507040603200002,2.8824983432,-0.79244499,1.95844041,-2.14306129,,,
imu,380.332257,-0.7668318896,-9.495077547200001,2.873526051200001,-0.7251528,1.92853277,-2.00847691,,,
imu,380.340736,-0.7596540560000001,-9.450814240000001,2.8669463704,-0.5980453299999999,1.80890221,-2.27016876,,,
imu,380.349198,-0.7506817640000001,-9.429280739200001,2.8609648424,-0.41112258,1.7266562,-2.76364482,,,
imu,380.35766,-0.7530743752000001,-9.430477044800002,2.859768536800001,-0.18681528,1.577118,-3.15992105,,,
imu,380.366122,-0.7668318896,-9.409541696800002,2.8579740784,0.15712258,1.67431783,-3.40665908,,,
imu,380.374585,-0.7656355840000001,-9.399971252000002,2.873526051200001,0.3739529699999999,1.56964109,-3.58610492,,,
imu,380.383047,-0.7638411256000001,-9.395784182400002,2.8609648424,0.64312173,1.4275798,-3.95247351,,,
imu,380.391509,-0.7542706808000001,-9.4215047528,2.8693389816,0.97958268,1.31542615,-4.146873169999999,,,
imu,380.399971,-0.7524762224000001,-9.444832712,2.880105732000001,1.30856672,1.34533379,-4.102011709999999,,,
imu,380.408462,-0.7692245008,-9.4460290176,2.8986484688,1.54782784,1.25561087,-4.04219643,,,
imu,380.416924,-0.7841783208,-9.488497866400001,2.908218913600001,1.62259694,0.9640113799999996,-4.18425772,,,
imu,380.425386,-0.7835801680000001,-9.5249851872,2.917789358400001,1.60764312,0.7995193599999997,-4.08705789,,,
imu,380.433849,-0.7859727792000001,-9.539939007200001,2.936930248,1.55530475,0.7471809899999999,-3.88518132,,,
imu,380.442311,-0.8081044328000001,-9.5602762024,2.9303505672,1.55530475,0.6125966099999998,-3.89265823,,,
imu,380.450773,-0.8075062800000001,-9.575828175200002,2.9482951512,1.50296638,0.6125966099999998,-3.60853565,,,
imu,380.459235,-0.8158804192000001,-9.617698871200002,2.9183875112,1.23379762,0.5153967799999997,-3.60853565,,,
imu,380.467698,-0.8344231560000002,-9.621287788000002,2.920181969600001,1.08425942,0.4481045899999998,-3.39918217,,,
imu,380.47616,-0.8344231560000002,-9.5740337168,2.918985664,0.9571519499999999,0.5527813299999997,-3.32441307,,,
imu,380.484622,-0.8368157672000002,-9.5172092008,2.891470635200001,0.94219813,0.62007352,-3.13749032,,,
imu,380.493084,-0.8445917536,-9.472347740800002,2.8729278984,1.01696723,0.7995193599999997,-3.08515195,,,
imu,380.501547,-0.8392083784000002,-9.447225323200001,2.8466091752,1.50296638,1.00887284,-3.02533667,,,
imu,380.510009,-0.8314323920000001,-9.459786532,2.8400294944,1.82447351,1.18831868,-3.06272122,,,
imu,380.518471,-0.8356194616000001,-9.433467808800001,2.8609648424,2.01139626,1.2780416,-3.06272122,,,
imu,380.526934,-0.8272453224,-9.440645642400002,2.8836946488,2.58711833,1.56964109,-3.27955161,,,
imu,380.535396,-0.8122915024000001,-9.478329268800001,2.8789094264,2.96096383,1.83880985,-3.57862801,,,
imu,380.543858,-0.7931506128000001,-9.479525574400002,2.8687408288,3.17779422,1.89114822,-3.91508896,,,
imu,380.552324,-0.8015247520000001,-9.464571754400001,2.868142676,3.28994787,2.13788625,-4.169303899999999,,,
imu,380.56079,-0.7985339880000002,-9.440047489600001,2.8513943976,3.3871477,2.27247063,-3.95247351,,,
imu,380.569256,-0.7949450712000001,-9.460384684800001,2.8400294944,3.63388573,2.22013226,-3.84031986,,,
imu,380.577722,-0.7967395296000002,-9.481918185600001,2.8328516608,3.64883955,2.1752708,-3.78798149,,,
imu,380.586189,-0.7674300424000001,-9.491488630400001,2.8161033824,3.64136264,2.2500399,-3.78798149,,,
imu,380.594655,-0.7279519576000001,-9.499862769600002,2.805336632,3.91800831,2.29490136,-3.55619728,,,
imu,380.603121,-0.7351297912000001,-9.5184055064,2.801747715200001,3.96286977,2.01077878,-3.59358183,,,
imu,380.611587,-0.7536725280000001,-9.547714993600001,2.804140326400001,3.81333157,1.77151766,-3.93004278,,,
imu,380.620053,-0.7560651392000002,-9.5602762024,2.801747715200001,3.66379337,1.56216418,-4.06462716,,,
imu,380.628519,-0.7411113192000001,-9.577024480800002,2.7879902008,3.59650118,1.55468727,-3.9449966,,,
imu,380.636985,-0.7327371800000001,-9.5668558832,2.7664567,3.5366859,1.30794924,-3.82536604,,,
imu,380.645451,-0.7680281952000001,-9.557883591200001,2.762269630400001,3.26004023,1.02382666,-3.83284295,,,
imu,380.653917,-0.7835801680000001,-9.5776226336,2.757484408000001,3.30490169,0.9789651999999998,-3.6459202,,,
imu,380.662383,-0.7883653904000001,-9.5907819952,2.743726893600001,3.40957843,0.9116730099999999,-3.60105874,,,
imu,380.670849,-0.7889635432000001,-9.5842023144,2.7491102688,3.34228624,0.7696117199999999,-3.47395127,,,
imu,380.679315,-0.8033192104000001,-9.5842023144,2.740736129600001,3.42453225,0.7770886299999997,-3.39918217,,,
imu,380.687782,-0.8254508640000001,-9.575828175200002,2.743726893600001,3.57407045,0.84438082,-3.39918217,,,
imu,380.696248,-0.8248527112,-9.5907819952,2.742530588,3.43200916,0.9041961000000001,-3.38422835,,,
imu,380.704714,-0.8194693360000002,-9.6009505928,2.745521352,3.40210152,1.03130357,-3.28702852,,,
imu,380.71318,-0.8278434752000001,-9.614109954400002,2.7443250464,3.20022495,1.10607267,-3.33936689,,,
imu,380.721646,-0.8236564056000001,-9.596763523200002,2.7353527544,3.20770186,1.26308778,-3.4216129,,,
imu,380.730112,-0.8224601,-9.576426328,2.7287730736,3.12545585,1.45001053,-3.27955161,,,
imu,380.738578,-0.8098988912000001,-9.5740337168,2.7150155592,3.02077911,1.69674856,-3.11505959,,,
imu,380.747044,-0.8051136688,-9.557285438400001,2.699463586400001,2.90862546,1.75656384,-3.18235178,,,
imu,380.755857,-0.8075062800000001,-9.5327611736,2.70664142,2.92357928,1.84628676,-3.15992105,,,
imu,380.76467,-0.8134878080000001,-9.5172092008,2.6940802112,2.96096383,1.83880985,-3.29450543,,,
imu,380.773483,-0.7931506128000001,-9.513022131200001,2.6719485576,3.05816366,2.01825569,-3.33188998,,,
imu,380.782296,-0.7775986400000001,-9.52558334,2.673743016,3.23013259,2.18274771,-3.33188998,,,
imu,380.791109,-0.7758041816000001,-9.538742701600002,2.670752252,3.30490169,2.10797861,-3.45899745,,,
imu,380.799922,-0.7650374312,-9.531564868,2.6695559464,3.50677826,2.11545552,-3.63096638,,,
imu,380.808735,-0.7506817640000001,-9.523190728800001,2.6719485576,3.58154736,2.20517844,-3.6459202,,,
imu,380.817548,-0.7399150136000001,-9.534555632000002,2.6563965848,3.74603938,2.24256299,-3.66835093,,,
imu,380.826361,-0.7327371800000001,-9.561472508000001,2.6659670296,3.88810067,2.09302479,-3.73564312,,,
imu,380.835174,-0.7333353328000001,-9.573435564,2.6510132096,3.9853005,2.0257326,-3.87770441,,,
imu,380.843987,-0.7393168608000001,-9.5632669664,2.6611818072,3.90305449,1.88367131,-4.11696553,,,
imu,380.852799,-0.7231667352000001,-9.5985579816,2.6563965848,4.05259269,1.73413311,-4.27398064,,,
imu,380.861612,-0.7135962904,-9.612913648800001,2.6629762656,4.04511578,1.7266562,-4.30388828,,,
imu,380.870425,-0.7195778184000001,-9.61530626,2.6522095152,3.925485220000001,1.55468727,-4.363703559999999,,,
imu,380.879238,-0.7219704296,-9.6284656216,2.6569947376,3.7609932,1.16588795,-4.61044159,,,
imu,380.888051,-0.7273538048000001,-9.6326526912,2.655200279200001,3.67127028,0.9714882899999999,-4.78988743,,,
imu,380.896864,-0.7219704296,-9.657775108800001,2.6474242928,3.611455,0.92662683,-4.61044159,,,
imu,380.905677,-0.7291482632,-9.651793580800001,2.6264889448,3.40957843,0.6798887999999996,-4.63287232,,,
imu,380.91449,-0.7351297912000001,-9.633848996800001,2.6121332776,3.18527113,0.58268897,-4.63287232,,,
imu,380.923303,-0.7668318896,-9.6296619272,2.6055535968,3.05068675,0.3882893099999998,-4.40108811,,,
imu,380.932116,-0.7781967928000002,-9.636839760800001,2.6061517496,2.90114855,0.2611818399999999,-4.453426479999999,,,
imu,380.940929,-0.8051136688,-9.635045302400002,2.590001624000001,2.69179507,0.2088434699999997,-4.28145755,,,
imu,380.949742,-0.8200674888,-9.623082246400001,2.5852164016,2.59459524,0.3135202100000001,-4.16182699,,,
imu,380.958226,-0.8427972952,-9.618895176800002,2.585814554400001,2.46001086,0.5453044199999999,-3.97490424,,,
imu,380.96671,-0.8421991424,-9.609922884800001,2.5894034712,2.33290339,0.5752120599999997,-3.82536604,,,
imu,380.975194,-0.8529658928000001,-9.6284656216,2.584020096,2.21327283,0.7995193599999997,-3.76555076,,,
imu,380.983677,-0.8541621984000002,-9.624278552000002,2.588207165600001,2.116073,1.17336486,-3.65339711,,,
imu,380.992161,-0.8577511152000001,-9.596165370400001,2.5917960824,1.86185806,1.34533379,-3.60105874,,,
imu,381.000645,-0.8655271016000001,-9.6051376624,2.5905997768,1.71231986,1.7266562,-3.46647436,,,
imu,381.009129,-0.8691160184000001,-9.596763523200002,2.590001624000001,1.46558183,2.04068642,-3.58610492,,,
imu,381.017613,-0.8559566568000001,-9.609922884800001,2.5935905408,1.48053565,2.23508608,-3.74312003,,,
imu,381.026097,-0.8296379336000002,-9.631456385600002,2.5905997768,1.62259694,2.57902394,-3.5711511,,,
imu,381.034581,-0.8093007384,-9.635643455200002,2.58701086,1.46558183,2.72856214,-3.62348947,,,
imu,381.043065,-0.8051136688,-9.608128426400002,2.5965813048,1.27118217,2.88557725,-3.4216129,,,
imu,381.051549,-0.7997302936000001,-9.5949690648,2.5911979296,1.50296638,2.97530017,-3.39170526,,,
imu,381.060032,-0.780589404,-9.588389384000001,2.5768422624,1.57025857,2.87810034,-3.61601256,,,
imu,381.068516,-0.7668318896,-9.538742701600002,2.578038568,1.47305874,2.88557725,-3.84779677,,,
imu,381.077,-0.7710189592000001,-9.554294674400001,2.607946208,1.5179202,2.79585433,-3.96742733,,,
imu,381.085484,-0.7811875568000001,-9.646410205600002,2.625890792,1.6674584,2.70613141,-4.23659609,,,
imu,381.093968,-0.7638411256000001,-9.7008421104,2.620507416800001,1.74970441,2.6238854,-4.244073,,,
imu,381.102452,-0.7482891528000001,-9.664952942400001,2.6372556952,1.31604363,2.51173175,-4.37118047,,,
imu,381.110936,-0.7476910000000001,-9.61530626,2.6444335288,1.22632071,2.44443956,-4.11696553,,,
imu,381.11942,-0.7590559032000002,-9.6117173432,2.6366575424,1.0693056,2.38462428,-3.85527368,,,
imu,381.127904,-0.7351297912000001,-9.636839760800001,2.6366575424,0.9048135799999999,2.24256299,-3.42908981,,,
imu,381.136387,-0.7363260968000002,-9.6290637744,2.619909264,0.80761375,2.19770153,-3.02533667,,,
imu,381.144871,-0.7399150136000001,-9.5949690648,2.6097406664,0.7104139199999999,1.94348659,-2.93561375,,,
imu,381.153355,-0.7375224024000001,-9.5602762024,2.6055535968,0.6281679099999999,1.75656384,-3.0477674,,,
imu,381.162015,-0.7321390272000001,-9.536350090400001,2.601366527200001,0.8973366700000001,1.41262598,-3.29450543,,,
imu,381.170674,-0.7536725280000001,-9.5357519376,2.595983152,0.97210577,1.26308778,-3.46647436,,,
imu,381.179333,-0.7740097232000002,-9.557883591200001,2.6031609856,1.24875144,1.09859576,-3.72816621,,,
imu,381.187993,-0.7925524600000001,-9.553098368800002,2.6001702216,1.38333582,1.10607267,-3.97490424,,,
imu,381.196652,-0.7895616960000001,-9.552500216,2.604955444,1.41324346,1.12102649,-4.057150249999999,,,
imu,381.205311,-0.7853746264000001,-9.541733465600002,2.6025628328,1.68241222,1.21822632,-4.057150249999999,,,
imu,381.213971,-0.8027210576,-9.5423316184,2.6007683744,1.80204278,1.18084177,-4.19173463,,,
imu,381.22263,-0.8146841136000001,-9.5459205352,2.5911979296,1.98896553,1.21822632,-4.32631901,,,
imu,379.926183,,,,,,,73.5849908,-1.702934800000011,-0.2502328000000054
imu,380.027715,,,,,,,73.24318919999999,-1.483205200000004,-0.3234760000000114
imu,380.129278,,,,,,,76.4536828,-1.190232400000002,-1.190187200000004
imu,380.23084,,,,,,,73.90237799999998,-0.7141516000000125,-0.9582504000000047
imu,380.332464,,,,,,,76.33161079999999,-1.287890000000003,-3.057888800000008
imu,380.433935,,,,,,,73.59719799999999,-0.5188364000000112,-1.287844800000004
imu,380.535497,,,,,,,74.89116119999998,-0.8850524000000082,-3.533969600000009
imu,380.637121,,,,,,,73.89017079999999,-0.384557200000013,-0.4943768000000071
imu,381.231289,-0.8164785720000002,-9.554892827200002,2.597179457600001,2.06373463,1.31542615,-4.28145755,,,
imu,381.239949,-0.8164785720000002,-9.571641105600001,2.5905997768,2.05625772,1.34533379,-4.44594957,,,
imu,381.248608,-0.8188711832000002,-9.593174606400002,2.5965813048,2.29551884,1.42010289,-4.3936112,,,
imu,381.257268,-0.8122915024000001,-9.6009505928,2.6127314304,2.30299575,1.44253362,-4.37118047,,,
imu,381.265927,-0.8164785720000002,-9.5985579816,2.6187129584,2.407672489999999,1.6518871,-4.21416536,,,
imu,381.274586,-0.8320305448000002,-9.613511801600001,2.610936972000001,2.3403803,1.7266562,-4.124442439999999,,,
imu,381.283246,-0.8236564056000001,-9.614708107200002,2.6127314304,2.24318047,1.62945637,-3.93751969,,,
imu,381.291905,-0.8128896552000001,-9.6290637744,2.619909264,2.10111918,1.8014253,-3.87770441,,,
imu,381.300564,-0.8224601,-9.644017594400001,2.6420409176,2.09364227,1.93600968,-3.61601256,,,
imu,381.309224,-0.7997302936000001,-9.6458120528,2.6444335288,1.78708896,2.0257326,-3.46647436,,,
imu,381.317883,-0.8003284464,-9.646410205600002,2.645629834400001,1.58521239,2.04068642,-3.23469015,,,
imu,381.326542,-0.7913561544000001,-9.638036066400002,2.6426390704,1.20388998,1.94348659,-3.29450543,,,
imu,381.335202,-0.7949450712000001,-9.636839760800001,2.6223018752,1.00201341,2.01825569,-3.16739796,,,
imu,381.343861,-0.7835801680000001,-9.606932120800002,2.619909264,0.9571519499999999,2.0257326,-3.10758268,,,
imu,381.352521,-0.7907580016000001,-9.591380148,2.6420409176,0.7552753799999999,1.9509635,-3.35432071,,,
imu,381.36118,-0.7913561544000001,-9.617100718400001,2.641442764800001,0.6954601,1.83880985,-3.61601256,,,
imu,381.369478,-0.7764023344000002,-9.5949690648,2.6330686256,0.65059864,1.71170238,-3.86275059,,,
imu,381.377776,-0.7740097232000002,-9.5393408544,2.6336667784,0.55339881,1.60702564,-4.0945348,,,
imu,381.386075,-0.7937487656000001,-9.5172092008,2.6372556952,0.59078336,1.63693328,-3.93751969,,,
imu,381.394373,-0.8230582528,-9.562070660800002,2.6420409176,0.85995212,1.60702564,-3.67582784,,,
imu,381.402671,-0.8218619472,-9.579417092000002,2.6360593896,1.01696723,1.62945637,-3.43656672,,,
imu,381.410969,-0.7919543072000002,-9.555490980000002,2.6294797088,1.01696723,1.60702564,-3.33188998,,,
imu,381.419268,-0.7997302936000001,-9.554892827200002,2.6432372232,1.18145925,1.74161002,-3.26459779,,,
imu,381.427566,-0.8039173632000001,-9.550705757600001,2.6282834032,1.37585891,1.63693328,-3.22721324,,,
imu,381.435864,-0.8146841136000001,-9.554294674400001,2.6234981808,1.60016621,1.71170238,-3.39170526,,,
imu,381.444162,-0.8128896552000001,-9.533957479200001,2.6294797088,1.77213514,1.8761944,-3.54872037,,,
imu,381.452461,-0.8110951968000001,-9.533957479200001,2.6157221944,1.8917657,1.93600968,-3.62348947,,,
imu,381.460759,-0.7871690848,-9.5327611736,2.5917960824,2.18336519,2.00330187,-3.61601256,,,
imu,381.469057,-0.7650374312,-9.523190728800001,2.587609012800001,2.23570356,2.00330187,-3.69825857,,,
imu,381.477355,-0.7512799168000001,-9.516012895200001,2.5917960824,2.58711833,2.00330187,-3.47395127,,,
imu,381.485653,-0.7423076248,-9.540537160000001,2.5894034712,2.84133327,1.85376367,-3.43656672,,,
imu,381.493952,-0.7429057776,-9.575828175200002,2.580431179200001,3.15536349,1.82385603,-3.32441307,,,
imu,381.502308,-0.7303445688000001,-9.590183842400002,2.575047804,3.09554821,1.59954873,-3.30198234,,,
imu,381.510606,-0.7261574992000001,-9.597361676,2.5726551928,3.08059439,1.32290306,-3.3468438,,,
imu,381.518905,-0.7321390272000001,-9.616502565600001,2.5822256376,2.96844074,1.04625739,-3.38422835,,,
imu,381.527203,-0.7464946944,-9.640428677600001,2.581029332,2.74413344,0.8219500899999996,-3.39918217,,,
imu,381.535501,-0.7596540560000001,-9.651195428000001,2.5768422624,2.53477996,0.6350273399999997,-3.45899745,,,
imu,381.543799,-0.7740097232000002,-9.654186192000001,2.5756459568,2.4151494,0.5153967799999997,-3.39918217,,,
imu,381.552098,-0.7799912512000001,-9.648204664000001,2.5588976784,2.23570356,0.33595094,-3.53376655,,,
imu,381.560396,-0.7979358352000001,-9.637437913600001,2.5379623304,1.94410407,0.3434278499999999,-3.47395127,,,
imu,381.56882,-0.8021229048,-9.638036066400002,2.5493272336,1.8917657,0.4032431299999999,-3.33936689,,,
imu,381.577244,-0.8164785720000002,-9.627269316000001,2.541551247200001,1.93662716,0.6724118899999998,-3.24216706,,,
imu,381.585668,-0.8194693360000002,-9.618895176800002,2.5355697192,1.89924261,0.8593346399999997,-3.31693616,,,
imu,381.594092,-0.8218619472,-9.612913648800001,2.548130928,1.82447351,1.01634975,-3.46647436,,,
imu,381.602517,-0.8128896552000001,-9.596763523200002,2.562486595200001,1.8917657,1.23318014,-3.48142818,,,
imu,381.610941,-0.7997302936000001,-9.614109954400002,2.5559069144,1.95158098,1.58459491,-3.47395127,,,
imu,381.619365,-0.7919543072000002,-9.623680399200001,2.5397567888,1.92167334,1.68927165,-3.66087402,,,
imu,381.627789,-0.7865709320000001,-9.5812115504,2.52719558,2.04878081,1.9509635,-3.57862801,,,
imu,381.636213,-0.7704208064000001,-9.551303910400001,2.5158306768,2.0413039,1.93600968,-3.7206893,,,
imu,381.644637,-0.7560651392000002,-9.544126076800001,2.5116436072,2.23570356,1.91357895,-3.74312003,,,
imu,381.653061,-0.7345316384000001,-9.5668558832,2.5056620792,2.40019558,2.12293243,-3.78050458,,,
imu,381.661485,-0.708811068,-9.589585689600002,2.5170269824,2.63197979,1.98834805,-3.81041222,,,
imu,381.669909,-0.7004369288000002,-9.591978300800001,2.5307844968,2.91610237,1.92105586,-3.86275059,,,
imu,381.678334,-0.6980443176000002,-9.593772759200002,2.5385604832,2.84133327,1.73413311,-3.85527368,,,
imu,381.686758,-0.6932590952000001,-9.624278552000002,2.5535143032,2.81890254,1.51730272,-3.81788913,,,
imu,381.695182,-0.6896701784000001,-9.6284656216,2.5636829008,2.66936434,1.27056469,-3.75807385,,,
imu,381.703606,-0.7082129152000001,-9.657775108800001,2.5756459568,2.51982614,1.03130357,-3.69825857,,,
imu,381.71203,-0.7135962904,-9.6667474008,2.575047804,2.116073,0.7471809899999999,-3.7954584,,,
imu,381.720454,-0.7165870544000001,-9.648204664000001,2.5672718176,1.85438115,0.5976427899999996,-3.86275059,,,
imu,381.728878,-0.7452983888000001,-9.614708107200002,2.5379623304,1.49548947,0.3808123999999999,-3.77302767,,,
imu,381.737302,-0.7734115704000001,-9.576426328,2.5289900384,1.41324346,0.3658585799999998,-3.77302767,,,
imu,381.745727,-0.7997302936000001,-9.5566872856,2.4901101064,1.65998149,0.3284740299999998,-3.84779677,,,
imu,381.754151,-0.8057118216000001,-9.551303910400001,2.4619969248,1.8169966,0.4705353199999998,-3.98238115,,,
imu,381.762575,-0.8290397808000001,-9.5291722568,2.458408008,2.3403803,0.7696117199999999,-4.0197657,,,
imu,381.771398,-0.8338250032000001,-9.5148165896,2.4446504936,2.84133327,1.2032725,-3.91508896,,,
imu,381.780222,-0.8457880592000001,-9.546518688,2.437472660000001,3.40957843,1.56216418,-3.95995042,,,
imu,381.789046,-0.8266471696000001,-9.587193078400002,2.450632021600001,3.97782359,1.90610204,-3.84779677,,,
imu,381.797869,-0.8176748776000001,-9.6087265792,2.45242648,4.23951544,2.36219355,-3.81041222,,,
imu,381.806693,-0.8027210576,-9.641624983200002,2.4530246328,4.49373038,2.75099287,-3.80293531,,,
imu,381.815516,-0.7829820152,-9.658971414400002,2.4560153968,4.44886892,2.86314652,-3.73564312,,,
imu,381.82434,-0.7554669864000001,-9.668541859200001,2.455417244,4.20213089,3.04259236,-3.74312003,,,
imu,381.833163,-0.7387187080000002,-9.684093832000002,2.4667821472,4.11240797,3.13979219,-3.81041222,,,
imu,381.841987,-0.7321390272000001,-9.716992236000001,2.473959980800001,3.731085559999999,3.07997691,-3.91508896,,,
imu,381.85081,-0.7064184568,-9.739722042400002,2.4655858416,3.37967079,3.16222292,-3.87770441,,,
imu,381.859634,-0.6806978864000002,-9.723571916800001,2.4536227856,2.84133327,3.04259236,-3.78798149,,,
imu,381.868458,-0.666940372,-9.676915998400002,2.4578098552,2.47496468,2.90053107,-3.68330475,,,
imu,381.877281,-0.6812960392000001,-9.678710456800001,2.460202466400001,1.97401171,2.51920866,-3.69825857,,,
imu,381.886105,-0.6645477608,-9.672728928800002,2.431491132,1.72727368,2.1752708,-3.86275059,,,
imu,381.894928,-0.6627533024,-9.630260080000001,2.425509604,1.38333582,1.65936401,-4.26650373,,,
imu,381.903752,-0.6729219000000001,-9.619493329600001,2.4392671184,1.12164397,1.31542615,-4.6179185,,,
imu,381.912575,-0.6998387760000001,-9.6733270816,2.4356782016,1.24875144,0.9341037399999998,-4.58801086,,,
imu,381.921399,-0.7195778184000001,-9.725964528,2.4326874376,1.39081273,0.6724118899999998,-4.58801086,,,
imu,381.930222,-0.7201759712000001,-9.713403319200001,2.443454188,1.26370526,0.6125966099999998,-4.43847266,,,
imu,381.939046,-0.7273538048000001,-9.6494009696,2.4476412576,0.88985976,0.5303505999999998,-4.23659609,,,
imu,381.94787,-0.7656355840000001,-9.642223136000002,2.4416597296,1.11416706,0.5752120599999997,-3.89265823,,,
imu,381.956693,-0.7919543072000002,-9.6745233872,2.4440523408,1.32352054,0.8593346399999997,-3.60105874,,,
imu,381.965517,-0.8003284464,-9.6775141512,2.440463424,1.35342818,1.00887284,-3.53376655,,,
imu,381.973998,-0.7859727792000001,-9.634447149600001,2.4338837432,1.26370526,1.2032725,-3.84031986,,,
imu,381.982479,-0.7740097232000002,-9.592576453600001,2.416537312,1.15155161,1.32290306,-4.22164227,,,
imu,381.990961,-0.7787949456000002,-9.573435564,2.416537312,1.18145925,1.46496435,-4.68521069,,,
imu,381.999442,-0.7746078760000001,-9.579417092000002,2.4171354648,1.34595127,1.49487199,-5.22354821,,,
imu,382.007923,-0.780589404,-9.581809703200001,2.409957631200001,1.61512003,1.44253362,-5.72450118,,,
imu,382.016405,-0.7829820152,-9.575828175200002,2.4213225344,1.70484295,1.49487199,-6.008623759999999,,,
imu,382.024886,-0.7704208064000001,-9.5877912312,2.4279022152,1.62259694,1.39019525,-6.30022325,,,
imu,382.033367,-0.7435039304000001,-9.606333968000001,2.4362763544,1.78708896,1.30794924,-6.315177069999999,,,
imu,382.041849,-0.7494854584000001,-9.618895176800002,2.4326874376,1.64502767,1.21822632,-6.1880696,,,
imu,380.738744,,,,,,,74.0488644,-1.019331600000006,-0.3356832000000032
imu,380.840337,,,,,,,73.5849908,-0.9705028000000171,-0.7263136000000059
imu,380.941808,,,,,,,74.07327880000001,-1.336718800000014,-0.3356832000000032
imu,381.04331,,,,,,,73.6338196,-1.519826800000001,-0.5554128000000103
imu,381.144903,,,,,,,73.64602680000002,-1.593070000000019,-0.5432056000000074
imu,381.246465,,,,,,,75.8311156,-1.593070000000019,-1.202394400000006
imu,381.348058,,,,,,,73.5605764,-1.470998000000012,-0.3723048000000118
imu,381.449621,,,,,,,75.78228680000001,-2.337709200000004,-2.594015200000011
imu,382.05033,-0.7566632920000002,-9.617100718400001,2.440463424,1.48053565,0.9640113799999996,-6.12825432,,,
imu,382.058812,-0.7698226536000001,-9.627867468800002,2.4362763544,1.5926893,0.7546578999999998,-6.008623759999999,,,
imu,382.067293,-0.7877672376000001,-9.637437913600001,2.4362763544,1.38333582,0.41819695,-5.71702427,,,
imu,382.075774,-0.8075062800000001,-9.669738164800002,2.4386689656,1.37585891,0.1714589200000001,-5.56000916,,,
imu,382.084256,-0.8236564056000001,-9.675719692800001,2.4398652712,1.31604363,-0.04537147000000008,-5.57496298,,,
imu,382.092737,-0.8517695872000001,-9.681103068,2.449435716,1.12912088,-0.1425713000000002,-5.634778259999999,,,
imu,382.101218,-0.8583492680000002,-9.709814402400001,2.450632021600001,0.81509066,-0.2921095,-5.67963972,,,
imu,382.1097,-0.88227538,-9.7504887928,2.450632021600001,0.8375213899999999,-0.31454023,-5.61982444,,,
imu,382.118181,-0.9109867144000001,-9.7786019744,2.4542209384,0.5459219,-0.3369709599999999,-5.56000916,,,
imu,382.126662,-0.9361091320000001,-9.766040765600001,2.4566135496,0.25432241,-0.2472480400000001,-5.41794787,,,
imu,382.135144,-0.9420906600000001,-9.767237071200002,2.4655858416,-0.2017691,-0.04537147000000008,-5.24597894,,,
imu,382.143625,-0.9373054376000002,-9.7809945856,2.4745581336,-0.55318387,0.27613566,-5.12634838,,,
imu,382.152106,-0.9438851184000001,-9.752881404000002,2.4769507448,-0.93450628,0.4107200399999997,-4.8422258,,,
imu,382.160588,-0.9504647992000002,-9.6954587352,2.4679784528,-1.56256672,0.6724118899999998,-4.66277996,,,
imu,382.169069,-0.9708019944000001,-9.638036066400002,2.494895328800001,-2.02613514,0.98644211,-4.55810322,,,
imu,382.177531,-0.9588389384,-9.701440263200002,2.497287940000001,-2.18315025,1.02382666,-4.81979507,,,
imu,382.185994,-0.9438851184000001,-9.714001472000001,2.483530425600001,-2.50465738,1.22570323,-5.01419473,,,
imu,382.194456,-0.9091922560000001,-9.657176956,2.500278704,-3.05794872,1.30047233,-5.18616366,,,
imu,382.202918,-0.9079959504000001,-9.6224840936,2.520615899200001,-3.37945585,1.38271834,-5.07401001,,,
imu,382.21138,-0.9229497704,-9.619493329600001,2.5313826496,-3.73834753,1.5023489,-4.50576485,,,
imu,382.219843,-0.9271368400000001,-9.627269316000001,2.518223288000001,-3.72339371,1.82385603,-4.02724261,,,
imu,382.228305,-0.903210728,-9.5704448,2.5080546904,-3.68600916,2.1005017,-3.51881273,,,
imu,382.236767,-0.8697141712000002,-9.502853533600002,2.5116436072,-3.85797809,2.15284007,-3.29450543,,,
imu,382.245229,-0.8469843648000001,-9.495077547200001,2.509250996,-3.65610152,1.92105586,-3.37675144,,,
imu,382.253692,-0.8571529624000002,-9.5184055064,2.5289900384,-3.16262546,1.68179474,-3.61601256,,,
imu,382.262154,-0.8487788232000001,-9.5184055064,2.5463364696,-2.66167249,1.50982581,-3.89265823,,,
imu,382.270616,-0.8487788232000001,-9.528574104,2.569066276,-2.19062716,1.32290306,-4.06462716,,,
imu,382.279078,-0.8523677400000002,-9.5429297712,2.5888053184,-1.83921239,0.9640113799999996,-4.22911918,,,
imu,382.287541,-0.8338250032000001,-9.552500216,2.6169185,-1.65228964,0.8742884599999998,-4.06462716,,,
imu,382.296003,-0.8326286976000001,-9.558481744000002,2.628881556000001,-1.41302852,0.64250425,-3.83284295,,,
imu,382.304465,-0.8523677400000002,-9.566257730400002,2.648022445600001,-1.42050543,0.2237972899999998,-3.76555076,,,
imu,382.312928,-0.8703123240000001,-9.575828175200002,2.6611818072,-1.34573633,0.1191205499999999,-3.66835093,,,
imu,382.32139,-0.8792846160000001,-9.594370912,2.6629762656,-1.26349032,0.2312741999999997,-3.54872037,,,
imu,382.329852,-0.8912476720000001,-9.592576453600001,2.661779960000001,-1.19619813,0.2686587499999997,-3.48142818,,,
imu,382.338314,-0.9008181168,-9.592576453600001,2.670752252,-1.21862886,0.2312741999999997,-3.44404363,,,
imu,382.346777,-0.9133793256000001,-9.5602762024,2.6611818072,-1.1737674,0.3135202100000001,-3.54872037,,,
imu,382.355239,-0.9247442288000001,-9.536948243200001,2.6534058208,-1.09152139,0.5303505999999998,-3.57862801,,,
imu,382.363701,-0.9277349928000002,-9.5118258256,2.652807668,-0.91207555,0.8518577299999999,-3.66087402,,,
imu,382.372163,-0.9343146736000002,-9.496872005600002,2.6360593896,-0.58309151,1.1285034,-3.83284295,,,
imu,382.380719,-0.9355109792000001,-9.4801237272,2.6252926392,-0.32139966,1.47991817,-3.91508896,,,
imu,382.389274,-0.9265386872000001,-9.481918185600001,2.6312741672,0.08983038999999998,1.64441019,-4.17678081,,,
imu,382.397829,-0.9241460760000001,-9.4962738528,2.6282834032,0.41881443,1.94348659,-4.33379592,,,
imu,382.406384,-0.9151737840000002,-9.4980683112,2.628881556000001,0.7702292,2.13040934,-4.29641137,,,
imu,382.414939,-0.9062014920000001,-9.499264616800001,2.6444335288,1.10669015,2.31733209,-4.18425772,,,
imu,382.423494,-0.9008181168,-9.5291722568,2.6450316816,1.368382,2.51920866,-4.19173463,,,
imu,382.432049,-0.8996218112000001,-9.555490980000002,2.6599855016,1.48053565,2.48182411,-4.10948862,,,
imu,382.440604,-0.9097904088000002,-9.5656595776,2.655798432,1.45062801,2.51173175,-4.079580979999999,,,
imu,382.449159,-0.9044070336000001,-9.5865949256,2.6773319328,1.42819728,2.57902394,-4.02724261,,,
imu,382.457714,-0.8900513664000002,-9.593174606400002,2.6743411688,1.2936129,2.66126995,-4.124442439999999,,,
imu,382.46627,-0.8954347416000001,-9.591978300800001,2.6641725712,1.30856672,2.66126995,-3.90013514,,,
imu,382.474825,-0.8894532136000001,-9.5740337168,2.6504150568,1.2188438,2.6238854,-3.77302767,,,
imu,382.48338,-0.8882569080000001,-9.576426328,2.643835376000001,1.09173633,2.69117759,-3.7954584,,,
imu,382.491935,-0.9067996448000001,-9.572837411200002,2.6360593896,1.08425942,2.49677793,-3.77302767,,,
imu,382.50049,-0.8990236584000001,-9.5704448,2.6300778616,1.09921324,2.56407012,-3.61601256,,,
imu,382.509045,-0.8876587552000001,-9.561472508000001,2.622900028000001,1.07678251,2.38462428,-3.70573548,,,
imu,382.5176,-0.8966310472000002,-9.562070660800002,2.6181148056,1.27118217,2.23508608,-3.80293531,,,
imu,382.526155,-0.8924439776000002,-9.568650341600001,2.6091425136,1.30856672,2.07059406,-3.67582784,,,
imu,382.53471,-0.8870606024000001,-9.547116840800001,2.604955444,1.34595127,2.07059406,-3.72816621,,,
imu,382.543265,-0.8768920048000002,-9.5698466472,2.6055535968,1.5179202,2.06311715,-3.70573548,,,
imu,382.55182,-0.8876587552000001,-9.597959828800002,2.6121332776,1.70484295,1.98087114,-3.51133582,,,
imu,382.560376,-0.8780883104000001,-9.597361676,2.5953849992,1.75718132,1.85376367,-3.39170526,,,
imu,382.568931,-0.8685178656000001,-9.599754287200001,2.5941886936,1.65250458,1.83133294,-3.22721324,,,
imu,382.577486,-0.8655271016000001,-9.593772759200002,2.607946208,1.68988913,1.92105586,-3.09262886,,,
imu,382.58585,-0.8625363376,-9.606932120800002,2.6085443608,1.63755076,1.8761944,-2.90570611,,,
imu,382.594222,-0.8571529624000002,-9.6248767048,2.619909264,1.54782784,1.70422547,-2.83841392,,,
imu,382.602586,-0.8517695872000001,-9.641026830400001,2.6234981808,1.30108981,1.67431783,-2.72626027,,,
imu,382.610951,-0.8475825176000001,-9.642223136000002,2.6193111112,1.06182869,1.56964109,-2.62906044,,,
imu,382.619315,-0.8529658928000001,-9.6117173432,2.6181148056,0.6954601,1.34533379,-2.6739219,,,
imu,382.627679,-0.8679197128000001,-9.591978300800001,2.6193111112,0.49358353,1.24813396,-2.77112173,,,
imu,382.636044,-0.8810790744000001,-9.585398620000001,2.6240963336,0.29170696,1.17336486,-2.77112173,,,
imu,382.644408,-0.8912476720000001,-9.613511801600001,2.6312741672,0.25432241,1.24065705,-2.80102937,,,
imu,382.652773,-0.8810790744000001,-9.6470083584,2.6240963336,0.3739529699999999,1.56964109,-2.5991528,,,
imu,382.661137,-0.8577511152000001,-9.618895176800002,2.6115351248,0.20946095,1.7266562,-2.53933752,,,
imu,382.669501,-0.8601437264,-9.560874355200001,2.60196468,0.10478421,1.85376367,-2.55429134,,,
imu,382.677866,-0.8744993936000002,-9.529770409600001,2.613927736,0.3963837,2.04068642,-2.47952224,,,
imu,382.68623,-0.8583492680000002,-9.522592576000001,2.5947868464,0.7253677399999999,2.25751681,-2.53186061,,,
imu,382.694594,-0.8457880592000001,-9.5154147424,2.5935905408,0.9197674,2.25751681,-2.88327538,,,
imu,382.702959,-0.8302360864000001,-9.510031367200002,2.622900028000001,1.12912088,2.24256299,-3.20478251,,,
imu,382.711323,-0.8182730304000002,-9.562070660800002,2.643835376000001,1.38333582,2.36219355,-3.29450543,,,
imu,382.719687,-0.8152822664000001,-9.612913648800001,2.6426390704,1.63755076,2.25751681,-3.4216129,,,
imu,382.728052,-0.7991321408000002,-9.635643455200002,2.659387348800001,1.4431511,2.22013226,-3.5711511,,,
imu,382.736416,-0.7817857096,-9.596165370400001,2.655200279200001,1.30856672,2.21265535,-3.6459202,,,
imu,382.744781,-0.7877672376000001,-9.556089132800002,2.6390501536,1.24875144,2.03320951,-3.38422835,,,
imu,382.753145,-0.8075062800000001,-9.549509452,2.6300778616,1.31604363,1.95844041,-2.95804448,,,
imu,382.761509,-0.7985339880000002,-9.575230022400001,2.6169185,1.65998149,1.92853277,-2.45709151,,,
imu,382.769874,-0.7889635432000001,-9.572239258400002,2.601366527200001,1.79456587,1.89862513,-2.15801511,,,
imu,382.778238,-0.7847764736,-9.5393408544,2.598973916,1.95905789,1.69674856,-2.21035348,,,
imu,382.787059,-0.7865709320000001,-9.5184055064,2.57205704,2.23570356,1.61450255,-2.51690679,,,
imu,382.79588,-0.8051136688,-9.513022131200001,2.5565050672,2.55721069,1.62945637,-2.80850628,,,
imu,382.804701,-0.8200674888,-9.538742701600002,2.5798330264,2.75908726,1.62197946,-2.98795212,,,
imu,382.813522,-0.8260490168000001,-9.5172092008,2.5439438584,2.95348692,1.61450255,-3.33188998,,,
imu,382.822343,-0.8350213088000001,-9.548313146400002,2.5618884424,3.12545585,1.70422547,-3.59358183,,,
imu,382.831163,-0.8218619472,-9.592576453600001,2.5756459568,3.31985551,1.89114822,-3.78050458,,,
imu,382.839984,-0.8093007384,-9.612913648800001,2.587609012800001,3.11050203,1.89114822,-3.98238115,,,
imu,382.848805,-0.8230582528,-9.627867468800002,2.5678699704,3.08059439,2.0257326,-4.057150249999999,,,
imu,382.857626,-0.8421991424,-9.635643455200002,2.5726551928,2.79647181,1.99582496,-4.124442439999999,,,
imu,381.551204,,,,,,,73.60940520000001,-1.78838520000002,-0.9216288000000072
imu,381.652705,,,,,,,75.8311156,-2.667303600000004,-3.485140800000008
imu,381.754298,,,,,,,73.6216124,-1.348926000000006,-0.9704576000000076
imu,381.855922,,,,,,,73.42629720000001,-1.50761960000001,-0.4577552000000096
imu,381.957515,,,,,,,73.3896756,-1.690727600000019,-0.4089264000000092
imu,382.059016,,,,,,,73.7314772,-1.519826800000001,-0.5065840000000099
imu,382.160579,,,,,,,73.48733320000001,-1.886042800000021,-1.251223200000007
imu,382.262111,,,,,,,73.24318919999999,-1.568655600000013,0.3479199999999905
imu,382.866447,-0.8469843648000001,-9.641624983200002,2.57205704,2.57216451,1.98834805,-4.06462716,,,
imu,382.875268,-0.8655271016000001,-9.639830524800002,2.5577013728,2.63197979,2.324809,-3.95247351,,,
imu,382.884089,-0.8786864632000002,-9.6505972752,2.554112456,2.46001086,2.4743472,-3.96742733,,,
imu,382.89291,-0.8691160184000001,-9.6523917336,2.560093984,2.13102682,2.42948574,-3.95247351,,,
imu,382.901731,-0.8451899064,-9.661962178400001,2.5606921368,1.77213514,2.42948574,-3.85527368,,,
imu,382.910552,-0.8284416280000001,-9.688280901600002,2.5678699704,1.76465823,2.57154703,-3.63844329,,,
imu,382.919372,-0.8081044328000001,-9.709216249600003,2.5774404152,1.55530475,2.51173175,-3.51881273,,,
imu,382.928193,-0.7979358352000001,-9.688280901600002,2.5606921368,1.09921324,2.34723973,-3.38422835,,,
imu,382.937014,-0.7991321408000002,-9.687084596000002,2.560093984,0.7403215599999999,2.16031698,-3.28702852,,,
imu,382.945835,-0.7746078760000001,-9.6470083584,2.5618884424,0.5459219,2.01825569,-3.16739796,,,
imu,382.954656,-0.7710189592000001,-9.6284656216,2.5463364696,0.4711528,1.78647148,-2.95056757,,,
imu,382.963477,-0.780589404,-9.609922884800001,2.5259992744,0.53096808,1.66684092,-2.68139881,,,
imu,382.972298,-0.7967395296000002,-9.5776226336,2.5259992744,0.43376825,1.46496435,-2.65149117,,,
imu,382.981119,-0.8087025856000001,-9.5877912312,2.554112456,0.44872207,1.18084177,-2.81598319,,,
imu,382.9896,-0.8051136688,-9.636839760800001,2.5523179976,0.620691,1.09111885,-2.99542903,,,
imu,382.998082,-0.8140859608000002,-9.6224840936,2.5343734136,0.3889067899999999,0.9714882899999999,-3.30945925,,,
imu,383.006563,-0.8093007384,-9.561472508000001,2.545140164,0.28423005,0.8967191899999998,-3.60853565,,,
imu,383.015044,-0.8284416280000001,-9.5291722568,2.5463364696,0.38142988,1.00887284,-3.76555076,,,
imu,383.023526,-0.8649289488,-9.559678049600002,2.5594958312,0.70293701,1.14345722,-3.5711511,,,
imu,383.032007,-0.8697141712000002,-9.602146898400001,2.5535143032,0.8674290299999999,1.25561087,-3.43656672,,,
imu,383.040488,-0.8691160184000001,-9.606932120800002,2.554112456,0.7403215599999999,1.41262598,-3.38422835,,,
imu,383.04897,-0.8577511152000001,-9.584800467200001,2.564879206400001,0.71789083,1.56964109,-3.30198234,,,
imu,383.057451,-0.8553585040000001,-9.5704448,2.5577013728,0.79265993,1.77899457,-3.29450543,,,
imu,383.065932,-0.8685178656000001,-9.585996772800002,2.5588976784,0.77770611,1.91357895,-3.57862801,,,
imu,383.074414,-0.8715086296000001,-9.5865949256,2.5582995256,0.9197674,2.11545552,-3.75807385,,,
imu,383.082895,-0.8643307960000001,-9.597361676,2.5594958312,0.97210577,2.30985518,-3.81041222,,,
imu,383.091376,-0.8571529624000002,-9.594370912,2.5588976784,1.04687487,2.45939338,-3.92256587,,,
imu,383.099858,-0.8416009896000001,-9.594370912,2.5535143032,1.07678251,2.67622377,-3.90013514,,,
imu,383.108339,-0.8212637944000001,-9.593174606400002,2.566673664800001,0.9646288599999999,2.81080815,-3.83284295,,,
imu,383.11682,-0.8093007384,-9.583006008800002,2.5618884424,0.94967504,2.75099287,-3.84779677,,,
imu,383.125302,-0.7961413768000002,-9.590183842400002,2.5774404152,0.9646288599999999,2.60893158,-3.86275059,,,
imu,383.133783,-0.7997302936000001,-9.602745051200001,2.5684681232,1.0693056,2.58650085,-3.7954584,,,
imu,383.142264,-0.7901598488000001,-9.6284656216,2.5888053184,0.9197674,2.44443956,-3.72816621,,,
imu,383.150746,-0.7853746264000001,-9.630260080000001,2.592992388,0.8749059399999999,2.39210119,-3.75059694,,,
imu,383.159227,-0.7823838624,-9.638634219200002,2.5864127072,0.76275229,2.13040934,-3.6459202,,,
imu,383.167708,-0.7787949456000002,-9.630260080000001,2.5923942352,0.67302937,1.94348659,-3.60105874,,,
imu,383.17619,-0.7775986400000001,-9.596763523200002,2.595983152,0.50853735,1.8014253,-3.66835093,,,
imu,383.184671,-0.7871690848,-9.593174606400002,2.5822256376,0.34404533,1.8014253,-3.63844329,,,
imu,383.193131,-0.7811875568000001,-9.618297024,2.585814554400001,0.32909151,1.67431783,-3.5711511,,,
imu,383.201591,-0.7889635432000001,-9.588987536800001,2.588207165600001,0.34404533,1.56964109,-3.51881273,,,
imu,383.21005,-0.7823838624,-9.568052188800001,2.5965813048,0.53844499,1.62197946,-3.48890509,,,
imu,383.21851,-0.7895616960000001,-9.566257730400002,2.5894034712,0.5459219,1.53973345,-3.63096638,,,
imu,383.22697,-0.780589404,-9.551303910400001,2.5864127072,0.68798319,1.47991817,-3.71321239,,,
imu,383.235429,-0.6125084672000001,-9.5154147424,2.6773319328,0.60573718,1.39019525,-3.78050458,,,
imu,383.243889,-0.9073977976000001,-9.578220786400001,2.4691747584,0.57582954,1.3528107,-3.10758268,,,
imu,383.252349,-0.8003284464,-9.594370912,2.5983757632,0.9945364999999999,1.43505671,-3.95995042,,,
imu,383.260809,-0.771617112,-9.5423316184,2.603759138400001,1.02444414,1.43505671,-4.32631901,,,
imu,383.269268,-0.7752060288000001,-9.5459205352,2.5822256376,1.09173633,1.36776452,-3.95247351,,,
imu,383.277728,-0.7847764736,-9.557285438400001,2.604955444,1.23379762,1.4275798,-4.25902682,,,
imu,383.286188,-0.7931506128000001,-9.541135312800002,2.5846182488,1.51044329,1.53973345,-4.33379592,,,
imu,383.294648,-0.7847764736,-9.564463272000001,2.598973916,1.6674584,1.62945637,-4.08705789,,,
imu,383.303107,-0.7752060288000001,-9.5907819952,2.601366527200001,1.60764312,1.67431783,-4.34874974,,,
imu,383.311567,-0.7770004872000001,-9.5776226336,2.6007683744,1.68241222,1.51730272,-4.5431494,,,
imu,383.320027,-0.7787949456000002,-9.588987536800001,2.6127314304,1.60764312,1.53973345,-4.53567249,,,
imu,383.328486,-0.7596540560000001,-9.610521037600002,2.6234981808,1.5926893,1.45748744,-4.602964679999999,,,
imu,383.336946,-0.771617112,-9.608128426400002,2.6187129584,1.55530475,1.4275798,-4.56558013,,,
imu,383.345406,-0.7722152648000001,-9.600352440000002,2.6270870976,1.30108981,1.32290306,-4.65530305,,,
imu,383.353866,-0.7710189592000001,-9.603343204000002,2.6264889448,1.37585891,1.21822632,-4.602964679999999,,,
imu,383.362325,-0.7692245008,-9.597361676,2.6061517496,1.27865908,1.19579559,-4.602964679999999,,,
imu,383.370785,-0.780589404,-9.593772759200002,2.6073480552,1.15902852,0.9789651999999998,-4.692687599999999,,,
imu,383.379245,-0.7955432240000001,-9.596165370400001,2.6007683744,1.30856672,0.98644211,-4.55810322,,,
imu,383.387705,-0.7973376824000001,-9.596763523200002,2.595983152,1.368382,0.8967191899999998,-4.58801086,,,
imu,383.396164,-0.8087025856000001,-9.576426328,2.581029332,1.37585891,0.9939190199999999,-4.56558013,,,
imu,383.404624,-0.8254508640000001,-9.555490980000002,2.5756459568,1.52539711,1.04625739,-4.602964679999999,,,
imu,383.413084,-0.8266471696000001,-9.557883591200001,2.5744496512,1.68988913,1.15841104,-4.58053395,,,
imu,383.421543,-0.8356194616000001,-9.562668813600002,2.5846182488,1.86185806,1.18084177,-4.57305704,,,
imu,383.430003,-0.8493769760000001,-9.567454036,2.5738514984,1.98148862,1.26308778,-4.58801086,,,
imu,383.438463,-0.7100073736000001,-9.533957479200001,2.678528238400001,2.0413039,1.39767216,-4.6179185,,,
imu,383.446923,-0.9402962016,-9.557285438400001,2.4751562864,2.18336519,1.53973345,-4.30388828,,,
imu,383.455382,-0.8768920048000002,-9.533957479200001,2.5702625816,2.42262631,1.79394839,-4.67773378,,,
imu,383.463842,-0.8625363376,-9.517807353600002,2.5953849992,2.53477996,1.8014253,-5.16373293,,,
imu,383.472302,-0.8386102256000002,-9.621287788000002,2.5917960824,2.89367164,2.06311715,-4.80484125,,,
imu,383.480762,-0.8314323920000001,-9.7510869456,2.6169185,2.59459524,2.09302479,-4.87961035,,,
imu,383.489221,-0.8224601,-9.7474980288,2.628881556000001,2.12354991,2.15284007,-4.81979507,,,
imu,383.497681,-0.8021229048,-9.708019944000002,2.648022445600001,1.48801256,1.98834805,-4.22164227,,,
imu,383.506141,-0.7835801680000001,-9.661364025600001,2.6223018752,0.9870595899999999,1.8014253,-3.85527368,,,
imu,383.5146,-0.8110951968000001,-9.6015487456,2.5732533456,0.65807555,1.49487199,-3.84779677,,,
imu,383.52306,-0.8427972952,-9.5357519376,2.541551247200001,0.65059864,1.38271834,-3.81788913,,,
imu,383.53152,-0.8457880592000001,-9.5154147424,2.545738316800001,0.7403215599999999,1.12102649,-3.54124346,,,
imu,383.53998,-0.8619381848000001,-9.5393408544,2.5409530944,1.1440747,1.06121121,-3.36927453,,,
imu,383.548439,-0.8858642968000001,-9.6015487456,2.536167872,1.60016621,0.9714882899999999,-3.63096638,,,
imu,383.556899,-0.7770004872000001,-9.591978300800001,2.6791263912,1.77213514,1.03878048,-3.70573548,,,
imu,383.565359,-0.963026008,-9.602745051200001,2.506858384800001,1.80951969,1.21822632,-3.11505959,,,
imu,383.573818,-0.9474740352000001,-9.651793580800001,2.569066276,2.10859609,1.39767216,-2.80850628,,,
imu,383.582278,-0.9271368400000001,-9.678710456800001,2.6169185,2.02635008,1.76404075,-3.03281358,,,
imu,383.590738,-0.9062014920000001,-9.667345553600002,2.569066276,1.90671952,2.07807097,-2.43466078,,,
imu,383.599264,-0.8864624496000001,-9.651195428000001,2.566673664800001,1.63007385,2.52668557,-2.16549202,,,
imu,383.60779,-0.780589404,-9.582407856000001,2.6432372232,1.45062801,2.6986545,-2.47204533,,,
imu,383.616316,-0.9444832712000001,-9.5501076048,2.4631932304,1.35342818,2.72856214,-2.47204533,,,
imu,383.624841,-0.8679197128000001,-9.549509452,2.497287940000001,1.70484295,2.79585433,-2.81598319,,,
imu,383.633367,-0.8290397808000001,-9.572239258400002,2.522410357600001,1.74970441,2.87810034,-3.74312003,,,
imu,383.641893,-0.8122915024000001,-9.547116840800001,2.5020731624,1.72727368,2.74351596,-4.034719519999999,,,
imu,383.650419,-0.8128896552000001,-9.4938812416,2.5134380656,1.63755076,2.57902394,-4.06462716,,,
imu,383.658945,-0.8631344904,-9.5184055064,2.4320892848,2.12354991,2.40705501,-3.96742733,,,
imu,383.667471,-0.7853746264000001,-9.526779645600001,2.5134380656,2.45253395,2.16779389,-4.73007215,,,
imu,383.675996,-0.7452983888000001,-9.530368562400001,2.5074565376,2.63197979,1.8014253,-4.7674567,,,
imu,382.363643,,,,,,,75.3794492,-0.8606380000000025,-0.8117640000000037
imu,382.465236,,,,,,,74.03665720000001,-1.568655600000013,-0.7507280000000116
imu,382.569179,,,,,,,76.01422360000001,-2.130186800000011,-2.996852800000005
imu,382.668361,,,,,,,73.89017079999999,-1.373340400000012,0.006118399999988089
imu,382.769893,,,,,,,76.5513404,-2.630682000000006,-3.106717600000009
imu,382.871455,,,,,,,73.8779636,-1.043746000000012,-0.201404000000005
imu,382.973079,,,,,,,73.6826484,-1.373340400000012,-1.019286400000008
imu,383.074672,,,,,,,74.0488644,-1.129196400000021,-0.6408632000000081
imu,383.684368,-0.7518780696000001,-9.5184055064,2.4865211896,2.93105619,1.48739508,-4.29641137,,,
imu,383.692893,-0.6866794144,-9.523190728800001,2.6091425136,3.19274804,1.08364194,-4.31136519,,,
imu,383.701419,-0.8463862120000001,-9.532163020800002,2.4219206872,3.2376095,0.6275504299999999,-4.124442439999999,,,
imu,383.709945,-0.8069081272,-9.591978300800001,2.4596043136,3.77594702,0.2462280199999998,-3.8702275,,,
imu,383.718471,-0.7781967928000002,-9.681103068,2.5307844968,3.90305449,0.02939763000000006,-4.13191935,,,
imu,383.726997,-0.8009265992000001,-9.772620446400001,2.509250996,3.75351629,-0.07527911000000032,-3.69825857,,,
imu,383.735523,-0.8093007384,-9.8043225448,2.5134380656,3.37967079,-0.2995864100000003,-3.28702852,,,
imu,383.744048,-0.8416009896000001,-9.767237071200002,2.508652843200001,2.64693361,-0.3893093300000001,-3.46647436,,,
imu,383.752574,-0.8810790744000001,-9.706225485600001,2.5104473016,2.10111918,-0.2472480400000001,-3.26459779,,,
imu,383.7611,-0.9050051864,-9.716992236000001,2.5146343712,1.65250458,-0.06780220000000003,-2.89075229,,,
imu,383.769626,-0.9247442288000001,-9.764246307200002,2.5259992744,1.45810492,0.2611818399999999,-2.8982292,,,
imu,383.778152,-0.9367072848000002,-9.772620446400001,2.509250996,0.97958268,0.6275504299999999,-2.91318302,,,
imu,383.786678,-0.9175663952000002,-9.7151977776,2.512839912800001,0.38142988,1.10607267,-2.93561375,,,
imu,383.795204,-0.9247442288000001,-9.627867468800002,2.5098491488,-0.11952309,1.52477963,-3.10010577,,,
imu,383.803958,-0.903210728,-9.644017594400001,2.5421494,-0.38869185,1.86871749,-3.35432071,,,
imu,383.812713,-0.8960328944000001,-9.682897526400001,2.5349715664,-0.47841477,2.43696265,-3.63096638,,,
imu,383.821467,-0.8427972952,-9.639830524800002,2.5248029688,-0.7251528,2.61640849,-3.74312003,,,
imu,383.830222,-0.7997302936000001,-9.591380148,2.533177108,-1.07656757,2.58650085,-4.034719519999999,,,
imu,383.838976,-0.8057118216000001,-9.5602762024,2.5403549416,-1.16629049,2.78090051,-3.93751969,,,
imu,383.847731,-0.8069081272,-9.560874355200001,2.5343734136,-0.92702937,2.72108523,-3.6459202,,,
imu,383.856486,-0.7859727792000001,-9.578818939200001,2.5367660248,-0.82982954,2.53416248,-3.57862801,,,
imu,383.86524,-0.7476910000000001,-9.591380148,2.529588191200001,-0.68029134,2.57902394,-3.40665908,,,
imu,383.873995,-0.7207741240000002,-9.555490980000002,2.539158636000001,-0.58309151,2.36219355,-3.36179762,,,
imu,383.882749,-0.7249611936,-9.527975951200002,2.5463364696,-0.46346095,2.14536316,-3.25712088,,,
imu,383.891504,-0.7315408744,-9.540537160000001,2.5463364696,-0.0522309,1.84628676,-3.26459779,,,
imu,383.900258,-0.7488873056,-9.553696521600001,2.5499253864,0.16459949,1.52477963,-3.40665908,,,
imu,383.909013,-0.7554669864000001,-9.545322382400002,2.569066276,0.30666078,1.28551851,-3.53376655,,,
imu,383.917767,-0.7584577504000002,-9.554294674400001,2.5636829008,0.40386061,0.9341037399999998,-3.83284295,,,
imu,383.926522,-0.7847764736,-9.5459205352,2.5642810536,0.68050628,0.84438082,-3.93751969,,,
imu,383.935277,-0.7967395296000002,-9.529770409600001,2.555308761600001,0.6954601,0.8967191899999998,-4.00481188,,,
imu,383.944031,-0.7985339880000002,-9.545322382400002,2.5582995256,0.8674290299999999,0.8817653699999997,-4.11696553,,,
imu,383.952786,-0.8069081272,-9.561472508000001,2.552916150400001,1.20388998,0.8892422799999999,-4.27398064,,,
imu,383.96154,-0.8260490168000001,-9.558481744000002,2.566673664800001,1.47305874,1.02382666,-4.37865738,,,
imu,383.970295,-0.6466031768,-9.536350090400001,2.726978615200001,1.42819728,1.0537343,-4.50576485,,,
imu,383.979049,-0.9743909112000002,-9.595567217600001,2.4290985208,1.21136689,1.00139593,-4.08705789,,,
imu,383.987804,-0.8727049352000001,-9.651195428000001,2.552916150400001,1.74970441,1.14345722,-4.63287232,,,
imu,383.996559,-0.8613400320000001,-9.623680399200001,2.5911979296,1.49548947,1.25561087,-5.305794219999999,,,
imu,384.005032,-0.8685178656000001,-9.627269316000001,2.5517198448,1.5179202,1.43505671,-4.90204108,,,
imu,384.013506,-0.8009265992000001,-9.6159044128,2.6336667784,1.23379762,1.62945637,-5.044102369999999,,,
imu,384.02198,-0.9666149248000001,-9.610521037600002,2.464389536000001,1.17398234,1.65936401,-4.625395409999999,,,
imu,384.030453,-0.8739012408000001,-9.644615747200001,2.5547106088,1.30108981,1.88367131,-4.98428709,,,
imu,384.038927,-0.8762938520000002,-9.6284656216,2.531980802400001,1.15902852,2.04816333,-5.12634838,,,
imu,384.047401,-0.8864624496000001,-9.599156134400001,2.521214052,1.20388998,2.33228591,-4.67773378,,,
imu,384.055875,-0.8882569080000001,-9.5489112992,2.529588191200001,1.08425942,2.39210119,-4.692687599999999,,,
imu,384.064348,-0.8840698384000001,-9.516012895200001,2.522410357600001,1.20388998,2.46687029,-4.70764142,,,
imu,384.072822,-0.8619381848000001,-9.593174606400002,2.5218122048,1.5926893,2.54163939,-4.647826139999999,,,
imu,384.081296,-0.8469843648000001,-9.676915998400002,2.506260232,1.64502767,2.69117759,-4.66277996,,,
imu,384.089769,-0.7913561544000001,-9.667943706400001,2.6492187512,1.35342818,2.59397776,-4.670256869999999,,,
imu,384.098243,-0.9528574104000002,-9.592576453600001,2.471567369600001,0.63564482,2.29490136,-4.6179185,,,
imu,384.106717,-0.8188711832000002,-9.645213900000002,2.5230085104,0.8449983,2.14536316,-4.59548777,,,
imu,384.115191,-0.7662337368000001,-9.655382497600002,2.5744496512,0.6281679099999999,2.13040934,-5.16373293,,,
imu,384.123664,-0.7985339880000002,-9.651793580800001,2.5385604832,0.41133752,1.77899457,-4.94690254,,,
imu,384.132138,-0.8392083784000002,-9.6709344704,2.5678699704,0.01506129,1.36776452,-4.74502597,,,
imu,384.140612,-0.8439936008000001,-9.6428212888,2.5738514984,-0.36626112,1.02382666,-4.58801086,,,
imu,384.149085,-0.8218619472,-9.5985579816,2.5864127072,-0.6279529699999999,0.92662683,-4.29641137,,,
imu,384.157559,-0.8164785720000002,-9.5985579816,2.6097406664,-0.73262971,0.7322271699999998,-3.84779677,,,
imu,384.166033,-0.8589474208000002,-9.5949690648,2.601366527200001,-0.73262971,0.44062768,-3.52628964,,,
imu,384.174507,-0.8703123240000001,-9.6051376624,2.5864127072,-0.5307531400000001,0.4032431299999999,-3.26459779,,,
imu,384.18298,-0.8810790744000001,-9.614708107200002,2.5953849992,-0.45598404,0.44062768,-2.88327538,,,
imu,384.191454,-0.8840698384000001,-9.609324732000001,2.598973916,-0.38121494,0.4331507699999997,-2.49447606,,,
imu,384.199928,-0.8858642968000001,-9.568650341600001,2.610936972000001,-0.45598404,0.4555814999999996,-2.36736859,,,
imu,384.208457,-0.9067996448000001,-9.5423316184,2.606749902400001,-0.22419983,0.6275504299999999,-2.20287657,,,
imu,384.216987,-0.9187627008000002,-9.551902063200002,2.5905997768,-0.11204618,0.8593346399999997,-2.1505382,,,
imu,384.225517,-0.9426888128,-9.5865949256,2.5828237904,0.18703022,1.14345722,-2.36736859,,,
imu,384.234046,-0.9235479232000001,-9.617698871200002,2.601366527200001,0.36647606,1.41262598,-2.72626027,,,
imu,384.242576,-0.9157719368000001,-9.551303910400001,2.6043572912,0.41881443,1.8014253,-2.86084465,,,
imu,384.251106,-0.8942384360000002,-9.519601812000001,2.603759138400001,0.33656842,2.09302479,-3.0477674,,,
imu,384.259635,-0.8966310472000002,-9.5172092008,2.595983152,0.49358353,2.34723973,-3.26459779,,,
imu,384.268165,-0.8762938520000002,-9.541733465600002,2.5864127072,0.7104139199999999,2.49677793,-3.37675144,,,
imu,384.276695,-0.8625363376,-9.5740337168,2.5888053184,0.8973366700000001,2.60145467,-3.55619728,,,
imu,384.285224,-0.8386102256000002,-9.594370912,2.5888053184,0.80013684,2.73603905,-3.68330475,,,
imu,384.293754,-0.8116933496000001,-9.576426328,2.5822256376,0.7702292,2.93043871,-3.61601256,,,
imu,384.302284,-0.7943469184000002,-9.519003659200001,2.5672718176,0.73284465,2.8481927,-3.75059694,,,
imu,384.310813,-0.7907580016000001,-9.507638756,2.570860734400001,0.8749059399999999,2.6986545,-3.78050458,,,
imu,384.319343,-0.7734115704000001,-9.5590798968,2.560093984,1.12912088,2.48930102,-3.81788913,,,
imu,384.327873,-0.7602522088000001,-9.597361676,2.5588976784,1.2936129,2.24256299,-3.63844329,,,
imu,384.336402,-0.7387187080000002,-9.6075302736,2.566673664800001,1.36090509,1.94348659,-3.48890509,,,
imu,384.344932,-0.7554669864000001,-9.639830524800002,2.58701086,1.45062801,1.6518871,-3.36927453,,,
imu,384.353462,-0.7817857096,-9.6745233872,2.598973916,1.25622835,1.22570323,-3.16739796,,,
imu,384.361991,-0.7710189592000001,-9.675719692800001,2.557103220000001,1.00949032,0.9341037399999998,-2.98047521,,,
imu,384.370521,-0.8009265992000001,-9.6434194416,2.566075512,0.7702292,0.8144731799999998,-2.89075229,,,
imu,384.379051,-0.8152822664000001,-9.646410205600002,2.5523179976,0.71789083,0.44062768,-2.92813684,,,
imu,384.38758,-0.8314323920000001,-9.61530626,2.5110454544,0.53844499,0.29856639,-3.1225365,,,
imu,384.39611,-0.8362176144000002,-9.577024480800002,2.5158306768,0.33656842,0.1789358299999999,-3.36179762,,,
imu,384.40464,-0.8511714344000001,-9.574631869600001,2.5367660248,0.41881443,0.3209971199999999,-3.52628964,,,
imu,384.413092,-0.8870606024000001,-9.638634219200002,2.5403549416,0.66555246,0.3882893099999998,-3.95247351,,,
imu,384.421544,-0.9175663952000002,-9.6799067624,2.5439438584,0.620691,0.4630584099999999,-4.20668845,,,
imu,384.429996,-0.9313239096000001,-9.635643455200002,2.552916150400001,0.30666078,0.6948426199999997,-4.25902682,,,
imu,384.438448,-0.9127811728000002,-9.577024480800002,2.557103220000001,0.12721494,1.14345722,-4.15435008,,,
imu,384.4469,-0.9056033392000001,-9.5907819952,2.5588976784,0.09730729999999999,1.58459491,-3.78798149,,,
imu,384.455352,-0.9205571592,-9.591380148,2.552916150400001,0.18703022,2.01825569,-3.33936689,,,
imu,384.463804,-0.9169682424000002,-9.565061424800001,2.545140164,0.3216146,2.42948574,-2.96552139,,,
imu,384.472256,-0.8912476720000001,-9.5842023144,2.5140362184,0.57582954,2.73603905,-2.69635263,,,
imu,384.480708,-0.8517695872000001,-9.626671163200001,2.4817359672,0.7104139199999999,2.87810034,-2.77859864,,,
imu,384.489161,-0.8206656416,-9.612315496,2.481137814400001,0.80013684,2.9229618,-3.08515195,,,
imu,384.497613,-0.7943469184000002,-9.5590798968,2.504465773600001,0.9945364999999999,3.10240764,-3.4216129,,,
imu,383.176153,,,,,,,73.9145852,-1.336718800000014,-1.776132800000008
imu,383.277563,,,,,,,73.71927000000001,-1.45879080000002,-0.5309984000000045
imu,383.379186,,,,,,,74.6836388,-1.373340400000012,-1.800547200000002
imu,383.480688,,,,,,,73.4018828,-1.60527720000001,-0.9582504000000047
imu,383.58225,,,,,,,75.52593560000001,-1.898250000000012,-2.703880000000003
imu,383.683813,,,,,,,73.6216124,-1.983700400000021,-0.860592800000004
imu,383.786779,,,,,,,76.0630524,-2.606267600000023,-2.87478080000001
imu,383.886968,,,,,,,73.230982,-1.727349200000017,-1.397709600000008
imu,384.506065,-0.7865709320000001,-9.557883591200001,2.5134380656,1.13659779,3.02016163,-3.73564312,,,
imu,384.514517,-0.7913561544000001,-9.567454036,2.5200177464,1.47305874,2.96782326,-3.8702275,,,
imu,384.522969,-0.7758041816000001,-9.600352440000002,2.5307844968,1.56278166,2.80333124,-4.15435008,,,
imu,384.531421,-0.7584577504000002,-9.637437913600001,2.551121692,1.5926893,2.82576197,-4.20668845,,,
imu,384.539873,-0.7423076248,-9.6075302736,2.5678699704,1.43567419,2.70613141,-4.169303899999999,,,
imu,384.548325,-0.7273538048000001,-9.5985579816,2.5726551928,1.30108981,2.57154703,-4.19173463,,,
imu,384.556777,-0.7321390272000001,-9.6494009696,2.5672718176,1.07678251,2.15284007,-4.42351884,,,
imu,384.565229,-0.7363260968000002,-9.669738164800002,2.5726551928,0.77770611,1.8761944,-4.43847266,,,
imu,384.573682,-0.7518780696000001,-9.6326526912,2.566673664800001,0.40386061,1.59954873,-4.48333412,,,
imu,384.582134,-0.7680281952000001,-9.663158484000002,2.5774404152,0.15712258,1.28551851,-4.48333412,,,
imu,384.590586,-0.7560651392000002,-9.655980650400002,2.5947868464,-0.15690764,0.9714882899999999,-4.5431494,,,
imu,384.599038,-0.7674300424000001,-9.634447149600001,2.606749902400001,-0.36626112,0.5303505999999998,-4.46090339,,,
imu,384.60749,-0.7955432240000001,-9.648802816800002,2.6121332776,-0.51579932,0.33595094,-4.31136519,,,
imu,384.615966,-0.8218619472,-9.6643547896,2.6217037224,-0.78496808,0.3509047599999997,-4.034719519999999,,,
imu,384.624442,-0.8344231560000002,-9.669738164800002,2.6270870976,-0.84478336,0.2836125699999998,-3.90013514,,,
imu,384.632919,-0.8457880592000001,-9.6709344704,2.6360593896,-1.00927538,0.1714589200000001,-3.89265823,,,
imu,384.641395,-0.8774901576000002,-9.646410205600002,2.64682614,-1.40555161,0.2462280199999998,-3.99733497,,,
imu,384.649871,-0.8774901576000002,-9.627269316000001,2.6534058208,-1.37564397,0.5303505999999998,-3.8702275,,,
imu,384.658347,-0.8828735328,-9.626671163200001,2.6516113624,-1.3233056,0.8144731799999998,-3.84031986,,,
imu,384.666824,-0.8954347416000001,-9.593174606400002,2.659387348800001,-1.41302852,0.9939190199999999,-3.80293531,,,
imu,384.6753,-0.8978273528000001,-9.5907819952,2.6761356272,-1.35321324,1.30794924,-3.95995042,,,
imu,384.683776,-0.8864624496000001,-9.594370912,2.673144863200001,-1.34573633,1.3528107,-4.34874974,,,
imu,384.692253,-0.8721067824000002,-9.562070660800002,2.6892949888,-1.4728438,1.56216418,-4.625395409999999,,,
imu,384.700729,-0.8661252544000001,-9.519003659200001,2.7000617392,-1.52518217,1.70422547,-4.74502597,,,
imu,384.709205,-0.8553585040000001,-9.516611048000001,2.7054451144,-1.37564397,1.88367131,-4.46090339,,,
imu,384.717681,-0.8637326432000001,-9.547714993600001,2.7198007816,-1.27844414,1.9509635,-4.079580979999999,,,
imu,384.726158,-0.8637326432000001,-9.5213962704,2.6952765168,-1.25601341,1.86124058,-3.96742733,,,
imu,384.734634,-0.8433954480000001,-9.493283088800002,2.686902377600001,-1.08404448,1.83133294,-3.8702275,,,
imu,384.74311,-0.8224601,-9.489694172,2.688696836,-1.07656757,1.64441019,-3.78050458,,,
imu,384.751586,-0.8158804192000001,-9.520199964800002,2.6970709752,-0.73262971,1.59954873,-3.80293531,,,
imu,384.760063,-0.8463862120000001,-9.5148165896,2.7078377256,-0.40364567,1.46496435,-3.80293531,,,
imu,384.768539,-0.8619381848000001,-9.4944793944,2.7030525032,-0.32887657,1.30047233,-3.95995042,,,
imu,384.77689,-0.8547603512000002,-9.492086783200001,2.7108284896,-0.06718472,1.14345722,-3.90013514,,,
imu,384.785366,-0.8499751288000001,-9.495675700000001,2.7090340312,0.28423005,1.18084177,-3.81041222,,,
imu,384.793842,-0.8427972952,-9.5118258256,2.709632184,0.4711528,1.09111885,-3.75807385,,,
imu,384.802318,-0.8547603512000002,-9.512423978400001,2.7150155592,0.8524752099999999,1.18831868,-3.51881273,,,
imu,384.810795,-0.8613400320000001,-9.5082369088,2.7054451144,0.73284465,1.06121121,-3.73564312,,,
imu,384.819548,-0.8667234072000001,-9.520199964800002,2.7048469616,0.9197674,1.13598031,-3.61601256,,,
imu,384.828301,-0.8810790744000001,-9.553696521600001,2.7162118648,0.9870595899999999,1.1285034,-3.71321239,,,
imu,384.837054,-0.885266144,-9.541135312800002,2.7209970872,1.05435178,1.04625739,-3.75807385,,,
imu,383.988531,,,,,,,73.37746839999998,-1.666313200000014,-1.165772800000009
imu,384.090093,,,,,,,73.292018,-1.690727600000019,-1.043700800000003
imu,384.191625,,,,,,,73.5849908,-2.471988400000003,-0.8850072000000098
imu,384.293218,,,,,,,72.95021639999999,-1.837214000000009,-0.4821696000000042
imu,384.394933,,,,,,,73.1577388,-1.470998000000012,0.07936159999999415
imu,384.496313,,,,,,,73.54836920000001,-1.995907600000013,-2.252213600000008
imu,384.597875,,,,,,,73.42629720000001,-1.422169200000023,-1.470952800000003
imu,384.699468,,,,,,,75.6358004,-1.959286000000016,-3.082303200000003
imu,384.800995,,,,,,,73.18215320000002,-1.336718800000014,-0.8483856000000012
