Type,Timestamp,Data Accelerometer X,Data Accelerometer Y,Data Accelerometer Z,Data Gyroscope X,Data Gyroscope Y,Data Gyroscope Z,Data Magnetometer X,Data Magnetometer Y,Data Magnetometer Z
imu,498.121017,0.8655271016000001,-9.399971252000002,2.87113344,0.9272443100000001,1.90610204,-3.99733497,,,
imu,498.129483,0.8756956992000001,-9.423299211200002,2.8669463704,1.12164397,2.07059406,-3.8702275,,,
imu,498.137949,0.8715086296000001,-9.4203084472,2.8555814672,1.1440747,1.92853277,-3.75807385,,,
imu,498.146415,0.8727049352000001,-9.409541696800002,2.847207328000001,1.13659779,1.83880985,-3.75059694,,,
imu,498.154881,0.8595455736000001,-9.437056725600002,2.859170384,1.0693056,1.78647148,-3.85527368,,,
imu,498.163347,0.8535640456000001,-9.4633754488,2.856777772800001,0.9571519499999999,1.69674856,-3.78050458,,,
imu,498.171813,0.8499751288000001,-9.468758824,2.8603666896,1.00201341,1.82385603,-3.67582784,,,
imu,498.180279,0.8386102256000002,-9.4412437952,2.859170384,0.7403215599999999,1.78647148,-3.70573548,,,
imu,498.188745,0.8362176144000002,-9.4496179344,2.868142676,0.63564482,1.9509635,-3.66087402,,,
imu,498.197211,0.8386102256000002,-9.464571754400001,2.8687408288,0.60573718,1.95844041,-3.68330475,,,
imu,498.205678,0.8469843648000001,-9.457992073600002,2.877713120800001,0.6954601,1.9509635,-3.62348947,,,
imu,498.214144,0.8487788232000001,-9.440645642400002,2.8878817184,0.65807555,1.96591732,-3.73564312,,,
imu,498.22261,0.8685178656000001,-9.4496179344,2.88608726,0.5459219,2.13788625,-3.58610492,,,
imu,498.231076,0.8834716856000001,-9.443636406400001,2.891470635200001,0.47862971,2.23508608,-3.61601256,,,
imu,498.239542,0.8918458248000001,-9.4316733504,2.8926669408,0.4861066199999999,2.18274771,-3.48890509,,,
imu,498.248008,0.8954347416000001,-9.402363863200002,2.905228149600001,0.46367589,2.22013226,-3.45152054,,,
imu,498.256469,0.9097904088000002,-9.380830362400001,2.8998447744,0.56087572,2.13040934,-3.496382,,,
imu,498.26493,0.8858642968000001,-9.353913486400002,2.9028355384,0.59078336,2.12293243,-3.61601256,,,
imu,498.273391,0.8960328944000001,-9.3832229736,2.904031844000001,0.65807555,2.09302479,-3.6459202,,,
imu,498.281852,0.9103885616000001,-9.3802322096,2.9195838168,0.7702292,2.07807097,-3.66835093,,,
imu,498.290313,0.9067996448000001,-9.372456223200002,2.8974521632,0.9571519499999999,1.98834805,-3.72816621,,,
imu,498.298774,0.8996218112000001,-9.4382530312,2.8962558576,0.91229049,1.9509635,-3.9449966,,,
imu,498.307235,0.8870606024000001,-9.3904008072,2.9231727336,0.9347212199999999,1.84628676,-4.0197657,,,
imu,498.315696,0.8792846160000001,-9.416719530400002,2.910611524800001,1.0693056,1.68927165,-4.13191935,,,
imu,498.324157,0.900219964,-9.4669643656,2.892068788,1.27865908,1.68927165,-4.25902682,,,
imu,498.332618,0.8637326432000001,-9.456795768000001,2.8753205096,1.26370526,1.69674856,-4.19921154,,,
imu,498.341079,0.8721067824000002,-9.448421628800002,2.87113344,1.00949032,1.50982581,-4.20668845,,,
imu,498.34954,0.8918458248000001,-9.414925072,2.8824983432,0.7403215599999999,1.38271834,-4.25154991,,,
imu,498.358001,0.8667234072000001,-9.364680236800002,2.880105732000001,0.6281679099999999,1.10607267,-4.15435008,,,
imu,498.366462,0.8727049352000001,-9.420906600000002,2.8807038848,0.74779847,1.03878048,-4.16182699,,,
imu,498.374923,0.8661252544000001,-9.493283088800002,2.8813020376,0.73284465,0.9041961000000001,-4.37118047,,,
imu,498.383384,0.8427972952,-9.5489112992,2.8807038848,0.56835263,0.7770886299999997,-4.31136519,,,
imu,498.391845,0.8421991424,-9.5429297712,2.889676176800001,0.29918387,0.78456554,-4.408565019999999,,,
imu,498.400306,0.8332268504000001,-9.5010590752,2.8717315928,0.22441477,0.8817653699999997,-4.30388828,,,
imu,498.408767,0.8098988912000001,-9.474740352000001,2.8717315928,0.23936859,0.92662683,-4.06462716,,,
imu,498.417228,0.8188711832000002,-9.4753385048,2.8729278984,0.3216146,1.13598031,-3.80293531,,,
imu,498.425689,0.8320305448000002,-9.4873015608,2.862161148000001,0.43376825,1.26308778,-3.71321239,,,
imu,498.43415,0.8296379336000002,-9.4591883792,2.8657500648,0.60573718,1.47991817,-3.77302767,,,
imu,498.442611,0.8392083784000002,-9.395784182400002,2.880105732000001,0.73284465,1.55468727,-4.08705789,,,
imu,498.451072,0.8356194616000001,-9.363483931200001,2.887283565600001,0.8524752099999999,1.61450255,-4.23659609,,,
imu,498.45989,0.8368157672000002,-9.353315333600001,2.9028355384,0.9197674,1.68179474,-4.37865738,,,
imu,498.468708,0.8260490168000001,-9.358100556000002,2.9058263024,0.9870595899999999,1.64441019,-4.57305704,,,
imu,498.477527,0.8332268504000001,-9.340155972000002,2.9142004416,0.9048135799999999,1.64441019,-4.63287232,,,
imu,498.486345,0.8350213088000001,-9.3377633608,2.924369039200001,0.97210577,1.60702564,-4.5431494,,,
imu,498.495163,0.8242545584000001,-9.3586987088,2.9171912056,1.05435178,1.56216418,-4.602964679999999,,,
imu,498.503982,0.8230582528,-9.361091320000002,2.9321450256,1.21136689,1.46496435,-4.43847266,,,
imu,498.5128,0.8200674888,-9.367671000800001,2.935733942400001,1.24875144,1.52477963,-4.34874974,,,
imu,498.521618,0.8027210576,-9.370063612000001,2.9345376368,1.15902852,1.4275798,-4.33379592,,,
imu,498.530436,0.7931506128000001,-9.399971252000002,2.933939484000001,1.37585891,1.3528107,-4.21416536,,,
imu,498.539255,0.8009265992000001,-9.429280739200001,2.9297524144,1.42072037,1.28551851,-4.169303899999999,,,
imu,498.548073,0.8075062800000001,-9.454403156800002,2.920181969600001,1.5179202,1.34533379,-4.08705789,,,
imu,498.556891,0.8051136688,-9.474740352000001,2.921976428000001,1.40576655,1.47244126,-4.00481188,,,
imu,498.565709,0.8009265992000001,-9.4974701584,2.904031844000001,1.33847436,1.53225654,-3.93751969,,,
imu,498.574528,0.7937487656000001,-9.517807353600002,2.9022373856,1.28613599,1.47991817,-4.0197657,,,
imu,498.583346,0.7961413768000002,-9.541135312800002,2.8926669408,1.20388998,1.55468727,-3.95995042,,,
imu,498.592164,0.7967395296000002,-9.52558334,2.8902743296,1.19641307,1.67431783,-3.90761205,,,
imu,498.600982,0.8098988912000001,-9.516012895200001,2.8813020376,1.06182869,1.74908693,-3.7954584,,,
imu,498.609801,0.8009265992000001,-9.48072188,2.868142676,0.9048135799999999,1.80890221,-3.69825857,,,
imu,498.618619,0.8003284464,-9.423299211200002,2.8747223568,0.8524752099999999,1.95844041,-3.67582784,,,
imu,498.627437,0.8051136688,-9.414326919200002,2.8842928016,0.8674290299999999,1.92853277,-3.81788913,,,
imu,498.636255,0.8003284464,-9.483712644000002,2.877114968,0.8674290299999999,1.96591732,-3.86275059,,,
imu,498.645074,0.8206656416,-9.493283088800002,2.887283565600001,0.8375213899999999,1.77899457,-3.93004278,,,
imu,498.653835,0.8146841136000001,-9.4005694048,2.8908724824,0.53844499,1.65936401,-3.97490424,,,
imu,498.662311,0.7734115704000001,-9.361689472800002,2.8842928016,0.31413769,1.66684092,-3.91508896,,,
imu,498.670787,0.7847764736,-9.382624820800002,2.8824983432,0.58330645,1.8014253,-3.62348947,,,
imu,498.679263,0.804515516,-9.4113361552,2.891470635200001,0.7552753799999999,1.82385603,-3.33936689,,,
imu,498.68774,0.7973376824000001,-9.4071490856,2.8765168152,0.83004448,1.9509635,-3.17487487,,,
imu,498.696216,0.7931506128000001,-9.405354627200001,2.8878817184,0.91229049,2.12293243,-2.98047521,,,
imu,498.704692,0.7949450712000001,-9.4250936696,2.8819001904,0.85995212,2.08554788,-2.98047521,,,
imu,498.713168,0.8116933496000001,-9.426289975200001,2.8753205096,0.8375213899999999,2.27994754,-3.03281358,,,
imu,498.721645,0.8110951968000001,-9.414925072,2.880105732000001,0.91229049,2.33228591,-3.29450543,,,
imu,498.730121,0.8098988912000001,-9.402962016000002,2.8836946488,0.8973366700000001,2.34723973,-3.51881273,,,
imu,498.738597,0.8218619472,-9.4041583216,2.8783112736,0.85995212,2.33228591,-3.6459202,,,
imu,498.747074,0.8374139200000001,-9.393391571200002,2.8783112736,0.9272443100000001,2.33976282,-3.62348947,,,
imu,498.75555,0.8290397808000001,-9.402962016000002,2.8795075792,1.2188438,2.33976282,-3.53376655,,,
imu,498.764026,0.8350213088000001,-9.4215047528,2.896854010400001,1.38333582,2.33976282,-3.46647436,,,
imu,498.772502,0.8380120728000001,-9.4250936696,2.895059552,1.54035093,2.35471664,-3.30945925,,,
imu,498.780979,0.840404684,-9.446627170400001,2.8986484688,1.36090509,2.39210119,-3.30945925,,,
imu,498.138458,,,,,,,82.65494040000002,-21.36873400000001,122.7495144
imu,498.789455,0.8410028368000001,-9.477132963200003,2.9153967472,1.39081273,2.324809,-3.10758268,,,
imu,498.797931,0.8350213088000001,-9.4765348104,2.918985664,1.19641307,2.16779389,-3.13001341,,,
imu,498.806407,0.840404684,-9.456795768000001,2.927957956,0.94967504,2.21265535,-3.22721324,,,
imu,498.814884,0.8451899064,-9.450814240000001,2.9267616504,0.8973366700000001,2.19022462,-3.18235178,,,
imu,498.82336,0.8416009896000001,-9.446627170400001,2.9171912056,0.7104139199999999,2.14536316,-3.2720747,,,
imu,498.831836,0.8266471696000001,-9.4280844336,2.9136022888,0.67302937,2.04816333,-3.35432071,,,
imu,498.840312,0.8380120728000001,-9.406550932800002,2.9231727336,0.56087572,2.11545552,-3.28702852,,,
imu,498.848789,0.8421991424,-9.422102905600001,2.9165930528,0.7403215599999999,2.10797861,-3.23469015,,,
imu,498.857265,0.8577511152000001,-9.4346641144,2.9267616504,0.73284465,2.05564024,-3.33936689,,,
imu,498.865733,0.8416009896000001,-9.439449336800001,2.9183875112,0.7253677399999999,2.14536316,-3.4216129,,,
imu,498.874202,0.8338250032000001,-9.430477044800002,2.910013372,0.79265993,2.03320951,-3.55619728,,,
imu,498.882671,0.840404684,-9.4203084472,2.9016392328,0.65807555,1.85376367,-3.74312003,,,
imu,498.891139,0.8445917536,-9.3975786408,2.8938632464,0.7104139199999999,1.74908693,-3.90013514,,,
imu,498.899608,0.8296379336000002,-9.374848834400002,2.8819001904,0.79265993,1.73413311,-4.10948862,,,
imu,498.908077,0.8338250032000001,-9.377839598400001,2.873526051200001,0.8674290299999999,1.66684092,-4.04219643,,,
imu,498.916545,0.8224601,-9.3927934184,2.8729278984,1.08425942,1.60702564,-3.99733497,,,
imu,498.925014,0.8218619472,-9.4005694048,2.8543851616,1.27118217,1.61450255,-3.91508896,,,
imu,498.933483,0.8194693360000002,-9.390998960000001,2.8573759256,1.33847436,1.53225654,-3.93751969,,,
imu,498.941951,0.8164785720000002,-9.422701058400001,2.864553759200001,1.45062801,1.48739508,-3.99733497,,,
imu,498.95042,0.8122915024000001,-9.451412392800002,2.862161148000001,1.5179202,1.3528107,-3.98985806,,,
imu,498.958888,0.8003284464,-9.4843107968,2.859768536800001,1.54782784,1.39019525,-3.97490424,,,
imu,498.967357,0.8003284464,-9.492684936000002,2.8753205096,1.41324346,1.36028761,-4.04967334,,,
imu,498.975826,0.8039173632000001,-9.5010590752,2.8902743296,1.32352054,1.48739508,-4.079580979999999,,,
imu,498.984294,0.7913561544000001,-9.503451686400002,2.8944613992,1.15902852,1.45001053,-4.19921154,,,
imu,498.992763,0.7865709320000001,-9.495077547200001,2.904031844000001,0.9945364999999999,1.47244126,-4.07210407,,,
imu,499.001232,0.7668318896,-9.4831144912,2.910611524800001,0.68050628,1.61450255,-4.08705789,,,
imu,499.0097,0.7638411256000001,-9.463973601600001,2.9142004416,0.52349117,1.79394839,-4.04967334,,,
imu,499.018169,0.7710189592000001,-9.452010545600002,2.913004136000001,0.40386061,1.81637912,-3.93004278,,,
imu,499.026637,0.7781967928000002,-9.422701058400001,2.9183875112,0.27675314,1.88367131,-3.75807385,,,
imu,499.035106,0.7692245008,-9.398774946400001,2.917789358400001,0.35899915,2.04816333,-3.70573548,,,
imu,499.043575,0.7722152648000001,-9.3796340568,2.920181969600001,0.42629134,2.24256299,-3.69078166,,,
imu,499.052043,0.7889635432000001,-9.3718580704,2.9171912056,0.49358353,2.30985518,-3.51881273,,,
imu,499.060512,0.8009265992000001,-9.370661764800001,2.9112096776,0.57582954,2.44443956,-3.52628964,,,
imu,499.068972,0.8116933496000001,-9.3658765424,2.9064244552,0.85995212,2.56407012,-3.4216129,,,
imu,499.077431,0.8254508640000001,-9.367072848000001,2.9112096776,1.10669015,2.63136231,-3.31693616,,,
imu,499.085891,0.8308342392000001,-9.381428515200001,2.9028355384,1.33847436,2.57154703,-3.2720747,,,
imu,499.094351,0.8410028368000001,-9.415523224800001,2.9136022888,1.40576655,2.5491163,-3.46647436,,,
imu,499.102811,0.8439936008000001,-9.460982837600001,2.9022373856,1.368382,2.35471664,-3.63844329,,,
imu,499.11127,0.8398065312,-9.4735440464,2.895657704800001,1.36090509,2.30237827,-3.84779677,,,
imu,499.11973,0.8344231560000002,-9.450814240000001,2.8926669408,1.25622835,2.14536316,-3.97490424,,,
imu,499.12819,0.8320305448000002,-9.450814240000001,2.899246621600001,1.11416706,1.93600968,-3.98985806,,,
imu,499.136649,0.8170767248000002,-9.435860420000001,2.88608726,1.12164397,2.04816333,-3.97490424,,,
imu,499.145109,0.804515516,-9.435262267200002,2.9028355384,0.9347212199999999,1.86124058,-4.08705789,,,
imu,499.153569,0.76264482,-9.478927421600002,2.9195838168,0.9048135799999999,1.84628676,-4.46090339,,,
imu,499.162029,0.6824923448,-9.555490980000002,2.935733942400001,0.6954601,1.94348659,-4.759979789999999,,,
imu,499.170488,0.62806044,-9.583006008800002,2.951884068,0.35152224,2.45191647,-4.8422258,,,
imu,499.178948,0.5969564944000001,-9.4974701584,2.9321450256,-0.04475399000000001,3.05006927,-4.89456417,,,
imu,499.187408,0.5784137576,-9.416121377600001,2.9291542616,-0.62047606,3.77532954,-5.044102369999999,,,
imu,499.195868,0.5604691736,-9.4316733504,2.920181969600001,-0.48589168,4.72489711,-4.75250288,,,
imu,499.204327,0.5538894928000001,-9.461580990400002,2.9165930528,-0.29896893,5.55483412,-4.57305704,,,
imu,499.212787,0.5425245896,-9.488497866400001,2.8986484688,-0.17933837,6.45954023,-4.408565019999999,,,
imu,499.221247,0.4617739616000001,-9.4980683112,2.8974521632,-0.04475399000000001,7.40163089,-4.37118047,,,
imu,499.229706,0.4270810992000001,-9.456197615200002,2.859170384,-0.34383039,8.62784413,-4.5431494,,,
imu,499.238166,0.4755314760000001,-9.388606348800002,2.8400294944,-0.31392275,10.12322613,-4.6179185,,,
imu,499.246626,0.499457588,-9.344941194400002,2.864553759200001,-0.32139966,11.47654684,-4.670256869999999,,,
imu,499.255086,0.5126169496,-9.385017432000001,2.8627593008,-0.10456927,12.40368368,-4.692687599999999,,,
imu,499.263545,0.5407301312,-9.420906600000002,2.8466091752,0.03001510999999998,13.33829743,-4.49828794,,,
imu,499.272043,0.5897786608000001,-9.436458572800001,2.859170384,0.1720764,14.2130959,-4.31136519,,,
imu,499.280541,0.6298548984000001,-9.446627170400001,2.873526051200001,-0.02980017,14.87106398,-4.43847266,,,
imu,499.289039,0.663949608,-9.4765348104,2.889676176800001,-0.09709236,15.32715549,-4.37865738,,,
imu,499.297537,0.7159889016000002,-9.490292324800002,2.889078024,-0.10456927,15.58137043,-4.59548777,,,
imu,499.306035,0.7889635432000001,-9.465169907200002,2.9112096776,-0.49336859,15.65613953,-4.87961035,,,
imu,499.314533,0.8296379336000002,-9.4621791432,2.9088170664,-0.49336859,15.59632425,-5.31327113,,,
imu,499.323031,0.8721067824000002,-9.4454308648,2.905228149600001,-0.81487572,15.30472476,-5.4403786,,,
imu,499.331528,0.9145756312000002,-9.429280739200001,2.9064244552,-0.94198319,14.86358707,-5.25345585,,,
imu,499.340026,0.9648204664000001,-9.416121377600001,2.9153967472,-1.10647521,14.3626341,-4.976810179999999,,,
imu,499.348524,1.0031022456,-9.385017432000001,2.9345376368,-1.04665993,13.77943512,-4.430995749999999,,,
imu,499.357022,1.0515526224,-9.350324569600001,2.9500896096,-0.98684465,13.0167903,-4.20668845,,,
imu,499.36552,1.0988066936,-9.3586987088,2.9327431784,-0.73262971,12.02983818,-3.84031986,,,
imu,499.374018,1.1406773896,-9.3592968616,2.913004136000001,-0.38121494,10.9980246,-3.40665908,,,
imu,499.382516,1.1711831824,-9.356306097600001,2.9165930528,0.03749201999999999,9.891441919999998,-2.92065993,,,
imu,499.391013,1.1963056,-9.3718580704,2.904031844000001,0.38142988,8.58298267,-2.4496146,,,
imu,499.399511,1.193314836,-9.367072848000001,2.8813020376,0.68050628,7.364246339999999,-2.0757691,,,
imu,499.408009,1.1951092944,-9.350922722400002,2.880105732000001,0.94219813,6.13055619,-1.60472377,,,
imu,499.416507,1.1795573216,-9.406550932800002,2.8854891072,1.27118217,4.9417275,-1.52247776,,,
imu,499.425005,1.154434904,-9.499264616800001,2.887283565600001,1.39828964,3.73794499,-1.68696978,,,
imu,499.433503,1.1317050976,-9.512423978400001,2.8813020376,1.28613599,2.84071579,-1.69444669,,,
imu,499.442001,1.085647332,-9.4316733504,2.8693389816,1.04687487,2.14536316,-1.82155416,,,
imu,499.450499,1.01685976,-9.4137287664,2.8723297456,0.9347212199999999,1.62945637,-1.9262309,,,
imu,499.458996,1.0072893152,-9.440645642400002,2.870535287200001,0.8449983,1.45748744,-1.9262309,,,
imu,499.467494,0.9959244120000001,-9.447225323200001,2.8579740784,0.80761375,1.4275798,-2.01595382,,,
imu,499.476611,0.9684093832000001,-9.427486280800002,2.8466091752,0.64312173,1.39767216,-2.29259949,,,
imu,499.485728,0.9708019944000001,-9.411934308000001,2.852590703200001,0.55339881,1.46496435,-2.68139881,,,
imu,499.494845,0.9905410368000002,-9.415523224800001,2.852590703200001,0.5459219,1.45748744,-3.01785976,,,
imu,499.503962,0.9995133288000001,-9.419112141600001,2.8555814672,0.63564482,1.47991817,-3.38422835,,,
imu,499.513078,0.9941299536000001,-9.4107380024,2.8513943976,0.56087572,1.45748744,-3.97490424,,,
imu,499.522195,1.0001114816,-9.403560168800002,2.8537870088,0.4711528,1.24813396,-4.26650373,,,
imu,499.531312,0.9959244120000001,-9.393391571200002,2.8490017864,0.53096808,1.1285034,-4.52819558,,,
imu,499.540429,0.9833632032,-9.395784182400002,2.845412869600001,0.4711528,0.8892422799999999,-4.647826139999999,,,
imu,499.549546,0.9917373424000001,-9.401765710400001,2.8537870088,0.57582954,0.7322271699999998,-4.52819558,,,
imu,499.558662,0.9917373424000001,-9.409541696800002,2.8633574536,0.6132140899999999,0.4481045899999998,-4.5431494,,,
imu,499.567779,0.9678112304000002,-9.405354627200001,2.8633574536,0.65807555,0.09668981999999993,-4.3936112,,,
imu,499.576896,0.9414925072000001,-9.3963823352,2.880105732000001,0.8973366700000001,-0.15004821,-4.23659609,,,
imu,499.586013,0.9235479232000001,-9.408345391200001,2.895657704800001,0.91229049,-0.3594016900000003,-4.169303899999999,,,
imu,499.595129,0.9020144224000001,-9.4244955168,2.9171912056,0.9048135799999999,-0.6435242699999999,-4.17678081,,,
imu,499.604246,0.8685178656000001,-9.443038253600001,2.928556108800001,0.8973366700000001,-0.65847809,-4.11696553,,,
imu,498.239929,,,,,,,83.02115640000001,-21.82040040000002,123.0546944
imu,498.349274,,,,,,,82.9112916,-22.29648120000001,123.4209104
imu,498.443024,,,,,,,82.935706,-21.69832840000001,123.7749192
imu,498.550445,,,,,,,82.9845348,-21.75936440000001,122.7128928
imu,498.646149,,,,,,,82.77701239999999,-22.0035084,123.3720816
imu,498.747711,,,,,,,85.12079480000001,-22.41855320000001,122.2490192
imu,498.849274,,,,,,,82.96012040000001,-21.55184200000002,123.6894688
imu,498.950836,,,,,,,85.2306596,-22.82139080000001,120.9184344
imu,499.613363,0.8176748776000001,-9.441841948000002,2.9363320952,0.9945364999999999,-0.4939860700000001,-4.012288789999999,,,
imu,499.62248,0.8398065312,-9.439449336800001,2.9363320952,0.80761375,-0.4790322499999999,-4.06462716,,,
imu,499.631597,0.8224601,-9.423897364000002,2.9650434296,0.74779847,-0.35192478,-4.00481188,,,
imu,499.640713,0.8087025856000001,-9.430477044800002,2.96085636,0.81509066,-0.2622018600000002,-3.9449966,,,
imu,499.64983,0.8242545584000001,-9.422701058400001,2.963248971200001,0.83004448,-0.1276174800000001,-3.93004278,,,
imu,499.658947,0.8110951968000001,-9.418513988800001,2.966239735200001,0.74779847,-0.007986920000000008,-4.0945348,,,
imu,499.668064,0.7901598488000001,-9.4077472384,2.9614545128,0.81509066,0.07425908999999997,-4.012288789999999,,,
imu,499.677181,0.7793930984000002,-9.406550932800002,2.9560711376,0.82256757,0.2462280199999998,-3.98238115,,,
imu,499.685362,0.7919543072000002,-9.398176793600001,2.9746138744,0.77770611,0.4929660499999997,-3.95995042,,,
imu,499.693543,0.7746078760000001,-9.3832229736,2.963248971200001,0.8375213899999999,0.6350273399999997,-4.034719519999999,,,
imu,499.701724,0.7889635432000001,-9.381428515200001,2.9614545128,1.02444414,0.6798887999999996,-4.012288789999999,,,
imu,499.709906,0.7913561544000001,-9.373652528800001,2.94590254,1.30108981,0.78456554,-3.93004278,,,
imu,499.718087,0.7889635432000001,-9.3664746952,2.9423136232,1.36090509,0.8742884599999998,-3.88518132,,,
imu,499.726268,0.7871690848,-9.367072848000001,2.939921012000001,1.34595127,1.06121121,-3.86275059,,,
imu,499.734449,0.7997302936000001,-9.393391571200002,2.924369039200001,1.40576655,1.2032725,-3.81788913,,,
imu,499.742631,0.8134878080000001,-9.410139849600002,2.9153967472,1.42819728,1.1285034,-3.80293531,,,
imu,499.750766,0.8128896552000001,-9.414326919200002,2.9088170664,1.77213514,1.11354958,-3.54124346,,,
imu,499.758948,0.8146841136000001,-9.440047489600001,2.9022373856,1.6674584,1.21074941,-3.40665908,,,
imu,499.767129,0.8272453224,-9.439449336800001,2.8962558576,1.54782784,1.10607267,-3.48890509,,,
imu,499.77531,0.8248527112,-9.443636406400001,2.8783112736,1.55530475,1.15841104,-3.40665908,,,
imu,499.783491,0.8451899064,-9.447225323200001,2.870535287200001,1.5179202,1.13598031,-3.36179762,,,
imu,499.791673,0.8739012408000001,-9.4412437952,2.8813020376,1.54782784,1.09859576,-3.32441307,,,
imu,499.799854,0.8798827688,-9.459786532,2.8944613992,1.47305874,1.00139593,-3.43656672,,,
imu,499.808035,0.8685178656000001,-9.458590226400002,2.8789094264,1.48053565,0.8294269999999999,-3.44404363,,,
imu,499.816216,0.8816772272000001,-9.441841948000002,2.875918662400001,1.47305874,0.80699627,-3.33936689,,,
imu,499.824398,0.88227538,-9.4496179344,2.8848909544,1.38333582,0.7471809899999999,-3.41413599,,,
imu,499.832579,0.8739012408000001,-9.459786532,2.8884798712,1.0693056,0.5901658799999998,-3.45899745,,,
imu,499.84076,0.8709104768000001,-9.426888128000002,2.877713120800001,1.01696723,0.5453044199999999,-3.3468438,,,
imu,499.848941,0.8786864632000002,-9.403560168800002,2.895657704800001,1.24127453,0.58268897,-3.21225942,,,
imu,499.857123,0.8792846160000001,-9.416719530400002,2.8878817184,1.25622835,0.6275504299999999,-3.15992105,,,
imu,499.865304,0.8906495192000001,-9.422701058400001,2.896854010400001,1.16650543,0.4929660499999997,-3.25712088,,,
imu,499.873485,0.9050051864,-9.4113361552,2.8962558576,1.19641307,0.4705353199999998,-3.35432071,,,
imu,499.881923,0.9056033392000001,-9.395784182400002,2.9076207608,1.03192105,0.3957662200000001,-3.54124346,,,
imu,499.890361,0.9062014920000001,-9.4071490856,2.922574580800001,1.21136689,0.3509047599999997,-3.60105874,,,
imu,499.8988,0.9414925072000001,-9.452010545600002,2.9291542616,1.27865908,0.11164364,-3.8702275,,,
imu,499.907238,0.9636241608000001,-9.454403156800002,2.9124059832,1.11416706,-0.0005100100000001717,-4.124442439999999,,,
imu,499.915676,0.9456795768000001,-9.4215047528,2.910611524800001,1.10669015,-0.2472480400000001,-4.22911918,,,
imu,499.924114,0.9666149248000001,-9.422701058400001,2.921976428000001,1.09173633,-0.5014629800000003,-4.49081103,,,
imu,499.932552,0.9911391896000001,-9.4203084472,2.8962558576,1.09173633,-0.88278539,-4.75250288,,,
imu,499.94099,1.0037003984,-9.412532460800001,2.901041080000001,1.11416706,-1.3388769,-4.909517989999999,,,
imu,499.949428,1.0180560656,-9.417915836,2.9142004416,1.07678251,-1.7874915,-5.17120984,,,
imu,499.957866,1.0222431352,-9.459786532,2.918985664,0.9048135799999999,-2.36321357,-5.47028624,,,
imu,499.966304,1.0671045952,-9.4801237272,2.9136022888,0.9646288599999999,-2.84921272,-5.59739371,,,
imu,499.974743,1.10658268,-9.443038253600001,2.895059552,0.8524752099999999,-3.53708844,-5.829177919999999,,,
imu,499.983181,1.1592201264,-9.4041583216,2.8998447744,0.60573718,-4.42684073,-6.06096213,,,
imu,499.991619,1.2327929208,-9.4346641144,2.895059552,0.6954601,-5.316593019999999,-6.075915950000001,,,
imu,500.000057,1.354816092,-9.482516338400002,2.8789094264,0.7702292,-6.692344459999999,-6.203023419999999,,,
imu,500.008495,1.444539012,-9.4621791432,2.8723297456,0.9571519499999999,-8.18024955,-6.34508471,,,
imu,500.016933,1.4792318744,-9.385017432000001,2.85617962,0.77770611,-10.14667688,-6.659114929999999,,,
imu,500.025371,1.52528964,-9.329987374400002,2.843020258400001,0.9870595899999999,-12.35984224,-7.189975539999999,,,
imu,500.033809,1.5557954328,-9.332379985600001,2.841225800000001,1.27865908,-14.67768434,-7.982528,,,
imu,500.042247,1.5647677248,-9.3377633608,2.8364405776,1.368382,-17.21983374,-8.9545263,,,
imu,500.050686,1.5288785568,-9.322211388000001,2.820290452000001,1.5926893,-19.72459859,-10.09849353,,,
imu,500.059124,1.489400472,-9.3269966104,2.825075674400001,1.98148862,-21.90785631,-11.11535329,,,
imu,500.067562,1.4756429576,-9.351520875200002,2.8310572024,2.13102682,-24.03877566,-12.14716687,,,
imu,500.076,1.4750448048,-9.374848834400002,2.85617962,2.43758013,-26.087449,-12.9920577,,,
imu,500.084467,1.4152295248,-9.4041583216,2.8615629952,2.47496468,-28.27070672,-13.85190235,,,
imu,500.092935,1.3081601736,-9.398176793600001,2.8842928016,2.64693361,-30.29694933,-14.4126706,,,
imu,500.101402,1.21125942,-9.374848834400002,2.8962558576,2.46001086,-32.20356138,-15.17531542,,,
imu,500.109869,1.1119660552,-9.3622876256,2.889676176800001,2.49739541,-33.65408192,-15.70617603,,,
imu,500.118337,0.9791761336000001,-9.332978138400001,2.9064244552,2.55721069,-34.88029516,-16.24451355,,,
imu,500.126804,0.8320305448000002,-9.319818776800002,2.904031844000001,2.75908726,-35.64293998,-16.78285107,,,
imu,500.135271,0.7542706808000001,-9.322809540800002,2.9321450256,3.02825602,-36.37567716,-17.33614241,,,
imu,500.143739,0.6956517064000001,-9.312042790400001,2.935733942400001,3.20022495,-36.92149159,-17.67260336,,,
imu,500.152206,0.550300576,-9.3126409432,2.9423136232,3.55163972,-37.40749074,-17.81466465,,,
imu,500.160673,0.4181088072000001,-9.318622471200001,2.957865596,3.9105314,-37.72152096,-18.0015874,,,
imu,500.169141,0.3176191368,-9.332379985600001,2.966239735200001,4.16474634,-37.83367461,-18.18103324,,,
imu,500.177608,0.2290925224000001,-9.3586987088,2.971024957600001,4.59093021,-37.64675186,-18.24084852,,,
imu,500.186075,0.1423603664,-9.3898026544,2.978800944,4.86009897,-37.53459821,-18.35300217,,,
imu,500.194543,0.0113649032,-9.3993730992,2.969828652,4.97972953,-37.20561417,-18.55487874,,,
imu,500.20301,-0.1303973104,-9.364680236800002,2.96085636,5.12179082,-36.54764609,-18.35300217,,,
imu,500.211478,-0.1878199792,-9.385017432000001,2.9752120272,5.21151374,-35.92706256,-18.29318689,,,
imu,500.219945,-0.2924967192,-9.451412392800002,2.9716231104,5.27132902,-35.25414066,-18.36047908,,,
imu,500.228412,-0.43366078,-9.488497866400001,2.957267443200001,5.41339031,-34.35691146,-18.18103324,,,
imu,500.23688,-0.5706377712,-9.474740352000001,2.9046299968,5.43582104,-33.20546732,-17.87447993,,,
imu,500.245347,-0.6944554008000001,-9.460982837600001,2.8675445232,5.4806825,-31.82223897,-17.32118859,,,
imu,500.253814,-0.7811875568000001,-9.492684936000002,2.8555814672,5.48815941,-30.49134899,-16.96977382,,,
imu,500.262282,-0.8601437264,-9.528574104,2.859768536800001,5.36105194,-28.89876716,-16.52863613,,,
imu,500.270749,-0.9169682424000002,-9.550705757600001,2.854983314400001,5.26385211,-27.16412404,-16.08749844,,,
imu,500.279216,-0.9773816752000002,-9.553696521600001,2.823281216,5.26385211,-25.57154221,-15.86319114,,,
imu,500.287676,-1.0204486768,-9.562668813600002,2.805336632,5.12179082,-23.88176055,-15.42205345,,,
imu,500.296136,-1.0383932608,-9.555490980000002,2.8101218544,4.86757588,-22.16207125,-15.22017688,,,
imu,500.304596,-1.0910307072,-9.559678049600002,2.8184959936,4.75542223,-20.4797665,-14.97343885,,,
imu,500.313055,-1.1909222248,-9.5698466472,2.7975606456,4.56102257,-18.67783119,-14.50987043,,,
imu,500.321515,-1.250139352,-9.596165370400001,2.784401284,4.32923836,-16.72635768,-13.64254887,,,
imu,500.329975,-1.2674857832,-9.604539509600002,2.789186506400001,4.14979252,-14.63282288,-12.6929813,,,
imu,500.338434,-1.3111509376,-9.617698871200002,2.787392048000001,4.02268505,-12.54676499,-11.84809047,,,
imu,500.346894,-1.3476382584,-9.6296619272,2.7975606456,3.84323921,-10.33359963,-10.89104599,,,
imu,500.355354,-1.3464419528,-9.6296619272,2.7981587984,3.32733242,-8.32231084,-10.21064718,,,
imu,500.363814,-1.3261047576,-9.614109954400002,2.7951680344,2.90114855,-6.258683680000001,-9.63492511,,,
imu,500.372273,-1.2872248256,-9.6087265792,2.7909809648,2.50487232,-4.31468708,-9.28351034,,,
imu,500.380733,-1.244157824,-9.621287788000002,2.798756951200001,2.21327283,-2.57256705,-8.984433939999999,,,
imu,500.389193,-1.18135178,-9.610521037600002,2.817897840800001,2.01887317,-0.76315483,-8.37880423,,,
imu,500.397653,-1.1137605136,-9.610521037600002,2.8190941464,1.73475059,0.6724118899999998,-8.02738946,,,
imu,500.406112,-1.0383932608,-9.590183842400002,2.82627198,1.53287402,1.68927165,-7.6834516,,,
imu,500.414572,-0.9755872168000002,-9.558481744000002,2.843020258400001,1.27118217,2.72108523,-7.30212919,,,
imu,499.052404,,,,,,,82.8990844,-21.79598600000001,123.1645592
imu,499.153936,,,,,,,82.65494040000002,-22.06454440000001,120.8818128
imu,499.255468,,,,,,,82.935706,-21.84481480000002,123.4697392
imu,499.357183,,,,,,,81.9225084,-21.50301320000001,122.7495144
imu,499.459417,,,,,,,82.13003080000001,-21.40535560000001,122.969244
imu,499.560156,,,,,,,82.2276884,-21.16121160000002,122.6396496
imu,499.661749,,,,,,,82.13003080000001,-21.19783320000002,122.2612264
imu,499.763311,,,,,,,82.3497604,-22.04013000000003,123.2622168
imu,500.423032,-0.9109867144000001,-9.555490980000002,2.8490017864,1.39828964,3.6706528,-6.86846841,,,
imu,500.431491,-0.8727049352000001,-9.568052188800001,2.8537870088,1.30856672,4.26132869,-6.374992349999999,,,
imu,500.439951,-0.8469843648000001,-9.558481744000002,2.854983314400001,1.10669015,4.84452767,-5.896470109999999,,,
imu,500.448411,-0.8380120728000001,-9.560874355200001,2.859170384,0.9646288599999999,5.27071154,-5.17120984,,,
imu,500.456871,-0.8439936008000001,-9.553098368800002,2.8585722312,0.8973366700000001,5.8389567,-4.44594957,,,
imu,500.46533,-0.8344231560000002,-9.549509452,2.856777772800001,0.9646288599999999,6.47449405,-3.52628964,,,
imu,500.47379,-0.8194693360000002,-9.541733465600002,2.841225800000001,0.91229049,7.13993904,-2.77112173,,,
imu,500.48225,-0.7997302936000001,-9.524387034400002,2.838235036,0.7702292,7.7829533,-2.09819983,,,
imu,500.491067,-0.8152822664000001,-9.535153784800002,2.832253508,0.82256757,8.43344447,-1.49257012,,,
imu,500.499884,-0.8314323920000001,-9.527377798400002,2.8280664384,0.85995212,9.054027999999999,-1.14863226,,,
imu,500.508701,-0.8481806704000001,-9.533359326400001,2.8346461192,0.82256757,9.83162664,-0.8495558599999999,,,
imu,500.517518,-0.8619381848000001,-9.554294674400001,2.8310572024,0.8749059399999999,10.96811696,-0.60281783,,,
imu,500.526334,-0.8583492680000002,-9.555490980000002,2.8298608968,0.8524752099999999,12.13451492,-0.5056179999999999,,,
imu,500.535151,-0.8368157672000002,-9.562070660800002,2.8298608968,0.56835263,13.30838979,-0.4158950799999999,,,
imu,500.543968,-0.8326286976000001,-9.5800152448,2.8286645912,0.29170696,14.40749556,-0.4308489,,,
imu,500.552785,-0.8750975464000001,-9.595567217600001,2.852590703200001,0.11226112,15.6337088,-0.40094126,,,
imu,500.561602,-0.9115848672000001,-9.602146898400001,2.852590703200001,-0.11952309,17.22629063,-0.3112183399999999,,,
imu,500.570419,-0.9432869656,-9.596165370400001,2.838235036,-0.35878421,18.78148791,-0.2289723299999999,,,
imu,500.579236,-1.0192523712,-9.5949690648,2.8603666896,-0.59056842,20.45631575,-0.09438795,,,
imu,500.588053,-1.1029937632,-9.6015487456,2.8537870088,-0.91955246,22.512466,0.0626271599999999,,,
imu,500.59687,-1.1729776408,-9.6015487456,2.8448147168,-1.10647521,24.86769265,0.13739626,,,
imu,500.605687,-1.2698783944,-9.6087265792,2.8543851616,-1.49527453,27.64162626,0.15982699,,,
imu,500.614504,-1.3625920784,-9.6075302736,2.8340479664,-1.78687402,30.79688228,0.4215188400000001,,,
imu,500.623321,-1.3829292736,-9.612913648800001,2.8274682856,-2.07847351,34.19887633,0.4738572100000003,,,
imu,500.632138,-1.3679754536,-9.619493329600001,2.817897840800001,-2.58690339,37.72050093999999,0.6233954100000001,,,
imu,500.640955,-1.3147398544,-9.595567217600001,2.817897840800001,-3.15514855,41.15987954,0.7430259700000001,,,
imu,500.649771,-1.2585134912,-9.5566872856,2.819692299200001,-3.52899405,44.50953522,1.13182529,,,
imu,500.658588,-1.1849406968,-9.538742701600002,2.8119163128,-3.82059354,47.67974505999999,1.78979337,,,
imu,500.667405,-1.1197420416,-9.5291722568,2.7975606456,-4.06733157,50.34152502,2.43280763,,,
imu,500.676222,-1.0192523712,-9.5082369088,2.7790179088,-4.12714685,52.80142841,2.90385296,,,
imu,500.685039,-0.8697141712000002,-9.4938812416,2.7879902008,-4.157054489999999,54.59588681,3.4571443,,,
imu,500.693518,-0.6980443176000002,-9.496872005600002,2.8071310904,-4.1645314,55.97163825,3.58425177,,,
imu,500.701997,-0.4976631296000001,-9.455001309600002,2.794569881600001,-4.0149932,56.80905216999999,3.95809727,,,
imu,500.710476,-0.2984782472,-9.412532460800001,2.805336632,-3.89536264,57.13803621,4.41418878,,,
imu,500.718954,-0.1399677552,-9.398176793600001,2.799355104,-3.65610152,56.86139054,5.11701832,,,
imu,500.727433,0.004187069600000001,-9.377839598400001,2.7861957424,-3.51404023,56.12117645,5.70769421,,,
imu,500.735912,0.1896144376,-9.3455393472,2.8448147168,-3.30468675,54.99216303999999,6.38061611,,,
imu,500.744391,0.4019586816,-9.3174261656,2.8836946488,-2.96074889,53.25751992,7.113353290000001,,,
imu,500.75287,0.5197947832,-9.339557819200001,2.9118078304,-2.66167249,51.13407747999999,7.78627519,,,
imu,500.761348,0.6178918424000002,-9.3658765424,2.910611524800001,-2.03361205,48.85361992999999,8.773227310000001,,,
imu,500.769827,0.7201759712000001,-9.353913486400002,2.922574580800001,-1.60742818,46.34885508,9.692887240000001,,,
imu,500.778306,0.8087025856000001,-9.3246039992,2.9363320952,-1.08404448,43.98615152,10.59759335,,,
imu,500.786785,0.8954347416000001,-9.304266804000001,2.9171912056,-0.67281443,41.43652521,11.68922221,,,
imu,500.795264,0.9115848672000001,-9.319220624000002,2.896854010400001,-0.18681528,38.98409873,12.53411304,,,
imu,500.803742,0.9396980488000001,-9.3006778872,2.9046299968,0.50853735,36.76345646,13.37900387,,,
imu,500.812221,1.0025040928,-9.279144386400002,2.908218913600001,1.03192105,34.46804509,13.7752801,,,
imu,500.8207,1.067702748,-9.2510312048,2.838833188800001,1.52539711,32.18011063,13.71546482,,,
imu,500.829179,1.1131623608,-9.249834899200001,2.87113344,2.00391935,30.22116021,13.24441949,,,
imu,500.837584,1.184342544,-9.203777133600001,2.928556108800001,2.77404108,28.17248687,12.94534309,,,
imu,500.846062,1.274065464,-9.133793256,2.9482951512,3.56659354,26.11633662,12.31728265,,,
imu,500.854541,1.3332825912,-9.119437588800002,2.9231727336,4.359146,24.09757092,11.26303834,,,
imu,500.86302,1.333880744,-9.173869493600002,2.9321450256,5.14422155,22.39283544,10.38823987,,,
imu,500.871499,1.3703680648,-9.2133475784,2.980595402400001,5.93677401,20.66566923,9.90971763,,,
imu,500.879978,1.3225158408,-9.2378718432,2.922574580800001,6.50501917,19.21514869,9.28165719,,,
imu,500.888456,1.259111644,-9.290509289600001,2.9237708864,6.99849523,18.13847365,8.750796580000001,,,
imu,500.897031,1.2788506864,-9.3335762912,3.0039233616,7.24523326,17.26367518,8.32461271,,,
imu,500.905605,1.2357836848,-9.3210150824,2.9764083328,7.29757163,16.51598418,7.66664463,,,
imu,500.914179,1.2220261704,-9.353315333600001,2.975810180000001,7.39477146,15.91035447,6.784369250000001,,,
imu,500.922753,1.235185532,-9.353315333600001,2.9405191648,7.60412494,15.5589397,5.91704769,,,
imu,500.931327,1.2812432976,-9.387410043200001,2.9094152192,7.56674039,15.26734021,4.75812664,,,
imu,500.939901,1.3207213824,-9.438851184,2.8902743296,7.910678249999999,14.96826381,3.70388233,,,
imu,500.948476,1.3476382584,-9.435860420000001,2.850198092000001,8.037785719999999,14.4374032,2.84403768,,,
imu,500.95705,1.37575144,-9.4203084472,2.7981587984,8.060216449999999,13.92149641,1.9617623,,,
imu,500.965624,1.3948923296,-9.455001309600002,2.7467176576,8.262093019999998,13.28595906,1.10191765,,,
imu,500.974198,1.402668316,-9.479525574400002,2.700659892,8.516307959999999,12.76257536,0.4663803,,,
imu,500.982772,1.4068553856,-9.474740352000001,2.6486205984,8.61350779,11.99993054,-0.01214194000000002,,,
imu,500.991346,1.4182202888,-9.454403156800002,2.625890792,8.56864633,11.19990117,-0.4233719899999999,,,
imu,500.999921,1.4062572328,-9.4974701584,2.562486595200001,8.471446499999999,10.22042596,-0.9243249599999999,,,
imu,501.008495,1.3715643704,-9.582407856000001,2.5038676208,8.209754649999999,9.203566200000001,-1.43275484,,,
imu,501.017069,1.3655828424,-9.596165370400001,2.509250996,7.73870932,8.463352109999999,-1.7019236,,,
imu,501.025643,1.3135435488,-9.519601812000001,2.4691747584,7.33495618,7.558646,-2.10567674,,,
imu,501.034217,1.2220261704,-9.501657228000001,2.4619969248,6.92372613,6.751139719999999,-2.38979932,,,
imu,501.042791,1.1945111416,-9.506442450400002,2.4751562864,6.59474209,6.138033099999999,-2.32998404,,,
imu,501.051366,1.2178391008,-9.4938812416,2.458408008,6.44520389,5.69689541,-2.32998404,,,
imu,501.05994,1.1986982112,-9.48072188,2.4440523408,6.40781934,5.36791137,-2.54681443,,,
imu,501.068514,1.1765665576,-9.4938812416,2.447043104800001,6.24332732,4.77723548,-2.85336774,,,
imu,501.077088,1.1502478344,-9.5249851872,2.4500338688,6.06388148,4.20151341,-3.13001341,,,
imu,501.085662,1.097610388,-9.549509452,2.4530246328,6.04892766,3.75289881,-3.53376655,,,
imu,501.094236,1.0413840248,-9.562668813600002,2.4578098552,5.82462036,3.40896095,-4.102011709999999,,,
imu,501.102601,0.9923354952000002,-9.562668813600002,2.4745581336,5.54049778,3.30428421,-4.6179185,,,
imu,501.110965,0.9612315496000001,-9.554892827200002,2.4721655224,5.43582104,3.43139168,-5.05905619,,,
imu,501.119329,0.9498666464000002,-9.5423316184,2.4727636752,5.248898290000001,3.41643786,-5.45533242,,,
imu,501.127694,0.9289312984000001,-9.531564868,2.487717495200001,5.106837000000001,3.45382241,-5.91142393,,,
imu,501.136058,0.9205571592,-9.5172092008,2.500278704,5.05449863,3.63326825,-6.24040797,,,
imu,501.144423,0.9163700896000002,-9.5172092008,2.508652843200001,5.03954481,3.70056044,-6.315177069999999,,,
imu,501.152787,0.9145756312000002,-9.526181492800001,2.5074565376,4.94234498,3.67812971,-6.49462291,,,
imu,501.161151,0.9229497704,-9.5357519376,2.5188214408,4.8825297,3.57345297,-6.621730379999999,,,
imu,501.169516,0.9277349928000002,-9.5429297712,2.5325789552,4.89748352,3.37905331,-6.58434583,,,
imu,501.17788,0.9367072848000002,-9.585996772800002,2.522410357600001,4.80028369,3.28933039,-6.2628387,,,
imu,501.186244,0.9462777296000001,-9.589585689600002,2.5104473016,4.46382274,3.10988455,-5.97871612,,,
imu,501.194609,0.9648204664000001,-9.585398620000001,2.5146343712,4.05259269,2.87810034,-5.874039379999999,,,
imu,501.202973,0.9678112304000002,-9.583006008800002,2.499082398400001,3.74603938,2.51173175,-5.82170101,,,
imu,501.211337,0.9606333968,-9.594370912,2.4847267312,3.57407045,2.2500399,-5.56000916,,,
imu,501.219702,0.9283331456000001,-9.600352440000002,2.4805396616,3.45443989,2.01825569,-5.4403786,,,
imu,501.228066,0.9199590064000001,-9.599754287200001,2.464389536000001,3.26751714,1.67431783,-5.34317877,,,
imu,501.23643,0.9169682424000002,-9.568052188800001,2.4530246328,3.00582529,1.6518871,-5.15625602,,,
imu,499.864843,,,,,,,84.05876839999999,-22.21103080000002,121.6752808
imu,499.966406,,,,,,,82.1056164,-20.91706760000001,121.9804608
imu,500.067968,,,,,,,85.2306596,-22.49179640000001,120.0028944
imu,500.169531,,,,,,,82.8624628,-21.58846360000002,123.6284328
imu,500.271215,,,,,,,83.60710200000001,-22.61386840000002,122.1513616
imu,500.372656,,,,,,,84.52264199999999,-23.26085000000002,125.7891072
imu,500.474249,,,,,,,85.377146,-23.07774200000001,126.38726
imu,500.575933,,,,,,,84.82782200000001,-23.4195436,126.8023048
imu,501.244795,0.9056033392000001,-9.5459205352,2.4488375632,2.87871782,1.63693328,-5.12634838,,,
imu,501.253159,0.9085941032000001,-9.524387034400002,2.42251884,2.82637945,1.53225654,-5.08148692,,,
imu,501.261524,0.9283331456000001,-9.540537160000001,2.404574256,2.87871782,1.33785688,-4.954379449999999,,,
imu,501.269888,0.9373054376000002,-9.5423316184,2.4009853392,2.90862546,1.33037997,-5.044102369999999,,,
imu,501.278252,0.9546518688000002,-9.5184055064,2.3914148944,2.95348692,1.0537343,-5.05905619,,,
imu,501.286617,0.9474740352000001,-9.498666464000001,2.389620436,2.87124091,0.7770886299999997,-5.22354821,,,
imu,501.294981,0.9510629520000001,-9.505246144800001,2.379451838400001,2.96096383,0.5079198699999998,-5.31327113,,,
imu,501.303742,0.9528574104000002,-9.520199964800002,2.3788536856,3.19274804,0.3209971199999999,-5.283363489999999,,,
imu,501.312503,0.9702038416000002,-9.5357519376,2.36270356,3.17779422,-0.09023292999999999,-5.283363489999999,,,
imu,501.321264,0.9761853696000001,-9.5632669664,2.3668906296,3.1628404,-0.3668786000000002,-5.32074804,,,
imu,501.330025,0.9929336480000002,-9.572239258400002,2.3609091016,3.1628404,-0.6510011800000002,-5.31327113,,,
imu,501.338786,0.9929336480000002,-9.597361676,2.3573201848,3.00582529,-0.9949390400000002,-5.522624609999999,,,
imu,501.347548,0.9887465784000001,-9.6117173432,2.3519368096,2.84881018,-1.37626145,-5.67216281,,,
imu,501.356309,0.9803724392000001,-9.606932120800002,2.3531331152,2.6394567,-1.80992223,-5.784316459999999,,,
imu,501.36507,0.9690075360000001,-9.576426328,2.3579183376,2.45253395,-2.14638318,-5.8889932,,,
imu,501.373831,0.9755872168000002,-9.575230022400001,2.3465534344,2.28056502,-2.50527486,-5.761885729999999,,,
imu,501.382592,0.9833632032,-9.577024480800002,2.356722032,2.10859609,-2.91650491,-6.01610067,,,
imu,501.391353,0.963026008,-9.6075302736,2.3429645176,2.03382699,-3.29035041,-6.08339286,,,
imu,501.400114,0.9767835224000002,-9.625474857600002,2.3321977672,2.0413039,-3.63428827,-6.090869769999999,,,
imu,501.408875,0.963026008,-9.6015487456,2.3411700592,1.64502767,-4.14271815,-6.28526943,,,
imu,501.417636,0.9510629520000001,-9.620091482400001,2.3292070032,1.47305874,-4.4791791,-6.442284539999999,,,
imu,501.426397,0.9367072848000002,-9.640428677600001,2.3339922256,1.25622835,-4.86797842,-6.47966909,,,
imu,501.435158,0.9199590064000001,-9.633250844,2.335786684,0.9870595899999999,-5.316593019999999,-6.487145999999999,,,
imu,501.44392,0.9145756312000002,-9.6296619272,2.3423663648,0.67302937,-5.61566942,-6.73388403,,,
imu,501.452681,0.8942384360000002,-9.621287788000002,2.320832864,0.3739529699999999,-5.929699640000001,-6.80865313,,,
imu,501.461442,0.8960328944000001,-9.631456385600002,2.3232254752,0.27675314,-6.340929689999999,-6.95819133,,,
imu,501.470203,0.8750975464000001,-9.6499991224,2.325019933600001,0.06739966,-6.78954429,-7.18249863,,,
imu,501.478964,0.8607418792,-9.6535880392,2.2945141408,-0.17186146,-7.14095906,-7.227360089999999,,,
imu,501.487725,0.8290397808000001,-9.617100718400001,2.3106642664,-0.54570696,-7.350312539999999,-7.18249863,,,
imu,501.496486,0.8398065312,-9.599156134400001,2.3166457944,-0.9644139199999999,-7.85874242,-7.07034498,,,
imu,501.505247,0.8009265992000001,-9.593174606400002,2.325019933600001,-1.28592105,-8.24006483,-7.189975539999999,,,
imu,501.513748,0.7764023344000002,-9.633848996800001,2.3363848368,-1.622382,-8.58400269,-7.234837000000001,,,
imu,501.522249,0.7775986400000001,-9.699645804800001,2.3525349624,-2.01118132,-8.98775583,-7.279698460000001,,,
imu,501.530751,0.7393168608000001,-9.745105417600001,2.3734703104,-2.52708811,-9.4139397,-7.249790819999999,,,
imu,501.539252,0.7118018320000001,-9.749890640000002,2.395601964,-3.17010237,-9.51113953,-7.02548352,,,
imu,501.547753,0.6789034280000001,-9.7151977776,2.3824426024,-3.618716969999999,-9.65320082,-6.62920729,,,
imu,501.556254,0.6376308848000001,-9.672728928800002,2.3979945752,-4.02994702,-9.72049301,-6.090869769999999,,,
imu,501.564755,0.6184899952000001,-9.647606511200001,2.4219206872,-4.2393005,-9.79526211,-5.59739371,,,
imu,501.573256,0.6047324808000001,-9.633848996800001,2.4308929792,-4.373884879999999,-9.61581627,-5.31327113,,,
imu,501.581757,0.580208216,-9.593174606400002,2.4362763544,-4.43370016,-9.29430914,-5.03662546,,,
imu,501.590258,0.5514968816000001,-9.5489112992,2.4488375632,-4.28416196,-9.122340209999999,-4.89456417,,,
imu,501.59876,0.5263744640000001,-9.502255380800001,2.4775488976,-4.351454149999999,-9.01766347,-4.98428709,,,
imu,501.607261,0.5018501992000001,-9.492086783200001,2.500278704,-4.34397724,-8.80830999,-5.07401001,,,
imu,501.615762,0.4880926848000001,-9.508835061600001,2.525401121600001,-4.351454149999999,-8.45689522,-5.00671782,,,
imu,501.624263,0.4821111568000001,-9.513620284000002,2.57205704,-4.41126943,-8.22511101,-5.24597894,,,
imu,501.632764,0.46356842,-9.529770409600001,2.615124041600001,-4.59819218,-7.90360388,-5.65720899,,,
imu,501.641265,0.442633072,-9.548313146400002,2.6390501536,-4.6879151,-7.40265091,-5.82170101,,,
imu,501.649766,0.4151180432000001,-9.578220786400001,2.668957793600001,-5.00194532,-7.07366687,-5.91142393,,,
imu,501.658268,0.4037531400000001,-9.573435564,2.709632184,-5.38326773,-6.49046789,-5.93385466,,,
imu,501.666769,0.3899956256000001,-9.580613397600002,2.731165684800001,-5.764590139999999,-5.83249981,-5.79927028,,,
imu,501.67527,0.3887993200000001,-9.583604161600002,2.742530588,-6.13843564,-5.294162289999999,-5.806747189999999,,,
imu,501.683771,0.4061457512000001,-9.559678049600002,2.7658585472,-6.42255822,-4.71844022,-5.77683955,,,
imu,501.692272,0.4109309736,-9.544126076800001,2.7927754232,-6.474896589999999,-4.02308759,-5.74693191,,,
imu,501.700773,0.4109309736,-9.5381445488,2.8047384792,-6.56461951,-3.40998097,-5.8142241,,,
imu,501.709297,0.4115291264,-9.519601812000001,2.8184959936,-6.639388609999999,-3.01370474,-5.75440882,,,
imu,501.71782,0.3852104032000001,-9.492086783200001,2.832253508,-6.669296249999999,-2.55761323,-5.65720899,,,
imu,501.726343,0.3780325696000001,-9.469356976800002,2.8460110224,-6.69920389,-2.10899863,-5.65720899,,,
imu,501.734866,0.3541064576,-9.452010545600002,2.853188856,-6.51228114,-1.51832274,-5.48524006,,,
imu,501.74339,0.3283858872000001,-9.4215047528,2.865151912,-6.16086637,-0.9500775800000003,-5.3656095,,,
imu,501.751913,0.3325729568,-9.353315333600001,2.8699371344,-5.936559069999999,-0.15004821,-5.17120984,,,
imu,501.760436,0.3523119992,-9.315631707200001,2.8866854128,-5.674867219999999,0.4331507699999997,-5.23102512,,,
imu,501.76896,0.3887993200000001,-9.353913486400002,2.889676176800001,-5.23372953,0.8817653699999997,-5.3656095,,,
imu,501.777483,0.4127254320000001,-9.403560168800002,2.9022373856,-4.800068749999999,1.30047233,-5.48524006,,,
imu,501.786006,0.4563905864000001,-9.404756474400001,2.9046299968,-4.32902342,1.49487199,-5.43290169,,,
imu,501.79453,0.4803166984,-9.371259917600002,2.9124059832,-4.21686977,1.62197946,-5.47028624,,,
imu,501.803053,0.4803166984,-9.344941194400002,2.9088170664,-3.88788573,1.68179474,-5.17120984,,,
imu,501.811576,0.4910834488,-9.381428515200001,2.914798594400001,-3.60376315,1.68179474,-4.68521069,,,
imu,501.8201,0.5317578392000001,-9.429878892000001,2.924369039200001,-3.14767164,1.61450255,-4.124442439999999,,,
imu,501.828623,0.5688433128,-9.430477044800002,2.921976428000001,-2.9682258,1.36776452,-3.83284295,,,
imu,501.837146,0.5604691736,-9.4077472384,2.917789358400001,-2.84111833,1.00887284,-3.58610492,,,
imu,501.845669,0.5467116592000001,-9.393391571200002,2.9213782752,-2.37754991,0.7770886299999997,-3.46647436,,,
imu,501.854193,0.5371412144000001,-9.387410043200001,2.9124059832,-2.15324261,0.3733354899999997,-3.3468438,,,
imu,501.862716,0.5209910888,-9.389204501600002,2.9076207608,-1.83921239,0.05930526999999985,-3.23469015,,,
imu,501.871239,0.5096261856000001,-9.413130613600002,2.910611524800001,-1.55508981,-0.1051867500000001,-3.3468438,,,
imu,501.879763,0.4946723656000001,-9.429878892000001,2.8854891072,-1.31582869,-0.1949096699999999,-3.30198234,,,
imu,501.888286,0.4916816016,-9.423299211200002,2.88608726,-1.19619813,-0.2023865800000002,-3.30945925,,,
imu,501.896809,0.4779240872000001,-9.436458572800001,2.8908724824,-1.07656757,-0.23229422,-3.37675144,,,
imu,501.905333,0.451605364,-9.434065961600002,2.8795075792,-1.00179847,-0.31454023,-3.42908981,,,
imu,501.913781,0.4408386136,-9.435860420000001,2.8717315928,-0.70272207,-0.03041764999999996,-3.13001341,,,
imu,501.922229,0.4240903352000001,-9.438851184,2.865151912,-0.5756146,0.09668981999999993,-3.15244414,,,
imu,501.930661,0.4181088072000001,-9.431075197600002,2.8789094264,-0.56066078,0.3284740299999998,-3.21973633,,,
imu,501.939109,0.4073420568000001,-9.437654878400002,2.8729278984,-0.33635348,0.6275504299999999,-3.24964397,,,
imu,501.947558,0.4252866408000001,-9.447225323200001,2.8627593008,-0.32139966,0.80699627,-3.1973056,,,
imu,501.956006,0.4533998224,-9.463973601600001,2.8693389816,-0.15690764,1.12102649,-3.0477674,,,
imu,501.964454,0.4719425592000001,-9.450216087200001,2.8866854128,-0.08213854000000001,1.28551851,-2.93561375,,,
imu,501.972903,0.4958686712000001,-9.4663662128,2.899246621600001,0.07487657,1.26308778,-2.88327538,,,
imu,501.981351,0.4898871432,-9.481918185600001,2.924967192,0.14216876,1.16588795,-2.87579847,,,
imu,501.989799,0.490485296,-9.461580990400002,2.9734175688,0.27675314,1.19579559,-2.90570611,,,
imu,501.998247,0.4880926848000001,-9.399971252000002,2.9393228592,0.3739529699999999,1.18831868,-2.95804448,,,
imu,502.006696,0.5006538936,-9.414326919200002,2.9393228592,0.56087572,1.10607267,-3.10010577,,,
imu,502.015144,0.4701481008,-9.443636406400001,2.9470988456,0.68050628,1.0537343,-3.05524431,,,
imu,502.023592,0.4767277816000001,-9.444234559200002,2.954874832000001,0.8524752099999999,0.8593346399999997,-2.92065993,,,
imu,502.032041,0.4851019208000001,-9.443636406400001,2.9901658472,0.8823828499999999,0.8967191899999998,-2.94309066,,,
imu,502.040489,0.4653628784000001,-9.4424401008,2.9752120272,0.8973366700000001,0.8892422799999999,-2.93561375,,,
imu,502.048937,0.4498109056,-9.4490197816,2.954874832000001,0.9272443100000001,0.8892422799999999,-3.03281358,,,
imu,502.057385,0.4438293776000001,-9.439449336800001,2.9722212632,0.74779847,1.01634975,-2.95056757,,,
imu,500.677344,,,,,,,84.5104348,-22.96787720000002,125.8745576
imu,500.778906,,,,,,,80.9581396,-22.28427400000001,122.5786136
imu,500.880469,,,,,,,83.53385879999999,-22.58945400000001,121.1259568
imu,500.982001,,,,,,,80.4698516,-22.21103080000002,121.8950104
imu,501.083563,,,,,,,83.3385436,-23.27305720000001,119.9906872
imu,501.185309,,,,,,,80.98255400000001,-23.28526440000001,122.4443344
imu,501.286719,,,,,,,80.5675092,-23.70030920000001,120.344696
imu,501.388251,,,,,,,80.43323,-23.26085000000002,122.7006856
imu,502.065834,0.4252866408000001,-9.4173176832,2.9560711376,0.6954601,1.07616503,-2.93561375,,,
imu,502.074282,0.4468201416000001,-9.402962016000002,2.959061901600001,0.9571519499999999,1.39767216,-2.90570611,,,
imu,502.08273,0.4659610312,-9.3975786408,2.96085636,0.9945364999999999,1.5023489,-2.99542903,,,
imu,502.091178,0.4779240872000001,-9.422102905600001,2.962052665600001,1.23379762,1.58459491,-2.98795212,,,
imu,502.099627,0.4653628784000001,-9.436458572800001,2.9387247064,1.26370526,1.71917929,-3.13749032,,,
imu,502.108075,0.4827093096,-9.462777296000002,2.9165930528,1.4431511,1.83133294,-3.27955161,,,
imu,502.116562,0.5102243384,-9.4801237272,2.9303505672,1.39828964,1.95844041,-3.21225942,,,
imu,502.125048,0.505439116,-9.474740352000001,2.9237708864,1.30108981,2.19022462,-3.04029049,,,
imu,502.133534,0.4767277816000001,-9.492684936000002,2.9303505672,1.17398234,2.19022462,-3.0477674,,,
imu,502.142021,0.4767277816000001,-9.499862769600002,2.9022373856,0.94967504,2.30237827,-3.14496723,,,
imu,502.150507,0.4946723656000001,-9.446627170400001,2.935733942400001,0.9048135799999999,2.54163939,-2.88327538,,,
imu,502.158994,0.4988594352000001,-9.409541696800002,2.931546872800001,0.8823828499999999,2.68370068,-2.80102937,,,
imu,502.16748,0.5180003248000001,-9.402962016000002,2.9321450256,0.91229049,2.80333124,-2.8982292,,,
imu,502.175967,0.5425245896,-9.4173176832,2.9470988456,1.05435178,2.79585433,-3.17487487,,,
imu,502.184453,0.5239818528000001,-9.437056725600002,2.898050316,1.30856672,2.94539253,-3.2720747,,,
imu,502.192939,0.5162058664000001,-9.453805004000001,2.896854010400001,1.39081273,3.03511545,-3.18982869,,,
imu,502.201426,0.5730303824,-9.440047489600001,2.9237708864,1.34595127,2.95286944,-3.13001341,,,
imu,502.209912,0.5826008272000001,-9.436458572800001,2.933939484000001,1.20388998,2.6986545,-3.52628964,,,
imu,502.218399,0.5604691736,-9.456795768000001,2.9046299968,1.07678251,2.60893158,-3.67582784,,,
imu,502.226885,0.5556839512000001,-9.481918185600001,2.9171912056,1.16650543,2.46687029,-3.71321239,,,
imu,502.235372,0.5622636320000001,-9.499862769600002,2.9118078304,1.27118217,2.28742445,-3.65339711,,,
imu,502.243858,0.5514968816000001,-9.514218436800002,2.8854891072,1.2188438,2.19770153,-3.46647436,,,
imu,502.252344,0.5449172008000001,-9.485507102400002,2.9076207608,1.12912088,2.29490136,-3.22721324,,,
imu,502.260831,0.5526931872,-9.4454308648,2.8974521632,0.7552753799999999,2.08554788,-3.18982869,,,
imu,502.269317,0.5479079648000001,-9.438851184,2.8783112736,0.620691,1.8761944,-3.24964397,,,
imu,502.277804,0.5419264368000001,-9.453805004000001,2.9506877624,0.67302937,1.71917929,-3.28702852,,,
imu,502.28629,0.5455153536,-9.536948243200001,2.9375284008,0.68798319,1.67431783,-3.54872037,,,
imu,502.294777,0.5449172008000001,-9.558481744000002,2.9303505672,0.55339881,1.47991817,-3.60105874,,,
imu,502.303263,0.5227855472,-9.5219944232,2.968632346400001,0.29918387,1.22570323,-3.72816621,,,
imu,502.311749,0.4719425592000001,-9.471749588000002,2.935733942400001,0.16459949,1.15093413,-3.54872037,,,
imu,502.320504,0.4623721144,-9.468758824,2.9255653448,0.14964567,1.36028761,-3.18235178,,,
imu,502.329259,0.4539979752000001,-9.481320032800001,2.9195838168,0.30666078,1.68179474,-2.748691,,,
imu,502.338013,0.4569887392,-9.444832712,2.927957956,0.27675314,2.05564024,-2.55429134,,,
imu,502.346768,0.4575868920000001,-9.382624820800002,2.9094152192,0.55339881,2.30985518,-2.5243837,,,
imu,502.355522,0.4432312248,-9.3802322096,2.883096496000001,0.8749059399999999,2.48182411,-2.73373718,,,
imu,502.364277,0.4378478496000001,-9.4005694048,2.868142676,1.24127453,2.80333124,-2.66644499,,,
imu,502.373031,0.4809148512,-9.418513988800001,2.874124204,1.17398234,3.04259236,-2.76364482,,,
imu,502.381786,0.5150095608,-9.402962016000002,2.8986484688,1.27865908,3.32671494,-2.93561375,,,
imu,502.39054,0.5335522976000001,-9.434065961600002,2.9046299968,1.37585891,3.13231528,-3.31693616,,,
imu,502.399295,0.5401319784,-9.479525574400002,2.9004429272,1.45062801,3.08745382,-3.42908981,,,
imu,502.40805,0.5526931872,-9.471749588000002,2.9195838168,1.1440747,2.95286944,-3.50385891,,,
imu,502.416804,0.5431227424,-9.443636406400001,2.9321450256,1.18145925,2.91548489,-3.36179762,,,
imu,502.425559,0.5443190480000001,-9.463973601600001,2.917789358400001,1.15902852,2.87810034,-3.3468438,,,
imu,502.434313,0.550300576,-9.4633754488,2.969828652,1.1440747,2.91548489,-3.16739796,,,
imu,502.443068,0.5455153536,-9.4591883792,2.9333413312,1.09921324,2.75099287,-3.18982869,,,
imu,502.451822,0.5221873944000001,-9.463973601600001,2.9303505672,0.85995212,2.61640849,-3.29450543,,,
imu,502.460577,0.5550857984,-9.461580990400002,2.959061901600001,0.94219813,2.59397776,-3.07019813,,,
imu,502.469332,0.5437208952000001,-9.4591883792,2.951884068,0.81509066,2.52668557,-3.09262886,,,
imu,502.478086,0.5359449088000001,-9.460982837600001,2.9405191648,0.63564482,2.51173175,-3.11505959,,,
imu,502.486841,0.5526931872,-9.469356976800002,2.969828652,0.6281679099999999,2.60893158,-3.14496723,,,
imu,502.495595,0.5646562432000001,-9.455001309600002,2.9674360408,0.3739529699999999,2.53416248,-3.21973633,,,
imu,502.50435,0.5359449088000001,-9.463973601600001,2.9512859152,0.49358353,2.33976282,-3.18982869,,,
imu,502.513104,0.5156077136000001,-9.472347740800002,2.945304387200001,0.52349117,2.39210119,-3.10010577,,,
imu,502.521638,0.5371412144000001,-9.4526086984,2.9333413312,0.56835263,2.42200883,-2.98047521,,,
imu,502.530171,0.5479079648000001,-9.4137287664,2.9153967472,0.65807555,2.4743472,-2.95804448,,,
imu,502.538705,0.5646562432000001,-9.3832229736,2.9171912056,0.7702292,2.42200883,-2.95804448,,,
imu,502.547238,0.55329134,-9.420906600000002,2.904031844000001,1.03939796,2.33976282,-3.10758268,,,
imu,502.555772,0.5467116592000001,-9.48072188,2.889078024,1.34595127,2.41453192,-3.25712088,,,
imu,502.564305,0.5658525488000001,-9.488497866400001,2.907022608,1.2936129,2.42948574,-3.25712088,,,
imu,502.572839,0.5718340768000001,-9.446627170400001,2.8902743296,1.12912088,2.3995781,-3.36927453,,,
imu,502.581372,0.5574784096000001,-9.471749588000002,2.901041080000001,1.1440747,2.33976282,-3.10010577,,,
imu,502.589906,0.5820026744000001,-9.502255380800001,2.896854010400001,0.9945364999999999,2.324809,-2.83093701,,,
imu,502.598439,0.5987509528,-9.487899713600001,2.924369039200001,0.77770611,2.40705501,-2.73373718,,,
imu,502.606973,0.5939657304000001,-9.4669643656,2.8974521632,0.73284465,2.43696265,-2.66644499,,,
imu,502.615506,0.5867878968000001,-9.486703408,2.9142004416,0.6954601,2.324809,-2.74121409,,,
imu,502.62404,0.6077232448000001,-9.490292324800002,2.9213782752,0.7702292,2.18274771,-2.84589083,,,
imu,502.632573,0.61310662,-9.46576806,2.8974521632,0.73284465,2.1752708,-3.13001341,,,
imu,502.641107,0.6071250920000001,-9.443636406400001,2.93094872,0.70293701,1.96591732,-3.48890509,,,
imu,502.64964,0.5909749664,-9.4173176832,2.917789358400001,0.6954601,1.80890221,-3.85527368,,,
imu,502.658173,0.601143564,-9.4137287664,2.93094872,0.7104139199999999,1.47991817,-4.124442439999999,,,
imu,502.666707,0.5945638832000001,-9.4137287664,2.9273598032,0.64312173,1.31542615,-4.33379592,,,
imu,502.67524,0.5592728680000001,-9.405354627200001,2.9261634976,0.64312173,1.21822632,-4.28893446,,,
imu,502.683774,0.5574784096000001,-9.403560168800002,2.9375284008,0.74779847,1.28551851,-4.04219643,,,
imu,502.692307,0.5622636320000001,-9.4215047528,2.910013372,0.8973366700000001,1.1285034,-4.012288789999999,,,
imu,502.700841,0.5389356728,-9.437654878400002,2.9321450256,0.91229049,1.08364194,-3.84031986,,,
imu,502.709374,0.5550857984,-9.450216087200001,2.9447062344,1.01696723,1.03878048,-3.78798149,,,
imu,502.717908,0.5580765624000001,-9.460982837600001,2.9441080816,1.09921324,1.07616503,-3.93751969,,,
imu,502.726315,0.5562821040000001,-9.4621791432,2.9500896096,1.09921324,1.02382666,-3.83284295,,,
imu,502.734723,0.5407301312,-9.470553282400001,2.9447062344,1.17398234,1.0537343,-3.82536604,,,
imu,502.743131,0.5497024232000001,-9.4555994624,2.9375284008,1.19641307,1.10607267,-3.81041222,,,
imu,502.751538,0.5574784096000001,-9.4460290176,2.9375284008,1.27865908,1.06868812,-3.87770441,,,
imu,502.759946,0.5449172008000001,-9.443636406400001,2.9327431784,1.23379762,0.94905756,-4.06462716,,,
imu,502.768353,0.5066354216000001,-9.447225323200001,2.93094872,1.37585891,1.07616503,-3.9449966,,,
imu,502.776761,0.4964668240000001,-9.469356976800002,2.9297524144,1.27865908,1.2032725,-3.90013514,,,
imu,502.785169,0.5287670752,-9.475936657600002,2.9500896096,1.27865908,1.34533379,-3.91508896,,,
imu,502.793576,0.490485296,-9.4765348104,2.9351357896,1.27865908,1.50982581,-3.81041222,,,
imu,502.801984,0.4563905864000001,-9.4962738528,2.9333413312,1.12912088,1.60702564,-3.69078166,,,
imu,502.810391,0.4432312248,-9.477731116000001,2.9447062344,0.9347212199999999,1.89862513,-3.72816621,,,
imu,502.818799,0.4151180432000001,-9.474740352000001,2.910013372,0.94967504,2.19770153,-3.81041222,,,
imu,502.827207,0.4276792520000001,-9.468160671200001,2.933939484000001,0.83004448,2.52668557,-3.81788913,,,
imu,502.835614,0.4414367664,-9.441841948000002,2.9195838168,0.68050628,2.98277708,-3.93004278,,,
imu,502.844022,0.4617739616000001,-9.404756474400001,2.9291542616,0.8449983,3.10240764,-4.0197657,,,
imu,502.852429,0.4456238360000001,-9.433467808800001,2.9261634976,1.03939796,3.25942275,-3.98985806,,,
imu,502.860837,0.4677554896000001,-9.444234559200002,2.9255653448,1.30856672,3.53606842,-3.7954584,,,
imu,502.869244,0.5042428104000001,-9.4173176832,2.917789358400001,1.39828964,3.6706528,-3.50385891,,,
imu,502.877652,0.5060372688000001,-9.4424401008,2.9183875112,1.38333582,3.43886859,-3.36179762,,,
imu,501.490607,,,,,,,80.860482,-23.57823720000001,123.64064
imu,501.591406,,,,,,,81.21449080000001,-23.23643560000001,123.8603696
imu,501.693182,,,,,,,81.08021160000001,-22.52841800000001,122.969244
imu,501.794714,,,,,,,81.65395,-22.54062520000002,122.8349648
imu,501.896094,,,,,,,81.165662,-22.14999480000002,122.7739288
imu,501.997626,,,,,,,83.4972372,-22.47958920000002,121.992668
imu,502.099982,,,,,,,81.2389052,-21.80819320000001,122.5908208
imu,502.200751,,,,,,,84.36394840000001,-22.98008440000001,120.7841552
imu,502.88606,0.4833074624000001,-9.477132963200003,2.9034336912,1.37585891,3.28185348,-3.10758268,,,
imu,502.894467,0.5371412144000001,-9.468160671200001,2.935733942400001,1.46558183,3.19960747,-2.78607555,,,
imu,502.902875,0.5556839512000001,-9.444234559200002,2.9261634976,1.48053565,3.16222292,-2.65149117,,,
imu,502.911282,0.4976631296000001,-9.4555994624,2.899246621600001,1.35342818,2.93043871,-2.55429134,,,
imu,502.91969,0.5245800056000001,-9.453206851200001,2.9136022888,1.40576655,2.87810034,-2.36736859,,,
imu,502.928185,0.5437208952000001,-9.4113361552,2.9351357896,1.42819728,2.94539253,-2.25521494,,,
imu,502.936681,0.5443190480000001,-9.435262267200002,2.9153967472,1.45810492,3.01268472,-2.40475314,,,
imu,502.945176,0.5269726168000001,-9.4699551296,2.887283565600001,1.39081273,3.2220382,-2.59167589,,,
imu,502.953671,0.5407301312,-9.4669643656,2.9058263024,1.16650543,3.25942275,-2.95804448,,,
imu,502.962167,0.5796100632000001,-9.4280844336,2.945304387200001,0.9571519499999999,3.38653022,-3.33936689,,,
imu,502.970662,0.631051204,-9.390998960000001,2.979997249600001,0.9272443100000001,3.49868387,-3.72816621,,,
imu,502.979157,0.6238733704,-9.405354627200001,2.9614545128,1.26370526,3.37905331,-4.04967334,,,
imu,502.987653,0.663949608,-9.458590226400002,2.943509928800001,1.46558183,3.41643786,-4.27398064,,,
imu,502.996148,0.7195778184000001,-9.457992073600002,2.9387247064,1.47305874,3.15474601,-4.341272829999999,,,
imu,503.004643,0.7351297912000001,-9.427486280800002,2.9351357896,1.64502767,2.90053107,-4.41604193,,,
imu,503.013139,0.726755652,-9.4490197816,2.9076207608,1.90671952,2.30985518,-4.59548777,,,
imu,503.021563,0.7620466672,-9.427486280800002,2.9165930528,1.88428879,1.80890221,-4.625395409999999,,,
imu,503.030059,0.7710189592000001,-9.444234559200002,2.9094152192,1.90671952,1.19579559,-4.64034923,,,
imu,503.038554,0.7046239984,-9.527975951200002,2.880105732000001,1.94410407,0.47801223,-4.61044159,,,
imu,503.047049,0.6418179544000001,-9.593174606400002,2.877713120800001,1.73475059,-0.02294074000000013,-4.4683803,,,
imu,503.055545,0.6190881480000001,-9.5638651192,2.864553759200001,1.368382,-0.4715553400000001,-4.408565019999999,,,
imu,503.06404,0.5873860496000001,-9.498666464000001,2.8747223568,1.2188438,-0.5687551700000002,-4.146873169999999,,,
imu,503.072535,0.5449172008000001,-9.472347740800002,2.8609648424,1.07678251,-0.57623208,-3.76555076,,,
imu,503.081031,0.5072335744,-9.5184055064,2.8400294944,0.94967504,-0.5164168,-3.56367419,,,
imu,503.089526,0.4803166984,-9.5172092008,2.819692299200001,0.97958268,-0.15004821,-3.45899745,,,
imu,503.098021,0.4833074624000001,-9.464571754400001,2.829262744000001,1.02444414,0.11164364,-3.42908981,,,
imu,503.106517,0.502448352,-9.405354627200001,2.850198092000001,1.23379762,0.50044296,-3.62348947,,,
imu,503.115012,0.454596128,-9.408943544000001,2.817897840800001,1.48801256,0.5378275100000001,-4.124442439999999,,,
imu,502.302229,,,,,,,81.55629239999999,-21.84481480000002,123.6040184
imu,502.403792,,,,,,,81.76381479999999,-22.76035480000001,120.6376688
imu,502.505354,,,,,,,81.27552680000001,-22.02792280000001,122.541992
imu,502.606947,,,,,,,81.7027788,-21.45418440000002,123.1035232
imu,502.70854,,,,,,,82.09340920000001,-22.30868840000002,122.7495144
imu,502.810072,,,,,,,81.7027788,-22.12558040000001,122.908208
imu,502.911604,,,,,,,81.6295356,-21.99130120000001,122.8593792
imu,503.013381,,,,,,,81.8248508,-22.29648120000001,122.8715864
imu,503.11476,,,,,,,84.2540836,-22.55283240000001,122.0659112
