Type,Timestamp,Data Accelerometer X,Data Accelerometer Y,Data Accelerometer Z,Data Gyroscope X,Data Gyroscope Y,Data Gyroscope Z,Data Magnetometer X,Data Magnetometer Y,Data Magnetometer Z
imu,207.405644,0.8033192104000001,-9.688280901600002,1.713707772,0.06739966,1.16588795,-4.19173463,,,
imu,207.414106,0.804515516,-9.7128051664,1.7155022304,-0.0522309,1.03878048,-4.32631901,,,
imu,207.422569,0.8212637944000001,-9.704431027200002,1.7232782168,-0.32887657,0.94905756,-4.32631901,,,
imu,207.431031,0.7955432240000001,-9.673925234400002,1.7232782168,-0.50832241,1.01634975,-4.25154991,,,
imu,207.439493,0.7943469184000002,-9.676915998400002,1.731652356,-0.64290679,0.8369039099999998,-4.33379592,,,
imu,207.447955,0.7937487656000001,-9.689477207200001,1.7328486616,-0.47841477,0.8219500899999996,-4.20668845,,,
imu,207.456418,0.7841783208,-9.682299373600001,1.7424191064,-0.48589168,0.9565344699999998,-4.146873169999999,,,
imu,207.46488,0.7889635432000001,-9.662560331200002,1.7489987872,-0.5307531400000001,1.02382666,-4.04967334,,,
imu,207.473342,0.7907580016000001,-9.675121540000001,1.7442135648,-0.65786061,0.9191499199999997,-4.06462716,,,
imu,207.481804,0.7979358352000001,-9.678112304,1.7454098704,-0.62047606,0.9116730099999999,-3.91508896,,,
imu,207.490267,0.7907580016000001,-9.657176956,1.7478024816,-0.62047606,1.00887284,-3.80293531,,,
imu,207.498729,0.7734115704000001,-9.641624983200002,1.7597655376,-0.68029134,0.9341037399999998,-3.7206893,,,
imu,207.507191,0.7692245008,-9.671532623200001,1.7579710792,-0.5681376899999999,1.0537343,-3.87770441,,,
imu,207.515653,0.7764023344000002,-9.710412555200001,1.7609618432,-0.32887657,1.14345722,-4.057150249999999,,,
imu,207.524116,0.7997302936000001,-9.667943706400001,1.770532288,-0.54570696,1.24065705,-4.02724261,,,
imu,207.532578,0.7722152648000001,-9.608128426400002,1.76455076,-0.68029134,1.29299542,-4.15435008,,,
imu,207.54104,0.7698226536000001,-9.605735815200001,1.7639526072,-0.7251528,1.30047233,-3.89265823,,,
imu,207.549503,0.7913561544000001,-9.6458120528,1.7603636904,-0.44103022,1.51730272,-3.68330475,,,
imu,207.557965,0.7979358352000001,-9.651793580800001,1.7567747736,-0.54570696,1.6518871,-3.54124346,,,
imu,207.566427,0.7901598488000001,-9.613511801600001,1.7513913984,-0.37373803,1.62945637,-3.59358183,,,
imu,207.574889,0.8063099744000001,-9.6075302736,1.7621581488,-0.11204618,1.66684092,-3.69825857,,,
imu,207.583352,0.8116933496000001,-9.620689635200002,1.7537840096,0.05992275,1.70422547,-3.87770441,,,
imu,207.591814,0.8182730304000002,-9.636839760800001,1.755578468,0.1720764,1.64441019,-4.22911918,,,
imu,207.600276,0.8224601,-9.621287788000002,1.74959694,0.14216876,1.45001053,-4.63287232,,,
imu,207.608738,0.8021229048,-9.605735815200001,1.758569232,0.2468455,1.38271834,-4.78988743,,,
imu,207.617201,0.7889635432000001,-9.627867468800002,1.7543821624,0.16459949,1.23318014,-4.96185636,,,
imu,207.625663,0.7967395296000002,-9.655980650400002,1.758569232,0.14964567,1.09859576,-4.991764,,,
imu,207.634125,0.8003284464,-9.6954587352,1.7633544544,0.41881443,1.09859576,-4.78988743,,,
imu,207.642588,0.7937487656000001,-9.696655040800001,1.7519895512,0.49358353,1.03878048,-4.55810322,,,
imu,207.65105,0.7752060288000001,-9.6912716656,1.7430172592,0.53096808,0.94905756,-4.51324176,,,
imu,207.659512,0.7770004872000001,-9.699645804800001,1.7489987872,0.56835263,0.92662683,-4.33379592,,,
imu,207.667974,0.7781967928000002,-9.7151977776,1.7561766208,0.36647606,0.9565344699999998,-4.19173463,,,
imu,207.676437,0.7698226536000001,-9.725366375200002,1.7543821624,0.3889067899999999,0.9565344699999998,-4.17678081,,,
imu,207.684899,0.7554669864000001,-9.722375611200002,1.7621581488,0.3889067899999999,0.92662683,-4.13191935,,,
imu,207.693361,0.7746078760000001,-9.7122070136,1.7627563016,0.18703022,0.9041961000000001,-3.99733497,,,
imu,207.701823,0.7572614448000001,-9.706225485600001,1.7609618432,0.05992275,0.9789651999999998,-3.97490424,,,
imu,207.710286,0.7602522088000001,-9.709216249600003,1.7669433712,-0.25410747,1.07616503,-4.19921154,,,
imu,207.718748,0.7506817640000001,-9.708019944000002,1.773523052,-0.34383039,1.1285034,-4.28145755,,,
imu,207.72721,0.7506817640000001,-9.697851346400002,1.770532288,-0.49336859,1.11354958,-4.28145755,,,
imu,207.735672,0.7566632920000002,-9.682299373600001,1.7627563016,-0.60552224,1.2032725,-4.244073,,,
imu,207.744135,0.7542706808000001,-9.6709344704,1.755578468,-0.64290679,1.2032725,-4.20668845,,,
imu,207.752597,0.7710189592000001,-9.648204664000001,1.7537840096,-1.0242292,1.17336486,-4.42351884,,,
imu,207.761059,0.7692245008,-9.636241608,1.761559996,-1.27844414,1.14345722,-4.49081103,,,
imu,207.769522,0.7746078760000001,-9.634447149600001,1.7573729264,-1.23358268,1.15093413,-4.48333412,,,
imu,207.778345,0.7764023344000002,-9.6428212888,1.7507932456,-1.22610577,1.00139593,-4.42351884,,,
imu,207.787169,0.7704208064000001,-9.6428212888,1.770532288,-1.15881358,0.9565344699999998,-4.37118047,,,
imu,207.795992,0.7662337368000001,-9.6434194416,1.770532288,-1.33078251,0.8518577299999999,-4.26650373,,,
imu,207.804816,0.7728134176000001,-9.639830524800002,1.7717285936,-1.66724346,0.7397040799999997,-4.341272829999999,,,
imu,207.813639,0.7644392784,-9.651195428000001,1.7771119688,-1.66724346,0.6873657099999999,-4.30388828,,,
imu,207.822463,0.7566632920000002,-9.667345553600002,1.7950565528,-1.53265908,0.6350273399999997,-4.21416536,,,
imu,207.831286,0.7578595976000001,-9.6954587352,1.7962528584,-1.34573633,0.5752120599999997,-4.0945348,,,
imu,207.84011,0.7554669864000001,-9.738525736800002,1.821375276,-1.25601341,0.66493498,-3.95247351,,,
imu,207.848934,0.7476910000000001,-9.746301723200002,1.8255623456,-1.30087487,0.7995193599999997,-4.057150249999999,,,
imu,207.857757,0.7351297912000001,-9.736731278400002,1.8351327904,-1.29339796,0.6724118899999998,-4.10948862,,,
imu,207.866581,0.7291482632,-9.734338667200001,1.827356804,-1.40555161,0.6051196999999999,-4.18425772,,,
imu,207.875404,0.723764888,-9.7325442088,1.8369272488,-1.48779762,0.7696117199999999,-4.430995749999999,,,
imu,207.884228,0.7147925960000001,-9.7265626808,1.8435069296,-1.622382,0.7097964399999999,-4.80484125,,,
imu,207.893051,0.7129981376000001,-9.7128051664,1.8417124712,-1.55508981,0.8219500899999996,-4.87213344,,,
imu,207.901875,0.7147925960000001,-9.692467971200001,1.8524792216,-1.57752054,0.9640113799999996,-4.85717962,,,
imu,207.910699,0.7183815128000002,-9.685888290400001,1.8447032352,-1.65976655,0.8967191899999998,-5.02914855,,,
imu,207.919522,0.7147925960000001,-9.673925234400002,1.8518810688,-1.68219728,0.8518577299999999,-5.021671639999999,,,
imu,207.928346,0.6992406232000001,-9.6733270816,1.860255208,-1.71958183,0.9714882899999999,-4.90204108,,,
imu,207.937169,0.7064184568,-9.702038416,1.8686293472,-1.78687402,0.94905756,-4.887087259999999,,,
imu,207.945993,0.7135962904,-9.727758986400001,1.8883683896,-1.80182784,1.06868812,-4.647826139999999,,,
imu,207.954816,0.7201759712000001,-9.718786694400002,1.8692275,-2.04108896,0.8593346399999997,-4.67773378,,,
imu,207.96364,0.7135962904,-9.6458120528,1.8716201112,-2.31025772,0.98644211,-4.4683803,,,
imu,207.972463,0.726755652,-9.633250844,1.8823868616,-2.39250373,0.8967191899999998,-4.22911918,,,
imu,207.98094,0.7303445688000001,-9.638634219200002,1.8823868616,-2.56447266,0.7770886299999997,-4.25902682,,,
imu,207.989563,0.7357279440000001,-9.6458120528,1.902125904,-2.70653395,0.66493498,-4.13191935,,,
imu,207.998039,0.7261574992000001,-9.655382497600002,1.9224630992,-2.8186876,0.5153967799999997,-4.21416536,,,
imu,208.006516,0.7309427216000001,-9.696056888000001,1.9284446272,-3.11028709,0.1789358299999999,-4.22164227,,,
imu,208.014992,0.7225685824,-9.6817012208,1.9386132248,-3.39440967,0.02192071999999978,-3.97490424,,,
imu,208.023468,0.6962498592000002,-9.634447149600001,1.9338280024,-3.55890169,0.01444380999999995,-3.82536604,,,
imu,208.031944,0.6597625384000001,-9.606333968000001,1.9272483216,-3.73087062,-0.05284837999999992,-3.496382,,,
imu,208.040421,0.6585662328000002,-9.633848996800001,1.9338280024,-3.61124006,0.1041667299999998,-3.07019813,,,
imu,208.048897,0.6513883992,-9.654784344800001,1.9374169192,-3.55890169,0.35838167,-2.98047521,,,
imu,208.057373,0.6477994824000001,-9.6523917336,1.9236594048,-3.30468675,0.4854891399999999,-2.90570611,,,
imu,208.065849,0.6364345792000001,-9.625474857600002,1.9134908072,-3.13271782,0.8219500899999996,-2.93561375,,,
imu,208.074326,0.6298548984000001,-9.595567217600001,1.9284446272,-2.92336434,1.09111885,-3.13001341,,,
imu,208.082802,0.6424161072,-9.594370912,1.935024308,-2.69905704,1.25561087,-3.40665908,,,
imu,208.091278,0.6418179544000001,-9.6248767048,1.938015072,-2.52708811,1.56216418,-3.6459202,,,
imu,208.099755,0.6597625384000001,-9.638036066400002,1.9505762808,-2.50465738,1.73413311,-3.84779677,,,
imu,208.108231,0.6795015808000001,-9.645213900000002,1.9565578088,-2.54951884,1.8014253,-3.99733497,,,
imu,208.116707,0.6896701784000001,-9.6637566368,1.9637356424,-2.62428794,1.89114822,-3.97490424,,,
imu,208.125183,0.7070166096,-9.6912716656,1.97390424,-2.80373378,1.88367131,-3.95247351,,,
imu,208.13366,0.7243630408,-9.7128051664,1.9870636016,-2.90841052,1.75656384,-3.90761205,,,
imu,208.142136,0.7297464160000001,-9.724170069600001,1.9942414352,-3.14767164,1.66684092,-3.75807385,,,
imu,208.150612,0.7279519576000001,-9.719983000000001,2.0079989496,-3.49908641,1.5023489,-3.66087402,,,
imu,208.159088,0.7297464160000001,-9.7301515976,2.0235509224,-3.83554736,1.2780416,-3.71321239,,,
imu,208.167565,0.7399150136000001,-9.738525736800002,2.0223546168,-4.18696213,1.12102649,-3.74312003,,,
imu,208.176041,0.7387187080000002,-9.735534972800002,2.051664104,-4.62062291,0.8294269999999999,-3.98238115,,,
imu,208.18455,0.7177833600000001,-9.711010708000002,2.0522622568,-4.8374533,0.5901658799999998,-4.11696553,,,
imu,208.193059,0.7022313872,-9.700243957600001,2.057645632,-5.20382189,0.4630584099999999,-3.93751969,,,
imu,208.201569,0.6932590952000001,-9.6912716656,2.0678142296,-5.49542138,0.2537049300000001,-3.87770441,,,
imu,208.210078,0.6723237472000001,-9.6733270816,2.0791791328,-5.742159409999999,0.2387511099999999,-3.81788913,,,
imu,208.218587,0.663949608,-9.668541859200001,2.0947311056,-6.08609727,0.2836125699999998,-3.84779677,,,
imu,208.227097,0.6723237472000001,-9.663158484000002,2.0953292584,-6.168343279999999,0.33595094,-3.5711511,,,
imu,208.235606,0.6633514552,-9.6733270816,2.1132738424,-6.13843564,0.4032431299999999,-3.36927453,,,
imu,208.244115,0.6579680800000002,-9.6499991224,2.1150683008,-6.41508131,0.5079198699999998,-3.22721324,,,
imu,208.252625,0.6585662328000002,-9.613511801600001,2.141387024,-6.714157709999999,0.6350273399999997,-3.15244414,,,
imu,208.261134,0.6591643856000001,-9.609324732000001,2.1808651088,-6.78892681,0.6499811599999998,-3.10010577,,,
imu,208.269643,0.6573699272000001,-9.636839760800001,2.1886410952,-6.77397299,0.66493498,-3.14496723,,,
imu,208.278153,0.6681366776000001,-9.614708107200002,2.2167542768,-6.99080338,0.7920424499999998,-3.21973633,,,
imu,208.286662,0.6495939408000001,-9.571641105600001,2.2412785416,-7.12538776,0.9341037399999998,-3.27955161,,,
imu,208.295171,0.6519865520000001,-9.561472508000001,2.261017584,-6.975849559999999,1.10607267,-3.09262886,,,
imu,208.303681,0.6747163584000001,-9.5776226336,2.290925224,-7.117910849999999,1.30794924,-3.00290594,,,
imu,208.31219,0.6753145112000001,-9.572837411200002,2.2981030576,-6.93846501,1.4275798,-2.77112173,,,
imu,208.320699,0.6842868032,-9.5393408544,2.3184402528,-6.826311359999999,1.44253362,-2.61410662,,,
imu,208.329209,0.6908664840000001,-9.502255380800001,2.341768212,-6.759019169999999,1.52477963,-2.71130645,,,
imu,208.337718,0.6980443176000002,-9.468758824,2.3501423512,-6.527234959999999,1.61450255,-2.80102937,,,
imu,208.346227,0.6992406232000001,-9.454403156800002,2.3561238792,-6.265543109999999,1.56216418,-2.96552139,,,
imu,208.354737,0.7004369288000002,-9.447225323200001,2.3638998656,-5.75711323,1.54721036,-3.1225365,,,
imu,208.363246,0.6956517064000001,-9.450216087200001,2.379451838400001,-5.2860679,1.60702564,-3.25712088,,,
imu,208.371755,0.6980443176000002,-9.463973601600001,2.3962001168,-5.06923751,1.577118,-3.31693616,,,
imu,208.380264,0.6800997336000001,-9.4831144912,2.4147428536,-4.77016111,1.60702564,-3.39918217,,,
imu,208.388699,0.6681366776000001,-9.506442450400002,2.4350800488,-4.47856162,1.62197946,-3.3468438,,,
imu,208.397133,0.6549773160000001,-9.517807353600002,2.447043104800001,-4.396315609999999,1.8014253,-3.13749032,,,
imu,208.405567,0.6567717744000001,-9.514218436800002,2.454819091200001,-4.20191595,1.8761944,-2.92065993,,,
imu,208.414002,0.6531828576,-9.5184055064,2.4631932304,-3.99256247,1.95844041,-2.65896808,,,
imu,208.422436,0.6675385248000001,-9.517807353600002,2.470371064,-3.83554736,2.03320951,-2.53933752,,,
imu,208.43087,0.6693329832000001,-9.491488630400001,2.473361828,-3.91031646,2.13040934,-2.5243837,,,
imu,208.439305,0.6878757200000001,-9.48072188,2.485324884000001,-3.73087062,2.20517844,-2.31503022,,,
imu,208.447739,0.6914646368,-9.499264616800001,2.473959980800001,-3.43927113,2.33976282,-2.05333837,,,
imu,208.456173,0.6980443176000002,-9.520199964800002,2.4745581336,-3.37197894,2.45939338,-1.85893871,,,
imu,208.464607,0.7022313872,-9.513620284000002,2.4901101064,-3.27477911,2.59397776,-1.73930815,,,
imu,208.473042,0.7171852072000001,-9.522592576000001,2.5026713152,-3.0429949,2.78090051,-1.50752394,,,
imu,208.481476,0.7243630408,-9.557285438400001,2.509250996,-2.72148777,2.89305416,-1.23087827,,,
imu,208.48991,0.7231667352000001,-9.575828175200002,2.5248029688,-2.93831816,2.90053107,-1.26826282,,,
imu,208.498345,0.7381205552000002,-9.5776226336,2.5367660248,-2.75887232,3.09493073,-1.253309,,,
imu,208.506779,0.7464946944,-9.5740337168,2.5475327752,-3.30468675,3.16969983,-1.63463141,,,
imu,208.515213,0.7458965416000001,-9.562668813600002,2.566673664800001,-3.59628624,3.17717674,-1.99352309,,,
imu,208.523647,0.7405131664000002,-9.549509452,2.5744496512,-3.80563972,3.34166876,-2.30755331,,,
imu,207.457023,,,,,,,83.24088599999999,-28.42449560000002,127.8399168
imu,207.558463,,,,,,,83.99773239999999,-28.10710840000002,126.2773952
imu,207.660026,,,,,,,83.4362012,-28.57098200000001,127.5103224
imu,207.761588,,,,,,,85.51142519999999,-29.303414,124.800324
imu,208.532082,0.7303445688000001,-9.538742701600002,2.5792348736,-3.91031646,3.48373005,-2.47204533,,,
imu,208.540516,0.7165870544000001,-9.530368562400001,2.585814554400001,-3.92527028,3.65569898,-2.56176825,,,
imu,208.54895,0.7106055264000001,-9.505844297600001,2.5738514984,-4.0897623,3.81271409,-2.68139881,,,
imu,208.557385,0.7135962904,-9.477132963200003,2.569066276,-4.231823589999999,3.8949601,-2.63653735,,,
imu,208.565819,0.7291482632,-9.456197615200002,2.576244109600001,-3.94770101,4.20151341,-2.44213769,,,
imu,208.574253,0.7321390272000001,-9.4454308648,2.5732533456,-3.76825517,4.20899032,-2.35241477,,,
imu,208.582688,0.7411113192000001,-9.430477044800002,2.5547106088,-3.3420713,4.48563599,-2.2253073,,,
imu,208.591138,0.7650374312,-9.419112141600001,2.563084748,-2.96074889,4.50806672,-2.001,,,
imu,208.599589,0.7698226536000001,-9.4173176832,2.5636829008,-2.77382614,4.4183438,-2.00847691,,,
imu,208.60804,0.76264482,-9.406550932800002,2.5744496512,-2.58690339,4.23142105,-2.08324601,,,
imu,208.616491,0.771617112,-9.404756474400001,2.583421943200001,-2.02613514,4.126744309999999,-2.05333837,,,
imu,208.624942,0.7823838624,-9.435860420000001,2.5917960824,-1.73453565,4.01459066,-2.08324601,,,
imu,208.633393,0.7979358352000001,-9.4382530312,2.598973916,-1.55508981,3.76037572,-2.10567674,,,
imu,208.641843,0.7985339880000002,-9.429878892000001,2.6169185,-1.42798234,3.60336061,-2.32998404,,,
imu,208.650294,0.8093007384,-9.423897364000002,2.6073480552,-1.26349032,3.30428421,-2.5243837,,,
imu,208.658745,0.8128896552000001,-9.444832712,2.6193111112,-1.12890594,2.94539253,-2.55429134,,,
imu,208.667196,0.8033192104000001,-9.462777296000002,2.6294797088,-0.9644139199999999,2.78090051,-2.53186061,,,
imu,208.675647,0.7829820152,-9.455001309600002,2.6282834032,-0.88964482,2.64631613,-2.48699915,,,
imu,208.684097,0.7859727792000001,-9.457393920800001,2.6324704728,-0.63542988,2.66126995,-2.34493786,,,
imu,208.692548,0.7728134176000001,-9.457393920800001,2.6270870976,-0.38121494,2.80333124,-2.27764567,,,
imu,208.700999,0.7704208064000001,-9.48072188,2.6306760144,-0.26906129,2.9229618,-2.12810747,,,
imu,208.70945,0.7734115704000001,-9.519003659200001,2.6336667784,-0.11204618,2.9977309,-2.19539966,,,
imu,208.717901,0.8051136688,-9.534555632000002,2.631872320000001,-0.01484635000000001,3.19960747,-2.27016876,,,
imu,208.726352,0.8069081272,-9.496872005600002,2.640844612,-0.08961545,3.46129932,-2.46456842,,,
imu,208.734802,0.8164785720000002,-9.478927421600002,2.6516113624,0.06739966,3.51363769,-2.55429134,,,
imu,208.743253,0.8320305448000002,-9.4765348104,2.6492187512,-0.02232326000000001,3.5958837,-2.71878336,,,
imu,208.751704,0.8625363376,-9.4699551296,2.6653688768,0.06739966,3.61831443,-2.86084465,,,
imu,208.760155,0.8792846160000001,-9.4873015608,2.6839116136,0.12721494,3.42391477,-2.93561375,,,
imu,208.768606,0.8984255056000002,-9.526779645600001,2.7024543504,0.08235347999999998,3.20708438,-3.1973056,,,
imu,208.777057,0.9044070336000001,-9.535153784800002,2.6940802112,-0.17186146,2.90800798,-3.18982869,,,
imu,208.785507,0.9044070336000001,-9.468758824,2.682715308000001,-0.09709236,2.81080815,-2.94309066,,,
imu,208.794316,0.8828735328,-9.388606348800002,2.6725467104,0.0001074699999999984,2.63883922,-2.62906044,,,
imu,208.803125,0.8816772272000001,-9.367671000800001,2.6534058208,0.21693786,2.48182411,-2.19539966,,,
imu,208.811934,0.8906495192000001,-9.3628857784,2.6270870976,0.6954601,2.35471664,-1.90380017,,,
imu,208.820743,0.8810790744000001,-9.3347725968,2.6169185,1.15155161,2.10797861,-1.85893871,,,
imu,208.829552,0.8649289488,-9.2964908176,2.606749902400001,1.80204278,2.07059406,-1.90380017,,,
imu,208.838361,0.8631344904,-9.325800304800001,2.60196468,2.51982614,2.15284007,-2.01595382,,,
imu,208.84717,0.8709104768000001,-9.389204501600002,2.606749902400001,3.11797894,2.23508608,-2.02343073,,,
imu,208.855979,0.8691160184000001,-9.427486280800002,2.6091425136,3.40957843,2.16031698,-2.20287657,,,
imu,208.864788,0.8691160184000001,-9.4382530312,2.634264931200001,3.63388573,2.19022462,-2.44213769,,,
imu,208.873597,0.8918458248000001,-9.452010545600002,2.6312741672,3.93296213,2.24256299,-2.65896808,,,
imu,208.882406,0.8912476720000001,-9.486105255200002,2.6330686256,4.14979252,2.36967046,-2.79355246,,,
imu,208.891215,0.8774901576000002,-9.505844297600001,2.622900028000001,4.12736179,2.41453192,-2.8234601,,,
imu,208.900024,0.8721067824000002,-9.4980683112,2.6240963336,4.11240797,2.49677793,-2.93561375,,,
imu,208.908833,0.8709104768000001,-9.520798117600002,2.6234981808,4.03763887,2.63136231,-3.0477674,,,
imu,208.917642,0.8804809216,-9.552500216,2.622900028000001,4.00025432,2.81080815,-3.18235178,,,
imu,208.926451,0.8834716856000001,-9.573435564,2.622900028000001,3.73856247,2.8481927,-3.51133582,,,
imu,208.93526,0.8667234072000001,-9.566257730400002,2.634863084,3.4619168,2.79585433,-3.86275059,,,
imu,208.944069,0.8541621984000002,-9.555490980000002,2.6336667784,3.17779422,2.80333124,-4.244073,,,
imu,208.952878,0.8541621984000002,-9.5423316184,2.6294797088,2.85628709,2.93043871,-4.386134289999999,,,
imu,208.961687,0.8421991424,-9.533359326400001,2.6193111112,2.54225687,2.87062343,-4.73007215,,,
imu,208.970496,0.8302360864000001,-9.506442450400002,2.6103388192,2.40019558,2.87062343,-4.85717962,,,
imu,208.979305,0.8206656416,-9.489096019200002,2.610936972000001,2.3403803,2.90800798,-4.65530305,,,
imu,208.988114,0.8248527112,-9.463973601600001,2.5983757632,2.36281103,2.90053107,-4.55062631,,,
imu,208.996664,0.8416009896000001,-9.453206851200001,2.5935905408,2.43758013,2.9977309,-4.21416536,,,
imu,209.005214,0.8416009896000001,-9.4322715032,2.555308761600001,2.81890254,3.10988455,-3.87770441,,,
imu,209.013764,0.8529658928000001,-9.3993730992,2.5355697192,3.20770186,3.23699202,-3.48890509,,,
imu,209.022314,0.8559566568000001,-9.380830362400001,2.5343734136,3.62640882,3.27437657,-3.3468438,,,
imu,209.030864,0.8571529624000002,-9.419112141600001,2.5134380656,4.17222325,3.31923803,-3.35432071,,,
imu,209.039414,0.8816772272000001,-9.444832712,2.506260232,4.71803768,3.34914567,-3.32441307,,,
imu,209.047964,0.900219964,-9.417915836,2.5074565376,5.22646756,3.3715764,-3.36179762,,,
imu,209.056514,0.9044070336000001,-9.3688673064,2.4781470504,5.5554516,3.22951511,-3.53376655,,,
imu,209.065064,0.9103885616000001,-9.405354627200001,2.4578098552,6.02649693,3.08745382,-3.54124346,,,
imu,209.073614,0.9271368400000001,-9.472347740800002,2.4566135496,6.2283735,3.00520781,-3.61601256,,,
imu,209.082066,0.9480721880000001,-9.496872005600002,2.441061576800001,6.36295788,2.79585433,-3.68330475,,,
imu,209.090616,0.9259405344000001,-9.4729458936,2.4392671184,6.43772698,2.73603905,-3.7206893,,,
imu,209.099166,0.9223516176000001,-9.486105255200002,2.4177336176,6.5274499,2.46687029,-4.034719519999999,,,
imu,209.107716,0.9223516176000001,-9.5429297712,2.4009853392,6.71437265,2.21265535,-4.27398064,,,
imu,209.116266,0.9133793256000001,-9.551902063200002,2.3878259776,6.81157248,2.07807097,-4.49081103,,,
imu,209.124816,0.9008181168,-9.524387034400002,2.3878259776,6.64708046,1.8761944,-4.83474889,,,
imu,209.133366,0.8792846160000001,-9.5590798968,2.3638998656,6.63212664,1.74908693,-5.021671639999999,,,
imu,209.141916,0.8912476720000001,-9.5985579816,2.3603109488,6.58726518,1.51730272,-5.14877911,,,
imu,209.150466,0.8703123240000001,-9.620091482400001,2.3501423512,6.38538861,1.32290306,-5.238502029999999,,,
imu,209.159016,0.8744993936000002,-9.6296619272,2.3489460456,6.22089659,1.19579559,-5.20859439,,,
imu,209.167566,0.8451899064,-9.665551095200001,2.341768212,6.0040662,1.2032725,-5.193640569999999,,,
imu,209.176116,0.8302360864000001,-9.688280901600002,2.335786684,5.82462036,1.06121121,-5.20859439,,,
imu,209.184666,0.8134878080000001,-9.711010708000002,2.3441608232,5.24142138,1.07616503,-5.216071299999999,,,
imu,209.193216,0.8093007384,-9.7217774584,2.3220291696,4.80028369,0.9939190199999999,-5.22354821,,,
imu,209.201608,0.7907580016000001,-9.731347903200001,2.3160476416,4.33671527,0.94905756,-5.35813259,,,
imu,209.210001,0.7674300424000001,-9.7283571392,2.3172439472,3.589024269999999,1.00139593,-5.35813259,,,
imu,209.218393,0.7632429728000001,-9.688280901600002,2.3070753496,3.07311748,1.13598031,-5.34317877,,,
imu,209.226785,0.7518780696000001,-9.6159044128,2.290925224,2.64693361,1.38271834,-5.39551714,,,
imu,209.235178,0.7441020832,-9.551902063200002,2.286738154400001,2.5646876,1.80890221,-5.44785551,,,
imu,209.24357,0.7464946944,-9.516611048000001,2.2741769456,2.46748777,1.91357895,-5.38056332,,,
imu,209.251962,0.7578595976000001,-9.490292324800002,2.252045292,2.43758013,2.11545552,-5.33570186,,,
imu,209.260355,0.7656355840000001,-9.478329268800001,2.2508489864,2.80394872,2.2500399,-5.216071299999999,,,
imu,209.268747,0.7835801680000001,-9.506442450400002,2.2568305144,3.06564057,2.37714737,-5.26840967,,,
imu,209.277139,0.7961413768000002,-9.534555632000002,2.2532415976,3.19274804,2.42200883,-5.31327113,,,
imu,209.285532,0.8248527112,-9.5357519376,2.2556342088,3.20770186,2.3995781,-5.3656095,,,
imu,209.293924,0.8362176144000002,-9.5357519376,2.2598212784,3.39462461,2.25751681,-5.33570186,,,
imu,209.302316,0.8439936008000001,-9.571042952800001,2.261017584,3.61893191,2.10797861,-5.25345585,,,
imu,209.310709,0.8469843648000001,-9.591978300800001,2.263410195200001,3.59650118,1.91357895,-5.15625602,,,
imu,209.319101,0.8499751288000001,-9.6009505928,2.2592231256,3.50677826,1.56216418,-5.09644074,,,
imu,209.327493,0.8457880592000001,-9.6296619272,2.2574286672,3.30490169,1.24813396,-5.24597894,,,
imu,209.335886,0.8398065312,-9.666149248000002,2.2544379032,3.25256332,1.13598031,-5.00671782,,,
imu,209.344278,0.8170767248000002,-9.672728928800002,2.2628120424,2.9385331,0.76213481,-4.954379449999999,,,
imu,207.863081,,,,,,,86.3903436,-28.69305400000002,124.86136
imu,207.964674,,,,,,,83.4606156,-27.74089240000002,127.0830704
imu,208.066328,,,,,,,83.5704804,-27.43571240000002,125.7524856
imu,208.16783,,,,,,,84.2052548,-27.21598280000002,127.3516288
imu,208.269301,,,,,,,83.9244892,-26.65445160000002,127.3516288
imu,208.371718,,,,,,,83.88786759999999,-26.45913640000002,126.2773952
imu,208.472456,,,,,,,83.8024172,-25.64125400000001,126.021044
imu,208.573988,,,,,,,83.9244892,-25.23841640000002,125.105504
imu,209.35267,0.8075062800000001,-9.680504915200002,2.269989876,2.76656417,0.56025824,-4.68521069,,,
imu,209.361063,0.7764023344000002,-9.6733270816,2.2675972648,2.32542648,0.2686587499999997,-4.55810322,,,
imu,209.369455,0.7554669864000001,-9.6643547896,2.2652046536,1.92915025,0.1415512799999998,-4.408565019999999,,,
imu,209.377847,0.7476910000000001,-9.639232372,2.2628120424,1.60016621,0.08173599999999981,-4.30388828,,,
imu,209.38624,0.7279519576000001,-9.613511801600001,2.2532415976,1.54035093,0.2836125699999998,-4.10948862,,,
imu,209.394632,0.7219704296,-9.606333968000001,2.2532415976,1.58521239,0.58268897,-3.76555076,,,
imu,209.403094,0.7141944432000001,-9.594370912,2.249054528,1.368382,0.80699627,-3.69825857,,,
imu,209.411556,0.708811068,-9.594370912,2.2556342088,1.22632071,1.00887284,-3.80293531,,,
imu,209.420019,0.7082129152000001,-9.585996772800002,2.2598212784,1.13659779,1.24065705,-3.86275059,,,
imu,209.428481,0.7183815128000002,-9.583006008800002,2.2681954176,1.21136689,1.44253362,-4.0945348,,,
imu,209.436943,0.7034276928000001,-9.597959828800002,2.2741769456,1.11416706,1.70422547,-4.28145755,,,
imu,209.445406,0.7070166096,-9.596763523200002,2.2795603208,1.13659779,1.89114822,-4.4683803,,,
imu,209.453868,0.7082129152000001,-9.589585689600002,2.2825510848,1.03939796,2.0257326,-4.83474889,,,
imu,209.46233,0.7231667352000001,-9.5949690648,2.2861400016,1.18893616,2.2500399,-5.00671782,,,
imu,209.470792,0.7297464160000001,-9.581809703200001,2.2681954176,1.05435178,2.29490136,-5.238502029999999,,,
imu,209.479255,0.7441020832,-9.5704448,2.2992993632,0.9646288599999999,2.19770153,-5.2908404,,,
imu,209.487717,0.7506817640000001,-9.5393408544,2.2885326128,0.7403215599999999,2.19022462,-5.18616366,,,
imu,209.496179,0.7644392784,-9.519601812000001,2.304084585600001,0.56835263,1.91357895,-4.96185636,,,
imu,209.504641,0.7698226536000001,-9.5638651192,2.3232254752,0.5459219,1.68179474,-4.9169949,,,
imu,209.513104,0.7847764736,-9.630260080000001,2.311262419200001,0.56835263,1.53225654,-4.81979507,,,
imu,209.521566,0.7895616960000001,-9.641026830400001,2.3166457944,0.23189168,1.22570323,-4.66277996,,,
imu,209.530028,0.7650374312,-9.597361676,2.320832864,-0.04475399000000001,1.06868812,-4.3936112,,,
imu,209.538491,0.7452983888000001,-9.5776226336,2.3136550304,0.01506129,0.8518577299999999,-3.93751969,,,
imu,209.546953,0.7219704296,-9.605735815200001,2.307673502400001,0.30666078,0.8518577299999999,-3.32441307,,,
imu,209.555415,0.7183815128000002,-9.618895176800002,2.3052808912,0.4861066199999999,0.84438082,-3.10010577,,,
imu,209.563877,0.7165870544000001,-9.599754287200001,2.293915988,0.68798319,0.98644211,-3.07019813,,,
imu,209.57234,0.7052221512000001,-9.565061424800001,2.2915233768,0.9347212199999999,1.08364194,-3.16739796,,,
imu,209.580802,0.6926609424000001,-9.548313146400002,2.2837473904,1.20388998,1.06868812,-3.32441307,,,
imu,209.589264,0.6789034280000001,-9.5459205352,2.2741769456,1.65250458,1.25561087,-3.48142818,,,
imu,209.597726,0.6795015808000001,-9.534555632000002,2.2705880288,1.91419643,1.2780416,-3.95995042,,,
imu,209.606189,0.666940372,-9.526181492800001,2.2622138896,2.16093446,1.45748744,-4.146873169999999,,,
imu,209.614651,0.6675385248000001,-9.5447242296,2.2622138896,2.01887317,1.44253362,-4.55810322,,,
imu,209.623113,0.6723237472000001,-9.554294674400001,2.2574286672,1.8917657,1.59954873,-4.65530305,,,
imu,209.631575,0.6621551496,-9.556089132800002,2.249054528,1.84690424,1.82385603,-4.50576485,,,
imu,209.640038,0.663949608,-9.571641105600001,2.2574286672,1.72727368,1.88367131,-4.27398064,,,
imu,209.6485,0.6771089696000001,-9.580613397600002,2.2514471392,1.60764312,2.07807097,-4.057150249999999,,,
imu,209.656962,0.6627533024,-9.575230022400001,2.2472600696,1.35342818,2.15284007,-3.89265823,,,
imu,209.665425,0.6759126640000002,-9.585398620000001,2.2436711528,1.12164397,2.23508608,-3.61601256,,,
imu,209.673887,0.684884956,-9.5907819952,2.2586249728,0.9197674,2.36219355,-3.54124346,,,
imu,209.682349,0.6896701784000001,-9.609324732000001,2.2628120424,0.9571519499999999,2.48182411,-3.40665908,,,
imu,209.690811,0.6974461648000001,-9.6523917336,2.2646065008,0.8375213899999999,2.55659321,-3.27955161,,,
imu,209.699274,0.7100073736000001,-9.687084596000002,2.2771677096,0.4711528,2.53416248,-3.41413599,,,
imu,209.707736,0.7129981376000001,-9.703832874400002,2.2855418488,0.22441477,2.6238854,-3.52628964,,,
imu,209.716198,0.7100073736000001,-9.7074217912,2.2783640152,0.08235347999999998,2.45191647,-3.5711511,,,
imu,209.72466,0.7195778184000001,-9.708019944000002,2.2873363072,-0.14943073,2.42200883,-3.58610492,,,
imu,209.733123,0.7201759712000001,-9.7086180968,2.2831492376,-0.58309151,2.41453192,-3.5711511,,,
imu,209.741585,0.7219704296,-9.651793580800001,2.2723824872,-0.6279529699999999,2.5491163,-3.38422835,,,
imu,209.750047,0.7165870544000001,-9.585398620000001,2.2837473904,-0.8672140899999999,2.48182411,-3.496382,,,
imu,209.75851,0.7219704296,-9.617698871200002,2.2795603208,-0.91955246,2.31733209,-3.67582784,,,
imu,209.766972,0.7321390272000001,-9.673925234400002,2.2777658624,-0.82982954,2.29490136,-3.72816621,,,
imu,209.775434,0.7435039304000001,-9.621287788000002,2.2795603208,-0.8821679099999999,2.19770153,-3.65339711,,,
imu,209.783896,0.7279519576000001,-9.527975951200002,2.2885326128,-1.0242292,2.12293243,-3.60853565,,,
imu,209.792359,0.7135962904,-9.524387034400002,2.2897289184,-0.8522602699999999,2.12293243,-3.1973056,,,
imu,209.800821,0.7118018320000001,-9.5698466472,2.293915988,-0.6279529699999999,2.16779389,-2.85336774,,,
imu,209.809735,0.7129981376000001,-9.5776226336,2.2963085992,-0.67281443,2.31733209,-2.62906044,,,
imu,209.818648,0.7213722768,-9.540537160000001,2.3022901272,-0.91207555,2.18274771,-2.51690679,,,
imu,209.827562,0.7016332344,-9.5291722568,2.3202347112,-0.68029134,2.36219355,-2.39727623,,,
imu,209.836476,0.7159889016000002,-9.553098368800002,2.3172439472,-0.41112258,2.42948574,-2.55429134,,,
imu,209.84539,0.7112036792,-9.562070660800002,2.3184402528,-0.33635348,2.42200883,-2.86832156,,,
imu,209.854304,0.7040258456,-9.537546396000002,2.3292070032,-0.41859949,2.39210119,-3.18982869,,,
imu,209.863217,0.7141944432000001,-9.5184055064,2.3304033088,-0.32139966,2.55659321,-3.37675144,,,
imu,209.872131,0.7165870544000001,-9.527975951200002,2.3232254752,-0.19429219,2.61640849,-3.51133582,,,
imu,209.881045,0.7129981376000001,-9.5184055064,2.3142531832,-0.03727708,2.87810034,-3.54872037,,,
imu,209.889959,0.7249611936,-9.5184055064,2.3256180864,-0.02980017,2.90053107,-3.24216706,,,
imu,209.898873,0.7243630408,-9.5291722568,2.3274125448,0.05244583999999999,3.13231528,-3.18235178,,,
imu,209.907786,0.7452983888000001,-9.571042952800001,2.3345903784,0.14216876,3.1472691,-3.13749032,,,
imu,209.9167,0.7602522088000001,-9.595567217600001,2.3363848368,0.28423005,3.16969983,-2.94309066,,,
imu,209.925614,0.7656355840000001,-9.596165370400001,2.3555257264,0.15712258,3.34914567,-2.86832156,,,
imu,209.934528,0.7793930984000002,-9.605735815200001,2.3555257264,0.16459949,3.30428421,-2.90570611,,,
imu,209.943441,0.7967395296000002,-9.6326526912,2.3549275736,0.01506129,3.12483837,-2.98795212,,,
imu,209.952355,0.7979358352000001,-9.641624983200002,2.3668906296,-0.19429219,3.05754618,-3.05524431,,,
imu,209.961269,0.7895616960000001,-9.651195428000001,2.3740684632,-0.41112258,2.98277708,-3.18235178,,,
imu,209.970183,0.7997302936000001,-9.644017594400001,2.3674887824,-0.5980453299999999,3.00520781,-3.21973633,,,
imu,209.979097,0.8230582528,-9.633250844,2.3650961712,-0.77001426,2.8481927,-3.24964397,,,
imu,209.98801,0.8152822664000001,-9.610521037600002,2.3728721576,-1.08404448,2.69117759,-3.39170526,,,
imu,209.996924,0.8110951968000001,-9.587193078400002,2.3800499912,-1.33078251,2.57902394,-3.44404363,,,
imu,210.005838,0.8033192104000001,-9.5776226336,2.3680869352,-1.33078251,2.53416248,-3.4216129,,,
imu,210.014281,0.8087025856000001,-9.572837411200002,2.3728721576,-1.54013599,2.41453192,-3.56367419,,,
imu,210.022724,0.7985339880000002,-9.546518688,2.380648144,-1.36816706,2.39210119,-3.60853565,,,
imu,210.031168,0.7895616960000001,-9.5219944232,2.379451838400001,-1.48032071,2.16779389,-3.62348947,,,
imu,210.039611,0.7835801680000001,-9.5148165896,2.3818444496,-1.5476129,2.14536316,-3.72816621,,,
imu,210.048054,0.7817857096,-9.507638756,2.3860315192,-1.39059779,1.98087114,-3.71321239,,,
imu,210.056497,0.7811875568000001,-9.484908949600001,2.3884241304,-1.29339796,1.96591732,-3.81788913,,,
imu,210.06494,0.7775986400000001,-9.4765348104,2.3854333664,-1.12890594,1.93600968,-4.0197657,,,
imu,210.073384,0.7758041816000001,-9.489694172,2.3908167416,-0.77001426,1.95844041,-4.13191935,,,
imu,210.081827,0.7781967928000002,-9.4663662128,2.4027797976,-0.44850713,1.97339423,-4.10948862,,,
imu,210.09027,0.7710189592000001,-9.4729458936,2.3979945752,-0.29149202,1.81637912,-4.16182699,,,
imu,210.098713,0.7764023344000002,-9.479525574400002,2.4033779504,-0.14943073,1.66684092,-4.363703559999999,,,
imu,210.107156,0.7710189592000001,-9.489694172,2.3902185888,0.12721494,1.64441019,-4.318842099999999,,,
imu,210.1156,0.7680281952000001,-9.5040498392,2.3926112,0.42629134,1.46496435,-4.341272829999999,,,
imu,210.124043,0.7530743752000001,-9.5172092008,2.3884241304,0.7104139199999999,1.59207182,-4.27398064,,,
imu,210.132486,0.7500836112000001,-9.530368562400001,2.4093594784,1.0693056,1.50982581,-4.28893446,,,
imu,210.140929,0.7458965416000001,-9.531564868,2.4081631728,1.12164397,1.56216418,-4.16182699,,,
imu,210.149372,0.7381205552000002,-9.5566872856,2.4057705616,1.33847436,1.54721036,-4.02724261,,,
imu,210.157816,0.7291482632,-9.583604161600002,2.4159391592,1.27118217,1.58459491,-4.04219643,,,
imu,210.166259,0.7207741240000002,-9.6284656216,2.4231169928,1.2936129,1.56964109,-4.13939626,,,
imu,208.675673,,,,,,,84.156426,-24.9332364,125.2031616
imu,208.777205,,,,,,,86.17061399999999,-25.51918200000001,122.9204152
imu,208.878706,,,,,,,83.79021,-24.7989572,125.105504
imu,208.980238,,,,,,,86.30489320000001,-25.65346120000001,123.0180728
imu,209.081831,,,,,,,83.7535884,-25.62904680000002,125.410684
imu,209.183363,,,,,,,83.5704804,-25.70229000000002,124.617216
imu,209.285048,,,,,,,83.7413812,-26.01967720000003,126.3506384
imu,209.386488,,,,,,,83.7535884,-26.53237960000001,125.6914496
imu,210.174645,0.7249611936,-9.652989886400002,2.4267059096,1.09921324,1.59954873,-4.244073,,,
imu,210.183088,0.7094092208000001,-9.644615747200001,2.4207243816,0.7552753799999999,1.63693328,-4.430995749999999,,,
imu,210.191531,0.7058203040000001,-9.604539509600002,2.4338837432,0.41133752,1.63693328,-4.37118047,,,
imu,210.199974,0.7100073736000001,-9.576426328,2.446444952,0.03001510999999998,1.74908693,-4.27398064,,,
imu,210.208417,0.7034276928000001,-9.551902063200002,2.4386689656,-0.41112258,1.69674856,-4.13939626,,,
imu,210.216871,0.7058203040000001,-9.557883591200001,2.441061576800001,-0.77749117,1.67431783,-3.98238115,,,
imu,210.225324,0.7058203040000001,-9.594370912,2.441061576800001,-0.84478336,1.68927165,-4.034719519999999,,,
imu,210.233778,0.70282954,-9.613511801600001,2.447043104800001,-0.9943215599999999,1.65936401,-3.84779677,,,
imu,210.242231,0.7070166096,-9.6015487456,2.45242648,-1.30087487,1.68179474,-3.68330475,,,
imu,210.250684,0.6998387760000001,-9.571641105600001,2.441061576800001,-1.45041307,1.81637912,-3.42908981,,,
imu,210.259138,0.6962498592000002,-9.533359326400001,2.434481896,-1.34573633,1.92105586,-3.09262886,,,
imu,210.267591,0.6962498592000002,-9.522592576000001,2.4279022152,-1.07656757,2.12293243,-2.8234601,,,
imu,210.276044,0.7118018320000001,-9.507638756,2.420126228800001,-0.78496808,2.26499372,-2.75616791,,,
imu,210.284498,0.7141944432000001,-9.482516338400002,2.4069668672,-0.26158438,2.43696265,-2.63653735,,,
imu,210.292951,0.726755652,-9.444832712,2.4021816448,0.23936859,2.48182411,-2.72626027,,,
imu,210.301404,0.7183815128000002,-9.430477044800002,2.395601964,0.6954601,2.46687029,-2.91318302,,,
imu,210.309858,0.7351297912000001,-9.414925072,2.396798269600001,1.19641307,2.51920866,-3.13001341,,,
imu,210.318311,0.7273538048000001,-9.4286825864,2.409957631200001,1.56278166,2.5491163,-3.43656672,,,
imu,210.326765,0.7357279440000001,-9.4633754488,2.4069668672,2.06373463,2.52668557,-3.6459202,,,
imu,210.335218,0.7387187080000002,-9.483712644000002,2.4033779504,2.16841137,2.57154703,-3.88518132,,,
imu,210.343671,0.7476910000000001,-9.508835061600001,2.4129483952,2.2656112,2.5491163,-3.93751969,,,
imu,210.352125,0.7488873056,-9.527377798400002,2.4231169928,2.34785721,2.60893158,-3.93004278,,,
imu,210.360578,0.7572614448000001,-9.554892827200002,2.4362763544,2.10859609,2.40705501,-3.92256587,,,
imu,210.369031,0.7548688336000001,-9.591978300800001,2.4332855904,1.99644244,2.23508608,-3.87770441,,,
imu,210.377485,0.7614485144,-9.6087265792,2.450632021600001,1.72727368,2.26499372,-3.98238115,,,
imu,210.385938,0.7668318896,-9.594370912,2.4488375632,1.27118217,2.16779389,-4.02724261,,,
imu,210.394392,0.7566632920000002,-9.6087265792,2.4452486464,0.9347212199999999,1.90610204,-4.06462716,,,
imu,210.402845,0.7674300424000001,-9.605735815200001,2.4350800488,0.70293701,1.93600968,-3.98238115,,,
imu,210.411298,0.7674300424000001,-9.6039413568,2.4051724088,0.6281679099999999,1.68927165,-3.83284295,,,
imu,210.420139,0.7554669864000001,-9.616502565600001,2.3710776992,0.18703022,1.68927165,-3.76555076,,,
imu,210.428981,0.76264482,-9.617100718400001,2.3585164904,-0.127,1.69674856,-3.61601256,,,
imu,210.437822,0.7901598488000001,-9.596763523200002,2.3818444496,-0.47841477,1.47991817,-3.5711511,,,
imu,210.446663,0.7596540560000001,-9.556089132800002,2.4488375632,-0.7401066199999999,1.27056469,-3.62348947,,,
imu,210.455504,0.741709472,-9.507040603200002,2.4769507448,-0.64290679,1.31542615,-3.45899745,,,
imu,210.464345,0.7518780696000001,-9.4633754488,2.4757544392,-0.52327623,1.3528107,-3.2720747,,,
imu,210.473187,0.7512799168000001,-9.472347740800002,2.4769507448,-0.11204618,1.54721036,-3.25712088,,,
imu,210.482028,0.7566632920000002,-9.5148165896,2.473361828,0.23189168,1.577118,-3.55619728,,,
imu,210.490869,0.7602522088000001,-9.5357519376,2.455417244,0.58330645,1.64441019,-3.81788913,,,
imu,210.49971,0.7734115704000001,-9.503451686400002,2.4661839944,0.76275229,1.68179474,-4.0945348,,,
imu,210.508551,0.7662337368000001,-9.429878892000001,2.4608006192,0.94219813,1.83133294,-4.20668845,,,
imu,210.517393,0.7530743752000001,-9.429280739200001,2.462595077600001,1.4431511,1.77899457,-4.32631901,,,
imu,210.526234,0.7590559032000002,-9.490292324800002,2.455417244,1.92167334,1.84628676,-4.02724261,,,
imu,210.535075,0.7799912512000001,-9.548313146400002,2.4536227856,2.10859609,1.83133294,-3.88518132,,,
imu,210.543916,0.7722152648000001,-9.5704448,2.450632021600001,2.14598064,1.75656384,-4.0197657,,,
imu,210.552757,0.7488873056,-9.513620284000002,2.443454188,2.2656112,1.67431783,-4.0197657,,,
imu,210.561599,0.7279519576000001,-9.470553282400001,2.450632021600001,2.48244159,1.5023489,-4.012288789999999,,,
imu,210.57044,0.7512799168000001,-9.5219944232,2.4332855904,2.66188743,1.39767216,-4.15435008,,,
imu,210.579281,0.7488873056,-9.555490980000002,2.4243132984,2.73665653,1.36776452,-4.44594957,,,
imu,210.588122,0.7291482632,-9.553098368800002,2.4171354648,2.78151799,1.36776452,-4.4683803,,,
imu,210.596963,0.7195778184000001,-9.5638651192,2.3824426024,2.68431816,1.15093413,-4.51324176,,,
imu,210.605805,0.7129981376000001,-9.575828175200002,2.404574256,2.52730305,1.03878048,-4.56558013,,,
imu,210.614646,0.7255593464000001,-9.571042952800001,2.3668906296,2.2656112,0.9789651999999998,-4.55810322,,,
imu,210.623487,0.7207741240000002,-9.592576453600001,2.3938075056,2.08616536,0.9789651999999998,-4.43847266,,,
imu,210.631526,0.6681366776000001,-9.5740337168,2.4087613256,2.01887317,0.8742884599999998,-4.29641137,,,
imu,210.639565,0.7058203040000001,-9.559678049600002,2.3812462968,2.04878081,0.72475026,-4.25154991,,,
imu,210.647603,0.6705292888000001,-9.5949690648,2.3543294208,1.95158098,0.5901658799999998,-4.30388828,,,
imu,210.655642,0.7452983888000001,-9.592576453600001,2.3304033088,1.86933497,0.56025824,-4.16182699,,,
imu,210.663681,0.6525847048000001,-9.551902063200002,2.3764610744,1.84690424,0.72475026,-3.91508896,,,
imu,210.67172,0.5658525488000001,-9.5590798968,2.3758629216,1.90671952,0.6873657099999999,-3.69078166,,,
imu,210.679759,0.6184899952000001,-9.590183842400002,2.3100661136,1.77961205,0.9939190199999999,-3.63096638,,,
imu,210.687798,0.6699311360000001,-9.611119190400002,2.266999112000001,1.63007385,1.0537343,-3.56367419,,,
imu,210.695837,0.648995788,-9.6499991224,2.2687935704,1.33847436,1.11354958,-3.72816621,,,
imu,210.703875,0.6220789120000001,-9.6799067624,2.2346988608,0.80013684,1.06121121,-3.81041222,,,
imu,210.711914,0.6472013296000001,-9.70502918,2.249054528,0.33656842,1.02382666,-4.15435008,,,
imu,210.719953,0.6262659816,-9.690673512800002,2.4380708128,-0.23915365,1.14345722,-4.56558013,,,
imu,210.727992,0.6304530512000001,-9.6218859408,2.4769507448,-0.60552224,1.12102649,-4.759979789999999,,,
imu,210.736031,0.6017417168000001,-9.550705757600001,2.5200177464,-0.7550604399999999,1.62197946,-4.52071867,,,
imu,210.74407,0.6143029256000001,-9.516611048000001,2.524204816,-0.59056842,1.99582496,-4.244073,,,
imu,210.752108,0.6322475096000001,-9.526779645600001,2.428500368,-0.2765382,2.22760917,-4.16182699,,,
imu,210.760147,0.6089195504,-9.536350090400001,2.487717495200001,0.10478421,2.69117759,-3.86275059,,,
imu,210.768186,0.6579680800000002,-9.530368562400001,2.420126228800001,0.11226112,2.84071579,-3.54872037,,,
imu,210.776225,0.6812960392000001,-9.5327611736,2.3932093528,0.26179932,2.87810034,-3.52628964,,,
imu,210.784264,0.6531828576,-9.495675700000001,2.4667821472,0.6132140899999999,3.15474601,-3.24964397,,,
imu,210.792303,0.6783052752000002,-9.453206851200001,2.4572117024,0.8375213899999999,3.25942275,-3.06272122,,,
imu,210.800341,0.7052221512000001,-9.469356976800002,2.4416597296,1.09921324,3.31923803,-3.18235178,,,
imu,210.80838,0.7106055264000001,-9.48072188,2.446444952,1.65250458,3.24446893,-3.01038285,,,
imu,210.816419,0.7387187080000002,-9.481918185600001,2.4326874376,1.93662716,3.05754618,-3.05524431,,,
imu,210.825237,0.7357279440000001,-9.498666464000001,2.4446504936,2.25813429,3.13979219,-2.95056757,,,
imu,210.834056,0.7351297912000001,-9.48072188,2.4422578824,2.54225687,3.2220382,-2.94309066,,,
imu,210.842874,0.684884956,-9.535153784800002,2.4446504936,2.70674889,3.01268472,-3.03281358,,,
imu,210.851692,0.6938572480000001,-9.5602762024,2.3519368096,2.72917962,3.11736146,-3.15244414,,,
imu,210.86051,0.7135962904,-9.597361676,2.467380300000001,2.62450288,3.3715764,-3.05524431,,,
imu,210.869329,0.7171852072000001,-9.594370912,2.3944056584,2.63197979,3.40896095,-3.07767504,,,
imu,210.878147,0.6585662328000002,-9.648204664000001,2.3878259776,2.67684125,3.39400713,-3.18982869,,,
imu,210.886965,0.7147925960000001,-9.633250844,2.386629672,2.36281103,3.58840679,-3.14496723,,,
imu,210.895783,0.7207741240000002,-9.572837411200002,2.3860315192,2.0413039,3.93982156,-2.94309066,,,
imu,210.904602,0.7100073736000001,-9.572837411200002,2.3555257264,1.93662716,3.97720611,-2.71130645,,,
imu,210.91342,0.6609588440000002,-9.593174606400002,2.3740684632,1.92167334,3.93234465,-2.5991528,,,
imu,210.922238,0.6268641344,-9.553098368800002,2.4147428536,1.62259694,3.86505246,-2.53186061,,,
imu,210.931056,0.6394253432000001,-9.553098368800002,2.3991908808,1.57773548,4.15665195,-2.26269185,,,
imu,210.939875,0.7058203040000001,-9.597959828800002,2.4153410064,1.42819728,4.31366706,-2.16549202,,,
imu,210.948693,0.6591643856000001,-9.5704448,2.4398652712,1.1440747,4.61274346,-1.98604618,,,
imu,210.957511,0.631051204,-9.481918185600001,2.423715145600001,0.9347212199999999,4.85948149,-1.64958523,,,
imu,210.966329,0.7058203040000001,-9.513620284000002,2.4392671184,1.15902852,5.12865025,-1.42527793,,,
imu,210.975148,0.7255593464000001,-9.5842023144,2.4153410064,1.57773548,5.45763429,-1.26826282,,,
imu,210.983966,0.7112036792,-9.558481744000002,2.3944056584,1.88428879,5.62960322,-1.3280781,,,
imu,209.487991,,,,,,,84.1075972,-26.26382120000002,126.4360888
imu,209.589584,,,,,,,83.60710200000001,-26.34927160000002,126.5581608
imu,209.696853,,,,,,,83.94890360000001,-25.9830556,125.5571704
imu,209.792679,,,,,,,83.6803452,-25.73891160000002,126.570368
imu,209.894333,,,,,,,85.92647,-27.22819000000001,123.7993336
imu,209.995804,,,,,,,83.5826876,-26.00747000000001,125.7402784
imu,210.097427,,,,,,,85.9508844,-26.66665880000001,123.5063608
imu,210.200302,,,,,,,83.8756604,-25.67787560000001,125.5571704
imu,210.992784,0.7351297912000001,-9.495077547200001,2.3824426024,1.83195042,5.73427996,-1.68696978,,,
imu,211.001602,0.780589404,-9.506442450400002,2.3770592272,2.14598064,5.80904906,-2.08324601,,,
imu,211.010421,0.8200674888,-9.52558334,2.374666616,2.64693361,5.831479789999999,-2.5991528,,,
imu,211.019239,0.8296379336000002,-9.499862769600002,2.3489460456,2.85628709,5.58474176,-2.93561375,,,
imu,211.027722,0.8278434752000001,-9.499862769600002,2.3381792952,3.00582529,5.352957549999999,-3.45899745,,,
imu,211.036204,0.8547603512000002,-9.505246144800001,2.3471515872,3.4619168,5.263234629999999,-3.67582784,,,
imu,211.044687,0.8834716856000001,-9.483712644000002,2.325019933600001,3.75351629,4.77723548,-3.58610492,,,
imu,211.053169,0.8840698384000001,-9.4908904776,2.3124587248,4.04511578,4.35105161,-3.496382,,,
imu,211.061652,0.8834716856000001,-9.4962738528,2.3010938216,4.16474634,3.93234465,-3.44404363,,,
imu,211.070135,0.9127811728000002,-9.5219944232,2.2747750984,4.27689999,3.37905331,-3.37675144,,,
imu,211.078617,0.9008181168,-9.530368562400001,2.2927196824,4.48625347,2.9229618,-3.3468438,,,
imu,211.0871,0.8792846160000001,-9.5357519376,2.293915988,4.47877656,2.34723973,-3.30945925,,,
imu,211.095582,0.8858642968000001,-9.5501076048,2.280756626400001,4.4339151,1.80890221,-3.24964397,,,
imu,211.104065,0.8667234072000001,-9.575828175200002,2.264008348,4.23951544,1.37524143,-3.38422835,,,
imu,211.112548,0.8392083784000002,-9.613511801600001,2.269989876,3.9853005,0.98644211,-3.33188998,,,
imu,211.12103,0.8290397808000001,-9.635643455200002,2.2586249728,3.74603938,0.7097964399999999,-3.39918217,,,
imu,211.129513,0.8015247520000001,-9.665551095200001,2.2526434448,3.58154736,0.4705353199999998,-3.39918217,,,
imu,211.137996,0.7686263480000001,-9.66016772,2.2681954176,3.32733242,0.4929660499999997,-3.46647436,,,
imu,211.146478,0.7596540560000001,-9.651793580800001,2.2628120424,2.9385331,0.56025824,-3.45899745,,,
imu,211.154961,0.7524762224000001,-9.661962178400001,2.2394840832,2.70674889,0.78456554,-3.54124346,,,
imu,211.163443,0.7572614448000001,-9.682897526400001,2.243073,2.57216451,0.9714882899999999,-3.50385891,,,
imu,211.171926,0.7381205552000002,-9.647606511200001,2.2143616656,2.38524176,1.19579559,-3.5711511,,,
imu,211.180409,0.7309427216000001,-9.6159044128,2.207183832,1.93662716,1.23318014,-3.78798149,,,
imu,211.188891,0.7429057776,-9.660765872800003,2.231109944,1.88428879,1.34533379,-4.22911918,,,
imu,211.197374,0.7500836112000001,-9.697851346400002,2.255036056,1.74970441,1.61450255,-4.59548777,,,
imu,211.205856,0.7823838624,-9.6954587352,2.2335025552,1.39828964,1.77899457,-4.58801086,,,
imu,211.214339,0.7423076248,-9.635045302400002,2.2586249728,0.97210577,1.79394839,-4.61044159,,,
imu,211.222822,0.7100073736000001,-9.5865949256,2.2771677096,0.85995212,1.99582496,-4.59548777,,,
imu,211.231284,0.8027210576,-9.61530626,2.311860572000001,0.8674290299999999,2.11545552,-4.48333412,,,
imu,211.239746,0.7865709320000001,-9.583604161600002,2.2837473904,0.65059864,2.12293243,-4.23659609,,,
imu,211.248209,0.7351297912000001,-9.4735440464,2.2137635128,0.41881443,2.10797861,-4.079580979999999,,,
imu,211.256671,0.7835801680000001,-9.398176793600001,2.280756626400001,0.85995212,2.1005017,-4.06462716,,,
imu,211.265106,0.8260490168000001,-9.567454036,2.252045292,1.48053565,1.8014253,-3.95247351,,,
imu,211.273568,0.8433954480000001,-9.614109954400002,2.2388859304,1.71231986,1.69674856,-4.13939626,,,
imu,211.28203,0.7129981376000001,-9.597959828800002,2.222735804800001,1.65998149,1.55468727,-4.0945348,,,
imu,211.290492,0.7249611936,-9.645213900000002,2.0355139784,2.01887317,1.36776452,-4.04967334,,,
imu,211.298955,0.7835801680000001,-9.5004609224,2.2873363072,1.95158098,1.3528107,-4.102011709999999,,,
imu,211.307417,0.8027210576,-9.5118258256,2.1868466368,1.8917657,1.19579559,-4.02724261,,,
imu,211.315879,0.7219704296,-9.648204664000001,2.1527519272,2.14598064,1.03130357,-3.88518132,,,
imu,211.324341,0.7070166096,-9.634447149600001,2.2083801376,1.87681188,0.8518577299999999,-3.73564312,,,
imu,211.332804,0.6735200528,-9.5632669664,2.2137635128,1.64502767,0.8518577299999999,-3.55619728,,,
imu,211.341266,0.6789034280000001,-9.551902063200002,2.2376896248,1.72727368,1.00139593,-3.66087402,,,
imu,211.349728,0.7369242496000001,-9.592576453600001,2.269989876,1.8917657,1.09859576,-3.56367419,,,
imu,211.35819,0.7112036792,-9.631456385600002,2.2652046536,1.69736604,1.08364194,-3.66087402,,,
imu,211.366653,0.7004369288000002,-9.636839760800001,2.2544379032,1.71231986,1.18831868,-3.78050458,,,
imu,211.375115,0.708811068,-9.630858232800001,2.2771677096,1.54035093,1.34533379,-3.78798149,,,
imu,211.383577,0.6812960392000001,-9.6296619272,2.2801584736,1.47305874,1.577118,-3.65339711,,,
imu,211.39204,0.6896701784000001,-9.627867468800002,2.261017584,1.39081273,1.6518871,-3.83284295,,,
imu,211.400502,0.7201759712000001,-9.625474857600002,2.2604194312,1.39081273,1.86871749,-3.80293531,,,
imu,211.408964,0.7112036792,-9.620091482400001,2.2562323616,1.33099745,2.16031698,-3.74312003,,,
imu,211.417426,0.7183815128000002,-9.612913648800001,2.2556342088,1.20388998,2.33976282,-3.75807385,,,
imu,211.425889,0.7722152648000001,-9.6296619272,2.2502508336,1.24875144,2.37714737,-3.81041222,,,
imu,211.434355,0.7375224024000001,-9.612315496,2.2544379032,1.1440747,2.30237827,-3.87770441,,,
imu,211.442821,0.7500836112000001,-9.585996772800002,2.2544379032,0.94219813,2.28742445,-3.98985806,,,
imu,211.451287,0.7722152648000001,-9.554892827200002,2.2616157368,1.00201341,2.19022462,-3.93004278,,,
imu,211.459753,0.7764023344000002,-9.556089132800002,2.2562323616,1.04687487,2.10797861,-4.02724261,,,
imu,211.468219,0.7746078760000001,-9.549509452,2.2532415976,0.9347212199999999,1.90610204,-4.07210407,,,
imu,211.476685,0.76264482,-9.546518688,2.2382877776,1.02444414,1.86871749,-3.99733497,,,
imu,211.485151,0.7710189592000001,-9.553696521600001,2.234100708,1.10669015,1.71170238,-3.99733497,,,
imu,211.493617,0.7476910000000001,-9.554294674400001,2.2406803888,1.30108981,1.61450255,-3.87770441,,,
imu,211.502083,0.744700236,-9.5393408544,2.2454656112,1.27118217,1.59954873,-3.82536604,,,
imu,211.51055,0.7351297912000001,-9.5357519376,2.2436711528,1.45810492,1.54721036,-3.69825857,,,
imu,211.519016,0.7375224024000001,-9.5393408544,2.2317080968,1.77961205,1.55468727,-3.51881273,,,
imu,211.527482,0.7315408744,-9.548313146400002,2.2155579712,1.91419643,1.66684092,-3.48890509,,,
imu,211.535948,0.7189796656000002,-9.576426328,2.222137652,1.9665348,1.62945637,-3.47395127,,,
imu,211.544414,0.7141944432000001,-9.5985579816,2.21316536,2.19831901,1.77151766,-3.46647436,,,
imu,211.55288,0.7183815128000002,-9.613511801600001,2.2233339576,2.13850373,1.83880985,-3.59358183,,,
imu,211.561346,0.7147925960000001,-9.644615747200001,2.2293154856,1.97401171,1.92105586,-3.82536604,,,
imu,211.569812,0.7255593464000001,-9.667345553600002,2.2406803888,1.90671952,2.07059406,-4.02724261,,,
imu,211.578278,0.7165870544000001,-9.616502565600001,2.2418766944,1.71231986,2.14536316,-4.22164227,,,
imu,211.586744,0.7279519576000001,-9.592576453600001,2.243073,1.60764312,2.22013226,-4.26650373,,,
imu,211.59521,0.7458965416000001,-9.590183842400002,2.2436711528,1.65250458,2.26499372,-4.318842099999999,,,
imu,211.603676,0.7542706808000001,-9.557285438400001,2.2233339576,1.55530475,2.15284007,-4.26650373,,,
imu,211.612143,0.7566632920000002,-9.5656595776,2.243073,1.54782784,1.97339423,-4.35622665,,,
imu,211.620609,0.7614485144,-9.637437913600001,2.2436711528,1.57025857,1.86124058,-4.23659609,,,
imu,211.629075,0.7536725280000001,-9.6703363176,2.261017584,1.43567419,1.56964109,-4.15435008,,,
imu,211.637566,0.7231667352000001,-9.617698871200002,2.2687935704,1.04687487,1.47244126,-4.012288789999999,,,
imu,211.646058,0.708811068,-9.591380148,2.243073,1.02444414,1.53973345,-3.36927453,,,
imu,211.654549,0.6932590952000001,-9.6051376624,2.2448674584,1.0693056,1.62197946,-2.88327538,,,
imu,211.663041,0.7100073736000001,-9.6117173432,2.240082236,1.0693056,1.66684092,-2.58419898,,,
imu,211.671532,0.7064184568,-9.592576453600001,2.222735804800001,1.17398234,1.86124058,-2.41970696,,,
imu,211.680024,0.6884738728,-9.580613397600002,2.2006041512,1.22632071,1.99582496,-2.57672207,,,
imu,211.688515,0.6765108168000001,-9.5590798968,2.2035949152,1.38333582,2.1005017,-2.84589083,,,
imu,211.697007,0.6908664840000001,-9.5447242296,2.2029967624,1.60016621,2.24256299,-3.26459779,,,
imu,211.705498,0.6950535536000001,-9.5393408544,2.1940244704,1.95905789,2.51173175,-3.58610492,,,
imu,211.71399,0.6926609424000001,-9.546518688,2.186248484,2.14598064,2.60893158,-3.89265823,,,
imu,211.722481,0.7034276928000001,-9.5381445488,2.171294664,2.25065738,2.73603905,-4.06462716,,,
imu,211.730973,0.7201759712000001,-9.561472508000001,2.1371999544,2.23570356,2.90053107,-4.04967334,,,
imu,211.739464,0.7255593464000001,-9.596165370400001,2.1724909696,2.30299575,2.73603905,-4.079580979999999,,,
imu,211.747956,0.7219704296,-9.593174606400002,2.177276192,2.17588828,2.63883922,-4.079580979999999,,,
imu,211.756447,0.7255593464000001,-9.612315496,2.162322372,2.27308811,2.78090051,-3.76555076,,,
imu,211.764939,0.7387187080000002,-9.6470083584,2.1683039,2.27308811,2.73603905,-3.70573548,,,
imu,211.77343,0.7285501104000001,-9.655980650400002,2.171294664,1.87681188,2.5491163,-3.9449966,,,
imu,211.781922,0.7327371800000001,-9.6458120528,2.191631859200001,1.5926893,2.51173175,-3.89265823,,,
imu,211.790414,0.7333353328000001,-9.648802816800002,2.177276192,1.45062801,2.3995781,-3.75059694,,,
imu,211.798905,0.7339334856000002,-9.651793580800001,2.191631859200001,1.22632071,2.27247063,-3.77302767,,,
imu,210.300491,,,,,,,83.3385436,-26.26382120000002,124.7759096
imu,210.403091,,,,,,,83.2775076,-25.67787560000001,126.38726
imu,210.503799,,,,,,,84.0221468,-26.08071320000001,125.8501432
imu,210.605209,,,,,,,83.8146244,-26.04409160000001,125.6182064
imu,210.706772,,,,,,,83.1554356,-25.90981240000001,126.021044
imu,210.808304,,,,,,,83.912282,-26.45913640000002,124.617216
imu,210.909897,,,,,,,83.668138,-26.44692920000002,126.0454584
imu,211.011459,,,,,,,83.1432284,-26.34927160000002,126.2163592
imu,211.807397,0.7285501104000001,-9.641026830400001,2.189239248,1.00949032,2.16031698,-3.81788913,,,
imu,211.815888,0.7315408744,-9.6494009696,2.1677057472,0.7253677399999999,2.01077878,-3.77302767,,,
imu,211.82438,0.7363260968000002,-9.6428212888,2.1814632616,0.59078336,1.85376367,-3.67582784,,,
imu,211.832871,0.7357279440000001,-9.6218859408,2.1946226232,0.71789083,1.89114822,-3.54872037,,,
imu,211.841652,0.7357279440000001,-9.6326526912,2.2000059984,0.51601426,1.77899457,-3.45899745,,,
imu,211.850433,0.7363260968000002,-9.632054538400002,2.1898374008,0.35899915,1.60702564,-3.48142818,,,
imu,211.859214,0.7177833600000001,-9.592576453600001,2.1790706504,0.31413769,1.55468727,-3.20478251,,,
imu,211.867995,0.7129981376000001,-9.551902063200002,2.2047912208,0.42629134,1.59207182,-3.16739796,,,
imu,211.876777,0.6854831088000001,-9.5704448,2.2185487352,0.56087572,1.75656384,-3.07767504,,,
imu,211.885558,0.6986424704000002,-9.637437913600001,2.21316536,0.78518302,1.90610204,-3.04029049,,,
imu,211.894339,0.7255593464000001,-9.634447149600001,2.228717332800001,0.76275229,2.04068642,-2.95056757,,,
imu,211.90312,0.7016332344,-9.592576453600001,2.2263247216,0.55339881,2.16031698,-3.10010577,,,
imu,211.911901,0.7010350816000002,-9.596165370400001,2.2167542768,0.5010604399999999,2.33228591,-3.15244414,,,
imu,211.920682,0.7207741240000002,-9.597959828800002,2.228717332800001,0.43376825,2.45939338,-3.1225365,,,
imu,211.929463,0.7357279440000001,-9.571641105600001,2.2239321104,0.47862971,2.67622377,-3.03281358,,,
imu,211.938244,0.7363260968000002,-9.580613397600002,2.2239321104,0.51601426,2.83323888,-3.04029049,,,
imu,211.947025,0.7464946944,-9.575230022400001,2.222735804800001,0.4711528,2.86314652,-3.23469015,,,
imu,211.955806,0.7662337368000001,-9.565061424800001,2.2167542768,0.59078336,2.97530017,-3.36927453,,,
imu,211.964588,0.7823838624,-9.568052188800001,2.201202304,0.71789083,2.91548489,-3.51133582,,,
imu,211.973369,0.7811875568000001,-9.549509452,2.225128416,0.7403215599999999,2.69117759,-3.90013514,,,
imu,211.98215,0.7787949456000002,-9.516611048000001,2.219146888,0.97210577,2.58650085,-4.124442439999999,,,
imu,211.990931,0.7895616960000001,-9.508835061600001,2.2179505824,1.33099745,2.51920866,-4.146873169999999,,,
imu,211.999712,0.7877672376000001,-9.502853533600002,2.216156124,1.60764312,2.33228591,-4.146873169999999,,,
imu,212.008493,0.7811875568000001,-9.519601812000001,2.210174596,2.04878081,2.25751681,-4.012288789999999,,,
imu,212.017274,0.7985339880000002,-9.557285438400001,2.1928281648,2.14598064,2.03320951,-3.90761205,,,
imu,212.026055,0.8206656416,-9.571042952800001,2.1970152344,2.37028794,1.86124058,-3.70573548,,,
imu,212.034836,0.7746078760000001,-9.576426328,2.222137652,2.33290339,1.47244126,-3.68330475,,,
imu,212.043486,0.7560651392000002,-9.583006008800002,2.201202304,2.43758013,1.33037997,-3.68330475,,,
imu,212.052135,0.7542706808000001,-9.612315496,2.188042942400001,2.33290339,1.23318014,-3.72816621,,,
imu,212.060784,0.7560651392000002,-9.619493329600001,2.1904355536,2.3403803,1.06868812,-3.67582784,,,
imu,212.069433,0.7201759712000001,-9.621287788000002,2.1665094416,2.38524176,0.8518577299999999,-3.6459202,,,
imu,212.078082,0.7064184568,-9.616502565600001,2.1748835808,2.13850373,0.7397040799999997,-3.74312003,,,
imu,212.086732,0.7064184568,-9.608128426400002,2.1886410952,1.9665348,0.8518577299999999,-3.93004278,,,
imu,212.095381,0.7058203040000001,-9.618297024,2.1904355536,1.95158098,0.9939190199999999,-3.91508896,,,
imu,212.10403,0.7004369288000002,-9.6494009696,2.1874447896,1.95905789,1.12102649,-3.96742733,,,
imu,212.112679,0.6908664840000001,-9.667345553600002,2.1455740936,2.02635008,1.26308778,-3.95247351,,,
imu,212.121328,0.6914646368,-9.663158484000002,2.1700983584,1.73475059,1.36028761,-4.00481188,,,
imu,212.129978,0.7076147624000001,-9.637437913600001,2.1539482328,1.54782784,1.39767216,-4.16182699,,,
imu,212.138627,0.6938572480000001,-9.636241608,2.1683039,1.54035093,1.40514907,-4.22911918,,,
imu,212.147276,0.6920627896000001,-9.6284656216,2.164714983200001,1.39081273,1.53225654,-4.18425772,,,
imu,212.155925,0.6896701784000001,-9.611119190400002,2.1485648576,1.30108981,1.61450255,-4.07210407,,,
imu,212.164574,0.6914646368,-9.612913648800001,2.1545463856,1.28613599,1.65936401,-4.012288789999999,,,
imu,212.173223,0.6800997336000001,-9.583006008800002,2.1401907184,1.23379762,1.56964109,-3.88518132,,,
imu,212.181873,0.6956517064000001,-9.574631869600001,2.1437796352,1.41324346,1.53973345,-3.73564312,,,
imu,212.190522,0.6878757200000001,-9.578818939200001,2.1599297608,1.33099745,1.42010289,-3.63844329,,,
imu,212.199171,0.6926609424000001,-9.582407856000001,2.1545463856,1.46558183,1.47244126,-3.54124346,,,
imu,212.20782,0.6998387760000001,-9.575828175200002,2.1240405928,1.56278166,1.5023489,-3.38422835,,,
imu,212.216469,0.7010350816000002,-9.578818939200001,2.117460912,1.65998149,1.47244126,-3.29450543,,,
imu,212.225119,0.6771089696000001,-9.591978300800001,2.1479667048,1.80951969,1.39019525,-3.22721324,,,
imu,212.233768,0.6717255944000001,-9.578220786400001,2.1455740936,1.95158098,1.5023489,-3.01038285,,,
imu,212.242417,0.6908664840000001,-9.603343204000002,2.1395925656,2.06373463,1.54721036,-2.9729983,,,
imu,212.250789,0.6860812616,-9.635643455200002,2.1330128848,2.14598064,1.74161002,-2.83093701,,,
imu,212.259161,0.6765108168000001,-9.669140012000002,2.1449759408,2.01139626,1.86871749,-2.91318302,,,
imu,212.267533,0.6777071224000001,-9.693066124000001,2.1557426912,2.06373463,2.07059406,-3.06272122,,,
imu,212.275905,0.6992406232000001,-9.6984494992,2.1288258152,1.98896553,2.22760917,-3.24964397,,,
imu,212.284277,0.7046239984,-9.683495679200002,2.1288258152,1.73475059,2.27247063,-3.45152054,,,
imu,212.292649,0.7004369288000002,-9.690673512800002,2.1617242192,1.50296638,2.324809,-3.53376655,,,
imu,212.301021,0.7219704296,-9.682299373600001,2.15335008,0.9571519499999999,2.36967046,-3.71321239,,,
imu,212.309393,0.7297464160000001,-9.672130776000001,2.1748835808,0.56087572,2.22013226,-3.7206893,,,
imu,212.317765,0.7279519576000001,-9.703832874400002,2.1988096928,0.02253820000000001,2.1752708,-3.69078166,,,
imu,212.326137,0.741709472,-9.758264779200001,2.1904355536,-0.37373803,2.01077878,-3.67582784,,,
imu,212.334509,0.7405131664000002,-9.745105417600001,2.191631859200001,-1.11395212,1.92853277,-3.52628964,,,
imu,212.342881,0.7112036792,-9.688280901600002,2.1695002056,-1.58499745,1.83880985,-3.30945925,,,
imu,212.351253,0.70282954,-9.636241608,2.1605279136,-2.02613514,1.83133294,-2.93561375,,,
imu,212.359919,0.7153907488000001,-9.630858232800001,2.1635186776,-2.04856587,2.01077878,-2.35989168,,,
imu,212.368291,0.7118018320000001,-9.606333968000001,2.132414732,-1.95136604,2.23508608,-1.95613854,,,
imu,212.376663,0.6926609424000001,-9.557883591200001,2.1192553704,-1.94388913,2.27247063,-1.83650798,,,
imu,212.385035,0.6854831088000001,-9.484908949600001,2.112675689600001,-1.3980747,2.57902394,-1.86641562,,,
imu,212.393407,0.6944554008000001,-9.474740352000001,2.1037033976,-0.7550604399999999,2.78837742,-2.02343073,,,
imu,211.113282,,,,,,,85.8410196,-27.58219880000001,123.0791088
imu,211.214936,,,,,,,83.47282279999999,-26.65445160000002,126.3506384
imu,211.316437,,,,,,,82.996742,-26.75210920000002,124.55618
imu,211.418061,,,,,,,83.17985000000002,-27.25260440000001,126.5337464
imu,211.519562,,,,,,,83.11881400000001,-27.32584760000001,125.9722152
imu,211.621155,,,,,,,83.37516519999998,-27.19156840000001,126.9487912
imu,211.72287,,,,,,,83.668138,-26.82535240000001,126.1187016
imu,211.824189,,,,,,,83.4972372,-26.98404600000002,125.5571704
imu,211.926514,,,,,,,83.6925524,-26.84976680000002,126.4605032
imu,212.027344,,,,,,,85.57246119999999,-27.9240004,123.8603696
imu,212.128968,,,,,,,83.2042644,-27.11832520000002,127.0464488
imu,212.230469,,,,,,,85.7677764,-27.96062200000002,123.7749192
imu,212.332032,,,,,,,83.36295799999999,-26.92301000000001,126.6558184
