Type,Timestamp,Data Accelerometer X,Data Accelerometer Y,Data Accelerometer Z,Data Gyroscope X,Data Gyroscope Y,Data Gyroscope Z,Data Magnetometer X,Data Magnetometer Y,Data Magnetometer Z
imu,463.40231,-0.2883096496000001,-9.6296619272,2.4661839944,-3.09533327,50.7004167,-7.384375199999999,,,
imu,463.411128,-0.248233412,-9.588389384000001,2.464389536000001,-3.43179422,51.10416984,-6.89089914,,,
imu,463.419946,-0.176455076,-9.578818939200001,2.4745581336,-3.52899405,51.42567697,-6.382469260000001,,,
imu,463.428764,-0.1297991576,-9.621287788000002,2.4954934816,-3.64862461,51.22380039999999,-6.487145999999999,,,
imu,463.437583,-0.0681894192,-9.661962178400001,2.5026713152,-3.87293191,50.91724709,-6.711453300000001,,,
imu,463.446401,0.009570444800000001,-9.6284656216,2.488315648,-4.07480848,50.49106321999999,-6.74136094,,,
imu,463.455219,0.04785222400000001,-9.6015487456,2.5080546904,-4.07480848,50.03497170999999,-6.681545659999999,,,
imu,463.464038,0.08852661440000001,-9.605735815200001,2.5218122048,-4.06733157,49.47420346,-6.442284539999999,,,
imu,463.472856,0.1459492832,-9.620091482400001,2.5140362184,-3.91031646,48.92838903,-6.031054489999999,,,
imu,463.481674,0.1902125904,-9.639830524800002,2.5164288296,-3.865455,48.1582673,-5.65720899,,,
imu,463.490492,0.20935348,-9.624278552000002,2.5188214408,-3.88788573,47.45543776,-5.09644074,,,
imu,463.498966,0.2237091472,-9.6075302736,2.518223288000001,-3.902839549999999,46.73017749,-4.44594957,,,
imu,463.50744,0.2853188856,-9.568650341600001,2.5170269824,-3.85050118,45.92267121,-3.60853565,,,
imu,463.515913,0.3457323184,-9.519601812000001,2.5146343712,-4.00003938,44.92076527,-2.93561375,,,
imu,463.524387,0.4103328208,-9.478927421600002,2.522410357600001,-3.82059354,43.85904404999999,-2.30755331,,,
imu,463.532861,0.4569887392,-9.462777296000002,2.5373641776,-3.59628624,42.53563098,-1.70940051,,,
imu,463.541335,0.4862982264000001,-9.475936657600002,2.551121692,-3.44674804,41.24960246,-1.11124771,,,
imu,463.549808,0.5461135064000001,-9.505246144800001,2.575047804,-3.618716969999999,39.64954372,-0.4981410899999998,,,
imu,463.558282,0.5969564944000001,-9.5154147424,2.5905997768,-3.54394787,38.05696189,0.05515025000000007,,,
imu,463.566756,0.5945638832000001,-9.533957479200001,2.6157221944,-3.61124006,36.47185697,0.6233954100000001,,,
imu,463.575229,0.5987509528,-9.5632669664,2.6366575424,-3.7159168,34.84189059,1.17668675,,,
imu,463.583703,0.6196863008000001,-9.571042952800001,2.6510132096,-3.99256247,33.36146241,1.55800916,,,
imu,463.592177,0.6358364264000002,-9.588389384000001,2.64682614,-4.418746339999999,31.91094187,1.81970101,,,
imu,463.600651,0.6507902464,-9.5949690648,2.673144863200001,-4.78511493,30.2884524,2.06643904,,,
imu,463.609124,0.6585662328000002,-9.579417092000002,2.6791263912,-5.01689914,28.89027023,2.485146,,,
imu,463.617598,0.648995788,-9.543527924000001,2.6904912944,-5.16643734,27.72387227,2.84403768,,,
imu,463.626072,0.6836886504,-9.533359326400001,2.7150155592,-5.368313909999999,26.49765903,2.96366824,,,
imu,463.634545,0.7207741240000002,-9.5184055064,2.729371226400001,-5.271114079999999,25.21910742,3.00105279,,,
imu,463.643019,0.7488873056,-9.516012895200001,2.736549060000001,-5.20382189,23.92560199,2.91880678,,,
imu,463.651493,0.7704208064000001,-9.477731116000001,2.7431287408,-5.04680678,22.62461965,2.94123751,,,
imu,463.659967,0.8104970440000001,-9.439449336800001,2.757484408000001,-5.009422229999999,21.39840641,3.0832988,,,
imu,463.66844,0.8451899064,-9.3862137376,2.7580825608,-4.54585381,20.10490098,3.10572953,,,
imu,463.676914,0.8900513664000002,-9.350324569600001,2.794569881600001,-4.299115779999999,18.63942662,3.09077571,,,
imu,463.685287,0.9050051864,-9.385615584800002,2.814308924,-3.7906859,16.97207569,2.82908386,,,
imu,463.693761,0.9199590064000001,-9.411934308000001,2.8101218544,-3.30468675,15.31220167,2.51505364,,,
imu,463.702224,0.9426888128,-9.352717180800001,2.819692299200001,-2.92336434,13.83177349,2.35803853,,,
imu,463.710688,0.9259405344000001,-9.311444637600001,2.825075674400001,-2.48222665,12.32891458,2.16363887,,,
imu,463.719151,0.8984255056000002,-9.324005846400002,2.82627198,-1.75696638,10.90082477,2.4103769,,,
imu,463.727615,0.9175663952000002,-9.355109792000002,2.837636883200001,-1.33078251,9.59236552,2.50757673,,,
imu,463.736079,0.903210728,-9.352119028,2.8424221056,-0.94198319,8.40353683,2.44028454,,,
imu,463.744542,0.8882569080000001,-9.3628857784,2.8436184112,-0.36626112,7.386677069999999,2.34308471,,,
imu,463.753006,0.8475825176000001,-9.3838211264,2.8400294944,0.16459949,6.339909669999999,2.22345415,,,
imu,463.761469,0.8146841136000001,-9.4005694048,2.8364405776,0.40386061,5.48006502,1.89447011,,,
imu,463.769933,0.7853746264000001,-9.4215047528,2.8280664384,0.65807555,4.88938913,1.58043989,,,
imu,463.778396,0.7596540560000001,-9.423299211200002,2.8400294944,0.8674290299999999,4.530497449999999,1.30379422,,,
imu,463.78686,0.7512799168000001,-9.4322715032,2.8358424248,1.0693056,4.05945212,0.9972409099999999,,,
imu,463.795323,0.7423076248,-9.433467808800001,2.8167015352,1.19641307,3.77532954,0.4813341200000001,,,
imu,463.803787,0.7345316384000001,-9.425691822400001,2.814308924,1.40576655,3.62579134,0.1523500800000002,,,
imu,463.81225,0.7141944432000001,-9.457393920800001,2.801747715200001,1.68241222,3.35662258,-0.15420323,,,
imu,463.820714,0.7106055264000001,-9.4908904776,2.78141052,1.73475059,3.12483837,-0.4233719899999999,,,
imu,463.829178,0.6962498592000002,-9.502255380800001,2.7700456168,1.60764312,3.25942275,-0.8046943999999998,,,
imu,463.837641,0.6681366776000001,-9.501657228000001,2.773634533600001,1.70484295,3.19960747,-0.9841402399999999,,,
imu,463.846105,0.6436124128,-9.516611048000001,2.748512116,1.23379762,3.08745382,-1.32060119,,,
imu,463.854568,0.6358364264000002,-9.516611048000001,2.727576768,1.15902852,3.13231528,-1.41780102,,,
imu,463.863032,0.6376308848000001,-9.516611048000001,2.7203989344,1.19641307,3.19213056,-1.53743158,,,
imu,463.871495,0.6430142600000001,-9.519601812000001,2.7102303368,1.13659779,3.40148404,-1.58976995,,,
imu,463.879959,0.6388271904000001,-9.520199964800002,2.679724544,0.81509066,3.43139168,-1.69444669,,,
imu,463.888422,0.6442105656,-9.530368562400001,2.67673378,0.64312173,3.40148404,-1.74678506,,,
imu,463.896886,0.6430142600000001,-9.5776226336,2.658789196,0.3963837,3.47625314,-1.74678506,,,
imu,463.905351,0.6495939408000001,-9.608128426400002,2.661779960000001,0.04496892999999999,3.58840679,-1.61967759,,,
imu,463.913815,0.6519865520000001,-9.614708107200002,2.648022445600001,-0.33635348,3.58840679,-1.55986231,,,
imu,463.92228,0.6693329832000001,-9.633250844,2.6474242928,-0.97189083,3.5211146,-1.54490849,,,
imu,463.930745,0.6741182056000001,-9.6733270816,2.6761356272,-1.3980747,3.46877623,-1.68696978,,,
imu,463.93921,0.6950535536000001,-9.734936820000001,2.7078377256,-2.07847351,3.40148404,-1.7766927,,,
imu,463.947675,0.7004369288000002,-9.715795930400002,2.7138192536,-2.75139541,3.28185348,-1.94866163,,,
imu,463.95614,0.6585662328000002,-9.6284656216,2.7162118648,-3.49908641,3.15474601,-2.30755331,,,
imu,463.964604,0.6472013296000001,-9.5698466472,2.7341564488,-4.02994702,3.05754618,-2.50942988,,,
imu,463.973069,0.6645477608,-9.574631869600001,2.7550917968,-4.40379252,3.02763854,-2.77112173,,,
imu,463.981534,0.6806978864000002,-9.5698466472,2.764064088800001,-4.74025347,2.93043871,-3.09262886,,,
imu,463.989999,0.6860812616,-9.516012895200001,2.7802142144,-5.02437605,2.81828506,-3.3468438,,,
imu,463.998464,0.6950535536000001,-9.472347740800002,2.820290452000001,-5.054283689999999,2.72856214,-3.47395127,,,
imu,464.006928,0.7147925960000001,-9.4412437952,2.8274682856,-4.85988403,2.57154703,-3.52628964,,,
imu,464.015393,0.7177833600000001,-9.408943544000001,2.8394313416,-4.800068749999999,2.42948574,-3.66835093,,,
imu,464.023858,0.7171852072000001,-9.376045140000002,2.862161148000001,-4.538376899999999,2.24256299,-3.36927453,,,
imu,464.032323,0.6992406232000001,-9.373652528800001,2.877114968,-4.1645314,2.36219355,-2.92065993,,,
imu,464.040788,0.6998387760000001,-9.3802322096,2.901041080000001,-3.77573208,2.45191647,-2.4496146,,,
imu,464.049252,0.7058203040000001,-9.3898026544,2.931546872800001,-3.69348607,2.49677793,-2.03090764,,,
imu,464.057717,0.7171852072000001,-9.382026668000002,2.9345376368,-3.62619388,2.61640849,-1.76921579,,,
imu,464.066182,0.7213722768,-9.363483931200001,2.9614545128,-3.30468675,2.7734236,-1.44770866,,,
imu,464.074647,0.7333353328000001,-9.363483931200001,2.996147375200001,-3.028041079999999,3.03511545,-1.24583209,,,
imu,464.083112,0.7488873056,-9.402962016000002,3.024260556800001,-2.885979789999999,3.28933039,-1.19349372,,,
imu,464.091577,0.7524762224000001,-9.430477044800002,3.0589534192,-3.08785636,3.61083752,-1.23087827,,,
imu,464.100041,0.7614485144,-9.4496179344,3.084673989600001,-2.99065653,3.8949601,-1.24583209,,,
imu,464.108509,0.7949450712000001,-9.4454308648,3.117572393600001,-3.28973293,4.11179049,-1.49257012,,,
imu,464.116976,0.8027210576,-9.467562518400001,3.1349188248,-3.64862461,4.18655959,-2.00847691,,,
imu,464.125443,0.8308342392000001,-9.468160671200001,3.143292964,-3.68600916,4.08935976,-2.29259949,,,
imu,464.133911,0.8475825176000001,-9.4250936696,3.149274492,-3.67105534,4.03702139,-2.748691,,,
imu,464.142378,0.8511714344000001,-9.357502403200002,3.136115130400001,-3.67853225,3.9697292,-3.02533667,,,
imu,464.150846,0.8709104768000001,-9.267181330400001,3.136115130400001,-3.46917877,3.79028336,-3.10758268,,,
imu,464.159313,0.8703123240000001,-9.199590064,3.138507741600001,-3.08037945,3.35662258,-3.18982869,,,
imu,464.16778,0.8750975464000001,-9.172673188000001,3.137311436000001,-2.48970356,2.81828506,-3.30945925,,,
imu,464.176248,0.8798827688,-9.210954967200001,3.131329908000001,-1.96631986,2.36967046,-3.47395127,,,
imu,464.184715,0.8601437264,-9.245049676800003,3.140302200000001,-1.21115195,1.84628676,-3.27955161,,,
imu,464.193182,0.8326286976000001,-9.282135150400002,3.146881880800001,-0.70272207,1.39019525,-2.9729983,,,
imu,464.20165,0.8081044328000001,-9.288714831200002,3.12534838,-0.33635348,1.19579559,-2.77859864,,,
imu,464.210117,0.7764023344000002,-9.2851259144,3.092449976,0.20946095,1.03878048,-2.32998404,,,
imu,464.218584,0.7399150136000001,-9.297687123200001,3.0757016976,0.6281679099999999,1.00887284,-1.73183124,,,
imu,464.227052,0.7387187080000002,-9.327594763200002,3.0481866688,1.22632071,1.14345722,-1.38041647,,,
imu,464.235519,0.741709472,-9.3754469872,3.038616224000001,1.56278166,1.24065705,-1.3280781,,,
imu,464.243986,0.7052221512000001,-9.402962016000002,3.012895653600001,1.79456587,1.41262598,-1.29069355,,,
imu,464.252454,0.7052221512000001,-9.396980488,2.991960305600001,1.93662716,1.62945637,-1.44770866,,,
imu,464.260921,0.7076147624000001,-9.4005694048,2.978800944,1.92167334,1.86124058,-2.01595382,,,
imu,464.269388,0.6968480120000001,-9.422102905600001,2.9889695416,1.78708896,2.0257326,-2.55429134,,,
imu,464.277856,0.7279519576000001,-9.443636406400001,2.9811935552,1.55530475,2.24256299,-3.13749032,,,
imu,464.286323,0.7327371800000001,-9.459786532,2.981791708,1.5179202,2.41453192,-3.70573548,,,
imu,464.294791,0.7482891528000001,-9.457393920800001,2.978202791200001,1.04687487,2.38462428,-4.169303899999999,,,
imu,464.303258,0.7494854584000001,-9.4496179344,2.9829880136,0.81509066,2.31733209,-4.49828794,,,
imu,464.312071,0.7740097232000002,-9.437654878400002,2.9889695416,0.57582954,2.27994754,-4.58053395,,,
imu,464.320884,0.780589404,-9.4382530312,2.9985399864,0.44124516,2.24256299,-4.59548777,,,
imu,464.329697,0.7650374312,-9.402363863200002,2.991960305600001,0.23936859,2.19022462,-4.59548777,,,
imu,464.33851,0.7584577504000002,-9.3718580704,3.005717820000001,0.06739966,2.00330187,-4.430995749999999,,,
imu,464.347323,0.7530743752000001,-9.3658765424,3.0182790288,-0.04475399000000001,1.92853277,-4.28893446,,,
imu,464.356136,0.7405131664000002,-9.3862137376,3.021269792800001,0.02253820000000001,1.94348659,-4.07210407,,,
imu,464.364949,0.7435039304000001,-9.392195265600002,3.029045779200001,0.07487657,1.91357895,-3.9449966,,,
imu,464.373761,0.7464946944,-9.388008196000001,3.036223612800001,0.17955331,2.03320951,-3.76555076,,,
imu,464.382574,0.7429057776,-9.402363863200002,3.0410088352,0.26927623,2.06311715,-3.66835093,,,
imu,464.391387,0.7405131664000002,-9.3904008072,3.0547663496,0.41881443,2.1752708,-3.31693616,,,
imu,464.4002,0.7476910000000001,-9.3802322096,3.057158960800001,0.45619898,2.08554788,-3.23469015,,,
imu,464.409013,0.7524762224000001,-9.388606348800002,3.051775585600001,0.58330645,2.22013226,-3.1225365,,,
imu,464.417826,0.7482891528000001,-9.343744888800002,3.0457940576,0.7253677399999999,2.31733209,-2.85336774,,,
imu,464.426639,0.7464946944,-9.322211388000001,3.0428032936,0.88985976,2.4743472,-2.71878336,,,
imu,464.435452,0.7500836112000001,-9.372456223200002,3.0487848216,1.06182869,2.56407012,-2.81598319,,,
imu,464.444265,0.7608503616000001,-9.441841948000002,3.0469903632,1.15155161,2.94539253,-2.75616791,,,
imu,464.453078,0.7698226536000001,-9.414925072,3.0511774328,1.24875144,3.16222292,-2.56176825,,,
imu,464.461891,0.7566632920000002,-9.401765710400001,3.0469903632,1.12164397,3.37905331,-2.68139881,,,
imu,464.470704,0.7728134176000001,-9.418513988800001,3.0523737384,1.00201341,3.66317589,-2.58419898,,,
imu,464.479517,0.8308342392000001,-9.4454308648,3.0439995992,0.9646288599999999,3.99963684,-2.34493786,,,
imu,464.48833,0.840404684,-9.462777296000002,3.0260550152,0.8449983,4.16412886,-2.48699915,,,
imu,464.497143,0.8613400320000001,-9.4424401008,3.022466098400001,0.53844499,4.28375942,-2.58419898,,,
imu,464.505956,0.903210728,-9.427486280800002,3.030840237600001,0.53844499,4.2688056,-2.65149117,,,
imu,464.514416,0.9085941032000001,-9.4077472384,3.0320365432,0.5010604399999999,4.1192674,-2.63653735,,,
imu,464.522877,0.9319220624000001,-9.388008196000001,3.0248587096,0.41881443,3.98468302,-2.6739219,,,
imu,464.531338,0.9373054376000002,-9.364680236800002,3.0188771816,0.08235347999999998,3.61831443,-3.00290594,,,
imu,464.539798,0.9438851184000001,-9.3652783896,3.0278494736,0.23936859,3.16969983,-3.32441307,,,
imu,464.548259,0.9343146736000002,-9.367072848000001,3.0248587096,0.41881443,2.76594669,-3.47395127,,,
imu,464.55672,0.9151737840000002,-9.364082084000001,3.032634696,0.53096808,2.324809,-3.61601256,,,
imu,464.565181,0.9020144224000001,-9.380830362400001,3.029045779200001,0.47862971,1.8761944,-3.86275059,,,
imu,464.573641,0.8792846160000001,-9.376045140000002,3.0392143768,0.56835263,1.54721036,-3.93004278,,,
imu,464.582102,0.8445917536,-9.3862137376,3.0260550152,0.66555246,1.0537343,-4.124442439999999,,,
imu,464.590563,0.8248527112,-9.379035904000002,3.0350273072,0.5982602699999999,0.84438082,-4.22911918,,,
imu,464.599023,0.8069081272,-9.3694654592,3.0487848216,0.65807555,0.6051196999999999,-4.28893446,,,
imu,464.607484,0.7835801680000001,-9.3766432928,3.0511774328,0.73284465,0.56025824,-4.28893446,,,
imu,464.615945,0.7584577504000002,-9.3862137376,3.0469903632,0.8749059399999999,0.5677351499999999,-4.34874974,,,
imu,464.624405,0.7542706808000001,-9.3694654592,3.0434014464,0.8674290299999999,0.5752120599999997,-4.26650373,,,
imu,464.632866,0.7375224024000001,-9.382624820800002,3.044597752,0.9571519499999999,0.76213481,-4.22164227,,,
imu,463.482734,,,,,,,86.34151480000001,-24.24963320000002,127.6568088
imu,463.584265,,,,,,,83.7535884,-23.56603000000002,126.2163592
imu,463.685828,,,,,,,82.5816972,-23.73693080000001,124.678252
imu,463.78736,,,,,,,82.20327400000001,-22.84580520000002,123.5429824
imu,463.888953,,,,,,,81.5807068,-22.69931880000002,123.8969912
imu,463.990515,,,,,,,82.02016599999999,-22.25985960000001,122.9814512
imu,464.641327,0.7255593464000001,-9.3904008072,3.049981127200001,1.03939796,0.9565344699999998,-4.20668845,,,
imu,464.649787,0.7405131664000002,-9.412532460800001,3.0463922104,1.00201341,1.17336486,-4.08705789,,,
imu,464.658248,0.7488873056,-9.4071490856,3.055962655200001,1.00949032,1.38271834,-4.169303899999999,,,
imu,464.666709,0.7572614448000001,-9.415523224800001,3.054168196800001,1.03939796,1.56964109,-4.169303899999999,,,
imu,464.67517,0.7596540560000001,-9.418513988800001,3.05057928,0.79265993,1.53225654,-4.318842099999999,,,
imu,464.68363,0.7698226536000001,-9.422102905600001,3.0553645024,0.76275229,1.36776452,-4.56558013,,,
imu,464.692091,0.7901598488000001,-9.419112141600001,3.051775585600001,0.68798319,1.5023489,-4.52819558,,,
imu,464.700552,0.7997302936000001,-9.4077472384,3.0577571136,0.51601426,1.48739508,-4.44594957,,,
imu,464.709012,0.8021229048,-9.402363863200002,3.038018071200001,0.59078336,1.42010289,-4.5431494,,,
imu,464.717473,0.7961413768000002,-9.3927934184,3.0284476264,0.56087572,1.30794924,-4.51324176,,,
imu,464.72596,0.7841783208,-9.382624820800002,3.0260550152,0.7104139199999999,1.30047233,-4.33379592,,,
imu,464.734446,0.7620466672,-9.3718580704,3.0272513208,0.67302937,1.15841104,-4.31136519,,,
imu,464.742933,0.7668318896,-9.367671000800001,3.033831001600001,0.59078336,1.14345722,-4.16182699,,,
imu,464.751419,0.7518780696000001,-9.3796340568,3.029643932,0.76275229,1.18084177,-3.98985806,,,
imu,464.759906,0.7423076248,-9.402363863200002,3.041606988,0.76275229,1.24813396,-3.91508896,,,
imu,464.768392,0.7261574992000001,-9.418513988800001,3.033831001600001,0.74779847,1.50982581,-3.7954584,,,
imu,464.776944,0.7094092208000001,-9.408943544000001,3.047588516000001,0.68050628,1.64441019,-3.75807385,,,
imu,464.785431,0.7129981376000001,-9.418513988800001,3.057158960800001,0.67302937,1.85376367,-3.66835093,,,
imu,464.793917,0.7165870544000001,-9.418513988800001,3.0511774328,0.620691,2.05564024,-3.69825857,,,
imu,464.802404,0.7363260968000002,-9.4041583216,3.054168196800001,0.59078336,2.13788625,-3.9449966,,,
imu,464.81089,0.741709472,-9.398176793600001,3.0481866688,0.45619898,2.22013226,-3.99733497,,,
imu,464.819377,0.7506817640000001,-9.382624820800002,3.0457940576,0.49358353,2.35471664,-4.057150249999999,,,
imu,464.827863,0.7656355840000001,-9.3688673064,3.0493829744,0.4711528,2.41453192,-4.08705789,,,
imu,464.83635,0.7764023344000002,-9.371259917600002,3.0493829744,0.57582954,2.36219355,-4.034719519999999,,,
imu,464.844836,0.771617112,-9.357502403200002,3.054168196800001,0.73284465,2.33228591,-3.78798149,,,
imu,464.853323,0.7764023344000002,-9.364680236800002,3.051775585600001,0.68798319,2.33228591,-3.92256587,,,
imu,464.86181,0.7817857096,-9.414925072,3.0649349472,0.94967504,2.48930102,-3.78798149,,,
imu,464.870296,0.7973376824000001,-9.448421628800002,3.0463922104,1.02444414,2.29490136,-3.83284295,,,
imu,464.878783,0.7955432240000001,-9.427486280800002,3.049981127200001,0.8823828499999999,2.1752708,-3.72816621,,,
imu,464.887269,0.771617112,-9.411934308000001,3.065533100000001,0.79265993,2.01825569,-3.58610492,,,
imu,464.895756,0.771617112,-9.405952780000002,3.0577571136,0.76275229,1.97339423,-3.54872037,,,
imu,464.904242,0.7524762224000001,-9.382026668000002,3.0649349472,0.620691,1.92105586,-3.6459202,,,
imu,464.912729,0.741709472,-9.4077472384,3.077496156,0.53844499,1.61450255,-3.85527368,,,
imu,464.921187,0.7261574992000001,-9.451412392800002,3.088861059200001,0.35899915,1.54721036,-3.95247351,,,
imu,464.929646,0.7141944432000001,-9.495675700000001,3.098431504000001,0.16459949,1.58459491,-3.69078166,,,
imu,464.938104,0.6938572480000001,-9.446627170400001,3.09544074,-0.14195382,1.68927165,-3.68330475,,,
imu,464.946563,0.6693329832000001,-9.401765710400001,3.086468448,-0.31392275,2.03320951,-3.39170526,,,
imu,464.955021,0.6382290376000002,-9.385615584800002,3.0858702952,-0.47093786,2.42948574,-2.94309066,,,
imu,464.96348,0.6394253432000001,-9.372456223200002,3.0643367944,-0.38121494,2.69117759,-2.46456842,,,
imu,464.971938,0.6555754688000001,-9.347333805600002,3.0392143768,-0.007369440000000005,3.07997691,-2.10567674,,,
imu,464.980396,0.6705292888000001,-9.318024318400001,3.032634696,0.29170696,3.35662258,-2.01595382,,,
imu,464.988855,0.6914646368,-9.292303748000002,3.017680876,0.7253677399999999,3.76037572,-1.9262309,,,
imu,464.997313,0.7183815128000002,-9.282135150400002,3.0093067368,1.21136689,3.99963684,-2.001,,,
imu,465.005772,0.7512799168000001,-9.304864956800001,3.0099048896,1.73475059,4.13422122,-2.15801511,,,
imu,465.01423,0.7781967928000002,-9.325202152000001,3.0063159728,2.0413039,4.11179049,-2.3748455,,,
imu,465.022689,0.804515516,-9.350922722400002,3.0063159728,2.20579592,4.1192674,-2.45709151,,,
imu,465.031147,0.8392083784000002,-9.374848834400002,3.024260556800001,2.34785721,3.93234465,-2.70382954,,,
imu,465.039606,0.8445917536,-9.4286825864,3.023662404,2.23570356,3.60336061,-2.90570611,,,
imu,465.048064,0.8619381848000001,-9.483712644000002,3.0410088352,2.14598064,3.20708438,-3.1225365,,,
imu,465.056523,0.8607418792,-9.526181492800001,3.0607478776,1.84690424,2.85566961,-3.37675144,,,
imu,465.064981,0.8505732816000001,-9.530368562400001,3.068523864000001,1.42072037,2.48930102,-3.55619728,,,
imu,465.073439,0.8302360864000001,-9.5184055064,3.080486920000001,0.91229049,2.14536316,-3.59358183,,,
imu,465.081898,0.8039173632000001,-9.482516338400002,3.0828795312,0.26927623,1.90610204,-3.80293531,,,
imu,465.090356,0.8075062800000001,-9.457992073600002,3.0972351984,-0.25410747,1.6518871,-3.99733497,,,
imu,465.098815,0.7764023344000002,-9.430477044800002,3.0936462816,-0.50832241,1.74161002,-3.80293531,,,
imu,465.107273,0.7351297912000001,-9.387410043200001,3.083477684,-0.68776825,1.8014253,-3.7206893,,,
imu,465.115732,0.7351297912000001,-9.3443430416,3.0900573648,-0.68776825,1.85376367,-3.63844329,,,
imu,465.124551,0.7458965416000001,-9.3377633608,3.0900573648,-0.6279529699999999,1.9509635,-3.66087402,,,
imu,465.133371,0.7381205552000002,-9.352717180800001,3.0852721424,-0.21672292,1.95844041,-3.42908981,,,
imu,465.14219,0.7512799168000001,-9.335370749600001,3.0828795312,-0.11952309,2.01077878,-3.36927453,,,
imu,465.15101,0.7500836112000001,-9.332978138400001,3.0768980032,0.03749201999999999,2.16779389,-3.15244414,,,
imu,465.15983,0.7644392784,-9.326398457600002,3.0589534192,0.4711528,2.37714737,-3.00290594,,,
imu,465.168649,0.780589404,-9.2827333032,3.0439995992,0.76275229,2.52668557,-2.92813684,,,
imu,465.177469,0.7829820152,-9.2707702472,3.0350273072,0.91229049,2.55659321,-2.73373718,,,
imu,465.186288,0.7793930984000002,-9.337165208000002,3.0451959048,1.48053565,2.68370068,-2.59167589,,,
imu,465.195108,0.8057118216000001,-9.419112141600001,3.0553645024,1.50296638,2.76594669,-2.748691,,,
imu,465.203928,0.8308342392000001,-9.423897364000002,3.051775585600001,1.4431511,2.75846978,-2.8982292,,,
imu,465.212747,0.8386102256000002,-9.402962016000002,3.0487848216,1.31604363,2.72108523,-3.07767504,,,
imu,465.221567,0.8278434752000001,-9.4322715032,3.05057928,1.22632071,2.8481927,-3.00290594,,,
imu,465.230386,0.8457880592000001,-9.453805004000001,3.0661312528,0.9347212199999999,2.8481927,-2.92065993,,,
imu,465.239206,0.8625363376,-9.4460290176,3.059551572000001,0.59078336,2.8481927,-2.92813684,,,
imu,465.248025,0.8655271016000001,-9.436458572800001,3.0679257112,0.3216146,2.82576197,-2.9729983,,,
imu,465.256845,0.8697141712000002,-9.4316733504,3.065533100000001,0.03001510999999998,2.66874686,-3.10010577,,,
imu,465.265665,0.8900513664000002,-9.439449336800001,3.0607478776,-0.02232326000000001,2.50425484,-3.32441307,,,
imu,465.274484,0.8942384360000002,-9.419112141600001,3.0721127808,0.10478421,2.39210119,-3.44404363,,,
imu,465.283304,0.8744993936000002,-9.3754469872,3.0703183224,0.08983038999999998,2.16031698,-3.63096638,,,
imu,465.292123,0.8631344904,-9.350324569600001,3.0679257112,0.08235347999999998,1.85376367,-3.91508896,,,
imu,465.300943,0.8374139200000001,-9.327594763200002,3.0757016976,0.08235347999999998,1.68927165,-4.079580979999999,,,
imu,465.309762,0.8146841136000001,-9.3036686512,3.0757016976,0.35152224,1.6518871,-3.9449966,,,
imu,465.318582,0.7793930984000002,-9.300079734400002,3.0679257112,0.67302937,1.68179474,-3.72816621,,,
imu,465.327058,0.7458965416000001,-9.309052026400002,3.075103544800001,0.9571519499999999,1.8761944,-3.53376655,,,
imu,465.335535,0.7321390272000001,-9.315033554400001,3.082281378400001,1.10669015,2.13788625,-3.29450543,,,
imu,465.344011,0.7231667352000001,-9.3347725968,3.0816832256,1.36090509,2.41453192,-3.06272122,,,
imu,465.352487,0.7297464160000001,-9.3658765424,3.0810850728,1.39828964,2.8481927,-2.92813684,,,
imu,465.360963,0.7405131664000002,-9.398176793600001,3.105609337600001,1.368382,3.12483837,-2.85336774,,,
imu,465.36944,0.7614485144,-9.422102905600001,3.0906555176,1.25622835,3.41643786,-2.74121409,,,
imu,465.377916,0.7698226536000001,-9.443038253600001,3.096038892800001,1.02444414,3.73794499,-2.81598319,,,
imu,465.386392,0.7913561544000001,-9.447225323200001,3.098431504000001,0.8823828499999999,3.85009864,-2.8234601,,,
imu,465.394868,0.7949450712000001,-9.4496179344,3.107403796,0.58330645,3.8949601,-2.85336774,,,
imu,465.403345,0.8003284464,-9.446627170400001,3.0978333512,0.34404533,3.90243701,-2.94309066,,,
imu,465.411821,0.8176748776000001,-9.4454308648,3.092449976,0.14216876,3.87252937,-2.95056757,,,
imu,465.420297,0.8206656416,-9.439449336800001,3.0882629064,-0.10456927,3.73046808,-2.8234601,,,
imu,465.428773,0.8284416280000001,-9.431075197600002,3.0936462816,-0.24663056,3.55849915,-2.69635263,,,
imu,465.43725,0.8212637944000001,-9.404756474400001,3.0906555176,-0.24663056,3.51363769,-2.61410662,,,
imu,465.445726,0.8116933496000001,-9.398774946400001,3.0882629064,-0.44850713,3.54354533,-2.60662971,,,
imu,465.454202,0.8021229048,-9.3832229736,3.0762998504,-0.50832241,3.39400713,-2.24773803,,,
imu,464.092078,,,,,,,84.644714,-22.61386840000002,120.0517232
imu,464.193854,,,,,,,82.55728280000001,-21.60067080000001,122.4443344
imu,464.295234,,,,,,,82.8990844,-22.32089560000001,119.9296512
imu,464.396796,,,,,,,82.7037692,-21.99130120000001,122.6396496
imu,464.498328,,,,,,,82.36196760000001,-21.46639160000001,122.5053704
imu,464.59989,,,,,,,82.3375532,-22.16220200000001,122.8105504
imu,464.709235,,,,,,,82.3497604,-21.58846360000002,122.541992
imu,464.803015,,,,,,,82.3985892,-21.97909400000002,122.6274424
imu,465.462678,0.8069081272,-9.372456223200002,3.0840758368,-0.5756146,3.47625314,-2.20287657,,,
imu,465.471155,0.8027210576,-9.368269153600002,3.073309086400001,-0.5980453299999999,3.46877623,-2.01595382,,,
imu,465.479631,0.8075062800000001,-9.3658765424,3.078094308800001,-0.63542988,3.4463455,-1.82155416,,,
imu,465.488107,0.8081044328000001,-9.348530111200002,3.0673275584,-0.45598404,3.61831443,-1.64210832,,,
imu,465.496583,0.8302360864000001,-9.325800304800001,3.0607478776,-0.37373803,3.61831443,-1.50752394,,,
imu,465.50506,0.8481806704000001,-9.316229860000002,3.056560808,-0.25410747,3.5958837,-1.32060119,,,
imu,465.513536,0.8619381848000001,-9.308453873600001,3.0601497248,0.08983038999999998,3.67812971,-1.42527793,,,
imu,465.522012,0.8577511152000001,-9.315631707200001,3.0589534192,0.23189168,3.87252937,-1.50752394,,,
imu,465.5303,0.8816772272000001,-9.332978138400001,3.0667294056,0.26927623,3.82766791,-1.66453905,,,
imu,465.538587,0.9229497704,-9.329389221600001,3.0649349472,0.3739529699999999,3.88000628,-1.74678506,,,
imu,465.546874,0.9181645480000001,-9.3419504304,3.0661312528,0.70293701,3.92486774,-1.88136944,,,
imu,465.555162,0.9301276040000002,-9.350922722400002,3.061346030400001,0.9197674,3.81271409,-1.93370781,,,
imu,465.563449,0.9462777296000001,-9.3622876256,3.0840758368,1.0693056,3.61831443,-2.17296893,,,
imu,465.571736,0.9588389384,-9.377241445600001,3.080486920000001,1.12164397,3.50616078,-2.41223005,,,
imu,465.580024,0.9654186192,-9.384419279200001,3.0912536704,1.13659779,3.28933039,-2.71130645,,,
imu,465.588311,0.9785779808,-9.364082084000001,3.0972351984,1.31604363,2.99025399,-3.09262886,,,
imu,465.596598,0.9797742864000001,-9.3766432928,3.1038148792,1.20388998,2.52668557,-3.46647436,,,
imu,465.604886,0.9773816752000002,-9.4203084472,3.131329908000001,1.20388998,2.12293243,-3.78798149,,,
imu,465.613173,0.9719983000000001,-9.4322715032,3.1229557688,1.12164397,1.77899457,-3.96742733,,,
imu,465.62146,0.9731946056000002,-9.377241445600001,3.1091982544,0.9571519499999999,1.41262598,-4.16182699,,,
imu,465.629748,0.9438851184000001,-9.3479319584,3.1325262136,0.74779847,1.17336486,-4.18425772,,,
imu,465.638035,0.9289312984000001,-9.3658765424,3.113385324,0.70293701,0.9640113799999996,-4.146873169999999,,,
imu,465.646323,0.9295294512000001,-9.336567055200002,3.092449976,0.58330645,0.7546578999999998,-3.90013514,,,
imu,465.65461,0.9157719368000001,-9.3144354016,3.1247502272,0.4711528,0.7172733499999997,-3.86275059,,,
imu,465.662897,0.9121830200000002,-9.351520875200002,3.1528634088,0.5459219,0.5453044199999999,-3.95995042,,,
imu,465.671185,0.9073977976000001,-9.4244955168,3.159443089600001,0.6132140899999999,0.6499811599999998,-3.84031986,,,
imu,465.679472,0.9121830200000002,-9.4203084472,3.1528634088,0.41133752,0.62007352,-3.87770441,,,
imu,465.687759,0.8780883104000001,-9.367671000800001,3.1510689504,0.3216146,0.6873657099999999,-3.69078166,,,
imu,465.696047,0.8703123240000001,-9.3557079448,3.1414985056,0.22441477,0.78456554,-3.52628964,,,
imu,465.704334,0.88227538,-9.385615584800002,3.1307317552,0.5010604399999999,1.11354958,-3.31693616,,,
imu,465.712621,0.8966310472000002,-9.391597112800001,3.104413032,0.52349117,1.12102649,-3.41413599,,,
imu,465.720909,0.8858642968000001,-9.367072848000001,3.0978333512,0.53096808,1.25561087,-3.68330475,,,
imu,465.729196,0.8840698384000001,-9.344941194400002,3.0786924616,0.55339881,1.44253362,-3.75807385,,,
imu,465.737842,0.900219964,-9.324005846400002,3.083477684,0.5982602699999999,1.36776452,-3.97490424,,,
imu,465.746488,0.9253423816,-9.3204169296,3.083477684,0.7253677399999999,1.18084177,-4.40108811,,,
imu,465.755133,0.8984255056000002,-9.327594763200002,3.059551572000001,0.8674290299999999,1.06121121,-4.75250288,,,
imu,465.763779,0.9008181168,-9.3347725968,3.0589534192,1.01696723,0.84438082,-4.84970271,,,
imu,465.772425,0.9103885616000001,-9.329389221600001,3.061346030400001,0.9571519499999999,0.7471809899999999,-5.07401001,,,
imu,465.781071,0.9020144224000001,-9.325800304800001,3.057158960800001,1.12912088,0.56025824,-5.1413022,,,
imu,465.789716,0.9062014920000001,-9.3592968616,3.0727109336,1.2188438,0.2686587499999997,-5.13382529,,,
imu,465.798362,0.8930421304000001,-9.382026668000002,3.0828795312,1.22632071,-0.09023292999999999,-5.17120984,,,
imu,465.807008,0.8768920048000002,-9.387410043200001,3.0936462816,1.2188438,-0.2846325900000002,-5.193640569999999,,,
imu,465.815654,0.8505732816000001,-9.405354627200001,3.096637045600001,1.20388998,-0.45660152,-4.976810179999999,,,
imu,465.824299,0.8242545584000001,-9.403560168800002,3.105609337600001,1.04687487,-0.5014629800000003,-4.94690254,,,
imu,465.832945,0.804515516,-9.4203084472,3.11039456,0.9945364999999999,-0.5238937100000003,-4.87961035,,,
imu,465.841591,0.7770004872000001,-9.412532460800001,3.122357616,0.7104139199999999,-0.4939860700000001,-4.909517989999999,,,
imu,465.850237,0.7542706808000001,-9.4113361552,3.1295354496,0.52349117,-0.4416477000000003,-4.93942563,,,
imu,465.858883,0.7399150136000001,-9.4077472384,3.143292964,0.4711528,-0.2248173100000002,-4.92447181,,,
imu,465.867391,0.7351297912000001,-9.394587876800001,3.1337225192,0.2468455,-0.1350943900000003,-4.9169949,,,
imu,465.876037,0.7303445688000001,-9.379035904000002,3.1319280608,0.27675314,0.1864127399999997,-4.87213344,,,
imu,465.884683,0.7303445688000001,-9.3652783896,3.1391058944,0.26179932,0.4256738599999998,-4.77493361,,,
imu,465.893329,0.7345316384000001,-9.347333805600002,3.146283728,0.31413769,0.62007352,-4.65530305,,,
imu,465.901974,0.7225685824,-9.350324569600001,3.1391058944,0.58330645,0.8593346399999997,-4.52071867,,,
imu,465.91062,0.7165870544000001,-9.321613235200001,3.1277409912,0.97210577,1.15841104,-4.17678081,,,
imu,465.919266,0.7249611936,-9.2851259144,3.1325262136,0.8749059399999999,1.47991817,-4.11696553,,,
imu,465.927912,0.7321390272000001,-9.322809540800002,3.1528634088,0.9048135799999999,1.62945637,-4.10948862,,,
imu,465.93638,0.7530743752000001,-9.404756474400001,3.15525602,1.24875144,1.83880985,-4.0197657,,,
imu,465.944849,0.7853746264000001,-9.419112141600001,3.149872644800001,1.07678251,2.03320951,-3.90013514,,,
imu,465.953317,0.7775986400000001,-9.382624820800002,3.164228312,0.8973366700000001,2.15284007,-3.75059694,,,
imu,465.961786,0.7668318896,-9.380830362400001,3.1558541728,0.70293701,2.27247063,-3.60105874,,,
imu,465.970255,0.7859727792000001,-9.4071490856,3.142694811200001,0.67302937,2.15284007,-3.44404363,,,
imu,465.978723,0.7979358352000001,-9.4005694048,3.121759463200001,0.47862971,2.14536316,-3.41413599,,,
imu,465.987192,0.8015247520000001,-9.388606348800002,3.115179782400001,0.43376825,2.23508608,-3.37675144,,,
imu,465.995661,0.7955432240000001,-9.389204501600002,3.1157779352,0.50853735,2.2500399,-3.44404363,,,
imu,466.004129,0.8003284464,-9.382624820800002,3.108001948800001,0.44124516,2.22013226,-3.45899745,,,
imu,466.012598,0.7949450712000001,-9.393391571200002,3.0978333512,0.6954601,2.14536316,-3.51133582,,,
imu,466.021066,0.7949450712000001,-9.370063612000001,3.104413032,0.66555246,1.92853277,-3.61601256,,,
imu,466.029535,0.7758041816000001,-9.3658765424,3.087066600800001,0.7552753799999999,2.01825569,-3.74312003,,,
imu,466.038004,0.7692245008,-9.3688673064,3.0840758368,0.8449983,2.04068642,-3.68330475,,,
imu,466.046472,0.7698226536000001,-9.348530111200002,3.082281378400001,1.02444414,2.09302479,-3.52628964,,,
imu,466.054941,0.7596540560000001,-9.3694654592,3.0912536704,1.09921324,2.2500399,-3.33188998,,,
imu,466.06341,0.7638411256000001,-9.382026668000002,3.094244434400001,0.94967504,2.42200883,-3.11505959,,,
imu,466.071878,0.7698226536000001,-9.398176793600001,3.1109927128,0.83004448,2.50425484,-2.99542903,,,
imu,466.080347,0.7793930984000002,-9.405354627200001,3.1211613104,0.65059864,2.60893158,-2.85336774,,,
imu,466.088815,0.7883653904000001,-9.417915836,3.1247502272,0.63564482,2.90800798,-2.96552139,,,
imu,466.097284,0.7943469184000002,-9.4244955168,3.138507741600001,0.1720764,2.88557725,-3.06272122,,,
imu,466.105753,0.8206656416,-9.419112141600001,3.146881880800001,0.09730729999999999,2.91548489,-3.13749032,,,
imu,466.114221,0.8284416280000001,-9.3927934184,3.1391058944,-0.25410747,2.96782326,-3.1973056,,,
imu,466.12269,0.8230582528,-9.373652528800001,3.15525602,-0.32139966,2.96034635,-3.30198234,,,
imu,466.131159,0.8368157672000002,-9.356904250400001,3.154657867200001,-0.29896893,3.02763854,-3.24216706,,,
imu,466.13998,0.8356194616000001,-9.342548583200001,3.149872644800001,-0.33635348,2.84071579,-3.36927453,,,
imu,466.1488,0.8427972952,-9.330585527200002,3.170209840000001,-0.3513073,2.88557725,-3.52628964,,,
imu,466.157621,0.8529658928000001,-9.329987374400002,3.176191368,-0.18681528,2.75846978,-3.55619728,,,
imu,466.166442,0.8410028368000001,-9.327594763200002,3.1779858264,0.10478421,2.51920866,-3.69078166,,,
imu,466.175263,0.8410028368000001,-9.3204169296,3.170807992800001,0.44872207,2.51173175,-3.67582784,,,
imu,466.184084,0.8398065312,-9.318024318400001,3.167219076,0.620691,2.27247063,-3.69078166,,,
imu,466.192905,0.8380120728000001,-9.3204169296,3.154059714400001,0.77770611,2.25751681,-3.74312003,,,
imu,466.201726,0.8278434752000001,-9.298883428800002,3.149872644800001,0.85995212,2.18274771,-3.74312003,,,
imu,466.210547,0.8182730304000002,-9.287518525600001,3.146881880800001,1.02444414,2.19022462,-3.66835093,,,
imu,466.219368,0.8206656416,-9.2964908176,3.136115130400001,1.35342818,2.09302479,-3.66835093,,,
imu,466.228189,0.8230582528,-9.3138372488,3.1271428384,1.41324346,2.13040934,-3.45899745,,,
imu,466.23701,0.8314323920000001,-9.33118368,3.117572393600001,1.57025857,2.10797861,-3.496382,,,
imu,466.24583,0.8236564056000001,-9.3443430416,3.1115908656,1.58521239,2.22760917,-3.39918217,,,
imu,466.254651,0.8451899064,-9.374848834400002,3.1169742408,1.75718132,2.24256299,-3.35432071,,,
imu,466.263472,0.8433954480000001,-9.395784182400002,3.112189018400001,1.87681188,2.1752708,-3.20478251,,,
imu,466.272293,0.8416009896000001,-9.3898026544,3.1062074904,1.67493531,2.36967046,-3.09262886,,,
imu,464.904432,,,,,,,82.4718324,-21.69832840000001,122.2490192
imu,465.005994,,,,,,,85.10858759999999,-22.62607560000001,122.1513616
imu,465.107648,,,,,,,82.32534600000001,-21.97909400000002,122.358884
imu,465.20918,,,,,,,84.7301644,-22.55283240000001,119.8808224
imu,465.310682,,,,,,,82.59390440000001,-21.01472520000001,121.7363168
imu,465.412519,,,,,,,82.49624680000001,-22.21103080000002,119.3803272
imu,465.513807,,,,,,,82.77701239999999,-21.79598600000001,122.1391544
imu,465.6154,,,,,,,83.06998519999999,-21.17341880000001,122.3710912
imu,466.281114,0.8463862120000001,-9.401765710400001,3.1145816296,1.72727368,2.46687029,-2.95056757,,,
imu,466.289935,0.8469843648000001,-9.399971252000002,3.121759463200001,1.48053565,2.46687029,-3.07767504,,,
imu,466.298756,0.8457880592000001,-9.395186029600001,3.1062074904,1.42072037,2.49677793,-3.10010577,,,
imu,466.307577,0.8577511152000001,-9.385615584800002,3.1181705464,1.35342818,2.41453192,-3.18982869,,,
imu,466.316398,0.8679197128000001,-9.364680236800002,3.1181705464,1.368382,2.28742445,-3.28702852,,,
imu,466.325219,0.8583492680000002,-9.3557079448,3.128937296800001,1.19641307,2.40705501,-3.47395127,,,
imu,466.334039,0.8649289488,-9.3652783896,3.1241520744,1.30856672,2.26499372,-3.53376655,,,
imu,466.342516,0.86732156,-9.364680236800002,3.1295354496,1.368382,2.22013226,-3.66835093,,,
imu,466.350992,0.8715086296000001,-9.342548583200001,3.1241520744,1.53287402,2.04816333,-3.81041222,,,
imu,466.359468,0.8691160184000001,-9.335968902400001,3.1337225192,1.33847436,1.83133294,-4.0197657,,,
imu,466.367945,0.8601437264,-9.361091320000002,3.1474800336,1.32352054,1.71917929,-4.08705789,,,
imu,466.376421,0.8768920048000002,-9.414326919200002,3.1480781864,1.45062801,1.56964109,-4.0945348,,,
imu,466.384897,0.8756956992000001,-9.396980488,3.1379095888,1.24875144,1.36776452,-4.25902682,,,
imu,466.393373,0.8571529624000002,-9.346137500000001,3.1391058944,1.04687487,1.24813396,-4.17678081,,,
imu,466.40185,0.8511714344000001,-9.338959666400001,3.156452325600001,1.30108981,0.9939190199999999,-3.87770441,,,
imu,466.410326,0.8595455736000001,-9.3628857784,3.136115130400001,1.40576655,0.86681155,-3.83284295,,,
imu,466.418802,0.8571529624000002,-9.3377633608,3.1247502272,1.17398234,0.6948426199999997,-3.78798149,,,
imu,466.427278,0.8350213088000001,-9.3718580704,3.149872644800001,1.07678251,0.56025824,-3.73564312,,,
imu,466.435755,0.8224601,-9.4460290176,3.156452325600001,1.04687487,0.5527813299999997,-3.69825857,,,
imu,466.444231,0.8033192104000001,-9.453206851200001,3.1558541728,0.67302937,0.5079198699999998,-3.61601256,,,
imu,466.452707,0.7680281952000001,-9.413130613600002,3.1516671032,0.53844499,0.7172733499999997,-3.4216129,,,
imu,466.461183,0.7405131664000002,-9.372456223200002,3.1438911168,0.35152224,0.9640113799999996,-3.1973056,,,
imu,466.46966,0.7429057776,-9.394587876800001,3.128339144,0.6132140899999999,1.39767216,-2.89075229,,,
imu,466.478136,0.7464946944,-9.404756474400001,3.122357616,0.74779847,1.71170238,-2.86832156,,,
imu,466.486612,0.7590559032000002,-9.3993730992,3.0996278096,0.82256757,1.91357895,-2.90570611,,,
imu,466.495088,0.7572614448000001,-9.332978138400001,3.1337225192,0.7552753799999999,2.22760917,-3.09262886,,,
imu,466.503565,0.7357279440000001,-9.2761536224,3.096637045600001,0.94219813,2.45191647,-3.23469015,,,
imu,466.512041,0.7608503616000001,-9.3628857784,3.0601497248,1.32352054,2.49677793,-3.43656672,,,
imu,466.520517,0.7518780696000001,-9.343146736000001,3.0900573648,1.35342818,2.68370068,-3.54124346,,,
imu,466.528993,0.744700236,-9.315631707200001,3.0607478776,1.45062801,2.81828506,-3.63844329,,,
imu,466.53747,0.8182730304000002,-9.371259917600002,3.0721127808,1.55530475,2.6986545,-3.75059694,,,
imu,466.545936,0.7734115704000001,-9.351520875200002,3.1247502272,1.43567419,2.71360832,-3.59358183,,,
imu,466.554402,0.7560651392000002,-9.3802322096,3.0577571136,1.2936129,2.48930102,-3.52628964,,,
imu,466.562868,0.7596540560000001,-9.389204501600002,3.133124366400001,1.2188438,2.51920866,-3.39918217,,,
imu,466.571334,0.7865709320000001,-9.324005846400002,3.143292964,1.03939796,2.4743472,-3.28702852,,,
imu,466.5798,0.7979358352000001,-9.4077472384,3.1050111848,1.01696723,2.30985518,-3.2720747,,,
imu,466.588266,0.7291482632,-9.419710294400002,3.1486763392,0.8375213899999999,2.29490136,-3.16739796,,,
imu,466.596732,0.7758041816000001,-9.3658765424,3.154059714400001,0.60573718,2.41453192,-3.22721324,,,
imu,466.605198,0.7566632920000002,-9.393391571200002,3.1486763392,0.55339881,2.54163939,-3.24964397,,,
imu,466.613664,0.7506817640000001,-9.387410043200001,3.1690135344,0.53096808,2.63883922,-3.14496723,,,
imu,466.622131,0.7578595976000001,-9.324005846400002,3.1684153816,0.31413769,2.74351596,-3.10010577,,,
imu,466.630597,0.7704208064000001,-9.363483931200001,3.154059714400001,0.56835263,3.1472691,-3.01038285,,,
imu,466.639063,0.7644392784,-9.398176793600001,3.166022770400001,0.55339881,3.43886859,-2.89075229,,,
imu,466.647529,0.7787949456000002,-9.385615584800002,3.15525602,0.5459219,3.55849915,-2.85336774,,,
imu,466.655995,0.7913561544000001,-9.374848834400002,3.1534615616,0.6132140899999999,3.8949601,-2.70382954,,,
imu,466.664461,0.8003284464,-9.376045140000002,3.143292964,0.74779847,4.07440594,-2.53933752,,,
imu,466.672927,0.8284416280000001,-9.339557819200001,3.1295354496,0.80761375,4.38095925,-2.42718387,,,
imu,466.681393,0.8493769760000001,-9.332379985600001,3.140302200000001,0.8674290299999999,4.50806672,-2.38979932,,,
imu,466.689859,0.8613400320000001,-9.398774946400001,3.1277409912,0.94219813,4.388436159999999,-2.71878336,,,
imu,466.698325,0.8978273528000001,-9.454403156800002,3.1307317552,0.80761375,4.20899032,-2.77859864,,,
imu,466.706791,0.9175663952000002,-9.415523224800001,3.131329908000001,0.50853735,4.194036499999999,-2.98795212,,,
imu,466.715257,0.9157719368000001,-9.344941194400002,3.134320672,0.2468455,3.90991392,-3.20478251,,,
imu,466.723724,0.9235479232000001,-9.357502403200002,3.1307317552,0.18703022,3.797760269999999,-3.1225365,,,
imu,466.73219,0.9343146736000002,-9.3586987088,3.107403796,0.14964567,3.72299117,-2.95056757,,,
imu,466.740656,0.9456795768000001,-9.335968902400001,3.1068056432,0.25432241,3.51363769,-2.8982292,,,
imu,466.749149,0.9426888128,-9.3269966104,3.1008241152,0.38142988,3.33419185,-2.86832156,,,
imu,466.757641,0.9534555632000001,-9.3347725968,3.0858702952,0.51601426,3.17717674,-3.00290594,,,
imu,466.766134,0.9684093832000001,-9.338959666400001,3.0912536704,0.7253677399999999,2.97530017,-3.07767504,,,
imu,466.774627,0.9546518688000002,-9.3269966104,3.088861059200001,0.73284465,2.70613141,-3.31693616,,,
imu,466.78312,0.9552500216000002,-9.3269966104,3.0876647536,0.9646288599999999,2.33228591,-3.66087402,,,
imu,466.791612,0.9456795768000001,-9.325800304800001,3.0798887672,1.12164397,1.98087114,-3.80293531,,,
imu,466.800105,0.9313239096000001,-9.3269966104,3.086468448,1.2936129,1.71917929,-3.90013514,,,
imu,466.808598,0.9121830200000002,-9.348530111200002,3.1008241152,1.57025857,1.66684092,-4.00481188,,,
imu,466.817091,0.9121830200000002,-9.356306097600001,3.1038148792,1.55530475,1.59207182,-3.98985806,,,
imu,466.825584,0.885266144,-9.350324569600001,3.1169742408,1.57025857,1.49487199,-3.88518132,,,
imu,466.834076,0.8762938520000002,-9.368269153600002,3.1337225192,1.55530475,1.34533379,-3.78050458,,,
imu,466.842569,0.8804809216,-9.3832229736,3.1349188248,1.43567419,1.34533379,-3.88518132,,,
imu,466.851062,0.8703123240000001,-9.367072848000001,3.1444892696,1.30856672,1.32290306,-3.82536604,,,
imu,466.859555,0.8535640456000001,-9.358100556000002,3.146881880800001,1.24127453,1.39767216,-3.87770441,,,
imu,466.868048,0.840404684,-9.3479319584,3.1444892696,1.33847436,1.44253362,-3.62348947,,,
imu,466.87654,0.8463862120000001,-9.352717180800001,3.1456855752,1.1440747,1.45001053,-3.63844329,,,
imu,466.885033,0.8547603512000002,-9.357502403200002,3.146283728,1.27865908,1.51730272,-3.51133582,,,
imu,466.893526,0.8643307960000001,-9.357502403200002,3.1480781864,1.50296638,1.58459491,-3.36927453,,,
imu,466.902019,0.8912476720000001,-9.325800304800001,3.138507741600001,1.5179202,1.577118,-3.54124346,,,
imu,466.910511,0.903210728,-9.346735652800001,3.149274492,1.65250458,1.46496435,-3.7206893,,,
imu,466.919004,0.8727049352000001,-9.3802322096,3.1438911168,1.70484295,1.24813396,-3.82536604,,,
imu,466.927497,0.8691160184000001,-9.371259917600002,3.1319280608,1.68241222,1.13598031,-3.93004278,,,
imu,466.93599,0.86732156,-9.340155972000002,3.1379095888,1.69736604,1.0537343,-4.04219643,,,
imu,466.944483,0.86732156,-9.329987374400002,3.128937296800001,1.71231986,0.8817653699999997,-4.29641137,,,
imu,466.952913,0.8601437264,-9.33118368,3.1145816296,1.86933497,0.86681155,-4.27398064,,,
imu,466.961244,0.8607418792,-9.324005846400002,3.1187686992,1.87681188,0.80699627,-4.34874974,,,
imu,466.969675,0.8254508640000001,-9.3204169296,3.113983476800001,2.0413039,0.8144731799999998,-4.32631901,,,
imu,466.978105,0.8081044328000001,-9.311444637600001,3.109796407200001,2.28804193,0.9565344699999998,-4.244073,,,
imu,466.986536,0.8110951968000001,-9.312042790400001,3.104413032,2.4151494,1.12102649,-4.146873169999999,,,
imu,466.994966,0.8170767248000002,-9.297687123200001,3.0906555176,2.66188743,1.12102649,-4.31136519,,,
imu,467.003397,0.8338250032000001,-9.2970889704,3.0828795312,2.863764,1.09111885,-4.3936112,,,
imu,467.011827,0.8380120728000001,-9.322809540800002,3.083477684,3.06564057,1.2032725,-4.3936112,,,
imu,467.020258,0.8487788232000001,-9.342548583200001,3.071514628,3.17779422,1.3528107,-4.318842099999999,,,
imu,467.028688,0.8254508640000001,-9.358100556000002,3.068523864000001,3.20770186,1.30794924,-4.25154991,,,
imu,467.037119,0.8410028368000001,-9.3419504304,3.073309086400001,3.282470959999999,1.29299542,-4.13191935,,,
imu,467.045549,0.8152822664000001,-9.388008196000001,3.0930481288,3.15536349,1.39767216,-4.13939626,,,
imu,467.05398,0.8290397808000001,-9.467562518400001,3.1026185736,2.98339456,1.30794924,-4.10948862,,,
imu,467.06241,0.8517695872000001,-9.509433214400001,3.094244434400001,2.81890254,1.31542615,-4.0197657,,,
imu,467.070841,0.8421991424,-9.4938812416,3.1091982544,2.37776485,1.24813396,-3.92256587,,,
imu,467.079271,0.8272453224,-9.4633754488,3.0876647536,2.22822665,1.17336486,-3.96742733,,,
imu,467.087702,0.8242545584000001,-9.46576806,3.074505392,1.98148862,1.03130357,-4.012288789999999,,,
imu,465.720716,,,,,,,82.935706,-21.18562600000002,122.1513616
imu,465.818525,,,,,,,82.78921960000001,-21.45418440000002,121.8828032
imu,465.920118,,,,,,,82.78921960000001,-21.31990520000002,121.7851456
imu,466.02229,,,,,,,82.6793548,-21.16121160000002,122.41992
imu,466.123182,,,,,,,85.438182,-21.30769800000001,121.626452
imu,466.227369,,,,,,,82.3497604,-20.91706760000001,122.8593792
imu,466.326337,,,,,,,85.27948839999999,-22.21103080000002,119.9418584
imu,466.427869,,,,,,,83.11881400000001,-21.07576120000001,122.2490192
imu,467.096132,0.8063099744000001,-9.450216087200001,3.0607478776,1.68241222,1.08364194,-4.15435008,,,
imu,467.104563,0.8033192104000001,-9.444234559200002,3.0422051408,1.61512003,1.00887284,-4.33379592,,,
imu,467.112993,0.7901598488000001,-9.458590226400002,3.0589534192,1.5926893,1.03878048,-4.44594957,,,
imu,467.121424,0.780589404,-9.490292324800002,3.056560808,1.27865908,1.02382666,-4.61044159,,,
imu,467.129854,0.7871690848,-9.471749588000002,3.0428032936,1.2188438,1.13598031,-4.73007215,,,
imu,467.138284,0.7704208064000001,-9.437654878400002,3.0344291544,1.06182869,1.14345722,-4.72259524,,,
imu,467.146715,0.7590559032000002,-9.414925072,3.0284476264,1.17398234,1.37524143,-4.46090339,,,
imu,467.155439,0.7548688336000001,-9.3545116392,3.0284476264,0.85995212,1.52477963,-4.37865738,,,
imu,467.164163,0.7620466672,-9.328791068800001,3.0350273072,0.73284465,1.62197946,-4.28145755,,,
imu,467.172888,0.7602522088000001,-9.3622876256,3.0428032936,0.55339881,1.65936401,-4.318842099999999,,,
imu,467.181612,0.7584577504000002,-9.391597112800001,3.059551572000001,0.7702292,1.6518871,-4.37865738,,,
imu,467.190336,0.7656355840000001,-9.390998960000001,3.094244434400001,0.79265993,1.83133294,-4.25902682,,,
imu,467.19906,0.7620466672,-9.378437751200002,3.115179782400001,0.63564482,1.98834805,-4.08705789,,,
imu,467.207784,0.7542706808000001,-9.3479319584,3.1187686992,0.68798319,2.21265535,-3.63844329,,,
imu,467.216509,0.7548688336000001,-9.328192916,3.1181705464,0.81509066,2.49677793,-3.14496723,,,
imu,467.225233,0.7781967928000002,-9.307855720800001,3.101422268000001,1.12912088,2.70613141,-2.8234601,,,
imu,467.233957,0.7907580016000001,-9.307257568,3.09544074,1.45810492,2.88557725,-2.92813684,,,
imu,467.242681,0.8081044328000001,-9.2964908176,3.0972351984,1.83195042,3.05006927,-2.91318302,,,
imu,467.251406,0.8176748776000001,-9.279144386400002,3.0900573648,1.91419643,3.21456129,-2.95056757,,,
imu,467.26013,0.8200674888,-9.297687123200001,3.0816832256,2.13102682,3.06502309,-3.15992105,,,
imu,467.268854,0.8350213088000001,-9.339557819200001,3.0768980032,2.22822665,2.96782326,-3.30945925,,,
imu,467.277578,0.8571529624000002,-9.388008196000001,3.0703183224,2.27308811,3.07997691,-3.50385891,,,
imu,467.286302,0.8571529624000002,-9.426888128000002,3.054168196800001,2.09364227,2.87062343,-3.82536604,,,
imu,467.295027,0.8499751288000001,-9.4621791432,3.0487848216,1.76465823,2.50425484,-4.057150249999999,,,
imu,467.303751,0.8421991424,-9.489096019200002,3.040410682400001,1.61512003,2.25751681,-4.341272829999999,,,
imu,467.312475,0.8338250032000001,-9.4974701584,3.0422051408,1.39081273,1.86124058,-4.72259524,,,
imu,467.321199,0.8110951968000001,-9.5148165896,3.026653168000001,1.12164397,1.56216418,-4.96933327,,,
imu,467.329923,0.7919543072000002,-9.5148165896,3.0392143768,0.9646288599999999,1.23318014,-5.12634838,,,
imu,467.338648,0.7728134176000001,-9.5184055064,3.0248587096,1.06182869,1.21074941,-5.16373293,,,
imu,467.347372,0.7656355840000001,-9.492086783200001,3.0140919592,0.9197674,1.16588795,-5.22354821,,,
imu,467.356096,0.7494854584000001,-9.48072188,3.02067164,0.67302937,1.10607267,-5.20859439,,,
imu,467.364645,0.7303445688000001,-9.450216087200001,3.02067164,0.6954601,1.21074941,-5.15625602,,,
imu,467.373194,0.7207741240000002,-9.415523224800001,3.0182790288,0.5459219,1.39019525,-4.86465653,,,
imu,467.381743,0.723764888,-9.3963823352,3.0350273072,0.4861066199999999,1.64441019,-4.49828794,,,
imu,467.390292,0.7231667352000001,-9.372456223200002,3.0314383904,0.3963837,1.84628676,-4.169303899999999,,,
imu,467.398841,0.7393168608000001,-9.312042790400001,3.0368217656,0.33656842,2.14536316,-3.55619728,,,
imu,467.40739,0.7476910000000001,-9.262396108,3.0422051408,0.3889067899999999,2.42948574,-3.24964397,,,
imu,467.415938,0.76264482,-9.1965993,3.061346030400001,0.68050628,2.71360832,-3.10758268,,,
imu,467.424487,0.8003284464,-9.223516176,3.0858702952,1.00201341,2.82576197,-3.16739796,,,
imu,467.433036,0.8194693360000002,-9.340754124800002,3.0978333512,1.45810492,2.89305416,-3.43656672,,,
imu,467.441585,0.8637326432000001,-9.388606348800002,3.107403796,1.60764312,2.88557725,-3.57862801,,,
imu,467.450134,0.8631344904,-9.3204169296,3.1181705464,1.51044329,2.71360832,-3.75807385,,,
imu,467.458683,0.8421991424,-9.312042790400001,3.128339144,1.51044329,2.75846978,-3.80293531,,,
imu,467.467232,0.8625363376,-9.392195265600002,3.1444892696,1.61512003,2.57154703,-3.54124346,,,
imu,467.475781,0.8715086296000001,-9.453805004000001,3.131329908000001,1.43567419,2.41453192,-3.45899745,,,
imu,467.48433,0.8649289488,-9.448421628800002,3.1397040472,1.21136689,2.28742445,-3.39918217,,,
imu,467.492879,0.8445917536,-9.451412392800002,3.1355169776,0.8674290299999999,2.08554788,-3.51133582,,,
imu,467.501427,0.8392083784000002,-9.4621791432,3.121759463200001,0.65807555,2.09302479,-3.63096638,,,
imu,467.509976,0.8266471696000001,-9.4765348104,3.096637045600001,0.6132140899999999,2.10797861,-3.40665908,,,
imu,467.518525,0.8170767248000002,-9.456795768000001,3.079290614400001,0.42629134,1.92105586,-3.69825857,,,
imu,467.527074,0.7901598488000001,-9.4316733504,3.057158960800001,0.44872207,1.90610204,-3.89265823,,,
imu,467.535623,0.7895616960000001,-9.429280739200001,3.0278494736,0.55339881,1.88367131,-3.95247351,,,
imu,467.544172,0.8003284464,-9.4215047528,3.010503042400001,0.620691,1.93600968,-4.04219643,,,
imu,467.552721,0.7973376824000001,-9.4005694048,2.9925584584,0.8674290299999999,1.85376367,-3.9449966,,,
imu,467.561201,0.7913561544000001,-9.373054376,2.963847124,0.8375213899999999,1.71170238,-4.012288789999999,,,
imu,467.569681,0.7853746264000001,-9.377839598400001,2.9423136232,1.03192105,1.56964109,-3.87770441,,,
imu,467.578161,0.7907580016000001,-9.3963823352,2.9530803736,1.09921324,1.55468727,-3.93004278,,,
imu,467.586641,0.7764023344000002,-9.401765710400001,2.959061901600001,1.13659779,1.50982581,-3.9449966,,,
imu,467.595121,0.7614485144,-9.4071490856,2.9614545128,1.0693056,1.27056469,-4.06462716,,,
imu,467.603601,0.7464946944,-9.4071490856,2.980595402400001,1.04687487,1.06868812,-4.13939626,,,
imu,467.612081,0.7279519576000001,-9.402363863200002,2.997941833600001,1.18893616,0.92662683,-4.13191935,,,
imu,467.620561,0.7201759712000001,-9.398176793600001,3.0284476264,1.09173633,1.08364194,-4.0945348,,,
imu,467.629041,0.7064184568,-9.403560168800002,3.061944183200001,0.97958268,1.09859576,-4.10948862,,,
imu,467.637522,0.6992406232000001,-9.3993730992,3.068523864000001,0.8674290299999999,1.24813396,-4.079580979999999,,,
imu,467.646002,0.7004369288000002,-9.398176793600001,3.086468448,0.80761375,1.47244126,-3.98238115,,,
imu,467.654482,0.6950535536000001,-9.395186029600001,3.1062074904,0.65059864,1.7266562,-3.87770441,,,
imu,467.662962,0.6980443176000002,-9.3838211264,3.1295354496,0.4861066199999999,1.98087114,-3.81788913,,,
imu,467.671442,0.7177833600000001,-9.370063612000001,3.142694811200001,0.41133752,2.19770153,-3.65339711,,,
imu,467.679922,0.7243630408,-9.3622876256,3.1504707976,0.32909151,2.48930102,-3.54872037,,,
imu,467.688402,0.7351297912000001,-9.356306097600001,3.1606393952,0.21693786,2.69117759,-3.53376655,,,
imu,467.696882,0.7470928472,-9.343744888800002,3.149872644800001,-0.007369440000000005,2.78090051,-3.50385891,,,
imu,467.705362,0.7734115704000001,-9.350922722400002,3.152265256000001,0.007584380000000002,2.85566961,-3.36927453,,,
imu,467.713842,0.7877672376000001,-9.3658765424,3.1474800336,-0.14195382,2.88557725,-3.3468438,,,
imu,467.722322,0.8033192104000001,-9.3688673064,3.1391058944,0.03001510999999998,2.97530017,-3.27955161,,,
imu,467.730802,0.8081044328000001,-9.373652528800001,3.121759463200001,0.26927623,2.91548489,-3.1973056,,,
imu,467.739282,0.8128896552000001,-9.3832229736,3.0858702952,0.51601426,2.73603905,-3.10758268,,,
imu,467.747763,0.8194693360000002,-9.3898026544,3.0697201696,0.76275229,2.71360832,-2.98795212,,,
imu,467.756243,0.8164785720000002,-9.401167557600001,3.0607478776,0.81509066,2.55659321,-3.06272122,,,
imu,467.764701,0.8140859608000002,-9.414925072,3.0368217656,1.1440747,2.30237827,-3.10010577,,,
imu,467.773159,0.8164785720000002,-9.426888128000002,3.017680876,1.24875144,1.93600968,-3.15992105,,,
imu,467.781618,0.8069081272,-9.441841948000002,2.9955492224,1.35342818,1.82385603,-3.26459779,,,
imu,467.790076,0.7847764736,-9.437654878400002,2.9764083328,1.45810492,1.61450255,-3.39170526,,,
imu,467.798535,0.7781967928000002,-9.426888128000002,2.972819416000001,1.35342818,1.49487199,-3.60105874,,,
imu,467.806993,0.7578595976000001,-9.4173176832,2.96085636,1.33099745,1.48739508,-3.84031986,,,
imu,467.815452,0.7405131664000002,-9.4107380024,2.9692304992,1.1440747,1.44253362,-3.80293531,,,
imu,467.82391,0.7094092208000001,-9.402962016000002,2.972819416000001,1.01696723,1.41262598,-3.81788913,,,
imu,467.832369,0.7129981376000001,-9.393391571200002,2.996147375200001,1.09921324,1.64441019,-3.78798149,,,
imu,467.840827,0.6968480120000001,-9.401167557600001,3.0350273072,0.8375213899999999,1.91357895,-3.7954584,,,
imu,467.849286,0.6980443176000002,-9.4203084472,3.056560808,0.7104139199999999,2.22013226,-3.83284295,,,
imu,467.857744,0.7159889016000002,-9.423299211200002,3.0643367944,0.4861066199999999,2.49677793,-3.89265823,,,
imu,467.866202,0.7327371800000001,-9.393989724,3.0703183224,0.33656842,2.61640849,-3.84779677,,,
imu,467.874661,0.741709472,-9.364680236800002,3.0948425872,0.12721494,2.93791562,-3.60853565,,,
imu,467.883119,0.7452983888000001,-9.33118368,3.108001948800001,-0.14943073,2.93043871,-3.48142818,,,
imu,467.891578,0.7674300424000001,-9.343744888800002,3.1277409912,-0.24663056,2.93043871,-3.39170526,,,
imu,467.900036,0.7961413768000002,-9.376045140000002,3.1606393952,-0.41112258,2.87062343,-3.30198234,,,
imu,467.908495,0.7973376824000001,-9.4424401008,3.1785839792,-0.68776825,2.80333124,-3.32441307,,,
imu,466.529549,,,,,,,83.3507508,-21.94247240000002,120.039516
imu,466.631997,,,,,,,82.96012040000001,-20.91706760000001,122.1269472
imu,466.732674,,,,,,,82.5328684,-20.79499560000002,122.6152352
imu,466.834237,,,,,,,82.78921960000001,-20.30670760000002,122.541992
imu,466.935799,,,,,,,83.25309320000001,-20.6240948,121.80956
imu,467.037392,,,,,,,82.85025560000001,-21.13679720000001,122.1025328
imu,467.138955,,,,,,,85.3283172,-21.18562600000002,121.626452
imu,467.240487,,,,,,,82.9112916,-20.39215800000001,122.847172
imu,467.916953,0.8116933496000001,-9.463973601600001,3.198921174400001,-0.92702937,2.59397776,-3.16739796,,,
imu,467.925412,0.8158804192000001,-9.4244955168,3.1875562712,-1.11395212,2.52668557,-3.03281358,,,
imu,467.93387,0.7895616960000001,-9.3796340568,3.170209840000001,-1.1737674,2.50425484,-2.77859864,,,
imu,467.942329,0.7943469184000002,-9.3658765424,3.163630159200001,-0.7999219,2.5491163,-2.39727623,,,
imu,467.950787,0.7997302936000001,-9.367072848000001,3.1456855752,-0.36626112,2.7734236,-2.23278421,,,
imu,467.959245,0.7943469184000002,-9.367072848000001,3.1271428384,-0.08961545,2.96034635,-2.18044584,,,
imu,467.967832,0.8069081272,-9.357502403200002,3.091851823200001,0.32909151,2.9229618,-2.26269185,,,
imu,467.976419,0.8033192104000001,-9.335968902400001,3.0768980032,0.49358353,2.9229618,-2.4496146,,,
imu,467.985006,0.8009265992000001,-9.313239096000002,3.0553645024,0.8749059399999999,3.16969983,-2.46456842,,,
imu,467.993593,0.8110951968000001,-9.298285276000001,3.0410088352,1.2188438,3.21456129,-2.62158353,,,
imu,468.00218,0.8098988912000001,-9.311444637600001,3.0254568624,1.37585891,3.1472691,-2.73373718,,,
imu,468.010767,0.8164785720000002,-9.337165208000002,3.0140919592,1.48053565,3.03511545,-2.86084465,,,
imu,468.019354,0.8284416280000001,-9.361689472800002,3.007512278400001,1.30856672,2.93791562,-3.05524431,,,
imu,468.027941,0.8302360864000001,-9.385017432000001,3.02067164,1.2936129,2.86314652,-3.03281358,,,
imu,468.036527,0.8236564056000001,-9.401765710400001,3.033831001600001,1.26370526,2.9229618,-2.94309066,,,
imu,468.045114,0.8308342392000001,-9.4137287664,3.047588516000001,1.00949032,2.81828506,-2.90570611,,,
imu,468.053834,0.8284416280000001,-9.420906600000002,3.0487848216,0.79265993,2.68370068,-2.83093701,,,
imu,468.062421,0.8152822664000001,-9.401765710400001,3.068523864000001,0.65807555,2.68370068,-2.80850628,,,
imu,468.071008,0.8194693360000002,-9.374848834400002,3.0703183224,0.44872207,2.6238854,-2.77859864,,,
imu,468.079595,0.8320305448000002,-9.367671000800001,3.086468448,0.32909151,2.45939338,-2.75616791,,,
imu,468.088182,0.8392083784000002,-9.355109792000002,3.1020204208,0.38142988,2.46687029,-2.87579847,,,
imu,468.096768,0.8416009896000001,-9.359895014400001,3.101422268000001,0.35899915,2.39210119,-2.95804448,,,
imu,468.105355,0.8523677400000002,-9.370063612000001,3.1199650048,0.4711528,2.28742445,-3.07019813,,,
imu,468.113942,0.8463862120000001,-9.373652528800001,3.1397040472,0.53096808,2.20517844,-2.99542903,,,
imu,468.122529,0.8649289488,-9.380830362400001,3.1450874224,0.56835263,2.1005017,-2.94309066,,,
imu,468.131116,0.8715086296000001,-9.3838211264,3.154657867200001,0.68050628,2.00330187,-2.85336774,,,
imu,468.139703,0.8589474208000002,-9.3622876256,3.1480781864,0.67302937,1.86871749,-2.8982292,,,
imu,468.14829,0.8667234072000001,-9.339557819200001,3.152265256000001,0.6954601,1.77151766,-2.8234601,,,
imu,468.156877,0.8631344904,-9.368269153600002,3.15525602,0.8524752099999999,1.71170238,-2.99542903,,,
imu,468.165463,0.8631344904,-9.415523224800001,3.146283728,1.07678251,1.74908693,-3.21225942,,,
imu,468.174336,0.8649289488,-9.4137287664,3.146283728,0.9197674,1.50982581,-3.46647436,,,
imu,468.183209,0.8505732816000001,-9.3443430416,3.1277409912,0.8749059399999999,1.59207182,-3.62348947,,,
imu,468.192081,0.8320305448000002,-9.3246039992,3.1229557688,0.8973366700000001,1.60702564,-3.58610492,,,
imu,468.200954,0.8320305448000002,-9.3658765424,3.105609337600001,0.9347212199999999,1.83880985,-3.38422835,,,
imu,468.209827,0.8547603512000002,-9.381428515200001,3.0852721424,0.9272443100000001,1.98834805,-3.13749032,,,
imu,468.218699,0.8583492680000002,-9.3664746952,3.065533100000001,0.81509066,2.10797861,-2.92065993,,,
imu,468.227572,0.8565548096000002,-9.364680236800002,3.0727109336,0.83004448,1.91357895,-2.83841392,,,
imu,468.236445,0.8721067824000002,-9.3832229736,3.0511774328,0.74779847,1.82385603,-2.84589083,,,
imu,468.245317,0.8798827688,-9.394587876800001,3.0487848216,0.81509066,1.84628676,-3.07019813,,,
imu,468.25419,0.88227538,-9.382026668000002,3.0523737384,0.8823828499999999,1.60702564,-3.35432071,,,
imu,468.263063,0.8649289488,-9.3718580704,3.05057928,0.94219813,1.38271834,-3.62348947,,,
imu,468.271935,0.8661252544000001,-9.393391571200002,3.0422051408,1.13659779,1.12102649,-3.86275059,,,
imu,468.280808,0.8410028368000001,-9.377241445600001,3.0511774328,1.01696723,0.8518577299999999,-4.22164227,,,
imu,468.289681,0.8278434752000001,-9.3766432928,3.059551572000001,0.97210577,0.5677351499999999,-4.341272829999999,,,
imu,468.298553,0.8081044328000001,-9.3688673064,3.0703183224,1.00201341,0.64250425,-4.27398064,,,
imu,468.307426,0.7877672376000001,-9.3622876256,3.0810850728,0.8823828499999999,0.62007352,-4.33379592,,,
imu,468.316299,0.771617112,-9.3766432928,3.0900573648,0.9347212199999999,0.62007352,-4.32631901,,,
imu,468.325171,0.7572614448000001,-9.3898026544,3.1038148792,0.8674290299999999,0.66493498,-4.34874974,,,
imu,468.334044,0.7399150136000001,-9.384419279200001,3.1020204208,0.8749059399999999,0.7322271699999998,-4.35622665,,,
imu,468.342917,0.7363260968000002,-9.3754469872,3.1086001016,0.73284465,0.8967191899999998,-4.453426479999999,,,
imu,468.351789,0.7339334856000002,-9.348530111200002,3.1062074904,0.78518302,1.15093413,-4.244073,,,
imu,468.360662,0.7435039304000001,-9.344941194400002,3.1181705464,0.79265993,1.34533379,-3.95995042,,,
imu,468.369535,0.7393168608000001,-9.3413522776,3.128937296800001,0.9571519499999999,1.45001053,-3.69078166,,,
imu,468.377834,0.7578595976000001,-9.349128264,3.128339144,0.97958268,1.66684092,-3.60105874,,,
imu,468.386134,0.7775986400000001,-9.363483931200001,3.1391058944,0.97210577,1.71170238,-3.50385891,,,
imu,468.394433,0.7913561544000001,-9.390998960000001,3.146881880800001,1.07678251,1.84628676,-3.36179762,,,
imu,467.348031,,,,,,,85.2428668,-21.97909400000002,120.0639304
imu,467.443642,,,,,,,82.65494040000002,-21.19783320000002,121.931632
imu,467.545205,,,,,,,83.2164716,-22.11337320000002,120.7841552
imu,467.646737,,,,,,,82.60611159999999,-21.33211240000001,123.213388
imu,467.748391,,,,,,,82.83804839999999,-21.18562600000002,122.9570368
imu,467.849984,,,,,,,83.057778,-21.18562600000002,123.0424872
imu,467.951455,,,,,,,82.72818360000001,-21.13679720000001,122.8593792
imu,468.052987,,,,,,,83.0455708,-20.9536892,122.6762712
imu,468.15447,,,,,,,82.508454,-20.73395960000002,122.664064
imu,468.256032,,,,,,,85.4625964,-21.3809412,121.5532088
imu,468.357564,,,,,,,82.56949,-21.06355400000002,122.2856408
