Type,Timestamp,Data Accelerometer X,Data Accelerometer Y,Data Accelerometer Z,Data Gyroscope X,Data Gyroscope Y,Data Gyroscope Z,Data Magnetometer X,Data Magnetometer Y,Data Magnetometer Z
imu,251.229535,-0.451605364,-9.739123889600002,1.7478024816,0.7552753799999999,2.56407012,-2.9729983,,,
imu,251.238003,-0.4486146000000001,-9.7403201952,1.7478024816,0.7702292,2.67622377,-2.91318302,,,
imu,251.246472,-0.4450256832000001,-9.727758986400001,1.7388301896,0.7552753799999999,2.60145467,-3.10010577,,,
imu,251.25494,-0.4420349192,-9.725964528,1.7304560504,0.85995212,2.60145467,-3.24216706,,,
imu,251.263409,-0.4360533912000001,-9.738525736800002,1.7382320368,0.8524752099999999,2.48930102,-3.1973056,,,
imu,251.271878,-0.4199032656,-9.748096181600001,1.731652356,0.8749059399999999,2.35471664,-3.33188998,,,
imu,251.280346,-0.4210995712,-9.745105417600001,1.737633884,0.85995212,2.21265535,-3.43656672,,,
imu,251.288941,-0.4240903352000001,-9.748694334400001,1.737633884,0.85995212,2.16031698,-3.3468438,,,
imu,251.29741,-0.4240903352000001,-9.7427128064,1.7280634392,0.79265993,1.95844041,-3.24216706,,,
imu,251.305878,-0.4199032656,-9.735534972800002,1.7310542032,0.81509066,1.94348659,-3.23469015,,,
imu,251.314443,-0.4348570856000001,-9.727160833600001,1.7250726752,0.8449983,1.73413311,-3.10010577,,,
imu,251.323006,-0.4420349192,-9.723571916800001,1.7232782168,0.6132140899999999,1.54721036,-3.09262886,,,
imu,251.33157,-0.4510072112,-9.731946056000002,1.7304560504,0.56087572,1.48739508,-3.03281358,,,
imu,251.340134,-0.4581850448000001,-9.7403201952,1.737633884,0.52349117,1.40514907,-3.25712088,,,
imu,251.348698,-0.4557924336,-9.7301515976,1.7418209536,0.5982602699999999,1.39767216,-3.30198234,,,
imu,251.357262,-0.4593813504000001,-9.7361331256,1.7352412728,0.44872207,1.32290306,-3.28702852,,,
imu,251.365826,-0.4587831976000001,-9.7295534448,1.7442135648,0.41881443,1.21074941,-3.33188998,,,
imu,251.37439,-0.4605776560000001,-9.711010708000002,1.7472043288,0.63564482,1.36028761,-3.08515195,,,
imu,251.382954,-0.4629702672000001,-9.717590388800001,1.74959694,0.52349117,1.45748744,-3.01785976,,,
imu,251.391518,-0.4605776560000001,-9.714001472000001,1.7537840096,0.36647606,1.37524143,-3.10010577,,,
imu,251.400082,-0.472540712,-9.7122070136,1.7549803152,0.52349117,1.47244126,-3.11505959,,,
imu,251.408646,-0.4599795032,-9.710412555200001,1.7567747736,0.67302937,1.53973345,-3.13749032,,,
imu,251.41721,-0.4569887392,-9.701440263200002,1.7579710792,0.8375213899999999,1.73413311,-3.01785976,,,
imu,251.425774,-0.4617739616000001,-9.7122070136,1.7783082744,0.81509066,1.78647148,-3.02533667,,,
imu,251.434338,-0.4623721144,-9.746899876,1.7830934968,0.6954601,1.6518871,-3.01785976,,,
imu,251.442902,-0.4581850448000001,-9.746301723200002,1.7830934968,0.5982602699999999,1.66684092,-3.07019813,,,
imu,251.451466,-0.4563905864000001,-9.737329431200001,1.7729248992,0.66555246,1.84628676,-3.0477674,,,
imu,251.46003,-0.4551942808000001,-9.7325442088,1.77950458,0.68050628,2.01825569,-3.11505959,,,
imu,251.468594,-0.4474182944000001,-9.7122070136,1.7801027328,0.56835263,2.1005017,-2.99542903,,,
imu,251.477158,-0.4264829464000001,-9.6954587352,1.785486108,0.53096808,2.13040934,-2.98795212,,,
imu,251.485722,-0.4199032656,-9.681103068,1.791467636,0.52349117,2.16031698,-3.29450543,,,
imu,251.494286,-0.4205014184,-9.6918698184,1.800439928,0.60573718,2.13040934,-3.62348947,,,
imu,251.50285,-0.4330626272,-9.710412555200001,1.7848879552,0.74779847,1.97339423,-3.98985806,,,
imu,251.511414,-0.4348570856000001,-9.685290137600001,1.7777101216,0.59078336,1.83880985,-4.04219643,,,
imu,251.52013,-0.4498109056,-9.676915998400002,1.7699341352,0.85995212,1.83133294,-3.80293531,,,
imu,251.528847,-0.4617739616000001,-9.686486443200002,1.7753175104,1.12164397,1.96591732,-3.24964397,,,
imu,251.537563,-0.4498109056,-9.7193848472,1.7663452184,1.24875144,2.07059406,-2.95056757,,,
imu,251.546279,-0.4318663216,-9.745105417600001,1.7507932456,1.54035093,2.15284007,-2.51690679,,,
imu,251.554995,-0.4288755576000001,-9.745105417600001,1.7352412728,1.76465823,2.10797861,-2.48699915,,,
imu,251.563711,-0.4091365152000001,-9.746301723200002,1.7370357312,1.88428879,2.07807097,-2.62906044,,,
imu,251.572427,-0.4031549872,-9.743310959200002,1.7268671336,2.01887317,2.07059406,-2.81598319,,,
imu,251.581143,-0.4019586816,-9.745105417600001,1.716698536,1.9665348,1.89862513,-3.17487487,,,
imu,251.589859,-0.4043512928,-9.736731278400002,1.7131096192,1.74970441,1.68179474,-3.54872037,,,
imu,251.598575,-0.4175106544000001,-9.725964528,1.7119133136,1.67493531,1.68179474,-3.69078166,,,
imu,251.607291,-0.4258847936,-9.724768222400002,1.7065299384,1.47305874,1.67431783,-3.90013514,,,
imu,251.616007,-0.424688488,-9.731946056000002,1.6969594936,1.5179202,1.60702564,-4.16182699,,,
imu,251.624724,-0.4354552384000001,-9.7301515976,1.698753952,1.2936129,1.65936401,-4.32631901,,,
imu,251.63344,-0.4372496968000001,-9.731946056000002,1.713707772,1.36090509,1.577118,-4.408565019999999,,,
imu,251.642156,-0.4402404608,-9.752283251200002,1.7155022304,1.20388998,1.55468727,-4.47585721,,,
imu,251.650872,-0.4486146000000001,-9.7576666264,1.7304560504,1.11416706,1.63693328,-4.386134289999999,,,
imu,251.659588,-0.4462219888000001,-9.758862932000001,1.7280634392,0.9048135799999999,1.39767216,-4.40108811,,,
imu,251.668304,-0.4599795032,-9.752283251200002,1.7382320368,0.83004448,1.50982581,-4.3936112,,,
imu,251.67702,-0.4623721144,-9.742114653600002,1.74959694,0.85995212,1.47991817,-4.18425772,,,
imu,251.685736,-0.4623721144,-9.7361331256,1.74959694,0.8674290299999999,1.4275798,-4.04967334,,,
imu,251.694452,-0.4701481008,-9.727758986400001,1.7400264952,0.6954601,1.36776452,-4.034719519999999,,,
imu,251.703168,-0.4761296288000001,-9.725964528,1.7442135648,0.8524752099999999,1.50982581,-3.84031986,,,
imu,251.711884,-0.4755314760000001,-9.7217774584,1.7328486616,0.9571519499999999,1.50982581,-3.70573548,,,
imu,251.720352,-0.4862982264000001,-9.716992236000001,1.7334468144,1.04687487,1.61450255,-3.45899745,,,
imu,251.728819,-0.4940742128000001,-9.702038416,1.7250726752,1.27865908,1.8014253,-3.39170526,,,
imu,251.737286,-0.4922797544,-9.702038416,1.7352412728,1.30856672,1.85376367,-3.36927453,,,
imu,251.745754,-0.4773259344000001,-9.725366375200002,1.7460080232,1.33099745,1.88367131,-3.44404363,,,
imu,251.754221,-0.4940742128000001,-9.7606573904,1.7358394256,1.45810492,2.06311715,-3.67582784,,,
imu,251.762689,-0.4779240872000001,-9.7510869456,1.7442135648,1.4431511,2.14536316,-4.012288789999999,,,
imu,251.771156,-0.4701481008,-9.740918348000001,1.7561766208,1.37585891,2.11545552,-4.08705789,,,
imu,251.779623,-0.4827093096,-9.748694334400001,1.7537840096,1.25622835,2.15284007,-4.20668845,,,
imu,251.788091,-0.4952705184000001,-9.742114653600002,1.7531858568,1.1440747,2.22013226,-3.93004278,,,
imu,251.796558,-0.481513004,-9.748694334400001,1.7388301896,0.9870595899999999,2.29490136,-3.5711511,,,
imu,251.805025,-0.4809148512,-9.728955292000002,1.7328486616,1.09921324,2.43696265,-3.30945925,,,
imu,251.813493,-0.46356842,-9.714599624800002,1.7238763696,1.19641307,2.51920866,-3.17487487,,,
imu,251.82196,-0.4504090584,-9.7122070136,1.7196893,1.28613599,2.52668557,-3.24964397,,,
imu,251.830427,-0.4354552384000001,-9.7193848472,1.7143059248,1.24127453,2.39210119,-3.4216129,,,
imu,251.838895,-0.430670016,-9.7265626808,1.7178948416,1.33099745,2.25751681,-3.63844329,,,
imu,251.847362,-0.4318663216,-9.731347903200001,1.7172966888,1.34595127,2.16779389,-3.72816621,,,
imu,251.855829,-0.4408386136,-9.724170069600001,1.7149040776,1.35342818,2.0257326,-3.91508896,,,
imu,251.864297,-0.4528016696000001,-9.725964528,1.7095207024,1.32352054,1.81637912,-4.06462716,,,
imu,251.872764,-0.4522035168,-9.7265626808,1.7053336328,1.42072037,1.94348659,-4.079580979999999,,,
imu,251.881231,-0.46356842,-9.7337405144,1.7011465632,1.26370526,1.76404075,-4.146873169999999,,,
imu,251.889699,-0.4581850448000001,-9.738525736800002,1.7011465632,1.36090509,1.77151766,-4.012288789999999,,,
imu,251.898166,-0.4785222400000001,-9.737329431200001,1.7095207024,1.37585891,1.67431783,-3.86275059,,,
imu,251.906634,-0.4839056152000001,-9.748096181600001,1.7113151608,1.36090509,1.65936401,-3.81788913,,,
imu,251.915101,-0.4880926848000001,-9.736731278400002,1.713707772,1.30108981,1.6518871,-3.60105874,,,
imu,251.92358,-0.4952705184000001,-9.739123889600002,1.7023428688,1.30856672,1.51730272,-3.61601256,,,
imu,251.932059,-0.505439116,-9.739123889600002,1.710717008,1.18145925,1.55468727,-3.54872037,,,
imu,251.940537,-0.5197947832,-9.7492924872,1.7041373272,1.16650543,1.69674856,-3.55619728,,,
imu,251.949016,-0.5180003248000001,-9.752283251200002,1.710717008,1.2936129,1.89862513,-3.44404363,,,
imu,251.957495,-0.5263744640000001,-9.7606573904,1.7149040776,1.05435178,1.8761944,-3.56367419,,,
imu,251.965974,-0.5263744640000001,-9.766638918400002,1.7161003832,0.9197674,2.07807097,-3.48890509,,,
imu,251.974453,-0.5191966304000001,-9.7612555432,1.722680064,0.9945364999999999,2.36967046,-3.46647436,,,
imu,251.982931,-0.5150095608,-9.748096181600001,1.7172966888,0.94967504,2.51173175,-3.48890509,,,
imu,251.99141,-0.5018501992000001,-9.748694334400001,1.7149040776,0.73284465,2.61640849,-3.57862801,,,
imu,251.999889,-0.4982612824000001,-9.742114653600002,1.713707772,0.7403215599999999,2.75846978,-3.5711511,,,
imu,252.008368,-0.4886908376000001,-9.728955292000002,1.7155022304,0.68798319,2.93043871,-3.61601256,,,
imu,252.016847,-0.4653628784000001,-9.7265626808,1.7101188552,0.7552753799999999,2.96782326,-3.63844329,,,
imu,252.025325,-0.4677554896000001,-9.725366375200002,1.707726244,0.73284465,3.00520781,-3.65339711,,,
imu,252.033804,-0.454596128,-9.7122070136,1.7172966888,0.8524752099999999,2.98277708,-3.7206893,,,
imu,252.042283,-0.4450256832000001,-9.725366375200002,1.7214837584,0.97210577,3.01268472,-3.5711511,,,
imu,252.050762,-0.4402404608,-9.731946056000002,1.7280634392,0.91229049,2.9229618,-3.60105874,,,
imu,252.059241,-0.430670016,-9.730749750400001,1.7125114664,0.8524752099999999,2.88557725,-3.63844329,,,
imu,252.067719,-0.4372496968000001,-9.745703570400002,1.7214837584,0.82256757,2.63136231,-3.62348947,,,
imu,252.076198,-0.4300718632,-9.734936820000001,1.7208856056,0.8449983,2.48182411,-3.57862801,,,
imu,252.084677,-0.4330626272,-9.734338667200001,1.7011465632,0.8449983,2.324809,-3.60105874,,,
imu,252.093156,-0.4372496968000001,-9.7295534448,1.698753952,0.8524752099999999,2.24256299,-3.52628964,,,
imu,252.101635,-0.4384460024000001,-9.7283571392,1.7119133136,1.00201341,2.04816333,-3.48890509,,,
imu,251.297553,,,,,,,77.9429612,-22.9922916,134.688156
imu,251.399115,,,,,,,78.0894476,-22.52841800000001,134.5538768
imu,252.110113,-0.4528016696000001,-9.731347903200001,1.7083243968,0.9870595899999999,1.82385603,-3.44404363,,,
imu,252.118592,-0.4617739616000001,-9.743310959200002,1.7035391744,1.13659779,1.91357895,-3.45899745,,,
imu,252.127065,-0.4785222400000001,-9.749890640000002,1.7005484104,1.15902852,1.94348659,-3.42908981,,,
imu,252.135537,-0.4785222400000001,-9.746899876,1.7071280912,0.9048135799999999,1.83880985,-3.53376655,,,
imu,252.144009,-0.4833074624000001,-9.752283251200002,1.7131096192,0.9646288599999999,1.84628676,-3.58610492,,,
imu,252.152482,-0.4892889904,-9.752283251200002,1.7161003832,0.80013684,1.83880985,-3.62348947,,,
imu,252.160954,-0.490485296,-9.749890640000002,1.7190911472,0.78518302,1.86124058,-3.68330475,,,
imu,252.169427,-0.499457588,-9.745703570400002,1.7161003832,0.64312173,1.81637912,-3.69078166,,,
imu,252.177899,-0.5006538936,-9.746301723200002,1.7161003832,0.64312173,1.98834805,-3.5711511,,,
imu,252.186372,-0.5018501992000001,-9.746899876,1.7029410216,0.65807555,2.09302479,-3.58610492,,,
imu,252.194844,-0.5018501992000001,-9.748096181600001,1.7155022304,0.6132140899999999,2.324809,-3.6459202,,,
imu,252.203317,-0.4970649768000001,-9.739123889600002,1.7149040776,0.57582954,2.39210119,-3.60105874,,,
imu,252.211789,-0.4922797544,-9.7403201952,1.7202874528,0.53844499,2.51173175,-3.48142818,,,
imu,252.220261,-0.4851019208000001,-9.741516500800001,1.7244745224,0.50853735,2.60145467,-3.496382,,,
imu,252.228734,-0.4791203928000001,-9.739722042400002,1.7214837584,0.41881443,2.60145467,-3.51133582,,,
imu,252.237206,-0.4773259344000001,-9.7283571392,1.7220819112,0.3889067899999999,2.68370068,-3.44404363,,,
imu,252.245679,-0.4689517952000001,-9.728955292000002,1.7155022304,0.35899915,2.57902394,-3.39918217,,,
imu,252.254151,-0.4593813504000001,-9.7301515976,1.7238763696,0.40386061,2.53416248,-3.35432071,,,
imu,252.262624,-0.4593813504000001,-9.723571916800001,1.7155022304,0.4711528,2.67622377,-3.38422835,,,
imu,252.271096,-0.454596128,-9.711010708000002,1.7208856056,0.47862971,2.48182411,-3.40665908,,,
imu,252.279569,-0.4593813504000001,-9.7151977776,1.7364375784,0.6281679099999999,2.52668557,-3.4216129,,,
imu,252.288041,-0.451605364,-9.735534972800002,1.7382320368,0.44872207,2.46687029,-3.54872037,,,
imu,252.296513,-0.4647647256,-9.744507264800001,1.728661592,0.5010604399999999,2.35471664,-3.62348947,,,
imu,252.304986,-0.4569887392,-9.728955292000002,1.7394283424,0.6281679099999999,2.28742445,-3.59358183,,,
imu,252.313458,-0.4587831976000001,-9.728955292000002,1.7513913984,0.64312173,2.38462428,-3.48142818,,,
imu,252.321931,-0.4581850448000001,-9.725964528,1.7573729264,0.41133752,2.38462428,-3.39170526,,,
imu,252.330831,-0.4474182944000001,-9.696056888000001,1.7681396768,0.35899915,2.29490136,-3.51133582,,,
imu,252.339732,-0.4551942808000001,-9.719983000000001,1.7771119688,0.26179932,2.03320951,-3.9449966,,,
imu,252.348632,-0.4749333232000001,-9.761853696000001,1.77950458,0.28423005,2.01077878,-4.102011709999999,,,
imu,252.357533,-0.481513004,-9.7301515976,1.7621581488,0.41881443,1.99582496,-4.0197657,,,
imu,252.366433,-0.4970649768000001,-9.694860582400002,1.7531858568,0.53096808,1.9509635,-3.9449966,,,
imu,252.375334,-0.5191966304000001,-9.6942624296,1.731652356,0.68798319,1.97339423,-3.48142818,,,
imu,252.384292,-0.5209910888,-9.711608860800002,1.7394283424,0.9646288599999999,2.05564024,-2.96552139,,,
imu,252.393193,-0.4964668240000001,-9.7295534448,1.7244745224,1.48801256,2.324809,-2.59167589,,,
imu,252.402093,-0.4862982264000001,-9.734936820000001,1.7143059248,1.84690424,2.60893158,-2.55429134,,,
imu,252.410994,-0.4719425592000001,-9.724170069600001,1.707726244,2.09364227,2.54163939,-2.71878336,,,
imu,252.419894,-0.4587831976000001,-9.746899876,1.7071280912,2.10111918,2.48930102,-2.92065993,,,
imu,252.428795,-0.442633072,-9.7504887928,1.7011465632,2.0413039,2.56407012,-3.07767504,,,
imu,252.437695,-0.4456238360000001,-9.742114653600002,1.7083243968,1.84690424,2.5491163,-3.43656672,,,
imu,252.446596,-0.4486146000000001,-9.727758986400001,1.6891835072,1.45810492,2.54163939,-3.74312003,,,
imu,252.455496,-0.4468201416000001,-9.711608860800002,1.6736315344,1.24875144,2.53416248,-3.92256587,,,
imu,252.464397,-0.4390441552000001,-9.706225485600001,1.680809368,1.21136689,2.51920866,-4.02724261,,,
imu,252.473297,-0.4414367664,-9.7193848472,1.6885853544,0.94219813,2.31733209,-4.26650373,,,
imu,252.482198,-0.4414367664,-9.727160833600001,1.692772424,0.9272443100000001,2.14536316,-4.27398064,,,
imu,252.491098,-0.4414367664,-9.744507264800001,1.707726244,0.9870595899999999,2.10797861,-4.11696553,,,
imu,252.499999,-0.4450256832000001,-9.7504887928,1.7220819112,0.9048135799999999,2.16031698,-3.92256587,,,
imu,252.508899,-0.46356842,-9.769031529600001,1.722680064,0.82256757,1.90610204,-3.78050458,,,
imu,252.5178,-0.4665591840000001,-9.7612555432,1.7274652864,0.68050628,1.89114822,-3.58610492,,,
imu,252.5267,-0.4713444064,-9.777405668800002,1.7489987872,0.41881443,1.71917929,-3.44404363,,,
imu,252.535074,-0.4689517952000001,-9.7821908912,1.7478024816,0.29918387,1.62197946,-3.36927453,,,
imu,252.543447,-0.4827093096,-9.783387196800001,1.7579710792,0.2468455,1.53973345,-3.38422835,,,
imu,252.55182,-0.499457588,-9.7959484056,1.7484006344,0.28423005,1.53973345,-3.31693616,,,
imu,252.560193,-0.5078317272000001,-9.780396432800002,1.7513913984,0.21693786,1.56216418,-3.3468438,,,
imu,252.568567,-0.5138132552000001,-9.7540777096,1.7489987872,0.3216146,1.68927165,-3.28702852,,,
imu,252.57694,-0.5209910888,-9.7217774584,1.740624648,0.4861066199999999,1.81637912,-3.18982869,,,
imu,252.585313,-0.5084298800000001,-9.697253193600002,1.7681396768,0.35899915,2.09302479,-3.14496723,,,
imu,252.593687,-0.5066354216000001,-9.714001472000001,1.7699341352,0.34404533,2.11545552,-3.26459779,,,
imu,252.60206,-0.5168040192000001,-9.708019944000002,1.7627563016,0.41133752,2.23508608,-3.36927453,,,
imu,252.610433,-0.4970649768000001,-9.689477207200001,1.746606176,0.53844499,2.41453192,-3.48142818,,,
imu,252.618806,-0.4910834488,-9.693664276800002,1.7418209536,0.6281679099999999,2.42200883,-3.58610492,,,
imu,252.62718,-0.5036446576000001,-9.709814402400001,1.7501950928,0.8524752099999999,2.42948574,-3.69825857,,,
imu,252.635553,-0.5036446576000001,-9.7193848472,1.7561766208,0.8524752099999999,2.48182411,-3.33936689,,,
imu,252.643926,-0.4857000736000001,-9.739123889600002,1.755578468,0.76275229,2.61640849,-2.98047521,,,
imu,252.652299,-0.4833074624000001,-9.734338667200001,1.740624648,0.82256757,2.7734236,-2.81598319,,,
imu,252.660673,-0.4641665728000001,-9.730749750400001,1.7328486616,0.9347212199999999,2.81080815,-2.71878336,,,
imu,252.669046,-0.4456238360000001,-9.7283571392,1.7358394256,1.15155161,2.7734236,-2.65149117,,,
imu,252.677419,-0.430670016,-9.739123889600002,1.7382320368,1.03939796,2.72856214,-2.87579847,,,
imu,252.685792,-0.4264829464000001,-9.7427128064,1.7388301896,0.94219813,2.48182411,-3.29450543,,,
imu,252.694166,-0.424688488,-9.741516500800001,1.7400264952,0.97210577,2.30237827,-3.39170526,,,
imu,252.702539,-0.43366078,-9.744507264800001,1.7424191064,1.00949032,2.13788625,-3.39170526,,,
imu,252.710912,-0.4486146000000001,-9.737927584000001,1.731652356,0.9272443100000001,2.08554788,-3.54872037,,,
imu,252.719285,-0.4539979752000001,-9.739123889600002,1.7268671336,0.91229049,2.01077878,-3.55619728,,,
imu,252.727659,-0.4486146000000001,-9.7301515976,1.731652356,0.9347212199999999,1.94348659,-3.57862801,,,
imu,252.736121,-0.4605776560000001,-9.727758986400001,1.74959694,0.64312173,1.84628676,-3.56367419,,,
imu,252.744583,-0.4641665728000001,-9.723571916800001,1.7537840096,0.67302937,1.69674856,-3.38422835,,,
imu,252.753045,-0.4827093096,-9.721179305600002,1.7472043288,0.6281679099999999,1.73413311,-3.2720747,,,
imu,252.761508,-0.4862982264000001,-9.716992236000001,1.7484006344,0.6132140899999999,1.8014253,-3.1225365,,,
imu,252.76997,-0.4880926848000001,-9.716992236000001,1.7382320368,0.56087572,1.81637912,-3.01785976,,,
imu,252.778432,-0.4898871432,-9.709216249600003,1.7442135648,0.51601426,2.00330187,-2.88327538,,,
imu,252.786895,-0.4988594352000001,-9.716992236000001,1.7454098704,0.82256757,2.18274771,-2.76364482,,,
imu,252.795357,-0.4946723656000001,-9.7295534448,1.740624648,0.81509066,2.324809,-2.8234601,,,
imu,252.803819,-0.49347606,-9.7283571392,1.7340449672,0.91229049,2.53416248,-2.81598319,,,
imu,252.812281,-0.4785222400000001,-9.745105417600001,1.7382320368,1.0693056,2.69117759,-2.90570611,,,
imu,252.820744,-0.4659610312,-9.754675862400001,1.7298578976,1.10669015,2.82576197,-3.04029049,,,
imu,252.829206,-0.4402404608,-9.756470320800002,1.7334468144,1.1440747,2.87810034,-3.13001341,,,
imu,252.837668,-0.4270810992000001,-9.7510869456,1.7322505088,1.27865908,2.78090051,-3.21225942,,,
imu,252.84613,-0.4121272792,-9.751685098400001,1.7178948416,1.20388998,2.66874686,-3.39170526,,,
imu,252.854593,-0.3971734592000001,-9.748694334400001,1.7101188552,1.30856672,2.63883922,-3.45152054,,,
imu,252.863055,-0.3905937784,-9.748096181600001,1.7053336328,1.42819728,2.50425484,-3.54124346,,,
imu,252.871517,-0.3864067088000001,-9.743310959200002,1.7041373272,1.31604363,2.06311715,-3.50385891,,,
imu,252.87998,-0.3864067088000001,-9.728955292000002,1.6969594936,1.18145925,1.63693328,-3.52628964,,,
imu,252.888442,-0.3876030144000001,-9.718786694400002,1.6975576464,1.20388998,1.30047233,-3.4216129,,,
imu,252.896904,-0.4061457512000001,-9.722973764,1.68978166,1.15902852,1.03878048,-3.24216706,,,
imu,252.905366,-0.4079402096,-9.728955292000002,1.7095207024,0.91229049,0.7995193599999997,-3.1973056,,,
imu,252.913829,-0.415716196,-9.737329431200001,1.7202874528,0.81509066,0.6275504299999999,-3.13749032,,,
imu,252.922291,-0.4456238360000001,-9.752283251200002,1.7232782168,0.65059864,0.5303505999999998,-3.06272122,,,
imu,251.500861,,,,,,,77.9063396,-22.46738200000003,134.0289672
imu,251.602362,,,,,,,77.62557400000001,-22.71152600000001,134.871264
imu,251.704108,,,,,,,77.75985320000001,-22.51621080000001,134.3463544
imu,251.805426,,,,,,,77.4790876,-22.33310280000001,134.6515344
imu,251.906958,,,,,,,80.55530200000001,-23.30967880000001,133.3087424
imu,252.008521,,,,,,,78.10165479999999,-22.88242680000001,134.4928408
imu,252.110266,,,,,,,80.21350039999999,-23.62706600000002,132.002572
imu,252.211676,,,,,,,77.82088920000001,-23.19981400000002,134.4195976
imu,252.930753,-0.4569887392,-9.7540777096,1.731652356,0.620691,0.5677351499999999,-2.88327538,,,
imu,252.939218,-0.4701481008,-9.767237071200002,1.7501950928,0.28423005,0.72475026,-2.98047521,,,
imu,252.947683,-0.4845037680000001,-9.755872168000002,1.7561766208,0.05992275,0.9714882899999999,-3.10758268,,,
imu,252.956148,-0.4910834488,-9.755872168000002,1.7573729264,-0.14943073,1.21822632,-3.22721324,,,
imu,252.964612,-0.481513004,-9.748694334400001,1.7549803152,-0.11204618,1.83133294,-3.23469015,,,
imu,252.973077,-0.4701481008,-9.746301723200002,1.7681396768,-0.26906129,2.15284007,-3.48142818,,,
imu,252.981542,-0.454596128,-9.745105417600001,1.7771119688,-0.25410747,2.36219355,-3.75059694,,,
imu,252.990007,-0.4354552384000001,-9.7217774584,1.7723267464,-0.16438455,2.63136231,-4.02724261,,,
imu,252.998472,-0.4049494456000001,-9.706823638400001,1.7729248992,-0.11204618,2.78090051,-4.27398064,,,
imu,253.006936,-0.3852104032000001,-9.6912716656,1.76455076,-0.007369440000000005,2.79585433,-4.48333412,,,
imu,253.015401,-0.3654713608,-9.692467971200001,1.7711304408,0.15712258,2.78090051,-4.386134289999999,,,
imu,253.023866,-0.361882444,-9.703832874400002,1.7693359824,0.3889067899999999,2.69117759,-4.29641137,,,
imu,253.032331,-0.3570972216000001,-9.702038416,1.7830934968,0.53844499,2.56407012,-4.19173463,,,
imu,253.040796,-0.3642750552,-9.6984494992,1.770532288,0.56835263,2.22760917,-4.079580979999999,,,
imu,253.049261,-0.3576953744,-9.690673512800002,1.77950458,0.47862971,1.86124058,-3.99733497,,,
imu,253.057725,-0.370854736,-9.6954587352,1.7807008856,0.6281679099999999,1.55468727,-3.90013514,,,
imu,253.06619,-0.3780325696000001,-9.708019944000002,1.7860842608,0.9048135799999999,1.19579559,-3.92256587,,,
imu,253.074655,-0.3887993200000001,-9.70502918,1.770532288,0.8449983,0.76213481,-3.99733497,,,
imu,253.08312,-0.4055475984,-9.7074217912,1.7783082744,0.8973366700000001,0.6798887999999996,-3.8702275,,,
imu,253.091585,-0.4210995712,-9.697851346400002,1.7759156632,0.94219813,0.4032431299999999,-3.69825857,,,
imu,253.100049,-0.4390441552000001,-9.6876827488,1.7627563016,0.91229049,0.1490281899999997,-3.69078166,,,
imu,253.108514,-0.4462219888000001,-9.673925234400002,1.7753175104,0.94967504,-0.007986920000000008,-3.85527368,,,
imu,253.116979,-0.4707462536000001,-9.70502918,1.7878787192,1.13659779,-0.17247894,-4.13191935,,,
imu,253.125444,-0.5096261856000001,-9.743310959200002,1.7872805664,1.24127453,-0.4117400600000001,-4.430995749999999,,,
imu,253.133909,-0.5437208952000001,-9.7474980288,1.7633544544,1.34595127,-0.35192478,-4.59548777,,,
imu,253.142377,-0.5664507016000001,-9.700243957600001,1.7657470656,1.33847436,-0.39678624,-4.42351884,,,
imu,253.150846,-0.5903768136,-9.703234721600001,1.740624648,1.45062801,-0.1799558500000003,-4.10948862,,,
imu,253.159315,-0.6053306336000001,-9.710412555200001,1.746606176,1.60764312,0.2686587499999997,-3.54872037,,,
imu,253.167783,-0.5921712720000001,-9.7163940832,1.7304560504,1.67493531,0.6499811599999998,-3.2720747,,,
imu,253.176252,-0.5826008272000001,-9.746301723200002,1.7101188552,2.18336519,1.28551851,-2.92065993,,,
imu,253.18472,-0.56824516,-9.7474980288,1.70473548,2.28804193,1.47244126,-2.93561375,,,
imu,253.193189,-0.5520950344000001,-9.746899876,1.6879872016,2.407672489999999,1.68927165,-3.18982869,,,
imu,253.201658,-0.5389356728,-9.764246307200002,1.6951650352,2.39271867,2.00330187,-3.36927453,,,
imu,253.210126,-0.5227855472,-9.776807516000002,1.6915761184,2.27308811,2.21265535,-3.63096638,,,
imu,253.218595,-0.5144114080000001,-9.788172419200002,1.6820056736,2.05625772,2.16031698,-3.81041222,,,
imu,253.227064,-0.5090280328000001,-9.791761336000002,1.6814075208,1.8917657,2.21265535,-3.99733497,,,
imu,253.235532,-0.4958686712000001,-9.776209363200001,1.6712389232,1.4431511,2.27994754,-4.25154991,,,
imu,253.244001,-0.4857000736000001,-9.773816752000002,1.6796130624,1.35342818,2.26499372,-4.19173463,,,
imu,253.252469,-0.4719425592000001,-9.776807516000002,1.6843982848,1.25622835,2.21265535,-4.19173463,,,
imu,253.260938,-0.4641665728000001,-9.773218599200002,1.6903798128,0.94967504,2.11545552,-4.034719519999999,,,
imu,253.269407,-0.4689517952000001,-9.769031529600001,1.6921742712,0.7702292,1.92105586,-3.8702275,,,
imu,253.277875,-0.4707462536000001,-9.746301723200002,1.7011465632,0.49358353,1.68179474,-3.6459202,,,
imu,253.286344,-0.4779240872000001,-9.734338667200001,1.701744716,0.30666078,1.41262598,-3.45899745,,,
imu,253.294813,-0.4803166984,-9.7301515976,1.7149040776,0.27675314,1.33785688,-3.24216706,,,
imu,253.303281,-0.4851019208000001,-9.717590388800001,1.7155022304,0.08983038999999998,1.22570323,-3.17487487,,,
imu,253.31175,-0.5066354216000001,-9.718188541600002,1.7322505088,0.07487657,1.09111885,-3.06272122,,,
imu,253.320218,-0.5162058664000001,-9.730749750400001,1.7352412728,0.08983038999999998,1.12102649,-3.05524431,,,
imu,253.328687,-0.520392936,-9.724170069600001,1.7388301896,0.22441477,1.12102649,-2.98795212,,,
imu,253.337156,-0.5323559920000001,-9.725964528,1.7328486616,0.22441477,1.18084177,-2.96552139,,,
imu,253.345969,-0.5257763112000001,-9.7122070136,1.7424191064,0.27675314,1.3528107,-2.95056757,,,
imu,253.354782,-0.520392936,-9.709216249600003,1.7639526072,0.40386061,1.59207182,-2.78607555,,,
imu,253.363595,-0.5084298800000001,-9.746899876,1.7807008856,0.30666078,1.71170238,-2.71878336,,,
imu,253.372408,-0.505439116,-9.752283251200002,1.788476872,0.17955331,1.67431783,-2.94309066,,,
imu,253.38122,-0.5018501992000001,-9.745105417600001,1.7956547056,0.20198404,1.65936401,-3.23469015,,,
imu,253.390033,-0.5078317272000001,-9.7193848472,1.7932620944,0.35152224,1.6518871,-3.28702852,,,
imu,253.398846,-0.5215892416000001,-9.7086180968,1.8010380808,0.3889067899999999,1.78647148,-3.28702852,,,
imu,253.407659,-0.5329541448,-9.701440263200002,1.80941222,0.41881443,1.86124058,-2.98795212,,,
imu,253.416472,-0.5215892416000001,-9.692467971200001,1.7980473168,0.34404533,2.16031698,-2.64401426,,,
imu,253.425285,-0.5102243384,-9.686486443200002,1.7896731776,0.34404533,2.53416248,-2.43466078,,,
imu,253.434098,-0.4862982264000001,-9.668541859200001,1.7842898024,0.50853735,2.81080815,-2.18044584,,,
imu,253.442911,-0.4581850448000001,-9.684093832000002,1.7807008856,0.67302937,2.9977309,-2.13558438,,,
imu,253.451724,-0.4216977240000001,-9.6954587352,1.7801027328,0.85995212,3.23699202,-2.41223005,,,
imu,253.460537,-0.3995660704000001,-9.708019944000002,1.7926639416,0.80761375,3.34166876,-2.80850628,,,
imu,253.46935,-0.382817792,-9.711010708000002,1.7932620944,0.9870595899999999,3.39400713,-3.07767504,,,
imu,253.47805,-0.3642750552,-9.710412555200001,1.7908694832,0.97210577,3.24446893,-3.52628964,,,
imu,253.486863,-0.3475267768,-9.7008421104,1.7932620944,0.8375213899999999,3.13979219,-3.7206893,,,
imu,253.495676,-0.3421434016,-9.678112304,1.7896731776,0.67302937,2.93791562,-3.99733497,,,
imu,253.504489,-0.3289840400000001,-9.6733270816,1.785486108,0.94967504,2.85566961,-4.16182699,,,
imu,253.513302,-0.3152265256,-9.66016772,1.7908694832,0.8823828499999999,2.51920866,-4.244073,,,
imu,253.522115,-0.3289840400000001,-9.6667474008,1.7968510112,0.97210577,2.1752708,-4.408565019999999,,,
imu,253.530928,-0.3259932760000001,-9.675121540000001,1.7878787192,0.9646288599999999,1.89114822,-4.41604193,,,
imu,253.539741,-0.3355637208,-9.6912716656,1.7842898024,1.28613599,1.53225654,-4.318842099999999,,,
imu,253.548221,-0.3463304712,-9.7074217912,1.7920657888,1.42072037,1.34533379,-4.341272829999999,,,
imu,253.556701,-0.3511156936,-9.736731278400002,1.7902713304,1.57773548,1.09859576,-4.29641137,,,
imu,253.565181,-0.3600879856,-9.746301723200002,1.7980473168,1.79456587,0.7172733499999997,-4.25154991,,,
imu,253.573661,-0.3720510416,-9.755872168000002,1.7962528584,1.83942733,0.5303505999999998,-4.20668845,,,
imu,253.582141,-0.3887993200000001,-9.7474980288,1.7860842608,1.80951969,0.35838167,-4.16182699,,,
imu,253.590621,-0.4109309736,-9.7265626808,1.76455076,1.68241222,-0.01546383000000029,-4.22911918,,,
imu,253.599101,-0.4354552384000001,-9.694860582400002,1.7573729264,1.76465823,-0.25472495,-4.169303899999999,,,
imu,253.607582,-0.4623721144,-9.6846919848,1.7334468144,1.86185806,-0.5089398900000002,-4.35622665,,,
imu,252.313544,,,,,,,78.2481412,-23.73693080000001,131.7218064
imu,252.414771,,,,,,,77.7110244,-22.67490440000002,135.4572096
imu,252.516364,,,,,,,78.11386199999998,-22.79697640000002,134.8224352
imu,252.617957,,,,,,,77.9429612,-22.80918360000001,134.8590568
imu,252.719489,,,,,,,78.29697,-22.52841800000001,134.7003632
imu,252.821082,,,,,,,78.27255559999999,-22.30868840000002,134.688156
imu,252.922553,,,,,,,77.869718,-22.77256200000002,134.4928408
imu,253.024146,,,,,,,80.5308876,-23.15098520000001,134.0045528
imu,253.616062,-0.4868963792000001,-9.669738164800002,1.716698536,2.06373463,-0.6210935399999999,-4.44594957,,,
imu,253.624542,-0.5233837000000001,-9.658971414400002,1.7083243968,2.40019558,-0.7257702800000003,-4.52071867,,,
imu,253.633022,-0.5544876456000001,-9.6775141512,1.6915761184,2.75161035,-0.8379239300000001,-4.52819558,,,
imu,253.641502,-0.5891805080000001,-9.688879054400001,1.6730333816,2.90862546,-0.7706317400000002,-4.68521069,,,
imu,253.649982,-0.6328456624000001,-9.699645804800001,1.6682481592,2.99087147,-0.6883857300000003,-4.86465653,,,
imu,253.658462,-0.6513883992,-9.718786694400002,1.647910964,3.14788658,-0.5837089900000003,-4.74502597,,,
imu,253.666942,-0.6783052752000002,-9.7540777096,1.647910964,3.1628404,-0.2771556799999999,-4.5431494,,,
imu,253.675422,-0.6806978864000002,-9.776209363200001,1.6437238944,3.14788658,0.01444380999999995,-4.40108811,,,
imu,253.683902,-0.6950535536000001,-9.796546558400001,1.6365460608,3.19274804,0.3808123999999999,-4.29641137,,,
imu,253.692382,-0.6908664840000001,-9.803724392000001,1.6401349776,2.93105619,0.7546578999999998,-4.10948862,,,
imu,253.700862,-0.6914646368,-9.8079114616,1.6371442136,2.66936434,1.25561087,-3.92256587,,,
imu,253.709342,-0.6735200528,-9.8162856008,1.6371442136,2.37028794,1.60702564,-3.67582784,,,
imu,253.717822,-0.646005024,-9.8144911424,1.6353497552,2.01139626,2.04068642,-3.39918217,,,
imu,253.726303,-0.6208826064000001,-9.819276364800002,1.6485091168,1.74970441,2.36219355,-3.10758268,,,
imu,253.734783,-0.5963583416000001,-9.818678212000002,1.647910964,1.63755076,2.56407012,-2.83093701,,,
imu,253.743263,-0.5491042704000001,-9.8198745176,1.6682481592,1.33099745,2.69117759,-2.65896808,,,
imu,253.751731,-0.5072335744,-9.80970592,1.6682481592,1.02444414,2.71360832,-2.53933752,,,
imu,253.7602,-0.5030465048,-9.802528086400002,1.6712389232,0.85995212,2.56407012,-2.4496146,,,
imu,253.768669,-0.4988594352000001,-9.800733628000001,1.6694444648,0.71789083,2.35471664,-2.44213769,,,
imu,253.777137,-0.490485296,-9.794752100000002,1.6736315344,0.41881443,2.2500399,-2.45709151,,,
imu,253.785606,-0.4809148512,-9.769629682400002,1.6700426176,0.53844499,2.13040934,-2.40475314,,,
imu,253.794074,-0.4797185456,-9.749890640000002,1.6772204512,0.26179932,1.99582496,-2.54681443,,,
imu,253.802543,-0.4659610312,-9.730749750400001,1.6843982848,0.14964567,2.01825569,-2.56176825,,,
imu,253.811012,-0.472540712,-9.710412555200001,1.6849964376,0.14216876,1.97339423,-2.58419898,,,
imu,253.81948,-0.4689517952000001,-9.702636568800001,1.6873890488,0.14216876,1.96591732,-2.68887572,,,
imu,253.827949,-0.4785222400000001,-9.692467971200001,1.6849964376,0.17955331,1.79394839,-2.74121409,,,
imu,253.836418,-0.4665591840000001,-9.682897526400001,1.6939687296,0.46367589,2.00330187,-2.748691,,,
imu,253.844886,-0.4629702672000001,-9.669738164800002,1.6939687296,0.49358353,2.07807097,-2.83841392,,,
imu,253.853355,-0.4701481008,-9.680504915200002,1.7125114664,0.7253677399999999,2.03320951,-2.8982292,,,
imu,253.861823,-0.4719425592000001,-9.709216249600003,1.7101188552,0.65059864,2.01825569,-3.16739796,,,
imu,253.870292,-0.4599795032,-9.722375611200002,1.701744716,0.9571519499999999,2.10797861,-3.22721324,,,
imu,253.878761,-0.4647647256,-9.731347903200001,1.7149040776,1.21136689,2.15284007,-3.2720747,,,
imu,253.887229,-0.4653628784000001,-9.7337405144,1.7310542032,1.17398234,2.01825569,-3.29450543,,,
imu,253.895698,-0.4593813504000001,-9.746899876,1.7340449672,1.07678251,1.89862513,-3.42908981,,,
imu,253.904167,-0.4593813504000001,-9.745703570400002,1.728661592,1.04687487,1.70422547,-3.46647436,,,
imu,253.912635,-0.4498109056,-9.748096181600001,1.7340449672,0.79265993,1.63693328,-3.74312003,,,
imu,253.921104,-0.4827093096,-9.7821908912,1.7328486616,0.70293701,1.3528107,-3.92256587,,,
imu,253.929572,-0.5042428104000001,-9.756470320800002,1.7149040776,0.7403215599999999,1.2032725,-3.66087402,,,
imu,253.938041,-0.5233837000000001,-9.730749750400001,1.707726244,0.78518302,1.38271834,-3.35432071,,,
imu,253.94651,-0.550300576,-9.714599624800002,1.7161003832,0.79265993,1.54721036,-2.80102937,,,
imu,253.954971,-0.5419264368000001,-9.714599624800002,1.7208856056,0.9197674,1.71170238,-2.28512258,,,
imu,253.963432,-0.5365430616000001,-9.727160833600001,1.7035391744,1.2188438,2.03320951,-1.75426197,,,
imu,253.971893,-0.517402172,-9.7337405144,1.686790896,1.48053565,2.31733209,-1.61967759,,,
imu,253.980354,-0.4916816016,-9.718786694400002,1.6712389232,1.7422275,2.49677793,-1.66453905,,,
imu,253.988815,-0.4689517952000001,-9.7163940832,1.6646592424,2.03382699,2.69117759,-1.78416961,,,
imu,253.997276,-0.4593813504000001,-9.737329431200001,1.6574814088,2.20579592,2.78090051,-2.09819983,,,
imu,254.005737,-0.4498109056,-9.745703570400002,1.6616684784,2.05625772,2.87062343,-2.54681443,,,
imu,254.014198,-0.4378478496000001,-9.749890640000002,1.6574814088,1.95905789,2.80333124,-2.92813684,,,
imu,254.022659,-0.4300718632,-9.745703570400002,1.6407331304,1.69736604,2.6986545,-3.32441307,,,
imu,254.03112,-0.4264829464000001,-9.751685098400001,1.6449202,1.58521239,2.69117759,-3.53376655,,,
imu,254.039581,-0.4085383624000001,-9.769031529600001,1.6485091168,1.4431511,2.58650085,-3.67582784,,,
imu,254.048042,-0.4025568344,-9.800135475200001,1.650901728,1.13659779,2.29490136,-3.84779677,,,
imu,254.056503,-0.4025568344,-9.802528086400002,1.6610703256,1.05435178,2.19770153,-3.82536604,,,
imu,254.064964,-0.4121272792,-9.801929933600002,1.6682481592,0.70293701,1.93600968,-3.90761205,,,
imu,254.073425,-0.430670016,-9.798341016800002,1.6754259928,0.34404533,1.62197946,-3.89265823,,,
imu,254.081886,-0.4378478496000001,-9.796546558400001,1.6814075208,0.05244583999999999,1.4275798,-3.90761205,,,
imu,254.090347,-0.4611758088,-9.767835224,1.6873890488,-0.17933837,1.15841104,-3.6459202,,,
imu,254.098808,-0.4857000736000001,-9.746301723200002,1.7023428688,-0.28401511,1.08364194,-3.42908981,,,
imu,254.107269,-0.4886908376000001,-9.745105417600001,1.7089225496,-0.39616876,1.07616503,-3.25712088,,,
imu,254.11573,-0.5036446576000001,-9.7403201952,1.7190911472,-0.44103022,1.2032725,-2.99542903,,,
imu,254.124191,-0.5227855472,-9.737329431200001,1.73464312,-0.46346095,1.28551851,-3.06272122,,,
imu,254.132652,-0.5335522976000001,-9.7193848472,1.7328486616,-0.47093786,1.39767216,-2.95056757,,,
imu,254.141113,-0.5275707696,-9.694860582400002,1.7220819112,-0.14943073,1.68927165,-2.85336774,,,
imu,254.149574,-0.5257763112000001,-9.671532623200001,1.737633884,-0.01484635000000001,2.04068642,-2.65149117,,,
imu,254.158032,-0.505439116,-9.684093832000002,1.7561766208,0.09730729999999999,2.41453192,-2.5991528,,,
imu,254.166491,-0.4910834488,-9.723571916800001,1.7627563016,0.04496892999999999,2.64631613,-2.92813684,,,
imu,254.174949,-0.4958686712000001,-9.722375611200002,1.7579710792,0.17955331,2.82576197,-3.29450543,,,
imu,254.183408,-0.454596128,-9.685290137600001,1.7519895512,0.23189168,3.09493073,-3.51133582,,,
imu,254.191866,-0.4468201416000001,-9.685888290400001,1.7549803152,0.23189168,3.12483837,-3.66835093,,,
imu,254.200324,-0.4557924336,-9.685888290400001,1.7478024816,0.50853735,3.32671494,-3.63844329,,,
imu,254.208783,-0.4294737104000001,-9.6703363176,1.746606176,0.58330645,3.46129932,-3.32441307,,,
imu,254.217241,-0.4145198904,-9.685290137600001,1.7262689808,0.74779847,3.56597606,-3.10758268,,,
imu,254.2257,-0.3953790008,-9.688879054400001,1.7214837584,1.07678251,3.51363769,-2.96552139,,,
imu,254.234158,-0.3726491944000001,-9.709814402400001,1.7172966888,1.12912088,3.41643786,-3.09262886,,,
imu,254.242617,-0.34393786,-9.741516500800001,1.7214837584,1.368382,3.10240764,-3.15992105,,,
imu,254.251075,-0.3582935272000001,-9.758264779200001,1.7184929944,1.49548947,2.83323888,-3.46647436,,,
imu,254.259534,-0.3702565832000001,-9.765442612800001,1.7232782168,1.54782784,2.31733209,-3.63844329,,,
imu,254.267992,-0.3876030144000001,-9.760059237600002,1.7089225496,1.27865908,1.8761944,-3.87770441,,,
imu,254.276451,-0.3983697648000001,-9.767835224,1.7053336328,1.18145925,1.80890221,-3.98985806,,,
imu,254.284909,-0.415716196,-9.766040765600001,1.698753952,1.13659779,1.62197946,-3.90761205,,,
imu,254.293367,-0.4330626272,-9.751685098400001,1.686790896,1.01696723,1.45748744,-3.7206893,,,
imu,254.301826,-0.4462219888000001,-9.7540777096,1.6903798128,0.82256757,1.45748744,-3.68330475,,,
imu,254.310284,-0.4533998224,-9.748694334400001,1.7011465632,0.66555246,1.34533379,-3.75059694,,,
imu,254.318743,-0.4581850448000001,-9.743310959200002,1.6963613408,0.65059864,1.23318014,-3.6459202,,,
imu,254.327201,-0.4803166984,-9.7325442088,1.6999502576,0.4711528,1.08364194,-3.66087402,,,
imu,254.33566,-0.4946723656000001,-9.7337405144,1.686790896,0.59078336,1.18831868,-3.54124346,,,
imu,254.344118,-0.5060372688000001,-9.7361331256,1.7053336328,0.620691,1.24813396,-3.48142818,,,
imu,254.352577,-0.5084298800000001,-9.727160833600001,1.695763188,0.43376825,1.28551851,-3.54124346,,,
imu,254.361364,-0.5168040192000001,-9.725964528,1.7023428688,0.5982602699999999,1.3528107,-3.55619728,,,
imu,254.370152,-0.5311596864,-9.717590388800001,1.722680064,0.58330645,1.32290306,-3.63096638,,,
imu,254.37894,-0.5365430616000001,-9.727160833600001,1.7155022304,0.6954601,1.61450255,-3.43656672,,,
imu,254.387728,-0.5281689224000001,-9.7474980288,1.7041373272,0.74779847,1.80890221,-3.38422835,,,
imu,254.396516,-0.5335522976000001,-9.752881404000002,1.7172966888,0.59078336,1.92105586,-3.45152054,,,
imu,254.405303,-0.5287670752,-9.745105417600001,1.7328486616,0.55339881,2.1005017,-3.44404363,,,
imu,254.414091,-0.5275707696,-9.769629682400002,1.7172966888,0.620691,2.31733209,-3.39918217,,,
imu,254.422879,-0.5066354216000001,-9.756470320800002,1.7202874528,0.6281679099999999,2.55659321,-3.30198234,,,
imu,253.125937,,,,,,,77.46688040000001,-22.80918360000001,134.4195976
imu,253.22753,,,,,,,79.9083204,-23.59044440000002,132.3443736
imu,253.329214,,,,,,,77.6744028,-22.49179640000001,135.176444
imu,253.430624,,,,,,,78.3946276,-23.40733640000001,132.6251392
imu,253.532217,,,,,,,77.6621956,-22.49179640000001,134.7247776
imu,253.633719,,,,,,,77.9429612,-22.67490440000002,134.2364896
imu,253.735434,,,,,,,77.7354388,-23.17539960000001,135.0299576
imu,253.836905,,,,,,,78.419042,-23.16319240000002,135.1032008
imu,254.431667,-0.5018501992000001,-9.7265626808,1.73464312,0.44124516,2.72108523,-3.24964397,,,
imu,254.440455,-0.4809148512,-9.7283571392,1.722680064,0.38142988,2.87810034,-3.28702852,,,
imu,254.449242,-0.4695499480000001,-9.718188541600002,1.7220819112,0.45619898,3.06502309,-3.13749032,,,
imu,254.45803,-0.4420349192,-9.715795930400002,1.7274652864,0.65807555,3.19960747,-3.01038285,,,
imu,254.466818,-0.4252866408000001,-9.722375611200002,1.7292597448,0.64312173,3.11736146,-3.21225942,,,
imu,254.475606,-0.4163143488000001,-9.730749750400001,1.7298578976,0.52349117,2.96782326,-3.33188998,,,
imu,254.484393,-0.4073420568000001,-9.714599624800002,1.7412228008,0.47862971,2.83323888,-3.4216129,,,
imu,254.493181,-0.4061457512000001,-9.719983000000001,1.7382320368,0.4861066199999999,2.72856214,-3.45152054,,,
imu,254.501969,-0.4031549872,-9.7163940832,1.7364375784,0.44124516,2.5491163,-3.45899745,,,
imu,254.510757,-0.4001642232,-9.7151977776,1.7310542032,0.5459219,2.31733209,-3.37675144,,,
imu,254.519545,-0.4061457512000001,-9.714001472000001,1.7484006344,0.68050628,2.22760917,-3.29450543,,,
imu,254.528332,-0.406743904,-9.706225485600001,1.7561766208,0.6281679099999999,1.98834805,-3.30198234,,,
imu,254.53712,-0.4193051128000001,-9.6954587352,1.7460080232,0.8823828499999999,1.77151766,-3.2720747,,,
imu,254.545908,-0.4199032656,-9.696056888000001,1.7358394256,0.88985976,1.66684092,-3.32441307,,,
imu,254.554696,-0.4360533912000001,-9.6912716656,1.7310542032,0.85995212,1.62197946,-3.30198234,,,
imu,254.563484,-0.4474182944000001,-9.7056273328,1.7382320368,1.04687487,1.47991817,-3.27955161,,,
imu,254.572333,-0.4563905864000001,-9.709216249600003,1.73464312,1.12912088,1.47991817,-3.2720747,,,
imu,254.580951,-0.4617739616000001,-9.725366375200002,1.7358394256,1.18145925,1.56216418,-3.39170526,,,
imu,254.589568,-0.4605776560000001,-9.7295534448,1.728661592,1.16650543,1.68927165,-3.4216129,,,
imu,254.598186,-0.4641665728000001,-9.7301515976,1.728661592,1.30108981,1.86871749,-3.43656672,,,
imu,254.606803,-0.4641665728000001,-9.7361331256,1.7232782168,1.30108981,2.05564024,-3.47395127,,,
imu,254.61542,-0.4593813504000001,-9.745703570400002,1.7232782168,1.22632071,2.19022462,-3.54124346,,,
imu,254.624038,-0.4522035168,-9.739722042400002,1.7208856056,1.18893616,2.25751681,-3.5711511,,,
imu,254.632655,-0.4408386136,-9.724170069600001,1.716698536,1.06182869,2.33976282,-3.78798149,,,
imu,254.641273,-0.4318663216,-9.7295534448,1.7238763696,1.08425942,2.36219355,-3.95995042,,,
imu,254.64989,-0.4312681688,-9.751685098400001,1.7244745224,1.06182869,2.27247063,-4.00481188,,,
imu,254.658507,-0.4312681688,-9.7504887928,1.7155022304,0.94967504,2.26499372,-4.13191935,,,
imu,254.667125,-0.4216977240000001,-9.740918348000001,1.7119133136,0.9571519499999999,2.15284007,-4.18425772,,,
imu,254.675742,-0.4151180432000001,-9.737329431200001,1.7178948416,1.0693056,2.16031698,-4.04967334,,,
imu,254.68436,-0.4187069600000001,-9.742114653600002,1.7208856056,1.16650543,2.07807097,-3.84779677,,,
imu,254.692977,-0.4133235848,-9.725964528,1.7280634392,1.10669015,1.9509635,-3.75807385,,,
imu,254.701594,-0.4216977240000001,-9.7122070136,1.7340449672,0.9945364999999999,1.61450255,-4.19173463,,,
imu,254.710212,-0.4605776560000001,-9.746301723200002,1.7262689808,1.06182869,1.26308778,-4.41604193,,,
imu,254.718829,-0.4767277816000001,-9.745105417600001,1.7161003832,1.18145925,1.06121121,-4.28145755,,,
imu,254.727447,-0.5012520464000001,-9.731347903200001,1.7089225496,1.18145925,0.7995193599999997,-4.079580979999999,,,
imu,254.736064,-0.5443190480000001,-9.731347903200001,1.701744716,1.41324346,0.9565344699999998,-3.71321239,,,
imu,254.744681,-0.5592728680000001,-9.746301723200002,1.7059317856,1.57025857,1.07616503,-3.11505959,,,
imu,254.753299,-0.5574784096000001,-9.767835224,1.6993521048,1.70484295,1.33037997,-2.62158353,,,
imu,254.761916,-0.5640580904000001,-9.7815927384,1.6903798128,1.8917657,1.74908693,-2.43466078,,,
imu,254.770534,-0.5431227424,-9.7786019744,1.6861927432,1.88428879,2.05564024,-2.41223005,,,
imu,254.778851,-0.5215892416000001,-9.766638918400002,1.6760241456,1.69736604,2.37714737,-2.5243837,,,
imu,254.787168,-0.5072335744,-9.7636481544,1.6754259928,1.56278166,2.48182411,-2.70382954,,,
imu,254.795485,-0.4976631296000001,-9.7534795568,1.6670518536,1.42072037,2.84071579,-3.03281358,,,
imu,254.803803,-0.4779240872000001,-9.731347903200001,1.6592758672,1.05435178,3.08745382,-3.42908981,,,
imu,254.81212,-0.4569887392,-9.715795930400002,1.6550887976,0.91229049,3.2968073,-3.63096638,,,
imu,254.820437,-0.4330626272,-9.718786694400002,1.6694444648,0.9197674,3.45382241,-3.95247351,,,
imu,254.828755,-0.4091365152000001,-9.737329431200001,1.67482784,0.78518302,3.28185348,-4.15435008,,,
imu,254.837072,-0.3929863896,-9.744507264800001,1.6873890488,0.46367589,3.0725,-4.341272829999999,,,
imu,254.845389,-0.3834159448,-9.7474980288,1.710717008,0.33656842,2.93043871,-4.28145755,,,
imu,254.853707,-0.3750418056000001,-9.742114653600002,1.7149040776,0.34404533,2.66126995,-4.169303899999999,,,
imu,254.862024,-0.3744436528,-9.749890640000002,1.737633884,0.2468455,2.42200883,-4.0945348,,,
imu,254.870341,-0.376836264,-9.742114653600002,1.7370357312,0.0001074699999999984,2.15284007,-4.034719519999999,,,
imu,254.878659,-0.3876030144000001,-9.746301723200002,1.7454098704,-0.02980017,1.76404075,-3.98985806,,,
imu,254.886976,-0.3995660704000001,-9.734936820000001,1.7543821624,-0.20924601,1.48739508,-3.93751969,,,
imu,254.895293,-0.4205014184,-9.725366375200002,1.7651489128,-0.09709236,1.30794924,-3.75059694,,,
imu,254.903611,-0.4372496968000001,-9.718786694400002,1.7633544544,0.03001510999999998,1.24065705,-3.63844329,,,
imu,254.911928,-0.4617739616000001,-9.706823638400001,1.76455076,0.13469185,1.32290306,-3.5711511,,,
imu,254.920245,-0.4719425592000001,-9.706823638400001,1.767541524,0.3889067899999999,1.38271834,-3.55619728,,,
imu,254.928562,-0.4821111568000001,-9.692467971200001,1.7549803152,0.71789083,1.73413311,-3.50385891,,,
imu,254.93688,-0.4862982264000001,-9.6703363176,1.7513913984,0.91229049,1.94348659,-3.59358183,,,
imu,254.945197,-0.4785222400000001,-9.680504915200002,1.7519895512,1.09173633,2.22760917,-3.78798149,,,
imu,254.953514,-0.4785222400000001,-9.708019944000002,1.7591673848,1.25622835,2.38462428,-4.15435008,,,
imu,254.961832,-0.4898871432,-9.7217774584,1.746606176,1.52539711,2.48930102,-4.5431494,,,
imu,254.970149,-0.4623721144,-9.703234721600001,1.7454098704,1.51044329,2.45939338,-4.759979789999999,,,
imu,254.978607,-0.4593813504000001,-9.709814402400001,1.7268671336,1.70484295,2.5491163,-4.7674567,,,
imu,254.987066,-0.4695499480000001,-9.711010708000002,1.7250726752,1.99644244,2.50425484,-4.73007215,,,
imu,254.995524,-0.4797185456,-9.702636568800001,1.722680064,1.93662716,2.41453192,-4.43847266,,,
imu,255.003983,-0.472540712,-9.724768222400002,1.707726244,1.91419643,2.44443956,-3.9449966,,,
imu,255.012441,-0.4785222400000001,-9.718786694400002,1.6945668824,2.01887317,2.35471664,-3.6459202,,,
imu,255.0209,-0.4713444064,-9.7361331256,1.6891835072,1.86185806,2.09302479,-3.54872037,,,
imu,255.029358,-0.4701481008,-9.7504887928,1.6981557992,2.07868845,1.89862513,-3.44404363,,,
imu,255.037817,-0.4719425592000001,-9.754675862400001,1.6921742712,2.12354991,1.68179474,-3.6459202,,,
imu,255.046275,-0.4898871432,-9.736731278400002,1.6802112152,1.67493531,1.53973345,-3.82536604,,,
imu,255.054734,-0.4982612824000001,-9.7295534448,1.6784167568,1.63755076,1.43505671,-3.91508896,,,
imu,255.063192,-0.5114206440000001,-9.745105417600001,1.665855548,1.54035093,1.40514907,-3.95247351,,,
imu,255.07165,-0.5197947832,-9.743310959200002,1.6580795616,1.47305874,1.3528107,-4.04967334,,,
imu,255.080109,-0.5197947832,-9.748694334400001,1.6736315344,1.41324346,1.47991817,-3.95995042,,,
imu,255.088567,-0.5305615336,-9.759461084800002,1.6736315344,1.36090509,1.60702564,-3.87770441,,,
imu,255.097026,-0.5245800056000001,-9.766040765600001,1.6766222984,1.2188438,1.65936401,-4.07210407,,,
imu,255.105484,-0.5305615336,-9.7702278352,1.6760241456,1.30856672,1.74161002,-3.93751969,,,
imu,255.113943,-0.5359449088000001,-9.7809945856,1.677818604,1.17398234,1.86124058,-3.82536604,,,
imu,255.122401,-0.5377393672000002,-9.761853696000001,1.6742296872,1.03939796,1.89862513,-3.84779677,,,
imu,255.13086,-0.5168040192000001,-9.767835224,1.6760241456,0.9571519499999999,1.94348659,-3.7206893,,,
imu,255.139318,-0.5257763112000001,-9.752283251200002,1.6712389232,0.91229049,2.09302479,-3.69078166,,,
imu,255.147777,-0.5317578392000001,-9.7492924872,1.6766222984,0.8973366700000001,2.1752708,-3.7954584,,,
imu,255.156235,-0.517402172,-9.7540777096,1.6664537008,0.88985976,2.13788625,-3.61601256,,,
imu,255.164693,-0.5215892416000001,-9.770825988000002,1.668846312,0.91229049,2.35471664,-3.51133582,,,
imu,255.173152,-0.5180003248000001,-9.769031529600001,1.6712389232,0.8674290299999999,2.44443956,-3.44404363,,,
imu,255.181622,-0.5090280328000001,-9.772022293600001,1.6742296872,0.85995212,2.52668557,-3.43656672,,,
imu,255.190092,-0.5048409632,-9.756470320800002,1.671837076,0.8375213899999999,2.57154703,-3.43656672,,,
imu,255.198562,-0.4928779072000001,-9.762451848800001,1.671837076,0.7552753799999999,2.5491163,-3.38422835,,,
imu,255.207032,-0.4874945320000001,-9.767237071200002,1.677818604,0.51601426,2.48930102,-3.42908981,,,
imu,255.215501,-0.4761296288000001,-9.76484446,1.6742296872,0.52349117,2.45939338,-3.33188998,,,
imu,255.223971,-0.4851019208000001,-9.748096181600001,1.6879872016,0.51601426,2.57902394,-3.32441307,,,
imu,255.232441,-0.4797185456,-9.740918348000001,1.6843982848,0.34404533,2.60893158,-3.40665908,,,
imu,255.240911,-0.4785222400000001,-9.740918348000001,1.6909779656,0.44124516,2.53416248,-3.2720747,,,
imu,253.938467,,,,,,,77.9429612,-22.95567,134.6149128
imu,254.04003,,,,,,,78.44345640000002,-23.48057960000001,135.4327952
imu,254.141592,,,,,,,80.8726892,-23.04112040000001,133.6749584
imu,254.243124,,,,,,,80.005978,-23.35850760000002,132.3565808
imu,254.344687,,,,,,,78.28476280000001,-22.91904840000001,134.8956784
imu,254.454214,,,,,,,79.09043799999999,-24.0421108,132.1368512
imu,254.555655,,,,,,,78.6143572,-22.894634,135.3839664
imu,254.657217,,,,,,,78.4312492,-22.91904840000001,134.993336
imu,255.249381,-0.4749333232000001,-9.737927584000001,1.7035391744,0.31413769,2.42948574,-3.33936689,,,
imu,255.257851,-0.4671573368000001,-9.7265626808,1.7059317856,0.26179932,2.31733209,-3.29450543,,,
imu,255.266321,-0.4695499480000001,-9.717590388800001,1.70473548,0.20198404,2.39210119,-3.25712088,,,
imu,255.274791,-0.4713444064,-9.7074217912,1.7041373272,0.31413769,2.35471664,-3.2720747,,,
imu,255.283261,-0.4743351704000001,-9.710412555200001,1.7089225496,0.3963837,2.18274771,-3.35432071,,,
imu,255.291731,-0.4773259344000001,-9.723571916800001,1.7155022304,0.41133752,2.23508608,-3.39170526,,,
imu,255.3002,-0.4719425592000001,-9.7217774584,1.7178948416,0.35152224,2.25751681,-3.4216129,,,
imu,255.30867,-0.4707462536000001,-9.730749750400001,1.7190911472,0.41133752,2.12293243,-3.44404363,,,
imu,255.31714,-0.472540712,-9.723571916800001,1.7214837584,0.41881443,2.1752708,-3.44404363,,,
imu,255.32561,-0.4659610312,-9.728955292000002,1.728661592,0.6132140899999999,2.23508608,-3.41413599,,,
imu,255.33408,-0.4617739616000001,-9.740918348000001,1.7304560504,0.56087572,2.28742445,-3.41413599,,,
imu,255.34255,-0.4719425592000001,-9.7331423616,1.7430172592,0.63564482,2.19770153,-3.37675144,,,
imu,255.35102,-0.4743351704000001,-9.737927584000001,1.740624648,0.59078336,2.07059406,-3.51133582,,,
imu,255.35949,-0.4707462536000001,-9.734338667200001,1.7394283424,0.5459219,2.04068642,-3.59358183,,,
imu,255.36796,-0.4749333232000001,-9.720581152800001,1.737633884,0.53844499,1.98834805,-3.60853565,,,
imu,255.37643,-0.4857000736000001,-9.722973764,1.7454098704,0.6132140899999999,2.0257326,-3.50385891,,,
imu,255.3853,-0.4797185456,-9.7403201952,1.7304560504,0.68798319,1.9509635,-3.53376655,,,
imu,255.39417,-0.4731388648000001,-9.7427128064,1.7143059248,0.64312173,1.80890221,-3.51881273,,,
imu,255.40304,-0.4761296288000001,-9.7265626808,1.7095207024,0.64312173,1.89114822,-3.57862801,,,
imu,255.41191,-0.4797185456,-9.7265626808,1.7238763696,0.7253677399999999,1.98834805,-3.57862801,,,
imu,255.42078,-0.4862982264000001,-9.727758986400001,1.7190911472,0.7403215599999999,1.96591732,-3.59358183,,,
imu,255.42965,-0.4827093096,-9.725366375200002,1.7125114664,0.68798319,2.04816333,-3.63844329,,,
imu,255.43852,-0.490485296,-9.7122070136,1.7274652864,0.7403215599999999,2.0257326,-3.61601256,,,
imu,255.44739,-0.4845037680000001,-9.706823638400001,1.7310542032,0.68798319,2.12293243,-3.54872037,,,
imu,255.45626,-0.4845037680000001,-9.702038416,1.7274652864,0.82256757,2.19770153,-3.57862801,,,
imu,255.46513,-0.4797185456,-9.693066124000001,1.7280634392,0.620691,2.19022462,-3.6459202,,,
imu,255.474,-0.4701481008,-9.716992236000001,1.7322505088,0.85995212,2.34723973,-3.60853565,,,
imu,255.48287,-0.4701481008,-9.731946056000002,1.7442135648,0.7552753799999999,2.34723973,-3.69825857,,,
imu,255.49174,-0.4599795032,-9.740918348000001,1.731652356,0.7702292,2.33228591,-3.76555076,,,
imu,255.50061,-0.4605776560000001,-9.7217774584,1.7382320368,0.8674290299999999,2.28742445,-3.76555076,,,
imu,255.50948,-0.4486146000000001,-9.7217774584,1.7478024816,0.80761375,2.14536316,-3.63844329,,,
imu,255.51835,-0.4480164472000001,-9.722375611200002,1.7513913984,0.68050628,2.13040934,-3.7206893,,,
imu,255.52722,-0.442633072,-9.699645804800001,1.7501950928,0.6281679099999999,1.98834805,-3.7954584,,,
imu,255.53609,-0.4510072112,-9.735534972800002,1.7687378296,0.620691,1.77151766,-4.11696553,,,
imu,255.54496,-0.472540712,-9.758264779200001,1.7531858568,0.80761375,1.49487199,-4.23659609,,,
imu,255.55383,-0.4964668240000001,-9.716992236000001,1.7364375784,0.74779847,1.37524143,-4.18425772,,,
imu,255.5627,-0.5168040192000001,-9.7008421104,1.7202874528,1.02444414,1.24813396,-3.92256587,,,
imu,255.57157,-0.5371412144000001,-9.703234721600001,1.7113151608,1.34595127,1.21074941,-3.42908981,,,
imu,255.58044,-0.5413282840000001,-9.731347903200001,1.7059317856,1.63007385,1.31542615,-2.98047521,,,
imu,255.588864,-0.5419264368000001,-9.755872168000002,1.6820056736,2.05625772,1.53225654,-2.86832156,,,
imu,255.597288,-0.5341504504000001,-9.776209363200001,1.6814075208,2.14598064,1.71917929,-2.71878336,,,
imu,255.605712,-0.5233837000000001,-9.776807516000002,1.6730333816,2.28804193,1.90610204,-2.84589083,,,
imu,255.614136,-0.5180003248000001,-9.7953502528,1.6646592424,2.18336519,2.07807097,-3.00290594,,,
imu,255.62256,-0.5227855472,-9.791761336000002,1.6616684784,2.09364227,2.28742445,-3.2720747,,,
imu,255.630984,-0.5126169496,-9.7809945856,1.647910964,1.70484295,2.48182411,-3.60853565,,,
imu,255.639408,-0.5036446576000001,-9.755274015200001,1.6383405192,1.35342818,2.53416248,-3.87770441,,,
imu,255.647833,-0.4946723656000001,-9.742114653600002,1.6395368248,1.02444414,2.70613141,-4.124442439999999,,,
imu,255.656257,-0.4821111568000001,-9.731347903200001,1.6431257416,0.77770611,2.74351596,-4.41604193,,,
imu,255.664577,-0.4785222400000001,-9.737927584000001,1.647910964,0.66555246,2.6238854,-4.5431494,,,
imu,255.673002,-0.4701481008,-9.7295534448,1.6550887976,0.42629134,2.44443956,-4.37865738,,,
imu,255.681426,-0.4827093096,-9.7265626808,1.6664537008,0.45619898,2.30985518,-4.33379592,,,
imu,255.68985,-0.481513004,-9.737927584000001,1.6706407704,0.30666078,2.07807097,-4.04219643,,,
imu,255.698274,-0.4845037680000001,-9.746301723200002,1.6849964376,0.3739529699999999,2.05564024,-3.78050458,,,
imu,255.706698,-0.4857000736000001,-9.7504887928,1.6891835072,0.23189168,1.75656384,-3.5711511,,,
imu,255.715122,-0.4982612824000001,-9.766638918400002,1.7023428688,0.15712258,1.68927165,-3.41413599,,,
imu,255.723546,-0.5084298800000001,-9.7815927384,1.7149040776,0.02253820000000001,1.66684092,-3.33936689,,,
imu,255.73197,-0.5215892416000001,-9.792957641600001,1.7184929944,0.05244583999999999,1.67431783,-3.32441307,,,
imu,255.740395,-0.5377393672000002,-9.802528086400002,1.7262689808,-0.05970781,1.61450255,-3.31693616,,,
imu,255.748819,-0.5514968816000001,-9.786377960800001,1.7250726752,0.11226112,1.8014253,-3.18235178,,,
imu,255.757243,-0.5425245896,-9.743310959200002,1.716698536,0.20198404,2.07059406,-3.13001341,,,
imu,255.765667,-0.5461135064000001,-9.724768222400002,1.731652356,0.35152224,2.22760917,-3.02533667,,,
imu,255.774091,-0.5293652280000001,-9.727160833600001,1.7513913984,0.29918387,2.36967046,-3.1225365,,,
imu,255.782515,-0.5365430616000001,-9.7474980288,1.746606176,0.15712258,2.54163939,-3.29450543,,,
imu,255.79096,-0.5233837000000001,-9.744507264800001,1.731652356,0.26927623,2.71360832,-3.56367419,,,
imu,255.799405,-0.505439116,-9.711608860800002,1.7448117176,0.29170696,2.74351596,-3.57862801,,,
imu,255.80785,-0.5132151024,-9.7086180968,1.73464312,0.26179932,2.71360832,-3.68330475,,,
imu,255.816294,-0.5215892416000001,-9.7074217912,1.7430172592,0.26927623,2.95286944,-3.496382,,,
imu,255.824739,-0.502448352,-9.7056273328,1.74959694,0.43376825,3.11736146,-3.01038285,,,
imu,255.833184,-0.4916816016,-9.711608860800002,1.7328486616,0.42629134,3.10240764,-2.71878336,,,
imu,255.841629,-0.4809148512,-9.7056273328,1.737633884,0.41881443,3.15474601,-2.5991528,,,
imu,255.850074,-0.4456238360000001,-9.723571916800001,1.7400264952,0.46367589,3.11736146,-2.73373718,,,
imu,255.858519,-0.4240903352000001,-9.752881404000002,1.7382320368,0.68050628,3.0725,-2.74121409,,,
imu,255.866963,-0.4145198904,-9.755274015200001,1.731652356,0.63564482,2.78090051,-3.07767504,,,
imu,255.875408,-0.424688488,-9.744507264800001,1.7418209536,0.64312173,2.43696265,-3.41413599,,,
imu,255.883853,-0.43366078,-9.7325442088,1.7298578976,0.5010604399999999,2.21265535,-3.62348947,,,
imu,255.892298,-0.4498109056,-9.717590388800001,1.7388301896,0.45619898,2.13040934,-3.63844329,,,
imu,255.900743,-0.4510072112,-9.7163940832,1.7298578976,0.51601426,2.1005017,-3.54872037,,,
imu,255.909188,-0.4689517952000001,-9.7337405144,1.7262689808,0.34404533,1.92105586,-3.60853565,,,
imu,255.917632,-0.472540712,-9.719983000000001,1.7400264952,0.40386061,1.93600968,-3.45152054,,,
imu,255.926077,-0.4809148512,-9.734338667200001,1.743615412,0.36647606,1.71170238,-3.42908981,,,
imu,255.934522,-0.4839056152000001,-9.737329431200001,1.743615412,0.3216146,1.70422547,-3.31693616,,,
imu,255.942967,-0.4958686712000001,-9.7295534448,1.7519895512,0.14964567,1.60702564,-3.2720747,,,
imu,255.951412,-0.5102243384,-9.737329431200001,1.761559996,0.11973803,1.63693328,-3.22721324,,,
imu,255.959856,-0.5150095608,-9.744507264800001,1.7537840096,0.14216876,1.60702564,-3.10010577,,,
imu,255.968301,-0.5317578392000001,-9.744507264800001,1.7657470656,0.14216876,1.75656384,-3.13749032,,,
imu,255.976746,-0.5347486032000001,-9.746301723200002,1.7681396768,0.20198404,2.05564024,-3.02533667,,,
imu,255.985191,-0.5347486032000001,-9.7492924872,1.7651489128,0.05244583999999999,2.08554788,-3.00290594,,,
imu,255.993636,-0.5323559920000001,-9.731347903200001,1.776513816,0.2468455,2.324809,-2.94309066,,,
imu,256.002087,-0.5287670752,-9.7217774584,1.7723267464,0.20198404,2.67622377,-2.92065993,,,
imu,256.010537,-0.5156077136000001,-9.719983000000001,1.7717285936,0.22441477,2.7734236,-2.86832156,,,
imu,256.018988,-0.4976631296000001,-9.717590388800001,1.776513816,0.14216876,2.9229618,-2.92065993,,,
imu,256.027439,-0.4916816016,-9.7193848472,1.7753175104,0.20198404,3.1472691,-3.07767504,,,
imu,256.03589,-0.4671573368000001,-9.713403319200001,1.7711304408,0.4711528,3.22951511,-2.90570611,,,
imu,256.044341,-0.4432312248,-9.711010708000002,1.7591673848,0.5010604399999999,3.22951511,-2.93561375,,,
imu,256.052792,-0.4312681688,-9.692467971200001,1.767541524,0.52349117,3.25194584,-2.98047521,,,
imu,256.061242,-0.4133235848,-9.685290137600001,1.7639526072,0.65059864,3.19960747,-2.98795212,,,
imu,254.758856,,,,,,,78.3213844,-23.02891320000002,135.1276152
imu,254.860205,,,,,,,77.9429612,-23.35850760000002,134.9445072
imu,254.961767,,,,,,,78.8340868,-22.88242680000001,134.2853184
imu,255.06336,,,,,,,78.22372680000001,-23.26085000000002,134.7613992
imu,255.164923,,,,,,,80.9947612,-23.37071480000002,134.4928408
imu,255.266546,,,,,,,78.3946276,-23.17539960000001,134.566084
imu,255.368078,,,,,,,80.7628244,-23.87121000000001,132.1978872
imu,255.46958,,,,,,,78.0284116,-23.60265160000001,134.32194
imu,256.069693,-0.4025568344,-9.683495679200002,1.7627563016,0.7253677399999999,3.00520781,-3.11505959,,,
imu,256.078144,-0.3995660704000001,-9.679308609600001,1.7627563016,0.8449983,2.71360832,-3.21225942,,,
imu,256.086595,-0.3953790008,-9.678112304,1.7621581488,0.97958268,2.59397776,-3.1973056,,,
imu,256.095046,-0.3983697648000001,-9.6817012208,1.7627563016,1.08425942,2.39210119,-3.26459779,,,
imu,256.103497,-0.4031549872,-9.703832874400002,1.7639526072,1.18893616,2.11545552,-3.3468438,,,
imu,256.111947,-0.4139217376000001,-9.725366375200002,1.7777101216,1.04687487,1.92105586,-3.39170526,,,
imu,256.120398,-0.430670016,-9.731946056000002,1.776513816,0.9197674,1.73413311,-3.4216129,,,
imu,256.128849,-0.4432312248,-9.7427128064,1.7741212048,0.97210577,1.60702564,-3.40665908,,,
imu,256.1373,-0.4438293776000001,-9.746899876,1.7723267464,0.9646288599999999,1.5023489,-3.33188998,,,
imu,256.145751,-0.451605364,-9.745703570400002,1.767541524,0.81509066,1.62197946,-3.33188998,,,
imu,256.154201,-0.4569887392,-9.743909112,1.77950458,0.71789083,1.53225654,-3.41413599,,,
imu,256.162652,-0.4647647256,-9.734338667200001,1.770532288,0.65807555,1.64441019,-3.45152054,,,
imu,256.171103,-0.4617739616000001,-9.7325442088,1.7627563016,0.71789083,1.67431783,-3.60105874,,,
imu,256.179554,-0.4659610312,-9.7301515976,1.7699341352,0.620691,1.56964109,-3.63844329,,,
imu,256.188005,-0.4671573368000001,-9.741516500800001,1.7693359824,0.73284465,1.74161002,-3.66087402,,,
imu,256.196456,-0.4791203928000001,-9.7325442088,1.7717285936,0.78518302,1.84628676,-3.71321239,,,
imu,256.205287,-0.4719425592000001,-9.715795930400002,1.758569232,0.8524752099999999,2.04068642,-3.63844329,,,
imu,256.214119,-0.4791203928000001,-9.725964528,1.7543821624,0.68050628,1.80890221,-3.77302767,,,
imu,256.22295,-0.4821111568000001,-9.724170069600001,1.7478024816,0.76275229,1.8761944,-3.63096638,,,
imu,255.571173,,,,,,,79.0782308,-24.17639,132.5763104
imu,255.672827,,,,,,,78.68760040000001,-23.27305720000001,134.5782912
imu,255.774328,,,,,,,78.5289068,-23.1876068,134.4318048
imu,255.883642,,,,,,,78.5899428,-22.46738200000003,134.4318048
imu,255.985235,,,,,,,78.1382764,-23.19981400000002,134.505048
imu,256.086767,,,,,,,78.2603484,-22.61386840000002,134.32194
imu,256.18836,,,,,,,78.1382764,-22.29648120000001,134.4684264
