Type,Timestamp,Data Accelerometer X,Data Accelerometer Y,Data Accelerometer Z,Data Gyroscope X,Data Gyroscope Y,Data Gyroscope Z,Data Magnetometer X,Data Magnetometer Y,Data Magnetometer Z
imu,86.958155,-1.5707492528,-9.572837411200002,2.3824426024,1.48053565,1.53973345,-3.74312003,,,
imu,86.966623,-1.5647677248,-9.588389384000001,2.3962001168,1.26370526,1.46496435,-3.6459202,,,
imu,86.97509,-1.567160336,-9.593174606400002,2.396798269600001,1.0693056,1.34533379,-3.72816621,,,
imu,86.983557,-1.573141864,-9.5949690648,2.3973964224,0.79265993,1.24065705,-3.70573548,,,
imu,86.992025,-1.567160336,-9.592576453600001,2.4057705616,0.68050628,1.37524143,-3.59358183,,,
imu,87.000492,-1.5635714192,-9.582407856000001,2.4033779504,0.52349117,1.47991817,-3.66835093,,,
imu,87.008959,-1.5534028216,-9.573435564,2.4027797976,0.38142988,1.52477963,-3.52628964,,,
imu,87.017427,-1.5474212936,-9.555490980000002,2.3997890336,0.35152224,1.53973345,-3.496382,,,
imu,87.025894,-1.537252696,-9.551902063200002,2.4027797976,0.3963837,1.55468727,-3.68330475,,,
imu,87.034362,-1.537252696,-9.554892827200002,2.398592728,0.28423005,1.53973345,-3.77302767,,,
imu,87.042829,-1.5258877928,-9.541135312800002,2.4021816448,0.43376825,1.62945637,-3.72816621,,,
imu,87.051296,-1.5205044176,-9.539939007200001,2.4069668672,0.52349117,1.56216418,-3.75059694,,,
imu,87.059764,-1.5169155008,-9.548313146400002,2.40756502,0.68050628,1.50982581,-3.75807385,,,
imu,87.068231,-1.5199062648,-9.516012895200001,2.4153410064,0.64312173,1.49487199,-3.92256587,,,
imu,87.076698,-1.5139247368,-9.5172092008,2.4308929792,0.53844499,1.43505671,-4.02724261,,,
imu,87.085166,-1.5151210424,-9.5459205352,2.4386689656,0.53844499,1.2780416,-4.18425772,,,
imu,87.093633,-1.5264859456,-9.558481744000002,2.429696673600001,0.64312173,1.10607267,-4.33379592,,,
imu,87.1021,-1.5354582376,-9.551902063200002,2.429696673600001,0.56835263,1.0537343,-4.34874974,,,
imu,87.110568,-1.5480194464,-9.5184055064,2.431491132,0.49358353,0.9415806499999997,-4.48333412,,,
imu,87.119035,-1.5605806552,-9.520199964800002,2.4183317704,0.40386061,0.7696117199999999,-4.55062631,,,
imu,87.127502,-1.5743381696,-9.5154147424,2.4087613256,0.5010604399999999,0.78456554,-4.453426479999999,,,
imu,87.13597,-1.579123392,-9.4974701584,2.409957631200001,0.73284465,0.9041961000000001,-4.00481188,,,
imu,87.144437,-1.5886938368,-9.505844297600001,2.409957631200001,0.74779847,0.7696117199999999,-3.90761205,,,
imu,87.152905,-1.582114156,-9.517807353600002,2.4009853392,0.76275229,1.00139593,-3.59358183,,,
imu,87.161372,-1.582114156,-9.5219944232,2.4093594784,0.81509066,1.03878048,-3.496382,,,
imu,87.169839,-1.5719455584,-9.541135312800002,2.4123502424,1.0693056,1.09859576,-3.51133582,,,
imu,87.178307,-1.5743381696,-9.536948243200001,2.401583492,1.15902852,1.10607267,-3.69078166,,,
imu,87.186774,-1.5719455584,-9.536350090400001,2.3872278248,1.27865908,1.19579559,-3.84779677,,,
imu,87.195241,-1.5815160032,-9.553696521600001,2.389022283200001,1.21136689,1.1285034,-4.18425772,,,
imu,87.203709,-1.5809178504,-9.5357519376,2.383040755200001,1.24127453,1.19579559,-4.34874974,,,
imu,87.212176,-1.5833104616,-9.544126076800001,2.3824426024,1.368382,1.39767216,-4.386134289999999,,,
imu,87.220643,-1.5863012256,-9.540537160000001,2.371675852,1.39081273,1.39019525,-4.40108811,,,
imu,87.229111,-1.5803196976,-9.5447242296,2.374666616,1.49548947,1.42010289,-4.4683803,,,
imu,87.237578,-1.5779270864,-9.574631869600001,2.3788536856,1.41324346,1.31542615,-4.46090339,,,
imu,87.246045,-1.5827123088,-9.5985579816,2.3734703104,1.30856672,1.19579559,-4.29641137,,,
imu,87.254513,-1.5779270864,-9.5949690648,2.3752647688,0.9945364999999999,1.16588795,-4.19921154,,,
imu,87.26298,-1.5898901424,-9.592576453600001,2.3752647688,0.88985976,1.21074941,-4.21416536,,,
imu,87.271448,-1.5767307808,-9.602146898400001,2.37765738,0.6954601,1.28551851,-4.124442439999999,,,
imu,87.279921,-1.5779270864,-9.589585689600002,2.3728721576,0.5010604399999999,1.27056469,-4.10948862,,,
imu,87.288395,-1.5839086144,-9.573435564,2.37765738,0.35152224,1.22570323,-3.95995042,,,
imu,87.297006,-1.5898901424,-9.558481744000002,2.3680869352,0.14964567,1.06868812,-4.057150249999999,,,
imu,87.30548,-1.5958716704,-9.5459205352,2.3752647688,-0.0522309,1.11354958,-3.95247351,,,
imu,87.313953,-1.5988624344,-9.5381445488,2.3758629216,-0.07466163,1.26308778,-3.90761205,,,
imu,87.322427,-1.6036476568,-9.526779645600001,2.3770592272,-0.20924601,1.16588795,-4.0945348,,,
imu,87.330901,-1.6024513512,-9.52558334,2.3854333664,-0.11952309,1.24065705,-4.034719519999999,,,
imu,87.339375,-1.5952735176,-9.533359326400001,2.3979945752,-0.127,1.43505671,-4.012288789999999,,,
imu,87.347848,-1.5976661288,-9.530966715200002,2.395601964,0.08235347999999998,1.51730272,-3.78798149,,,
imu,87.356322,-1.5868993784,-9.543527924000001,2.4033779504,0.14964567,1.50982581,-3.77302767,,,
imu,87.364796,-1.5767307808,-9.551303910400001,2.4123502424,0.19450713,1.42010289,-3.8702275,,,
imu,87.373269,-1.5845067672,-9.541733465600002,2.419528076,0.12721494,1.51730272,-3.80293531,,,
imu,87.381743,-1.5886938368,-9.535153784800002,2.4213225344,0.15712258,1.71917929,-3.6459202,,,
imu,87.390217,-1.5809178504,-9.552500216,2.427304062400001,0.32909151,1.71170238,-3.7954584,,,
imu,87.398691,-1.5719455584,-9.551902063200002,2.427304062400001,0.20198404,1.53225654,-3.88518132,,,
imu,87.407164,-1.5725437112,-9.540537160000001,2.429696673600001,0.14216876,1.58459491,-3.84031986,,,
imu,87.415638,-1.5785252392,-9.550705757600001,2.4362763544,0.007584380000000002,1.52477963,-3.84779677,,,
imu,87.424112,-1.573141864,-9.568650341600001,2.4458467992,0.06739966,1.56964109,-3.90761205,,,
imu,87.432585,-1.5695529472,-9.560874355200001,2.4500338688,0.13469185,1.60702564,-4.00481188,,,
imu,87.441059,-1.5683566416,-9.547714993600001,2.45242648,0.07487657,1.66684092,-3.98238115,,,
imu,87.449533,-1.5563935856,-9.534555632000002,2.4518283272,-0.11204618,1.43505671,-4.17678081,,,
imu,87.458007,-1.5707492528,-9.524387034400002,2.45242648,0.0001074699999999984,1.50982581,-4.02724261,,,
imu,87.46648,-1.564169572,-9.5249851872,2.450632021600001,-0.01484635000000001,1.42010289,-4.21416536,,,
imu,87.474954,-1.5779270864,-9.519003659200001,2.4488375632,0.05244583999999999,1.44253362,-4.17678081,,,
imu,87.483405,-1.5749363224,-9.505246144800001,2.4596043136,0.01506129,1.38271834,-4.13939626,,,
imu,87.491856,-1.579123392,-9.503451686400002,2.4566135496,0.18703022,1.43505671,-3.95247351,,,
imu,87.500306,-1.576132628,-9.484908949600001,2.4542209384,0.11226112,1.49487199,-3.98238115,,,
imu,87.508757,-1.5785252392,-9.478329268800001,2.4482394104,0.20946095,1.3528107,-4.0197657,,,
imu,87.517208,-1.582114156,-9.4555994624,2.4500338688,0.6132140899999999,1.41262598,-3.82536604,,,
imu,87.525659,-1.5677584888,-9.456795768000001,2.4446504936,0.66555246,1.47991817,-3.83284295,,,
imu,87.53411,-1.5701511,-9.474740352000001,2.4482394104,0.76275229,1.38271834,-4.0197657,,,
imu,87.542561,-1.5725437112,-9.4735440464,2.4416597296,0.91229049,1.37524143,-4.04219643,,,
imu,87.551011,-1.5707492528,-9.475936657600002,2.4362763544,1.15902852,1.44253362,-4.04967334,,,
imu,87.559462,-1.5743381696,-9.5004609224,2.447043104800001,1.27118217,1.40514907,-4.16182699,,,
imu,87.567913,-1.5803196976,-9.5118258256,2.4416597296,1.28613599,1.40514907,-4.26650373,,,
imu,87.576364,-1.5863012256,-9.5237888816,2.446444952,1.28613599,1.2780416,-4.40108811,,,
imu,87.584815,-1.5845067672,-9.537546396000002,2.446444952,1.50296638,1.26308778,-4.32631901,,,
imu,87.593266,-1.5964698232,-9.554892827200002,2.4440523408,1.33847436,1.39019525,-4.15435008,,,
imu,87.601716,-1.5892919896,-9.567454036,2.45242648,1.22632071,1.34533379,-4.0945348,,,
imu,87.610167,-1.5946753648,-9.5907819952,2.4566135496,1.2188438,1.5023489,-4.00481188,,,
imu,87.618618,-1.5934790592,-9.595567217600001,2.446444952,0.9197674,1.38271834,-4.04219643,,,
imu,87.627069,-1.5904882952,-9.568052188800001,2.4536227856,0.78518302,1.42010289,-4.079580979999999,,,
imu,87.63552,-1.5833104616,-9.5590798968,2.462595077600001,0.63564482,1.30794924,-4.28893446,,,
imu,87.64397,-1.5922827536,-9.557285438400001,2.4566135496,0.5459219,1.31542615,-4.363703559999999,,,
imu,87.652421,-1.5994605872,-9.577024480800002,2.4566135496,0.27675314,1.28551851,-4.25902682,,,
imu,87.660872,-1.6078347264,-9.5698466472,2.4530246328,0.34404533,1.30794924,-4.22164227,,,
imu,87.669323,-1.620994088,-9.533957479200001,2.4590061608,0.27675314,1.30047233,-4.19173463,,,
imu,87.677774,-1.6191996296,-9.519601812000001,2.4452486464,0.29918387,1.31542615,-4.11696553,,,
imu,87.686599,-1.6144144072,-9.502853533600002,2.431491132,0.3739529699999999,1.23318014,-3.95247351,,,
imu,87.695424,-1.6102273376,-9.478927421600002,2.4320892848,0.64312173,1.36776452,-3.68330475,,,
imu,87.704248,-1.609031032,-9.461580990400002,2.4302948264,0.83004448,1.53973345,-3.33188998,,,
imu,87.713073,-1.5994605872,-9.459786532,2.4069668672,1.04687487,1.46496435,-3.24964397,,,
imu,87.721898,-1.5982642816,-9.464571754400001,2.4087613256,1.36090509,1.39019525,-3.32441307,,,
imu,87.730723,-1.5809178504,-9.478927421600002,2.4033779504,1.73475059,1.4275798,-3.43656672,,,
imu,87.739548,-1.588095684,-9.487899713600001,2.4093594784,1.97401171,1.4275798,-3.57862801,,,
imu,87.748373,-1.594077212,-9.4944793944,2.414144700800001,1.92915025,1.48739508,-3.70573548,,,
imu,87.757198,-1.5988624344,-9.51062952,2.406368714400001,1.89924261,1.42010289,-3.9449966,,,
imu,87.766023,-1.6078347264,-9.527975951200002,2.4033779504,2.07121154,1.47991817,-3.9449966,,,
imu,87.774848,-1.6108254904,-9.541733465600002,2.395601964,1.93662716,1.44253362,-4.0197657,,,
imu,87.783672,-1.6162088656,-9.5501076048,2.414144700800001,1.82447351,1.66684092,-3.84779677,,,
imu,87.792497,-1.6174051712,-9.568052188800001,2.4057705616,1.74970441,1.75656384,-3.81788913,,,
imu,87.801322,-1.6114236432,-9.571641105600001,2.4033779504,1.73475059,1.90610204,-3.74312003,,,
imu,87.810147,-1.6066384208,-9.591380148,2.4147428536,1.70484295,1.98087114,-3.61601256,,,
imu,87.818972,-1.6078347264,-9.592576453600001,2.4159391592,1.368382,1.86871749,-3.51881273,,,
imu,87.827797,-1.5994605872,-9.5907819952,2.413546548,1.12164397,1.99582496,-3.42908981,,,
imu,87.836622,-1.597067976,-9.594370912,2.420126228800001,0.8674290299999999,1.99582496,-3.51881273,,,
imu,87.845447,-1.597067976,-9.592576453600001,2.425509604,0.80761375,1.98087114,-3.60105874,,,
imu,87.854272,-1.5863012256,-9.588987536800001,2.4207243816,0.43376825,1.96591732,-3.72816621,,,
imu,87.863096,-1.5659640304,-9.5566872856,2.4350800488,0.3963837,1.93600968,-3.73564312,,,
imu,87.871921,-1.5713474056,-9.551902063200002,2.4308929792,0.4861066199999999,1.84628676,-3.95247351,,,
imu,87.880746,-1.561178808,-9.551303910400001,2.429696673600001,0.25432241,1.71917929,-4.034719519999999,,,
imu,87.889215,-1.5623751136,-9.52558334,2.4392671184,0.43376825,1.8014253,-4.0197657,,,
imu,87.897683,-1.561178808,-9.5237888816,2.4446504936,0.60573718,1.66684092,-3.96742733,,,
imu,87.906152,-1.5659640304,-9.530966715200002,2.4362763544,0.59078336,1.52477963,-3.86275059,,,
imu,87.914621,-1.5737400168,-9.516012895200001,2.4392671184,0.57582954,1.40514907,-3.90761205,,,
imu,87.923089,-1.5827123088,-9.486105255200002,2.4422578824,0.67302937,1.33037997,-3.77302767,,,
imu,87.931558,-1.5886938368,-9.498666464000001,2.4536227856,0.65807555,1.2780416,-3.73564312,,,
imu,87.940027,-1.5773289336,-9.519601812000001,2.4578098552,0.67302937,1.23318014,-3.69078166,,,
imu,87.948495,-1.6036476568,-9.540537160000001,2.4578098552,0.7552753799999999,1.16588795,-3.84779677,,,
imu,87.956964,-1.606040268,-9.5291722568,2.4590061608,0.74779847,1.06868812,-3.7954584,,,
imu,87.965432,-1.5964698232,-9.4843107968,2.4572117024,0.53844499,1.06121121,-3.85527368,,,
imu,87.973901,-1.626975616,-9.489694172,2.4566135496,0.620691,1.17336486,-3.87770441,,,
imu,87.98237,-1.6293682272,-9.491488630400001,2.446444952,0.67302937,1.18831868,-3.84779677,,,
imu,87.990838,-1.6293682272,-9.486703408,2.4512301744,0.73284465,1.45748744,-3.45899745,,,
imu,87.999307,-1.6281719216,-9.487899713600001,2.449435716,0.9646288599999999,1.65936401,-3.1225365,,,
imu,88.007776,-1.6126199488,-9.481918185600001,2.45242648,1.0693056,1.88367131,-3.17487487,,,
imu,88.016244,-1.6012550456,-9.495675700000001,2.4482394104,1.15155161,2.14536316,-2.98047521,,,
imu,88.024713,-1.58510492,-9.5148165896,2.45242648,1.38333582,2.22013226,-3.06272122,,,
imu,88.033182,-1.5833104616,-9.516012895200001,2.443454188,1.55530475,2.35471664,-3.18982869,,,
imu,88.04165,-1.5653658776,-9.511227672800002,2.4290985208,1.79456587,2.42200883,-3.36179762,,,
imu,88.050119,-1.5557954328,-9.5154147424,2.4243132984,1.93662716,2.30985518,-3.60853565,,,
imu,88.058587,-1.5468231408,-9.5327611736,2.4231169928,1.9665348,2.21265535,-3.89265823,,,
imu,88.067056,-1.5360563904,-9.5237888816,2.4189299232,2.116073,2.19770153,-4.0197657,,,
imu,88.075525,-1.5384490016,-9.527377798400002,2.416537312,2.16093446,2.06311715,-4.06462716,,,
imu,88.083993,-1.5324674736,-9.5393408544,2.4021816448,2.13102682,1.92105586,-4.08705789,,,
imu,88.092504,-1.531271168,-9.559678049600002,2.4069668672,2.13102682,1.78647148,-3.98985806,,,
imu,88.101014,-1.5545991272,-9.573435564,2.4057705616,1.91419643,1.51730272,-4.08705789,,,
imu,88.109525,-1.5605806552,-9.585996772800002,2.4093594784,1.78708896,1.46496435,-3.83284295,,,
imu,88.118036,-1.558188044,-9.573435564,2.410555784,1.67493531,1.28551851,-3.78798149,,,
imu,88.126546,-1.5701511,-9.568650341600001,2.3944056584,1.48801256,1.04625739,-3.84779677,,,
imu,88.135057,-1.5833104616,-9.574631869600001,2.4003871864,1.35342818,1.00887284,-3.87770441,,,
imu,88.143567,-1.5916846008,-9.558481744000002,2.3824426024,1.12164397,1.03130357,-3.8702275,,,
imu,88.152078,-1.597067976,-9.536350090400001,2.3854333664,0.9197674,0.8144731799999998,-4.04967334,,,
imu,88.160589,-1.609031032,-9.535153784800002,2.3782555328,0.9870595899999999,0.92662683,-3.88518132,,,
imu,88.169099,-1.6102273376,-9.5489112992,2.383040755200001,1.15902852,0.9640113799999996,-3.81041222,,,
imu,88.17761,-1.6084328792,-9.539939007200001,2.3800499912,1.16650543,1.19579559,-3.84031986,,,
imu,88.18612,-1.609031032,-9.552500216,2.3902185888,1.13659779,1.22570323,-3.83284295,,,
imu,88.194631,-1.606040268,-9.554294674400001,2.379451838400001,1.12912088,1.38271834,-3.85527368,,,
imu,88.203142,-1.6108254904,-9.553696521600001,2.4009853392,1.00201341,1.45001053,-3.66087402,,,
imu,88.211652,-1.6144144072,-9.5632669664,2.4021816448,0.97958268,1.63693328,-3.61601256,,,
imu,88.220163,-1.6072365736,-9.5602762024,2.4069668672,0.85995212,1.68179474,-3.65339711,,,
imu,88.228673,-1.5934790592,-9.559678049600002,2.3979945752,0.8823828499999999,1.6518871,-3.59358183,,,
imu,88.237184,-1.5934790592,-9.560874355200001,2.3932093528,0.8524752099999999,1.88367131,-3.59358183,,,
imu,88.245694,-1.5928809064,-9.547714993600001,2.4039761032,0.82256757,1.98834805,-3.59358183,,,
imu,86.958551,,,,,,,71.55859559999999,0.4333251999999899,8.929581599999992
imu,87.060113,,,,,,,72.05909079999999,0.4577395999999956,8.502329599999992
imu,87.161706,,,,,,,71.4853524,0.1891811999999771,9.039446399999996
imu,87.263238,,,,,,,71.96143319999999,0.3967035999999924,9.051653599999998
imu,87.364801,,,,,,,72.08350519999999,0.3722891999999867,8.892959999999995
imu,87.466394,,,,,,,72.2177844,-0.0305484000000078,8.661023199999995
imu,88.254205,-1.5833104616,-9.552500216,2.406368714400001,0.80761375,1.89862513,-3.81041222,,,
imu,88.262716,-1.5785252392,-9.5429297712,2.3973964224,0.9347212199999999,2.01077878,-3.73564312,,,
imu,88.271226,-1.573141864,-9.541733465600002,2.3997890336,0.85995212,2.00330187,-3.8702275,,,
imu,88.279737,-1.5749363224,-9.547714993600001,2.4093594784,0.71789083,1.91357895,-3.90761205,,,
imu,88.288247,-1.5743381696,-9.554892827200002,2.401583492,0.66555246,1.92853277,-3.67582784,,,
imu,88.296759,-1.5599825024,-9.5327611736,2.4093594784,0.620691,1.96591732,-3.55619728,,,
imu,88.305271,-1.5689547944,-9.552500216,2.409957631200001,0.3739529699999999,1.70422547,-3.81788913,,,
imu,88.313783,-1.5695529472,-9.556089132800002,2.4069668672,0.44124516,1.70422547,-3.75059694,,,
imu,88.322295,-1.5689547944,-9.534555632000002,2.4129483952,0.3963837,1.73413311,-3.65339711,,,
imu,88.330807,-1.576132628,-9.536350090400001,2.410555784,0.3739529699999999,1.83133294,-3.56367419,,,
imu,88.339319,-1.5755344752,-9.529770409600001,2.4171354648,0.36647606,1.84628676,-3.46647436,,,
imu,88.34783,-1.579123392,-9.505246144800001,2.4177336176,0.36647606,1.83880985,-3.56367419,,,
imu,88.356342,-1.5773289336,-9.502853533600002,2.4183317704,0.56087572,1.83133294,-3.51881273,,,
imu,88.364854,-1.5701511,-9.4974701584,2.4153410064,0.65059864,1.76404075,-3.53376655,,,
imu,88.373366,-1.5647677248,-9.519003659200001,2.42251884,0.85995212,1.84628676,-3.60105874,,,
imu,88.381878,-1.5749363224,-9.519003659200001,2.4243132984,1.00201341,1.85376367,-3.80293531,,,
imu,88.390338,-1.5665621832,-9.5237888816,2.431491132,1.18893616,1.80890221,-3.78050458,,,
imu,88.398849,-1.5767307808,-9.5327611736,2.4308929792,1.1440747,1.70422547,-3.8702275,,,
imu,88.407361,-1.5964698232,-9.557883591200001,2.434481896,1.07678251,1.59954873,-3.98985806,,,
imu,88.415873,-1.5976661288,-9.568650341600001,2.428500368,1.01696723,1.74161002,-3.95995042,,,
imu,88.424385,-1.6042458096,-9.548313146400002,2.420126228800001,1.0693056,1.82385603,-3.77302767,,,
imu,88.432897,-1.6251811576,-9.562070660800002,2.4302948264,0.97210577,1.89114822,-3.69825857,,,
imu,88.441409,-1.6245830048,-9.568650341600001,2.4332855904,0.8973366700000001,1.95844041,-3.55619728,,,
imu,88.449921,-1.635947908,-9.589585689600002,2.4356782016,0.79265993,1.98834805,-3.45152054,,,
imu,88.458432,-1.6562851032,-9.5812115504,2.4356782016,0.80013684,2.24256299,-3.56367419,,,
imu,88.466944,-1.6784167568,-9.5812115504,2.450632021600001,0.7104139199999999,2.42200883,-3.66835093,,,
imu,88.475456,-1.7196893,-9.610521037600002,2.455417244,0.41133752,2.87062343,-3.51133582,,,
imu,88.483968,-1.800439928,-9.661962178400001,2.481137814400001,0.05244583999999999,3.2220382,-3.53376655,,,
imu,88.49248,-1.8698256528,-9.673925234400002,2.4775488976,-0.38121494,3.97720611,-3.5711511,,,
imu,88.500863,-1.9607448784,-9.647606511200001,2.469772911200001,-0.79244499,5.001542779999999,-3.44404363,,,
imu,88.509247,-2.048673340000001,-9.597959828800002,2.4488375632,-1.12142903,6.272617479999999,-3.41413599,,,
imu,88.51763,-2.1037033976,-9.5447242296,2.4261077568,-1.3980747,7.98482987,-3.40665908,,,
imu,88.526014,-2.117460912,-9.478329268800001,2.4219206872,-1.23358268,9.869011189999998,-3.5711511,,,
imu,88.534397,-2.1037033976,-9.453805004000001,2.4021816448,-0.9793677399999999,11.77562324,-3.496382,,,
imu,88.54278,-2.0708049936,-9.420906600000002,2.401583492,-0.70272207,13.89158877,-3.33936689,,,
imu,88.551164,-2.0259435336,-9.405952780000002,2.4027797976,-0.36626112,15.7084779,-3.42908981,,,
imu,88.559547,-1.9272483216,-9.426289975200001,2.4183317704,0.16459949,17.48798248,-3.2720747,,,
imu,88.567931,-1.9027240568,-9.406550932800002,2.3920130472,0.51601426,19.03570285,-2.92065993,,,
imu,88.576314,-1.8088140672,-9.351520875200002,2.3938075056,1.0693056,20.36659283,-2.47204533,,,
imu,88.584698,-1.7358394256,-9.393989724,2.410555784,1.45062801,21.05446855,-2.32998404,,,
imu,88.593081,-1.7071280912,-9.422701058400001,2.413546548,2.01139626,21.42831405,-2.71878336,,,
imu,88.601464,-1.653892492,-9.456197615200002,2.4231169928,2.25813429,21.75729809,-3.03281358,,,
imu,88.609848,-1.6084328792,-9.467562518400001,2.42251884,2.51982614,21.89188247,-2.96552139,,,
imu,88.618231,-1.5504120576,-9.491488630400001,2.4362763544,2.55721069,21.96665157,-3.13749032,,,
imu,88.626615,-1.5025598336,-9.5154147424,2.4482394104,2.84881018,22.04889758,-3.1225365,,,
imu,88.634998,-1.426594428,-9.5656595776,2.4667821472,2.57216451,21.84702101,-2.96552139,,,
imu,88.643382,-1.3590031616,-9.594370912,2.455417244,2.48244159,21.56289843,-2.74121409,,,
imu,88.651765,-1.2902155896,-9.609922884800001,2.4596043136,2.28804193,20.88997653,-2.8234601,,,
imu,88.660149,-1.2315966152,-9.604539509600002,2.4685766056,1.90671952,20.0450857,-2.71130645,,,
imu,88.668532,-1.1891277664,-9.596763523200002,2.471567369600001,1.80204278,19.30487161,-2.38979932,,,
imu,88.676915,-1.1586219736,-9.596165370400001,2.473361828,1.63007385,18.1758582,-2.30755331,,,
imu,88.685299,-1.1215365,-9.6039413568,2.4799415088,1.30108981,17.13656771,-2.1505382,,,
imu,88.693682,-1.0844510264,-9.5949690648,2.483530425600001,0.97958268,15.8580161,-1.97856927,,,
imu,88.702552,-1.0563378448,-9.5877912312,2.488315648,0.94219813,14.71404887,-1.65706214,,,
imu,88.711422,-1.0342061912,-9.5865949256,2.4757544392,0.76275229,13.3906358,-1.51500085,,,
imu,88.720292,-1.0365988024,-9.573435564,2.488315648,0.78518302,11.9700229,-1.36546265,,,
imu,88.729162,-1.028822816,-9.569248494400002,2.4966897872,0.88985976,10.75128657,-1.08881698,,,
imu,88.738032,-1.0222431352,-9.568052188800001,2.5050639264,0.80761375,9.5026426,-1.03647861,,,
imu,88.746902,-1.03181358,-9.541733465600002,2.4996805512,0.71789083,8.36615228,-1.07386316,,,
imu,88.755772,-1.0354024968,-9.527377798400002,2.512839912800001,0.7403215599999999,7.45396926,-0.8121713099999999,,,
imu,88.764642,-1.0336080384,-9.526779645600001,2.518223288000001,0.7702292,6.2875713,-0.77478676,,,
imu,88.773512,-1.0683009008,-9.5447242296,2.524204816,0.77770611,5.27818845,-0.9243249599999999,,,
imu,88.782382,-1.088638096,-9.553696521600001,2.5236066632,0.80013684,4.4183438,-1.05143243,,,
imu,88.791252,-1.1071808328,-9.533957479200001,2.5373641776,0.79265993,3.76037572,-1.0290017,,,
imu,88.800122,-1.1317050976,-9.504647992000002,2.52719558,0.82256757,3.16222292,-1.20844754,,,
imu,88.808992,-1.1640053488,-9.5040498392,2.520615899200001,0.8823828499999999,2.69117759,-1.27573973,,,
imu,88.817862,-1.16639796,-9.512423978400001,2.5218122048,0.9272443100000001,2.49677793,-1.29817046,,,
imu,88.826732,-1.1777628632,-9.502853533600002,2.5110454544,0.9945364999999999,2.1752708,-1.20844754,,,
imu,88.835602,-1.1891277664,-9.51062952,2.522410357600001,1.1440747,2.09302479,-1.14863226,,,
imu,88.844472,-1.1921185304,-9.502255380800001,2.5164288296,1.13659779,2.01825569,-1.26826282,,,
imu,88.853342,-1.1819499328,-9.507040603200002,2.508652843200001,1.2936129,2.11545552,-1.31312428,,,
imu,88.862212,-1.1765665576,-9.524387034400002,2.5146343712,1.47305874,2.19770153,-1.50752394,,,
imu,88.871082,-1.1669961128,-9.533957479200001,2.504465773600001,1.67493531,2.10797861,-1.61220068,,,
imu,88.879952,-1.15144414,-9.535153784800002,2.4931008704,1.89924261,2.03320951,-2.001,,,
imu,88.888822,-1.1358921672,-9.541733465600002,2.509250996,2.05625772,1.90610204,-2.35241477,,,
imu,88.897692,-1.1269198752,-9.5423316184,2.4901101064,1.90671952,1.74161002,-2.69635263,,,
imu,88.906111,-1.124527264,-9.552500216,2.4847267312,2.04878081,1.34533379,-3.16739796,,,
imu,88.91453,-1.1221346528,-9.556089132800002,2.476352592,2.31794957,1.06868812,-3.36927453,,,
imu,88.922949,-1.1137605136,-9.5602762024,2.4799415088,2.2656112,0.8294269999999999,-3.5711511,,,
imu,88.931368,-1.1281161808,-9.5800152448,2.4781470504,2.20579592,0.4032431299999999,-3.80293531,,,
imu,88.939787,-1.1436681536,-9.595567217600001,2.4781470504,2.28804193,0.21632038,-3.88518132,,,
imu,88.948206,-1.1382847784,-9.599156134400001,2.4799415088,2.13850373,-0.1799558500000003,-3.98238115,,,
imu,88.956626,-1.1460607648,-9.611119190400002,2.4859230368,2.01139626,-0.5612782599999999,-3.98985806,,,
imu,88.965045,-1.1556312096,-9.6087265792,2.4769507448,1.76465823,-0.9276468500000004,-4.07210407,,,
imu,88.973464,-1.1598182792,-9.576426328,2.4596043136,1.57773548,-1.36130763,-4.10948862,,,
imu,88.981883,-1.1789591688,-9.577024480800002,2.4572117024,1.60764312,-1.62299948,-4.057150249999999,,,
imu,88.990302,-1.1867351552,-9.577024480800002,2.4530246328,1.54782784,-2.10152172,-3.98238115,,,
imu,88.998721,-1.1891277664,-9.561472508000001,2.454819091200001,1.39828964,-2.31835211,-3.95995042,,,
imu,89.00714,-1.2064741976,-9.562070660800002,2.45242648,1.30108981,-2.55761323,-3.9449966,,,
imu,89.015559,-1.2214280176,-9.566257730400002,2.447043104800001,1.26370526,-2.90155109,-3.82536604,,,
imu,89.023978,-1.2315966152,-9.5668558832,2.4518283272,1.28613599,-3.1333353,-3.71321239,,,
imu,89.032397,-1.2519338104,-9.569248494400002,2.4440523408,1.30856672,-3.38007333,-3.75807385,,,
imu,89.040816,-1.2357836848,-9.5812115504,2.446444952,1.30108981,-3.47727316,-3.6459202,,,
imu,89.049235,-1.2178391008,-9.5776226336,2.443454188,1.06182869,-3.64176518,-3.59358183,,,
imu,89.057654,-1.2106612672,-9.578220786400001,2.4428560352,1.00201341,-3.86607248,-3.61601256,,,
imu,89.066073,-1.2118575728,-9.591380148,2.4428560352,1.16650543,-4.12776433,-3.53376655,,,
imu,87.56788,,,,,,,72.6938652,0.6774691999999805,8.83192399999999
imu,87.669443,,,,,,,71.1313436,0.3478747999999809,8.929581599999992
imu,87.771036,,,,,,,73.8047204,-0.4089716000000188,6.353862399999999
imu,87.87269,,,,,,,71.460938,0.6286403999999912,9.369040799999995
imu,87.974466,,,,,,,74.24417960000001,-0.3113140000000181,6.536970399999998
imu,88.075693,,,,,,,72.05909079999999,0.6164331999999773,8.709851999999996
imu,88.177255,,,,,,,71.6318388,0.2990459999999917,8.599987199999992
imu,88.278818,,,,,,,71.827154,0.1403523999999878,8.538951199999989
imu,89.074492,-1.2040815864,-9.603343204000002,2.434481896,0.9571519499999999,-4.46422528,-3.73564312,,,
imu,89.082911,-1.2016889752,-9.602146898400001,2.4320892848,0.77770611,-4.86050151,-3.7206893,,,
imu,89.09133,-1.217240948,-9.596763523200002,2.4422578824,0.8749059399999999,-5.249300829999999,-3.73564312,,,
imu,89.099749,-1.229204004,-9.597361676,2.4398652712,0.78518302,-5.54837723,-3.82536604,,,
imu,89.108327,-1.2447559768,-9.599156134400001,2.4422578824,0.60573718,-5.74277689,-3.88518132,,,
imu,89.116905,-1.2513356576,-9.6117173432,2.4320892848,0.44872207,-6.11662239,-3.96742733,,,
imu,89.125483,-1.2638968664,-9.6117173432,2.4320892848,0.16459949,-6.325975870000001,-4.124442439999999,,,
imu,89.134061,-1.297991576,-9.6009505928,2.4446504936,0.08235347999999998,-6.35588351,-4.146873169999999,,,
imu,89.142639,-1.3165343128,-9.617100718400001,2.4452486464,-0.18681528,-6.430652609999999,-4.25154991,,,
imu,89.151217,-1.3302918272,-9.604539509600002,2.449435716,-0.31392275,-6.385791149999999,-4.22164227,,,
imu,89.159795,-1.3410585776,-9.5985579816,2.45242648,-0.4260764,-6.258683680000001,-4.22911918,,,
imu,89.168373,-1.3619939256,-9.602745051200001,2.4530246328,-0.70272207,-6.019422560000001,-4.244073,,,
imu,89.176951,-1.3530216336,-9.591978300800001,2.450632021600001,-0.84478336,-5.80259217,-4.31136519,,,
imu,89.185529,-1.3506290224,-9.577024480800002,2.4542209384,-0.9793677399999999,-5.72034616,-4.53567249,,,
imu,89.194107,-1.363788384,-9.5842023144,2.447043104800001,-0.9943215599999999,-5.428746670000001,-4.65530305,,,
imu,89.202685,-1.3799385096,-9.567454036,2.449435716,-1.00927538,-5.249300829999999,-4.670256869999999,,,
imu,89.211263,-1.3924997184,-9.554892827200002,2.4488375632,-1.0989983,-4.987608979999999,-4.86465653,,,
imu,89.219841,-1.3972849408,-9.5393408544,2.441061576800001,-0.874691,-4.64367112,-4.78988743,,,
imu,89.228419,-1.4014720104,-9.536948243200001,2.4428560352,-0.77749117,-4.43431764,-4.85717962,,,
imu,89.236997,-1.4020701632,-9.531564868,2.45242648,-0.7401066199999999,-4.26234871,-4.96185636,,,
imu,89.245575,-1.4110424552,-9.522592576000001,2.454819091200001,-0.64290679,-4.18757961,-5.12634838,,,
imu,89.254153,-1.4152295248,-9.526181492800001,2.4542209384,-0.68029134,-3.92588776,-5.500193879999999,,,
imu,89.262731,-1.426594428,-9.555490980000002,2.4536227856,-0.55318387,-3.82121102,-5.49271697,,,
imu,89.271309,-1.4289870392,-9.534555632000002,2.4530246328,-0.46346095,-3.49222698,-5.58243989,,,
imu,89.279887,-1.444539012,-9.538742701600002,2.470371064,-0.49336859,-3.43988861,-5.67963972,,,
imu,89.288465,-1.4397537896,-9.559678049600002,2.476352592,-0.37373803,-3.04361238,-5.477763149999999,,,
imu,89.297043,-1.4457353176,-9.5776226336,2.471567369600001,-0.6279529699999999,-3.14081221,-5.50767079,,,
imu,89.305621,-1.4511186928,-9.5740337168,2.4775488976,-0.54570696,-2.82678199,-5.47028624,,,
imu,89.313962,-1.4588946792,-9.5429297712,2.494297176,-0.74758353,-2.6847207,-5.49271697,,,
imu,89.322304,-1.4648762072,-9.550705757600001,2.5050639264,-0.77749117,-2.47536722,-5.55253225,,,
imu,89.330645,-1.4726521936,-9.572837411200002,2.5116436072,-0.88964482,-2.43798267,-5.567486069999999,,,
imu,89.338987,-1.4929893888,-9.591978300800001,2.518223288000001,-1.07656757,-2.2361061,-5.50767079,,,
imu,89.347328,-1.4888023192,-9.580613397600002,2.5259992744,-1.15133667,-2.04918335,-5.42542478,,,
imu,89.35567,-1.5049524448,-9.557883591200001,2.522410357600001,-1.23358268,-1.94450661,-5.260932759999999,,,
imu,89.364011,-1.5031579864,-9.530368562400001,2.5104473016,-1.19619813,-1.72767622,-5.11139456,,,
imu,89.372352,-1.5019616808,-9.517807353600002,2.506858384800001,-1.28592105,-1.63047639,-4.89456417,,,
imu,89.380694,-1.4995690696,-9.4944793944,2.5038676208,-1.14385976,-1.570661110000001,-4.6179185,,,
imu,89.389035,-1.507345056,-9.4980683112,2.512839912800001,-0.92702937,-1.32392308,-4.363703559999999,,,
imu,89.397377,-1.4882041664,-9.492684936000002,2.4996805512,-0.76253735,-1.18186179,-4.17678081,,,
imu,89.405718,-1.4720540408,-9.482516338400002,2.509250996,-0.5980453299999999,-1.00989286,-4.00481188,,,
imu,89.41406,-1.4798300272,-9.48072188,2.5074565376,-0.41112258,-0.9725083100000003,-3.95247351,,,
imu,89.422401,-1.4762411104,-9.479525574400002,2.5026713152,-0.23167674,-1.00989286,-4.02724261,,,
imu,89.430743,-1.4768392632,-9.461580990400002,2.5140362184,0.05244583999999999,-1.0398005,-4.079580979999999,,,
imu,89.439084,-1.4810263328,-9.450216087200001,2.5134380656,-0.02232326000000001,-1.01736977,-4.19921154,,,
imu,89.447426,-1.4935875416,-9.450814240000001,2.5164288296,0.20946095,-0.9949390400000002,-4.21416536,,,
imu,89.455767,-1.5031579864,-9.468758824,2.5200177464,0.43376825,-0.9276468500000004,-4.19921154,,,
imu,89.464109,-1.4959801528,-9.4831144912,2.5158306768,0.4711528,-0.7855855599999999,-4.124442439999999,,,
imu,89.47245,-1.51033582,-9.4980683112,2.515232524,0.67302937,-0.65847809,-4.034719519999999,,,
imu,89.480715,-1.5061487504,-9.486703408,2.5170269824,0.67302937,-0.5911859000000002,-3.93751969,,,
imu,89.489056,-1.5169155008,-9.514218436800002,2.5283918856,0.68798319,-0.4416477000000003,-3.84031986,,,
imu,89.497398,-1.5001672224,-9.526181492800001,2.543345705600001,0.7253677399999999,-0.3444478700000002,-3.55619728,,,
imu,89.505739,-1.5079432088,-9.5184055064,2.5397567888,0.66555246,-0.1650020300000001,-3.41413599,,,
imu,89.514211,-1.4905967776,-9.5501076048,2.5523179976,0.56087572,-0.03789456000000024,-3.38422835,,,
imu,89.522682,-1.4846152496,-9.553098368800002,2.560093984,0.53844499,0.1714589200000001,-3.3468438,,,
imu,89.531153,-1.4810263328,-9.5602762024,2.5696644288,0.46367589,0.2910894799999997,-3.24964397,,,
imu,89.539624,-1.4756429576,-9.564463272000001,2.5702625816,0.3739529699999999,0.3434278499999999,-3.17487487,,,
imu,89.548095,-1.459492832,-9.520199964800002,2.5565050672,0.36647606,0.52287369,-3.18982869,,,
imu,89.556566,-1.468465124,-9.5184055064,2.566075512,0.3889067899999999,0.6948426199999997,-3.3468438,,,
imu,89.565038,-1.4588946792,-9.531564868,2.5702625816,0.42629134,0.84438082,-3.44404363,,,
imu,89.573509,-1.4451371648,-9.520199964800002,2.5654773592,0.47862971,1.01634975,-3.48142818,,,
imu,89.58198,-1.4451371648,-9.5148165896,2.5582995256,0.43376825,1.09859576,-3.52628964,,,
imu,89.590451,-1.4379593312,-9.483712644000002,2.552916150400001,0.45619898,1.21074941,-3.47395127,,,
imu,89.598922,-1.438557484,-9.471151435200001,2.552916150400001,0.6281679099999999,1.24813396,-3.43656672,,,
imu,89.607393,-1.4200147472,-9.492086783200001,2.566673664800001,0.7702292,1.36028761,-3.40665908,,,
imu,89.615865,-1.4164258304,-9.4962738528,2.569066276,0.9197674,1.40514907,-3.44404363,,,
imu,89.624336,-1.4301833448,-9.4974701584,2.5732533456,0.97958268,1.44253362,-3.59358183,,,
imu,89.632807,-1.4230055112,-9.512423978400001,2.564879206400001,1.00201341,1.36776452,-3.68330475,,,
imu,89.641278,-1.417622136,-9.4908904776,2.5636829008,1.02444414,1.36776452,-3.72816621,,,
imu,89.649749,-1.4367630256,-9.470553282400001,2.552916150400001,1.08425942,1.38271834,-3.78798149,,,
imu,89.658221,-1.4451371648,-9.489694172,2.5379623304,1.24127453,1.41262598,-3.60105874,,,
imu,89.666692,-1.4379593312,-9.493283088800002,2.530186344,1.13659779,1.5023489,-3.45899745,,,
imu,89.675163,-1.4367630256,-9.484908949600001,2.527793732800001,1.30856672,1.51730272,-3.36179762,,,
imu,89.683634,-1.426594428,-9.4873015608,2.525401121600001,1.39828964,1.59207182,-3.24216706,,,
imu,89.692105,-1.417622136,-9.5082369088,2.524204816,1.60016621,1.59207182,-3.11505959,,,
imu,89.700576,-1.4038646216,-9.519003659200001,2.518223288000001,1.71231986,1.58459491,-3.18982869,,,
imu,89.709048,-1.3919015656,-9.527975951200002,2.5146343712,1.86933497,1.55468727,-3.36927453,,,
imu,89.71787,-1.3901071072,-9.553696521600001,2.5056620792,2.03382699,1.37524143,-3.44404363,,,
imu,89.726692,-1.3930978712,-9.534555632000002,2.4960916344,2.13850373,1.21822632,-3.51881273,,,
imu,89.735514,-1.3835274264,-9.5381445488,2.497287940000001,2.07121154,1.21074941,-3.8702275,,,
imu,89.744336,-1.3930978712,-9.539939007200001,2.4901101064,2.18336519,0.9939190199999999,-4.07210407,,,
imu,89.753159,-1.4008738576,-9.552500216,2.4865211896,2.06373463,0.8892422799999999,-4.30388828,,,
imu,89.761981,-1.4020701632,-9.540537160000001,2.471567369600001,2.00391935,0.70231953,-4.244073,,,
imu,89.770803,-1.411640608,-9.554892827200002,2.483530425600001,2.06373463,0.6798887999999996,-4.21416536,,,
imu,89.779625,-1.4247999696,-9.5740337168,2.4769507448,1.90671952,0.6574580699999997,-4.124442439999999,,,
imu,89.788448,-1.4349685672,-9.578818939200001,2.4775488976,1.71979677,0.7546578999999998,-4.13191935,,,
imu,89.79727,-1.4367630256,-9.5907819952,2.4751562864,1.61512003,0.7322271699999998,-4.0197657,,,
imu,89.806092,-1.4457353176,-9.580613397600002,2.4799415088,1.45810492,0.6873657099999999,-4.0197657,,,
imu,89.814914,-1.4523149984,-9.580613397600002,2.464389536000001,1.33099745,0.6350273399999997,-4.06462716,,,
imu,89.823737,-1.4439408592,-9.572837411200002,2.4649876888,1.23379762,0.7097964399999999,-4.012288789999999,,,
imu,89.832559,-1.4571002208,-9.582407856000001,2.4572117024,0.9646288599999999,0.7172733499999997,-4.124442439999999,,,
imu,89.841381,-1.4618854432,-9.573435564,2.461398772,0.9347212199999999,0.7770886299999997,-4.146873169999999,,,
imu,89.850203,-1.4768392632,-9.5590798968,2.461398772,0.94967504,0.7322271699999998,-4.124442439999999,,,
imu,89.859025,-1.4732503464,-9.561472508000001,2.4691747584,0.9048135799999999,0.78456554,-4.11696553,,,
imu,89.867848,-1.4666706656,-9.5602762024,2.470371064,0.77770611,0.9714882899999999,-4.06462716,,,
imu,89.87667,-1.4660725128,-9.555490980000002,2.4751562864,0.4861066199999999,0.9714882899999999,-3.96742733,,,
imu,89.885492,-1.4750448048,-9.5656595776,2.470371064,0.59078336,1.18084177,-3.86275059,,,
imu,88.380411,,,,,,,72.32764920000001,0.4577395999999956,8.172735199999991
imu,88.482034,,,,,,,72.36427080000001,0.4333251999999899,8.91737439999999
imu,88.583536,,,,,,,72.1079196,0.5553971999999963,7.354852799999989
imu,88.685312,,,,,,,70.28904680000001,0.9582347999999907,8.075077599999991
imu,88.78663,,,,,,,72.5717932,0.006073199999989676,5.316250399999989
imu,88.888223,,,,,,,69.874002,1.043685199999977,7.782104799999989
imu,88.989786,,,,,,,72.32764920000001,0.006073199999989676,4.681475999999996
imu,89.09147,,,,,,,70.28904680000001,0.9582347999999907,6.939807999999992
imu,89.894314,-1.4559039152,-9.571042952800001,2.4799415088,0.5982602699999999,1.15093413,-3.71321239,,,
imu,89.903137,-1.4559039152,-9.5590798968,2.4709692168,0.43376825,1.2032725,-3.73564312,,,
imu,89.911959,-1.4487260816,-9.550705757600001,2.473959980800001,0.43376825,1.2780416,-3.75807385,,,
imu,89.92043,-1.45052054,-9.553696521600001,2.470371064,0.38142988,1.24813396,-3.87770441,,,
imu,89.928901,-1.4553057624,-9.553098368800002,2.4907082592,0.3739529699999999,1.40514907,-3.85527368,,,
imu,89.937372,-1.4571002208,-9.565061424800001,2.5020731624,0.35152224,1.40514907,-3.96742733,,,
imu,89.945844,-1.4451371648,-9.5602762024,2.497287940000001,0.29170696,1.56964109,-3.99733497,,,
imu,89.954315,-1.4481279288,-9.5459205352,2.5104473016,0.14216876,1.55468727,-4.04219643,,,
imu,89.962786,-1.453511304,-9.5291722568,2.51224176,0.26927623,1.53225654,-4.057150249999999,,,
imu,89.971257,-1.4409500952,-9.5357519376,2.5146343712,0.36647606,1.59207182,-3.87770441,,,
imu,89.979728,-1.4397537896,-9.528574104,2.5194195936,0.23936859,1.577118,-3.93004278,,,
imu,89.988199,-1.4469316232,-9.557285438400001,2.545738316800001,0.14216876,1.59954873,-3.85527368,,,
imu,89.996671,-1.4499223872,-9.495675700000001,2.5110454544,0.05244583999999999,1.61450255,-3.83284295,,,
imu,90.005142,-1.4433427064,-9.479525574400002,2.5230085104,0.20198404,1.69674856,-3.86275059,,,
imu,90.013613,-1.4367630256,-9.5010590752,2.5170269824,0.23936859,1.62945637,-3.86275059,,,
imu,90.022084,-1.4343704144,-9.481918185600001,2.5200177464,0.26179932,1.63693328,-3.80293531,,,
imu,90.030555,-1.4289870392,-9.477132963200003,2.5283918856,0.5010604399999999,1.56216418,-3.6459202,,,
imu,90.039026,-1.4313796504,-9.489096019200002,2.518223288000001,0.76275229,1.6518871,-3.66835093,,,
imu,90.047498,-1.4164258304,-9.488497866400001,2.530186344,0.85995212,1.74908693,-3.63844329,,,
imu,90.055969,-1.4301833448,-9.505844297600001,2.5367660248,1.06182869,1.67431783,-3.80293531,,,
imu,90.06444,-1.4283888864,-9.519601812000001,2.539158636000001,0.9048135799999999,1.45001053,-4.10948862,,,
imu,90.072911,-1.4247999696,-9.5291722568,2.5463364696,1.03939796,1.45748744,-4.16182699,,,
imu,90.081382,-1.426594428,-9.528574104,2.5427475528,1.02444414,1.39019525,-4.28893446,,,
imu,90.089854,-1.4200147472,-9.5291722568,2.536167872,1.05435178,1.39767216,-4.17678081,,,
imu,90.098325,-1.4277907336,-9.511227672800002,2.529588191200001,0.94967504,1.36028761,-4.25154991,,,
imu,90.106796,-1.4343704144,-9.522592576000001,2.5373641776,1.02444414,1.3528107,-4.13939626,,,
imu,90.115267,-1.4427445536,-9.538742701600002,2.529588191200001,0.97210577,1.23318014,-4.06462716,,,
imu,90.123739,-1.4403519424,-9.562070660800002,2.5373641776,1.06182869,1.24813396,-3.93004278,,,
imu,90.132212,-1.4409500952,-9.532163020800002,2.529588191200001,1.00201341,1.24813396,-3.89265823,,,
imu,90.140684,-1.4391556368,-9.5213962704,2.541551247200001,1.09921324,1.28551851,-3.91508896,,,
imu,90.149157,-1.4481279288,-9.536948243200001,2.545140164,1.02444414,1.10607267,-4.15435008,,,
imu,90.157629,-1.4523149984,-9.551303910400001,2.548130928,0.91229049,1.12102649,-4.11696553,,,
imu,90.166102,-1.4630817488,-9.561472508000001,2.5379623304,0.59078336,1.10607267,-4.13939626,,,
imu,90.174574,-1.4708577352,-9.5566872856,2.5427475528,0.53096808,1.15841104,-4.19921154,,,
imu,90.183047,-1.4571002208,-9.527377798400002,2.5439438584,0.36647606,1.01634975,-4.25154991,,,
imu,90.191519,-1.459492832,-9.504647992000002,2.522410357600001,0.42629134,1.04625739,-4.13939626,,,
imu,90.199991,-1.4600909848,-9.478329268800001,2.5134380656,0.6281679099999999,1.27056469,-3.92256587,,,
imu,90.208464,-1.4571002208,-9.474740352000001,2.4901101064,0.82256757,1.28551851,-3.68330475,,,
imu,90.216936,-1.453511304,-9.464571754400001,2.4901101064,1.01696723,1.24065705,-3.496382,,,
imu,90.225409,-1.4433427064,-9.477731116000001,2.4895119536,1.48801256,1.39767216,-3.36927453,,,
imu,90.233881,-1.438557484,-9.5040498392,2.485324884000001,1.57773548,1.43505671,-3.46647436,,,
imu,90.242354,-1.4289870392,-9.51062952,2.4865211896,1.80951969,1.43505671,-3.45152054,,,
imu,90.250826,-1.4319778032,-9.507638756,2.4859230368,1.76465823,1.40514907,-3.63096638,,,
imu,90.259299,-1.4343704144,-9.5154147424,2.4745581336,1.93662716,1.34533379,-3.84031986,,,
imu,90.267771,-1.4253981224,-9.527975951200002,2.4799415088,1.89924261,1.40514907,-4.057150249999999,,,
imu,90.276243,-1.4367630256,-9.531564868,2.4775488976,1.7422275,1.36028761,-4.25154991,,,
imu,90.284716,-1.4373611784,-9.557285438400001,2.461398772,1.92167334,1.39019525,-4.17678081,,,
imu,90.293188,-1.4481279288,-9.571042952800001,2.4596043136,1.79456587,1.39019525,-4.13191935,,,
imu,90.301661,-1.4379593312,-9.588987536800001,2.467380300000001,1.63007385,1.44253362,-3.99733497,,,
imu,90.310133,-1.444539012,-9.596763523200002,2.4661839944,1.4431511,1.42010289,-4.00481188,,,
imu,90.318606,-1.438557484,-9.606932120800002,2.4709692168,1.40576655,1.45001053,-3.81788913,,,
imu,90.327073,-1.4457353176,-9.608128426400002,2.4781470504,1.05435178,1.3528107,-3.90761205,,,
imu,90.33554,-1.4553057624,-9.612315496,2.476352592,0.83004448,1.24813396,-3.81788913,,,
imu,90.344008,-1.459492832,-9.606932120800002,2.4954934816,0.76275229,1.26308778,-3.78050458,,,
imu,90.352475,-1.4612872904,-9.597361676,2.491306412,0.36647606,1.14345722,-3.87770441,,,
imu,90.360942,-1.4666706656,-9.5877912312,2.491306412,0.05244583999999999,1.09111885,-4.012288789999999,,,
imu,90.36941,-1.4780355688,-9.573435564,2.4936990232,-0.14195382,1.11354958,-4.10948862,,,
imu,90.377877,-1.4762411104,-9.560874355200001,2.4954934816,-0.23915365,1.11354958,-4.08705789,,,
imu,90.386344,-1.4690632768,-9.532163020800002,2.4901101064,-0.38869185,1.12102649,-4.19173463,,,
imu,90.394812,-1.4786337216,-9.5184055064,2.4954934816,-0.29896893,1.03130357,-4.32631901,,,
imu,90.403279,-1.4810263328,-9.519003659200001,2.4931008704,-0.25410747,1.21074941,-4.25154991,,,
imu,90.411747,-1.4750448048,-9.517807353600002,2.4871193424,-0.09709236,1.24813396,-4.17678081,,,
imu,90.420214,-1.4762411104,-9.5082369088,2.499082398400001,0.16459949,1.27056469,-4.15435008,,,
imu,90.428681,-1.474446652,-9.507638756,2.5236066632,0.18703022,1.24065705,-4.11696553,,,
imu,90.437149,-1.4756429576,-9.5184055064,2.5385604832,0.07487657,1.16588795,-3.95247351,,,
imu,90.445616,-1.4732503464,-9.5429297712,2.5439438584,-0.02232326000000001,1.22570323,-3.90761205,,,
imu,90.454083,-1.4876060136,-9.555490980000002,2.5427475528,-0.09709236,1.21822632,-4.034719519999999,,,
imu,90.462551,-1.4702595824,-9.5357519376,2.551121692,-0.10456927,1.25561087,-4.00481188,,,
imu,90.471018,-1.477437416,-9.507638756,2.552916150400001,-0.16438455,1.25561087,-3.90013514,,,
imu,90.479485,-1.4929893888,-9.507040603200002,2.5499253864,-0.23167674,1.27056469,-3.87770441,,,
imu,90.487953,-1.4768392632,-9.502255380800001,2.5421494,-0.18681528,1.30047233,-3.62348947,,,
imu,90.49642,-1.483418944,-9.496872005600002,2.545738316800001,-0.02980017,1.43505671,-3.21973633,,,
imu,90.504887,-1.486409708,-9.485507102400002,2.5469346224,-0.04475399000000001,1.51730272,-3.05524431,,,
imu,90.513355,-1.4762411104,-9.489096019200002,2.5463364696,0.05244583999999999,1.66684092,-2.77112173,,,
imu,90.521822,-1.4678669712,-9.498666464000001,2.545140164,0.14964567,1.8014253,-2.74121409,,,
imu,90.530265,-1.4571002208,-9.5148165896,2.5421494,0.3739529699999999,1.89862513,-2.80850628,,,
imu,90.538709,-1.4499223872,-9.507638756,2.5313826496,0.50853735,1.8014253,-3.02533667,,,
imu,90.547152,-1.4403519424,-9.5010590752,2.525401121600001,0.60573718,2.05564024,-3.10010577,,,
imu,90.555595,-1.43556672,-9.5004609224,2.530186344,0.59078336,2.01077878,-3.39170526,,,
imu,90.564038,-1.4247999696,-9.505246144800001,2.527793732800001,0.68050628,2.03320951,-3.56367419,,,
imu,90.57252,-1.414631372,-9.519003659200001,2.5289900384,0.82256757,2.13788625,-3.68330475,,,
imu,90.580963,-1.4182202888,-9.5381445488,2.5259992744,0.94967504,2.10797861,-3.7954584,,,
imu,90.589406,-1.4080516912,-9.534555632000002,2.5283918856,0.9048135799999999,1.99582496,-3.90761205,,,
imu,90.597849,-1.4032664688,-9.553696521600001,2.5367660248,0.76275229,1.86124058,-3.8702275,,,
imu,90.606293,-1.4068553856,-9.5740337168,2.52719558,0.70293701,1.79394839,-3.80293531,,,
imu,90.614736,-1.4110424552,-9.575828175200002,2.5236066632,0.68798319,1.77899457,-3.75059694,,,
imu,90.623179,-1.4068553856,-9.553098368800002,2.529588191200001,0.30666078,1.47991817,-3.78050458,,,
imu,90.631622,-1.417622136,-9.554294674400001,2.5218122048,0.17955331,1.2780416,-3.71321239,,,
imu,90.640065,-1.4289870392,-9.561472508000001,2.5230085104,0.04496892999999999,1.24065705,-3.68330475,,,
imu,90.648509,-1.4391556368,-9.549509452,2.521214052,-0.02980017,1.15841104,-3.66835093,,,
imu,90.656952,-1.4553057624,-9.5429297712,2.5248029688,-0.2017691,1.04625739,-3.69078166,,,
imu,90.665395,-1.4660725128,-9.535153784800002,2.5248029688,-0.26158438,1.11354958,-3.56367419,,,
imu,90.673838,-1.4732503464,-9.5327611736,2.52719558,-0.19429219,1.23318014,-3.44404363,,,
imu,90.682281,-1.4732503464,-9.5184055064,2.52719558,-0.22419983,1.28551851,-3.45899745,,,
imu,90.690725,-1.4756429576,-9.52558334,2.5325789552,-0.23167674,1.33785688,-3.42908981,,,
imu,90.699168,-1.477437416,-9.52558334,2.5343734136,-0.28401511,1.4275798,-3.40665908,,,
imu,89.19292,,,,,,,70.7651276,1.470937199999978,7.977419999999991
imu,89.297474,,,,,,,70.52098360000001,0.7751267999999811,8.184942399999995
imu,89.396045,,,,,,,70.8749924,1.104721199999981,7.782104799999989
imu,89.497608,,,,,,,71.49755959999999,1.361072399999985,8.368050399999994
imu,89.599292,,,,,,,71.4243164,1.239000399999979,7.50133919999999
imu,89.700733,,,,,,,71.96143319999999,1.531973199999981,7.953005599999996
imu,89.802326,,,,,,,71.338866,1.275621999999998,8.062870399999989
imu,89.904041,,,,,,,74.06107159999999,0.2624243999999942,5.682466399999997
imu,90.707611,-1.4726521936,-9.544126076800001,2.5439438584,-0.19429219,1.51730272,-3.27955161,,,
imu,90.716054,-1.4822226384,-9.5489112992,2.5325789552,-0.2765382,1.75656384,-3.27955161,,,
imu,90.724497,-1.4642780544,-9.541733465600002,2.5469346224,-0.29149202,1.77151766,-3.31693616,,,
imu,90.733322,-1.4708577352,-9.554294674400001,2.557103220000001,-0.29896893,1.85376367,-3.4216129,,,
imu,90.742147,-1.4660725128,-9.545322382400002,2.5493272336,-0.35878421,1.94348659,-3.5711511,,,
imu,90.750972,-1.459492832,-9.534555632000002,2.5654773592,-0.36626112,2.05564024,-3.47395127,,,
imu,90.759797,-1.4582965264,-9.539939007200001,2.562486595200001,-0.41112258,2.00330187,-3.496382,,,
imu,90.768622,-1.4457353176,-9.5327611736,2.5702625816,-0.54570696,1.98834805,-3.43656672,,,
imu,90.777447,-1.4349685672,-9.534555632000002,2.580431179200001,-0.50832241,2.00330187,-3.43656672,,,
imu,90.786272,-1.4200147472,-9.52558334,2.5702625816,-0.68029134,2.07059406,-3.45899745,,,
imu,90.795096,-1.423603664,-9.519003659200001,2.5726551928,-0.67281443,2.07807097,-3.36179762,,,
imu,90.803921,-1.4224073584,-9.5184055064,2.5774404152,-0.69524516,2.13040934,-3.30945925,,,
imu,90.812746,-1.4301833448,-9.502255380800001,2.569066276,-0.5756146,2.16779389,-3.32441307,,,
imu,90.821571,-1.4152295248,-9.486703408,2.5768422624,-0.45598404,2.1005017,-3.4216129,,,
imu,90.830396,-1.4140332192,-9.4801237272,2.578038568,-0.52327623,1.84628676,-3.53376655,,,
imu,90.839221,-1.4212110528,-9.4699551296,2.5702625816,-0.37373803,1.74161002,-3.58610492,,,
imu,90.848046,-1.4128369136,-9.469356976800002,2.5744496512,-0.34383039,1.64441019,-3.66087402,,,
imu,90.856871,-1.4194165944,-9.478927421600002,2.581029332,-0.11204618,1.56216418,-3.72816621,,,
imu,90.865696,-1.4242018168,-9.489694172,2.5894034712,0.04496892999999999,1.54721036,-3.75059694,,,
imu,90.87452,-1.4307814976,-9.495675700000001,2.590001624000001,0.2468455,1.53973345,-3.78798149,,,
imu,90.883345,-1.4343704144,-9.5154147424,2.5923942352,0.21693786,1.39019525,-3.85527368,,,
imu,90.89217,-1.4487260816,-9.5184055064,2.60196468,0.23936859,1.33785688,-3.81041222,,,
imu,90.900995,-1.447529776,-9.523190728800001,2.6061517496,0.3739529699999999,1.2780416,-3.66835093,,,
imu,90.90982,-1.444539012,-9.517807353600002,2.6217037224,0.29918387,1.34533379,-3.53376655,,,
imu,90.918645,-1.4600909848,-9.5459205352,2.6211055696,0.22441477,1.47991817,-3.45899745,,,
imu,90.92747,-1.459492832,-9.562668813600002,2.622900028000001,0.26179932,1.68927165,-3.32441307,,,
imu,90.935955,-1.4523149984,-9.543527924000001,2.6252926392,0.0001074699999999984,1.7266562,-3.45899745,,,
imu,90.94444,-1.456502068,-9.5429297712,2.6354612368,-0.10456927,1.73413311,-3.51881273,,,
imu,90.952925,-1.4588946792,-9.540537160000001,2.6510132096,-0.19429219,2.08554788,-3.54872037,,,
imu,90.96141,-1.4487260816,-9.553696521600001,2.6653688768,-0.44850713,2.07807097,-3.48890509,,,
imu,90.969896,-1.4373611784,-9.5566872856,2.6635744184,-0.68029134,2.13788625,-3.45899745,,,
imu,90.978381,-1.4277907336,-9.5357519376,2.64682614,-0.874691,2.21265535,-3.61601256,,,
imu,90.986866,-1.4182202888,-9.499862769600002,2.649816904,-0.92702937,2.18274771,-3.7206893,,,
imu,90.995351,-1.4140332192,-9.478329268800001,2.6426390704,-0.85973718,2.13040934,-3.66087402,,,
imu,91.003836,-1.4062572328,-9.454403156800002,2.6181148056,-0.62047606,2.08554788,-3.41413599,,,
imu,91.012321,-1.399677552,-9.4460290176,2.625890792,-0.4260764,2.12293243,-3.24216706,,,
imu,91.020807,-1.3978830936,-9.4454308648,2.6264889448,-0.15690764,2.16779389,-3.10010577,,,
imu,91.029292,-1.3889108016,-9.4412437952,2.6181148056,0.13469185,2.15284007,-3.06272122,,,
imu,91.037777,-1.3769477456,-9.444234559200002,2.6163203472,0.4861066199999999,2.03320951,-3.20478251,,,
imu,91.046262,-1.378742204,-9.440047489600001,2.620507416800001,0.80761375,1.83133294,-3.40665908,,,
imu,91.054747,-1.3823311208,-9.446627170400001,2.6187129584,0.8973366700000001,1.71917929,-3.60853565,,,
imu,91.063232,-1.3871163432,-9.457992073600002,2.613927736,1.04687487,1.6518871,-3.74312003,,,
imu,91.071717,-1.4092479968,-9.472347740800002,2.625890792,1.18145925,1.53973345,-3.88518132,,,
imu,91.080203,-1.402668316,-9.496872005600002,2.622900028000001,1.2188438,1.47244126,-3.86275059,,,
imu,91.088688,-1.4020701632,-9.5082369088,2.6282834032,1.21136689,1.40514907,-3.93751969,,,
imu,91.097173,-1.414631372,-9.504647992000002,2.6402464592,1.10669015,1.39019525,-3.91508896,,,
imu,91.105658,-1.4128369136,-9.519003659200001,2.628881556000001,1.1440747,1.61450255,-3.73564312,,,
imu,91.114143,-1.4194165944,-9.523190728800001,2.6372556952,0.9197674,1.55468727,-3.56367419,,,
imu,91.122628,-1.4188184416,-9.530368562400001,2.6432372232,0.8449983,1.64441019,-3.48142818,,,
imu,91.131114,-1.423603664,-9.530368562400001,2.6420409176,0.82256757,1.71170238,-3.59358183,,,
imu,91.13957,-1.426594428,-9.533359326400001,2.6366575424,0.6281679099999999,1.76404075,-3.74312003,,,
imu,91.148025,-1.4253981224,-9.534555632000002,2.6444335288,0.58330645,1.83133294,-3.74312003,,,
imu,91.156481,-1.4247999696,-9.531564868,2.655200279200001,0.38142988,1.86124058,-3.75807385,,,
imu,91.164937,-1.4182202888,-9.5148165896,2.645629834400001,0.29918387,1.91357895,-3.9449966,,,
imu,91.173393,-1.4152295248,-9.511227672800002,2.6510132096,0.26927623,1.86124058,-4.124442439999999,,,
imu,91.181849,-1.4068553856,-9.505246144800001,2.649816904,0.29918387,1.83133294,-4.15435008,,,
imu,91.190305,-1.411640608,-9.4974701584,2.6492187512,0.29170696,1.85376367,-4.19173463,,,
imu,91.198761,-1.4074535384,-9.490292324800002,2.6426390704,0.53844499,1.91357895,-4.19921154,,,
imu,91.207217,-1.4002757048,-9.483712644000002,2.641442764800001,0.53844499,1.74908693,-4.21416536,,,
imu,91.215673,-1.3990793992,-9.478329268800001,2.6330686256,0.50853735,1.59954873,-4.386134289999999,,,
imu,91.224129,-1.3978830936,-9.460982837600001,2.6330686256,0.65807555,1.53973345,-4.28145755,,,
imu,91.232585,-1.4008738576,-9.4843107968,2.6569947376,0.79265993,1.45748744,-4.124442439999999,,,
imu,91.24104,-1.4068553856,-9.519601812000001,2.6653688768,1.03939796,1.43505671,-3.98238115,,,
imu,91.249496,-1.4104443024,-9.538742701600002,2.6599855016,1.02444414,1.37524143,-4.04219643,,,
imu,91.257952,-1.4283888864,-9.52558334,2.659387348800001,0.82256757,1.2032725,-4.19921154,,,
imu,91.266408,-1.4247999696,-9.508835061600001,2.6522095152,0.76275229,1.17336486,-4.23659609,,,
imu,91.274864,-1.468465124,-9.5040498392,2.6354612368,0.58330645,1.12102649,-4.4683803,,,
imu,91.28332,-1.4720540408,-9.5010590752,2.628881556000001,0.52349117,1.10607267,-4.30388828,,,
imu,91.291776,-1.474446652,-9.489694172,2.628881556000001,0.53096808,1.23318014,-3.86275059,,,
imu,91.300232,-1.4792318744,-9.481320032800001,2.6354612368,0.57582954,1.45001053,-3.55619728,,,
imu,91.308688,-1.4780355688,-9.482516338400002,2.628881556000001,0.67302937,1.74908693,-3.21225942,,,
imu,91.317144,-1.4660725128,-9.4944793944,2.628881556000001,0.58330645,1.84628676,-3.13001341,,,
imu,91.3256,-1.4433427064,-9.503451686400002,2.622900028000001,0.63564482,1.98087114,-3.16739796,,,
imu,91.334055,-1.444539012,-9.5040498392,2.6306760144,0.8674290299999999,2.30237827,-3.03281358,,,
imu,91.342564,-1.4218092056,-9.5010590752,2.6354612368,0.78518302,2.40705501,-3.15992105,,,
imu,91.351072,-1.4200147472,-9.508835061600001,2.6252926392,0.9272443100000001,2.48930102,-3.26459779,,,
imu,91.35958,-1.393696024,-9.506442450400002,2.6234981808,1.12164397,2.71360832,-3.30945925,,,
imu,91.368088,-1.3805366624,-9.5172092008,2.610936972000001,1.00201341,2.78090051,-3.56367419,,,
imu,91.376596,-1.3769477456,-9.5184055064,2.6163203472,1.15155161,2.57902394,-3.86275059,,,
imu,91.385104,-1.3655828424,-9.527377798400002,2.6211055696,1.18145925,2.48930102,-3.9449966,,,
imu,91.393612,-1.3554142448,-9.538742701600002,2.6175166528,1.28613599,2.45939338,-3.75059694,,,
imu,91.40212,-1.3554142448,-9.543527924000001,2.6264889448,1.19641307,2.50425484,-3.61601256,,,
imu,91.410628,-1.351825328,-9.549509452,2.6294797088,0.9048135799999999,2.35471664,-3.78050458,,,
imu,91.419136,-1.3619939256,-9.558481744000002,2.6240963336,0.66555246,2.35471664,-3.83284295,,,
imu,91.427644,-1.3476382584,-9.5501076048,2.6312741672,0.73284465,2.21265535,-3.83284295,,,
imu,91.436152,-1.3482364112,-9.551902063200002,2.6372556952,0.5010604399999999,2.11545552,-3.78050458,,,
imu,91.44466,-1.3596013144,-9.545322382400002,2.634863084,0.35899915,2.01825569,-3.75807385,,,
imu,91.453168,-1.3715643704,-9.520199964800002,2.6336667784,0.20198404,1.79394839,-3.70573548,,,
imu,91.461676,-1.3590031616,-9.503451686400002,2.6270870976,0.21693786,1.8014253,-3.68330475,,,
imu,91.470184,-1.3506290224,-9.501657228000001,2.625890792,0.28423005,1.79394839,-3.66087402,,,
imu,91.478692,-1.3625920784,-9.5004609224,2.6390501536,0.21693786,1.64441019,-3.63844329,,,
imu,91.4872,-1.3596013144,-9.5010590752,2.634264931200001,0.26179932,1.59207182,-3.6459202,,,
imu,91.495708,-1.3619939256,-9.499862769600002,2.6402464592,0.20946095,1.63693328,-3.58610492,,,
imu,91.504216,-1.36079762,-9.503451686400002,2.6390501536,0.19450713,1.60702564,-3.47395127,,,
imu,91.512724,-1.3613957728,-9.513022131200001,2.64682614,0.16459949,1.62197946,-3.48890509,,,
imu,91.521232,-1.366779148,-9.5154147424,2.6474242928,0.43376825,1.59954873,-3.53376655,,,
imu,90.00542,,,,,,,71.60742440000001,1.080306799999997,7.843140799999992
imu,90.106983,,,,,,,73.5239548,0.5798115999999798,5.011070399999995
imu,90.208545,,,,,,,71.21679400000001,1.556387599999987,7.379267199999995
imu,90.310321,,,,,,,71.338866,1.214585999999995,7.733275999999989
imu,90.411701,,,,,,,71.49755959999999,1.153549999999992,8.319221599999993
imu,90.513507,,,,,,,71.399902,1.141342799999978,7.806519199999995
imu,90.614795,,,,,,,71.4731452,1.251207599999993,7.342645599999997
imu,90.716358,,,,,,,71.2412084,1.068099599999983,7.537960799999999
imu,91.529741,-1.366779148,-9.5148165896,2.661779960000001,0.33656842,1.45748744,-3.61601256,,,
imu,91.538249,-1.3781440512,-9.513620284000002,2.6581910432,0.31413769,1.37524143,-3.7954584,,,
imu,91.546884,-1.3775458984,-9.5154147424,2.6599855016,0.3739529699999999,1.41262598,-3.93751969,,,
imu,91.555519,-1.3871163432,-9.516611048000001,2.6546021264,0.32909151,1.24813396,-4.08705789,,,
imu,91.564154,-1.384723732,-9.516611048000001,2.6623781128,0.38142988,1.23318014,-4.11696553,,,
imu,91.572789,-1.4014720104,-9.513620284000002,2.6659670296,0.40386061,1.15841104,-4.25154991,,,
imu,91.581425,-1.399677552,-9.516611048000001,2.659387348800001,0.34404533,1.09111885,-4.22164227,,,
imu,91.59006,-1.414631372,-9.514218436800002,2.6755374744,0.28423005,1.00139593,-4.19921154,,,
imu,91.598695,-1.4242018168,-9.503451686400002,2.6635744184,0.11226112,0.9341037399999998,-4.22164227,,,
imu,91.60733,-1.432575956,-9.496872005600002,2.6629762656,0.22441477,0.8817653699999997,-4.16182699,,,
imu,91.615965,-1.4493242344,-9.4908904776,2.6581910432,0.06739966,0.80699627,-4.07210407,,,
imu,91.624601,-1.4451371648,-9.4801237272,2.6719485576,0.10478421,0.8742884599999998,-3.93751969,,,
imu,91.633236,-1.4571002208,-9.482516338400002,2.6623781128,0.14216876,0.8294269999999999,-3.90013514,,,
imu,91.641871,-1.4720540408,-9.455001309600002,2.643835376000001,0.29170696,0.8518577299999999,-3.81041222,,,
imu,91.650506,-1.477437416,-9.458590226400002,2.655200279200001,0.50853735,0.84438082,-3.78798149,,,
imu,91.659141,-1.4828207912,-9.463973601600001,2.6611818072,0.7702292,1.12102649,-3.63844329,,,
imu,91.667698,-1.4762411104,-9.48072188,2.6581910432,0.73284465,1.25561087,-3.54124346,,,
imu,91.676333,-1.4756429576,-9.484908949600001,2.6629762656,0.85995212,1.45001053,-3.50385891,,,
imu,91.684968,-1.4720540408,-9.492684936000002,2.6659670296,0.94967504,1.66684092,-3.39170526,,,
imu,91.693604,-1.4553057624,-9.5010590752,2.6755374744,0.8973366700000001,1.76404075,-3.37675144,,,
imu,91.702239,-1.453511304,-9.513620284000002,2.664770724000001,0.79265993,1.88367131,-3.50385891,,,
imu,91.710874,-1.4421464008,-9.519003659200001,2.6725467104,0.71789083,1.81637912,-3.60105874,,,
imu,91.719509,-1.4242018168,-9.510031367200002,2.6605836544,0.6132140899999999,1.90610204,-3.62348947,,,
imu,91.728144,-1.4200147472,-9.485507102400002,2.6719485576,0.620691,1.98087114,-3.51133582,,,
imu,91.73678,-1.4104443024,-9.501657228000001,2.6719485576,0.56087572,2.1005017,-3.41413599,,,
imu,91.745415,-1.4020701632,-9.520798117600002,2.6659670296,0.57582954,2.04816333,-3.36179762,,,
imu,91.754009,-1.3883126488,-9.5184055064,2.6701540992,0.53844499,2.06311715,-3.2720747,,,
imu,91.762603,-1.3835274264,-9.4962738528,2.6761356272,0.5982602699999999,2.01825569,-3.36927453,,,
imu,91.771197,-1.3835274264,-9.509433214400001,2.701856197600001,0.50853735,1.80890221,-3.60853565,,,
imu,91.779791,-1.39070526,-9.522592576000001,2.6982672808,0.51601426,1.63693328,-3.69078166,,,
imu,91.788385,-1.393696024,-9.540537160000001,2.7084358784,0.3739529699999999,1.56964109,-3.75059694,,,
imu,91.796979,-1.408649844,-9.529770409600001,2.7024543504,0.30666078,1.49487199,-3.71321239,,,
imu,91.805573,-1.4194165944,-9.51062952,2.6910894472,0.15712258,1.48739508,-3.67582784,,,
imu,91.814167,-1.4104443024,-9.4831144912,2.686902377600001,0.1720764,1.46496435,-3.59358183,,,
imu,91.822761,-1.4110424552,-9.4621791432,2.6719485576,0.20198404,1.45748744,-3.37675144,,,
imu,91.831355,-1.4080516912,-9.453206851200001,2.668957793600001,0.29918387,1.47991817,-3.15992105,,,
imu,91.839949,-1.4080516912,-9.443636406400001,2.659387348800001,0.5982602699999999,1.62197946,-2.85336774,,,
imu,91.848543,-1.3919015656,-9.436458572800001,2.655200279200001,0.8375213899999999,1.6518871,-2.80102937,,,
imu,91.857137,-1.3859200376,-9.447823476,2.6546021264,0.97958268,1.67431783,-2.92065993,,,
imu,91.865731,-1.3781440512,-9.462777296000002,2.655200279200001,1.18893616,1.65936401,-3.07019813,,,
imu,91.874325,-1.3763495928,-9.468160671200001,2.6581910432,1.23379762,1.58459491,-3.20478251,,,
imu,91.882919,-1.3733588288,-9.479525574400002,2.6534058208,1.40576655,1.75656384,-3.30945925,,,
imu,91.891513,-1.3745551344,-9.509433214400001,2.6665651824,1.39081273,1.64441019,-3.36179762,,,
imu,91.900107,-1.381732968,-9.512423978400001,2.667163335200001,1.57025857,1.82385603,-3.45899745,,,
imu,91.908701,-1.3709662176,-9.5219944232,2.6605836544,1.45062801,1.94348659,-3.47395127,,,
imu,91.917295,-1.3673773008,-9.533957479200001,2.6510132096,1.40576655,1.94348659,-3.44404363,,,
imu,91.925889,-1.3643865368,-9.533957479200001,2.6599855016,1.24875144,1.98087114,-3.36179762,,,
imu,91.934483,-1.3572087032,-9.527975951200002,2.6653688768,1.16650543,1.98087114,-3.31693616,,,
imu,91.943077,-1.3416567304,-9.533359326400001,2.6665651824,1.03939796,1.90610204,-3.1973056,,,
imu,91.951546,-1.336871508,-9.527975951200002,2.6665651824,0.81509066,1.90610204,-3.22721324,,,
imu,90.817843,,,,,,,72.4741356,1.361072399999985,7.013051199999998
imu,90.919436,,,,,,,70.8994068,1.556387599999987,7.928591199999991
imu,91.021121,,,,,,,73.76809879999999,0.86057719999999,5.377286399999992
imu,91.122622,,,,,,,71.2412084,1.483144399999992,7.965212799999999
imu,91.224124,,,,,,,74.2808012,0.6774691999999805,5.291835999999995
imu,91.325717,,,,,,,71.2290012,1.422108399999988,7.391474399999998
imu,91.427249,,,,,,,71.3876948,1.177964399999998,7.306023999999988
imu,91.528903,,,,,,,71.460938,1.922603599999984,7.696654399999991
imu,91.630374,,,,,,,71.43652359999999,1.910396399999992,8.477915199999996
imu,91.731906,,,,,,,71.26562279999999,2.008053999999992,7.379267199999995
imu,91.833468,,,,,,,72.1689556,2.325441199999978,6.927600799999989
imu,91.935214,,,,,,,71.08251480000001,1.971432399999995,7.244987999999997
