Type,Timestamp,Data Accelerometer X,Data Accelerometer Y,Data Accelerometer Z,Data Gyroscope X,Data Gyroscope Y,Data Gyroscope Z,Data Magnetometer X,Data Magnetometer Y,Data Magnetometer Z
imu,231.122843,-0.3995660704000001,-9.648802816800002,2.269989876,4.74046841,2.29490136,-3.87770441,,,
imu,231.131291,-0.3714528888,-9.5877912312,2.2753732512,4.78532987,2.01825569,-3.63096638,,,
imu,231.139739,-0.3762381112000001,-9.5447242296,2.25802682,5.23394447,1.9509635,-3.32441307,,,
imu,231.148187,-0.3236006648,-9.572837411200002,2.1988096928,5.66760525,1.73413311,-3.24216706,,,
imu,231.156636,-0.3026653168,-9.599156134400001,2.1820614144,6.07135839,1.47991817,-3.07019813,,,
imu,231.165084,-0.2913004136,-9.5656595776,2.1497611632,6.40781934,1.08364194,-2.56176825,,,
imu,231.173532,-0.251224176,-9.597361676,2.141387024,6.87138776,0.7397040799999997,-2.43466078,,,
imu,231.181981,-0.257205704,-9.632054538400002,2.1497611632,7.26018708,0.1714589200000001,-2.41970696,,,
imu,231.190429,-0.230288828,-9.692467971200001,2.1228442872,7.43215601,-0.43417079,-2.36736859,,,
imu,231.198877,-0.2308869808,-9.725366375200002,2.1252368984,7.41720219,-0.9276468500000004,-2.61410662,,,
imu,231.207325,-0.2530186344000001,-9.703234721600001,2.0929366472,7.14055652,-1.43607673,-2.68887572,,,
imu,231.215774,-0.2775428992,-9.667345553600002,2.0474770344,6.8265263,-1.87721442,-2.90570611,,,
imu,231.224222,-0.3080486920000001,-9.637437913600001,2.0361121312,6.74428029,-2.12395245,-3.01038285,,,
imu,231.232685,-0.3355637208,-9.6260730104,1.9906525184,6.69194192,-2.10152172,-3.07019813,,,
imu,231.241149,-0.376836264,-9.706823638400001,1.9703153232,6.81157248,-2.13142936,-3.13749032,,,
imu,231.249613,-0.3666676664,-9.7265626808,1.896144376,7.00597214,-1.82487605,-2.86084465,,,
imu,231.258076,-0.35889168,-9.682299373600001,1.863245972,7.11812579,-1.45850746,-2.71878336,,,
imu,231.26654,-0.4091365152000001,-9.616502565600001,1.8441050824,7.25271017,-1.10709269,-2.71878336,,,
imu,231.275003,-0.4205014184,-9.555490980000002,1.8135992896,7.98544735,-0.7855855599999999,-2.5243837,,,
imu,231.283467,-0.46356842,-9.597959828800002,1.7836916496,8.72566144,-0.2696787700000001,-2.38979932,,,
imu,231.29193,-0.4139217376000001,-9.6296619272,1.785486108,9.42849098,0.2910894799999997,-2.14306129,,,
imu,231.300394,-0.3720510416,-9.679308609600001,1.752587704,9.99673614,0.6873657099999999,-1.95613854,,,
imu,231.308857,-0.3738455000000001,-9.748096181600001,1.7448117176,10.40796619,1.08364194,-1.9262309,,,
imu,231.317321,-0.3355637208,-9.7570684736,1.7818971912,10.15375125,1.46496435,-1.93370781,,,
imu,231.325784,-0.2924967192,-9.794752100000002,1.761559996,10.01916687,1.43505671,-2.03838455,,,
imu,231.334248,-0.2829262744000001,-9.903615909600001,1.743615412,9.652798279999999,1.30794924,-2.56176825,,,
imu,231.342712,-0.2386629672,-9.881484256,1.7292597448,9.047168569999998,1.2032725,-2.94309066,,,
imu,231.351175,-0.2667761488000001,-9.836622796,1.7065299384,8.710707619999999,0.9640113799999996,-3.33936689,,,
imu,231.359639,-0.311039456,-9.883876867200001,1.6742296872,8.434061949999998,0.5752120599999997,-4.04967334,,,
imu,231.368102,-0.3098431504,-9.934719855200001,1.6640610896,7.94058589,0.1490281899999997,-4.976810179999999,,,
imu,231.376566,-0.3732473472,-9.969412717600003,1.7083243968,7.46206365,-0.20986349,-5.76936264,,,
imu,231.385029,-0.439642308,-10.0447799704,1.7059317856,6.81904939,-0.76315483,-6.5619151,,,
imu,231.393493,-0.4767277816000001,-10.0435836648,1.6323589912,5.92182019,-0.7482010100000003,-7.317083009999999,,,
imu,231.401956,-0.5628617848,-10.0926321944,1.6347516024,5.33862121,-0.6734319100000001,-7.518959579999999,,,
imu,231.41042,-0.6059287864000001,-10.0393965952,1.6586777144,4.35166909,-0.4192169699999999,-7.055391159999999,,,
imu,231.418883,-0.5748248408000001,-10.0507614984,1.6562851032,3.08059439,-0.1874327600000001,-7.272221549999999,,,
imu,231.427347,-0.6250696760000001,-9.967618259200002,1.6335552968,2.00391935,0.1490281899999997,-7.189975539999999,,,
imu,231.436168,-0.6370327320000001,-9.852174768800001,1.6520980336,1.2188438,0.35838167,-7.37689829,,,
imu,231.444989,-0.6160973840000001,-9.769031529600001,1.6843982848,0.51601426,0.5527813299999997,-7.54886722,,,
imu,231.45381,-0.6591643856000001,-9.844996935200001,1.6933705768,0.11973803,0.7995193599999997,-7.59372868,,,
imu,231.462631,-0.6418179544000001,-9.934121702400002,1.7250726752,-0.37373803,1.03878048,-7.44419048,,,
imu,231.471451,-0.580208216,-9.968216412,1.7579710792,-1.11395212,1.48739508,-7.272221549999999,,,
imu,231.480272,-0.5580765624000001,-9.964627495200002,1.7944584,-2.38502682,1.54721036,-7.18249863,,,
imu,231.489093,-0.5497024232000001,-9.883876867200001,1.791467636,-3.44674804,1.71917929,-7.04791425,,,
imu,231.497914,-0.4874945320000001,-9.727160833600001,1.8112066784,-4.08228539,1.71917929,-6.95819133,,,
imu,231.506735,-0.4767277816000001,-9.703234721600001,1.8022343864,-4.157054489999999,1.80890221,-6.905852959999999,,,
imu,231.515556,-0.4689517952000001,-9.7953502528,1.7807008856,-4.00003938,1.7266562,-6.9357606,,,
imu,231.524377,-0.4037531400000001,-9.785181655200002,1.8165900536,-4.00751629,1.46496435,-6.905852959999999,,,
imu,231.533198,-0.3834159448,-9.679308609600001,1.815393748,-3.91031646,1.11354958,-6.9357606,,,
imu,231.542019,-0.424688488,-9.652989886400002,1.821375276,-3.5663786,0.7097964399999999,-6.883422229999999,,,
imu,231.55084,-0.4210995712,-9.7331423616,1.8692275,-2.85607215,0.3957662200000001,-6.77874549,,,
imu,231.559661,-0.4205014184,-9.746899876,1.857264444,-2.19062716,0.1191205499999999,-6.965668239999999,,,
imu,231.568481,-0.4384460024000001,-9.651793580800001,1.8590589024,-1.70462801,-0.3070633200000001,-7.33203683,,,
imu,231.577302,-0.5126169496,-9.651195428000001,1.9009295984,-1.00927538,-0.5538013500000001,-7.57129795,,,
imu,231.586123,-0.5443190480000001,-9.828846809600002,1.9362206136,-0.24663056,-0.5538013500000001,-7.69840542,,,
imu,231.594944,-0.5634599376000001,-9.998722204800002,1.9637356424,-0.10456927,-0.5313706200000001,-7.997481819999999,,,
imu,231.603765,-0.5520950344000001,-9.983768384800001,1.9583522672,-0.55318387,-0.3818324200000003,-8.326465859999999,,,
imu,231.612586,-0.5395338256000001,-9.785181655200002,1.8949480704,-1.23358268,-0.4790322499999999,-8.633019169999999,,,
imu,231.621407,-0.6537810104000001,-9.734936820000001,1.8464976936,-1.8466893,-0.65847809,-9.45547927,,,
imu,231.630228,-0.7010350816000002,-9.7504887928,1.8357309432,-2.04108896,-0.6061397200000003,-10.33027774,,,
imu,231.638869,-0.6896701784000001,-9.723571916800001,1.8560681384,-2.16071952,-0.6734319100000001,-10.99572273,,,
imu,231.647511,-0.7147925960000001,-9.666149248000002,1.8596570552,-2.16071952,-0.8379239300000001,-11.43686042,,,
imu,231.656152,-0.7464946944,-9.531564868,1.7771119688,-1.68219728,-1.1145696,-11.86304429,,,
imu,231.664794,-0.7411113192000001,-9.468758824,1.788476872,-1.20367504,-1.6379533,-11.73593682,,,
imu,231.673436,-0.8296379336000002,-9.448421628800002,1.8219734288,-0.50832241,-2.10899863,-11.23498385,,,
imu,231.682077,-0.8338250032000001,-9.3652783896,1.7932620944,0.43376825,-2.47536722,-10.36766229,,,
imu,231.690719,-0.8756956992000001,-9.309052026400002,1.8141974424,1.50296638,-2.67724379,-9.223695059999999,,,
imu,231.69936,-0.9259405344000001,-9.444234559200002,1.872218264,2.81142563,-2.74453598,-8.04982019,,,
imu,231.708002,-0.9319220624000001,-9.6637566368,1.941005836,3.69370101,-2.87164345,-6.85351459,,,
imu,231.716643,-0.9743909112000002,-9.7074217912,2.0074007968,3.97782359,-2.91650491,-6.090869769999999,,,
imu,231.725285,-0.9731946056000002,-9.811500378400002,2.0223546168,3.63388573,-2.66228997,-5.94133157,,,
imu,231.733927,-1.037795108,-9.906008520800002,2.031326908800001,2.85628709,-2.161337000000001,-5.53757843,,,
imu,231.742568,-0.9821668976000001,-9.8946436176,2.0205601584,1.71231986,-1.39869218,-4.90204108,,,
imu,231.75121,-0.8380120728000001,-9.932327244000001,1.9816802264,0.68798319,-0.71829337,-4.66277996,,,
imu,231.759851,-0.7997302936000001,-9.990348065600001,1.9428002944,-0.30644584,0.09668981999999993,-4.318842099999999,,,
imu,231.768493,-0.7321390272000001,-9.9789831624,1.9398095304,-1.31582869,0.5303505999999998,-4.06462716,,,
imu,231.777134,-0.5903768136,-9.8563618384,1.9326316968,-1.90650458,0.9341037399999998,-4.0945348,,,
imu,231.785776,-0.4707462536000001,-9.828846809600002,1.9033222096,-2.16071952,1.16588795,-3.83284295,,,
imu,231.794417,-0.3654713608,-9.920962340800001,1.9493799752,-2.62428794,1.00887284,-3.93751969,,,
imu,231.803059,-0.3194135952000001,-9.949075522400001,2.00381188,-3.08785636,0.6574580699999997,-4.28145755,,,
imu,231.811701,-0.3403489432000001,-9.949075522400001,2.0468788816,-3.68600916,0.08173599999999981,-4.6179185,,,
imu,231.820226,-0.3642750552,-9.885671325600002,2.0181675472,-4.22434668,-0.6510011800000002,-5.48524006,,,
imu,231.828868,-0.3923882368,-9.8049206976,2.0163730888,-4.321546509999999,-1.39121527,-6.54696128,,,
imu,231.83751,-0.4258847936,-9.709216249600003,1.9326316968,-4.2393005,-2.19872155,-7.69840542,,,
imu,231.845824,-0.4928779072000001,-9.719983000000001,1.9266501688,-4.05237775,-2.69219761,-8.49095788,,,
imu,231.854139,-0.6322475096000001,-9.684093832000002,1.9015277512,-3.97013174,-3.08099693,-8.88723411,,,
imu,231.862454,-0.7261574992000001,-9.680504915200002,1.905116668,-3.82059354,-3.20062749,-9.11154141,,,
imu,231.870769,-0.70282954,-9.748694334400001,1.970913476,-3.74582444,-3.11090457,-9.01434158,,,
imu,231.879083,-0.8206656416,-9.7845835024,1.932033544,-4.05237775,-2.85668963,-8.73769591,,,
imu,231.887398,-0.8727049352000001,-9.7570684736,1.8997332928,-4.69539201,-2.51275177,-8.677880629999999,,,
imu,231.895713,-0.903210728,-9.7301515976,1.9134908072,-5.00194532,-1.83235296,-8.21431221,,,
imu,231.904028,-0.9139774784000001,-9.6015487456,1.8949480704,-5.2112988,-1.13700033,-7.66102087,,,
imu,231.912342,-0.8762938520000002,-9.547714993600001,1.860255208,-5.061760599999999,-0.23229422,-7.30212919,,,
imu,231.920657,-0.8254508640000001,-9.519601812000001,1.8883683896,-4.56828454,0.7995193599999997,-6.65163802,,,
imu,231.928972,-0.804515516,-9.479525574400002,1.8644422776,-3.96265483,1.56216418,-6.225454149999999,,,
imu,231.937287,-0.7608503616000001,-9.3108464848,1.8488903048,-3.17010237,2.25751681,-6.464715269999999,,,
imu,231.945602,-0.7201759712000001,-9.263592413600001,1.8458995408,-2.00370441,2.82576197,-6.9357606,,,
imu,231.953916,-0.6567717744000001,-9.352717180800001,1.8267586512,-0.5980453299999999,3.34166876,-7.384375199999999,,,
imu,231.962231,-0.6143029256000001,-9.3796340568,1.8201789704,0.47862971,3.61083752,-8.28908131,,,
imu,231.970546,-0.6017417168000001,-9.332379985600001,1.863245972,1.368382,3.68560662,-9.35827944,,,
imu,231.978861,-0.6059287864000001,-9.4041583216,1.8823868616,2.43758013,3.3715764,-10.38261611,,,
imu,231.987175,-0.5879842024,-9.577024480800002,1.9601467256,3.34976315,2.96782326,-11.1228302,,,
imu,231.99549,-0.6806978864000002,-9.721179305600002,2.0402992008,3.56659354,2.4743472,-11.70602918,,,
imu,232.003805,-0.8290397808000001,-9.937710619200002,2.0929366472,3.43200916,2.04068642,-12.58082765,,,
imu,232.01212,-0.8727049352000001,-10.0794728328,2.0941329528,2.69927198,1.95844041,-13.27618028,,,
imu,232.020434,-0.8960328944000001,-10.0860525136,2.1013107864,1.45062801,1.89114822,-14.27808622,,,
imu,232.028749,-0.9151737840000002,-10.105791556,2.1210498288,-0.03727708,1.77151766,-15.27251525,,,
imu,232.037064,-0.9899428840000002,-10.1321102792,2.0971237168,-1.11395212,1.69674856,-15.95291406,,,
imu,232.04551,-1.0832547208,-10.1039970976,2.0989181752,-2.45231901,1.48739508,-16.64826669,,,
imu,232.053956,-1.067702748,-10.0585374848,2.084562508,-3.73834753,1.37524143,-17.53054207,,,
imu,232.062401,-1.0593286088,-9.956253356,2.129423968,-5.054283689999999,1.28551851,-18.42029436,,,
imu,232.070847,-1.0862454848,-9.998124052,2.1485648576,-5.958989799999999,1.13598031,-19.09321626,,,
imu,232.079293,-1.1011993048,-10.025040928,2.2215394992,-7.03566484,0.9714882899999999,-19.40724648,,,
imu,232.087738,-1.1329014032,-10.0232464696,2.2741769456,-8.321693360000001,0.58268897,-19.37733884,,,
imu,232.096184,-1.2196335592,-9.912588201600002,2.3573201848,-9.48809132,0.3733354899999997,-19.0483548,,,
imu,232.10463,-1.3284973688,-9.896438076,2.4213225344,-10.58719709,0.2611818399999999,-18.5997402,,,
imu,232.113076,-1.4230055112,-9.855165532800001,2.446444952,-11.61901067,0.0368745399999999,-17.94177212,,,
imu,232.121521,-1.477437416,-9.76484446,2.45242648,-12.58353206,0.05930526999999985,-17.20903494,,,
imu,232.129967,-1.5366545432,-9.631456385600002,2.4512301744,-13.32374615,0.1490281899999997,-16.66322051,,,
imu,232.138413,-1.6156107128,-9.489694172,2.443454188,-13.50319199,0.2312741999999997,-15.89309878,,,
imu,232.146859,-1.6843982848,-9.3802322096,2.3609091016,-13.09196194,0.44062768,-14.88371593,,,
imu,232.155304,-1.671837076,-9.2797425392,2.3381792952,-12.50128605,0.5976427899999996,-13.94910218,,,
imu,232.16375,-1.6317608384,-9.239666301600002,2.36270356,-11.44704174,0.78456554,-12.8425195,,,
imu,232.172196,-1.6724352288,-9.3168280128,2.371675852,-10.16101322,1.00887284,-11.52658334,,,
imu,232.180642,-1.620994088,-9.419112141600001,2.3591146432,-9.129199640000001,1.22570323,-10.24055482,,,
imu,232.189087,-1.4882041664,-9.410139849600002,2.3710776992,-8.583385210000001,1.60702564,-9.06667995,,,
imu,232.197533,-1.3775458984,-9.593174606400002,2.3914148944,-8.18710898,1.77899457,-7.952620359999999,,,
imu,232.205979,-1.2704765472,-9.572837411200002,2.3991908808,-8.22449353,1.77899457,-7.41428284,,,
imu,232.214425,-1.4600909848,-9.4765348104,2.3453571288,-8.44132392,1.54721036,-7.167544809999999,,,
imu,232.22287,-1.306963868,-9.4496179344,2.449435716,-8.56843139,1.63693328,-6.75631476,,,
imu,232.231316,-1.2465504352,-9.4460290176,2.3944056584,-8.55347757,1.83880985,-6.65163802,,,
imu,232.239762,-1.1963056,-9.438851184,2.3908167416,-8.49366229,1.71917929,-7.077821889999999,,,
imu,232.248318,-1.208268656,-9.315631707200001,2.386629672,-8.38150864,1.41262598,-7.44419048,,,
imu,232.256875,-1.2148483368,-9.324005846400002,2.3591146432,-7.9029864,1.22570323,-8.04982019,,,
imu,232.265431,-1.2615042552,-9.288714831200002,2.335786684,-7.282402869999999,1.02382666,-8.25169676,,,
imu,232.273987,-1.2076705032,-9.166691660000001,2.3908167416,-6.355266029999999,0.8967191899999998,-8.51338861,,,
imu,232.282544,-1.235185532,-9.347333805600002,2.4153410064,-5.06923751,0.7471809899999999,-8.79751119,,,
imu,232.2911,-1.2543264216,-9.413130613600002,2.406368714400001,-3.83554736,0.5303505999999998,-8.9545263,,,
imu,232.299656,-1.3320862856,-9.388008196000001,2.3979945752,-2.93084125,0.3733354899999997,-9.2536027,,,
imu,232.308213,-1.3356752024,-9.337165208000002,2.420126228800001,-1.94388913,-0.04537147000000008,-9.64240202,,,
imu,232.316769,-1.3673773008,-9.396980488,2.494297176,-0.68776825,-0.2173404000000003,-9.30594107,,,
imu,232.325325,-1.3476382584,-9.412532460800001,2.4895119536,0.5010604399999999,-0.31454023,-8.86480338,,,
imu,232.333882,-1.3781440512,-9.519601812000001,2.5427475528,1.6674584,-0.7108164600000002,-8.72274209,,,
imu,232.342438,-1.4032664688,-9.6117173432,2.587609012800001,2.67684125,-0.8678315700000003,-8.565726979999999,,,
imu,232.350995,-1.3978830936,-9.647606511200001,2.6360593896,3.07311748,-1.15195415,-8.29655822,,,
imu,231.216321,,,,,,,73.4385044,-2.850411600000013,0.4211631999999965
imu,231.317853,,,,,,,73.5605764,-3.045726800000015,1.092559199999998
imu,231.419385,,,,,,,73.78030600000001,-4.095546000000017,0.970487199999992
imu,231.520947,,,,,,,74.69584600000002,-4.022302800000022,0.4455775999999911
imu,231.62251,,,,,,,73.658234,-4.290861200000018,0.604271199999995
imu,231.724133,,,,,,,76.3194036,-4.986671600000014,-1.165772800000009
imu,232.359551,-1.43556672,-9.6458120528,2.6599855016,3.36471697,-1.27906162,-8.019912549999999,,,
imu,232.368107,-1.5145228896,-9.6494009696,2.673144863200001,3.37967079,-1.55570729,-7.92271272,,,
imu,232.376664,-1.5701511,-9.637437913600001,2.6839116136,3.35724006,-1.66038403,-7.54886722,,,
imu,232.38522,-1.5438323768,-9.599156134400001,2.5846182488,3.19274804,-1.31644617,-7.04043734,,,
imu,232.393776,-1.626975616,-9.641026830400001,2.6163203472,3.32733242,-0.94260067,-6.659114929999999,,,
imu,232.402333,-1.6377423664,-9.621287788000002,2.5373641776,3.11797894,-0.5911859000000002,-6.74136094,,,
imu,232.410889,-1.6634629368,-9.5566872856,2.4889138008,2.78151799,-0.1201405700000002,-6.86846841,,,
imu,232.419445,-1.6784167568,-9.4382530312,2.5140362184,2.65441052,0.6350273399999997,-6.77874549,,,
imu,232.428002,-1.677818604,-9.3862137376,2.5020731624,2.7889949,1.39767216,-6.91332987,,,
imu,232.436558,-1.6168070184,-9.249834899200001,2.4350800488,3.12545585,2.25751681,-7.02548352,,,
imu,232.445115,-1.6383405192,-9.240264454400002,2.4261077568,3.78342393,2.83323888,-6.943237509999999,,,
imu,232.453848,-1.573141864,-9.207964203200001,2.4093594784,4.49373038,3.30428421,-6.816130039999999,,,
imu,232.462581,-1.579123392,-9.272564705600002,2.4769507448,5.41339031,3.70056044,-6.61425347,,,
imu,232.471314,-1.528280404,-9.4280844336,2.4661839944,5.78723581,3.85009864,-6.599299649999999,,,
imu,232.480047,-1.48042818,-9.3246039992,2.3603109488,5.68255907,3.7454219,-6.771268579999999,,,
imu,232.48878,-1.5306730152,-9.280938844800001,2.4338837432,5.84705109,3.68560662,-6.928283689999999,,,
imu,232.497513,-1.5211025704,-9.343744888800002,2.4895119536,6.10126603,3.15474601,-6.771268579999999,,,
imu,232.506246,-1.5450286824,-9.456795768000001,2.3710776992,6.16855822,2.88557725,-6.36751544,,,
imu,232.514979,-1.5892919896,-9.4496179344,2.3429645176,5.95172783,2.72856214,-6.666591840000001,,,
imu,232.523713,-1.6407331304,-9.496872005600002,2.3046827384,5.83209727,2.58650085,-7.10772953,,,
imu,232.532446,-1.6467146584,-9.579417092000002,2.3489460456,5.57788233,2.45191647,-7.145114079999999,,,
imu,232.541179,-1.6449202,-9.562668813600002,2.3351885312,5.28628284,2.57154703,-7.11520644,,,
imu,232.549912,-1.6604721728,-9.6709344704,2.3429645176,5.36105194,2.75099287,-6.995575880000001,,,
imu,232.558645,-1.6622666312,-9.692467971200001,2.3722740048,5.00216026,2.58650085,-7.234837000000001,,,
imu,232.567378,-1.6766222984,-9.775611210400001,2.4207243816,4.69560695,2.65379304,-7.21988318,,,
imu,232.576111,-1.6951650352,-9.927542021600003,2.4440523408,4.089977240000001,2.66126995,-7.15259099,,,
imu,232.584844,-1.6754259928,-9.924551257600003,2.409957631200001,3.41705534,2.80333124,-7.00305279,,,
imu,232.593577,-1.6832019792,-9.8527729216,2.3848352136,2.51982614,2.86314652,-7.339513739999999,,,
imu,232.602311,-1.7172966888,-9.777405668800002,2.4243132984,1.75718132,2.61640849,-8.1320662,,,
imu,232.611044,-1.7005484104,-9.864137824800002,2.454819091200001,1.24127453,2.43696265,-8.633019169999999,,,
imu,232.619777,-1.6909779656,-9.85456738,2.4655858416,0.44124516,2.23508608,-8.82741883,,,
imu,232.62851,-1.773523052,-9.8132948368,2.4560153968,-0.73262971,1.98834805,-8.75264973,,,
imu,232.637243,-1.8596570552,-9.7283571392,2.4518283272,-1.62985891,1.86124058,-8.93209557,,,
imu,232.645976,-1.863245972,-9.5668558832,2.4093594784,-2.39250373,1.62945637,-9.28351034,,,
imu,232.654709,-1.8710219584,-9.486703408,2.4147428536,-2.57194957,1.71917929,-9.27603343,,,
imu,232.663143,-1.911098196,-9.489694172,2.4153410064,-2.60185721,1.70422547,-8.984433939999999,,,
imu,232.671576,-1.9266501688,-9.495675700000001,2.365694324000001,-2.19062716,1.85376367,-8.565726979999999,,,
imu,232.68001,-1.9099018904,-9.507638756,2.3818444496,-1.68219728,2.1752708,-8.25917367,,,
imu,232.688443,-1.926052016,-9.418513988800001,2.3758629216,-1.26349032,2.19022462,-7.66102087,,,
imu,232.696877,-1.920070488,-9.422102905600001,2.4117520896,-0.67281443,2.40705501,-7.09277571,,,
imu,232.70531,-1.9284446272,-9.5602762024,2.4009853392,-0.06718472,2.63136231,-6.73388403,,,
imu,232.713744,-1.917079724,-9.5118258256,2.3842370608,-0.08961545,2.87810034,-6.19554651,,,
imu,232.722177,-1.91408896,-9.435262267200002,2.396798269600001,0.08983038999999998,2.81080815,-5.94880848,,,
imu,232.73061,-1.8799942504,-9.522592576000001,2.3950038112,0.44872207,3.19960747,-5.57496298,,,
imu,232.739044,-1.9057148208,-9.514218436800002,2.3680869352,0.65807555,3.39400713,-4.96933327,,,
imu,232.747477,-1.8656385832,-9.5602762024,2.3662924768,0.4711528,3.55849915,-4.81979507,,,
imu,232.755911,-1.8985369872,-9.588389384000001,2.3315996144,0.47862971,3.61831443,-4.647826139999999,,,
imu,232.764344,-1.9176778768,-9.561472508000001,2.3244217808,0.42629134,3.98468302,-4.35622665,,,
imu,232.772778,-1.9033222096,-9.606932120800002,2.30288828,0.25432241,4.08188285,-4.48333412,,,
imu,232.781211,-1.8596570552,-9.583006008800002,2.2915233768,-0.06718472,4.31366706,-4.737549059999999,,,
imu,232.789645,-1.8758071808,-9.3975786408,2.3034864328,-0.10456927,4.6426511,-4.70016451,,,
imu,232.798078,-1.845301388,-9.513022131200001,2.3070753496,0.2468455,4.89686604,-4.21416536,,,
imu,232.806512,-1.8500866104,-9.623082246400001,2.281952932,0.71789083,5.10621952,-3.85527368,,,
imu,232.814945,-1.857264444,-9.600352440000002,2.2861400016,0.68050628,5.352957549999999,-3.66087402,,,
imu,232.823379,-1.8429087768,-9.556089132800002,2.3190384056,0.7104139199999999,5.704372319999999,-3.4216129,,,
imu,232.831812,-1.8740127224,-9.648204664000001,2.3800499912,0.76275229,5.92867962,-3.32441307,,,
imu,232.840246,-1.9780913096,-9.754675862400001,2.4081631728,0.57582954,6.38477113,-3.15992105,,,
imu,232.848679,-1.9954377408,-9.805518850400002,2.4183317704,0.007584380000000002,7.177323589999999,-3.02533667,,,
imu,232.857163,-2.0702068408,-9.989749912800002,2.488315648,-0.58309151,8.10446043,-2.98047521,,,
imu,232.865647,-2.2299136384,-9.76484446,2.3884241304,-1.81678166,9.33067367,-3.09262886,,,
imu,232.874131,-2.326814392,-9.718188541600002,2.410555784,-2.77382614,11.10270134,-3.7954584,,,
imu,232.882615,-2.3962001168,-9.935318008000001,2.4368745072,-3.43927113,13.43549726,-4.02724261,,,
imu,232.891098,-2.7700456168,-9.9514681336,2.4631932304,-4.40379252,16.26924615,-3.9449966,,,
imu,232.899582,-3.221650980800001,-9.9658238008,2.527793732800001,-5.794497779999999,20.22453154,-4.602964679999999,,,
imu,232.908083,-3.684621248,-10.0836599024,2.5403549416,-7.26744905,25.79482949,-5.784316459999999,,,
imu,232.916567,-4.085383624,-10.1871403368,2.483530425600001,-9.6226757,33.52595443,-6.666591840000001,,,
imu,232.925051,-4.1757046968,-10.159625308,2.3495441984,-12.60596279,42.67021536,-7.72083615,,,
imu,232.933535,-3.981305036800001,-9.980179468000001,2.3722740048,-15.55186533,52.51730583,-8.81994192,,,
imu,232.942019,-3.6732563448,-9.7540777096,2.3800499912,-17.88466125,61.22042906999999,-9.97138606,,,
imu,232.950503,-3.3502538328,-9.6876827488,2.3531331152,-19.2678896,68.34592430000001,-10.96581509,,,
imu,232.958987,-2.9405191648,-9.725964528,2.4069668672,-20.03053442,74.23025247,-11.89295193,,,
imu,232.967471,-2.52719558,-9.775611210400001,2.4775488976,-20.92776362,78.46218353,-12.28175125,,,
imu,232.975955,-2.2358951664,-9.818080059200001,2.6127314304,-21.92966956,81.41556298,-11.96772103,,,
imu,232.984438,-2.150957468800001,-9.870717505600002,2.6910894472,-23.05868297,83.48666705000001,-11.4219066,,,
imu,232.992922,-2.0672160768,-9.80970592,2.668957793600001,-24.51668042,84.85494158,-11.16021475,,,
imu,233.001406,-1.8799942504,-9.5213962704,2.638452000800001,-26.08683152,85.95404735,-11.09292256,,,
imu,233.00989,-1.6383405192,-9.310248332,2.6599855016,-26.84947634,86.56715397,-11.24993767,,,
imu,233.018374,-1.4122387608,-9.006386709600001,2.6372556952,-26.39338483,86.59706161,-11.0480611,,,
imu,233.026858,-1.1077789856,-8.8251464112,2.678528238400001,-24.86809519,85.72226314000001,-10.44243139,,,
imu,233.035342,-0.7775986400000001,-8.740806866400002,2.775428992000001,-22.69231438,83.65863598,-10.0760628,,,
imu,233.043826,-0.4701481008,-8.6648414608,2.9124059832,-20.09782661,80.70525653,-9.78446331,,,
imu,233.05231,-0.2356722032,-8.657065474400001,3.0410088352,-17.34632373,76.52566384,-9.38071017,,,
imu,233.060785,-0.0532355992,-8.668430377600002,3.156452325600001,-14.76678978,71.25444229,-9.18631051,,,
imu,233.069259,0.0053833752,-8.828735328,3.352646444,-12.35922476,65.66919052,-9.37323326,,,
imu,233.077734,0.0293094872,-8.982460597600001,3.4650991704,-10.42270507,59.91196982,-9.02181849,,,
imu,233.086209,0.0023926112,-8.972292000000001,3.5033809496,-9.31612239,54.31176422999999,-8.44609642,,,
imu,233.094684,-0.0723764888,-9.0596223088,3.5452516456,-8.5759083,48.95829667,-7.78812834,,,
imu,233.103159,-0.1531271168,-8.9956199592,3.581140813600001,-8.00766314,44.03101298,-7.00305279,,,
imu,233.111634,-0.2416537312,-8.8879524552,3.608655842400001,-7.05061866,39.73178973,-6.031054489999999,,,
imu,233.120109,-0.3265914288,-8.900513664000002,3.615833676,-5.794497779999999,35.61948923,-4.83474889,,,
imu,233.128584,-0.4133235848,-8.9818624448,3.6283948848,-4.20191595,32.29226428,-3.74312003,,,
imu,233.137059,-0.4103328208,-8.868213412800001,3.6325819544,-3.02056417,29.00242388,-3.26459779,,,
imu,233.145534,-0.3899956256000001,-8.8987192056,3.6959861512,-1.5476129,25.90698314,-2.62158353,,,
imu,233.154009,-0.4175106544000001,-8.834716856000002,3.7366605416,0.007584380000000002,22.95360369,-1.91127708,,,
imu,233.162484,-0.4707462536000001,-8.9507584992,3.790494293600001,1.54035093,20.03760879,-1.61220068,,,
imu,233.170959,-0.5042428104000001,-9.048257405600001,3.813822252800001,2.6394567,17.5777054,-1.61220068,,,
imu,233.179434,-0.5927694248,-9.079959504000001,3.804251808000001,3.35724006,15.34958622,-2.06081528,,,
imu,233.187909,-0.6585662328000002,-8.934608373600001,3.851505879200001,3.93296213,13.45045108,-1.97856927,,,
imu,233.196384,-0.7070166096,-9.081155809600002,3.926873132,4.74794532,12.03731509,-1.97109236,,,
imu,233.204859,-0.7823838624,-9.193608536000001,3.946612174400001,5.22646756,10.90830168,-2.2253073,,,
imu,233.213334,-0.88227538,-9.222918023200002,3.957977077600001,5.15169846,10.07088776,-2.2253073,,,
imu,233.221809,-0.8816772272000001,-9.219927259200002,3.9352472712,4.77037605,9.577411699999999,-2.04586146,,,
imu,233.230284,-0.8906495192000001,-9.2127494256,3.931658354400001,4.32176145,9.143750919999999,-1.6271545,,,
imu,233.238759,-0.9014162696000001,-9.247442288000002,3.929863896000001,4.06754651,8.83719761,-1.12620153,,,
imu,233.247234,-0.8469843648000001,-9.102091157600002,3.862272629600001,3.70117792,8.65775177,-0.6476792899999999,,,
imu,233.255709,-0.9014162696000001,-9.125419116800002,3.888591352800001,3.88062376,8.20166026,-0.40094126,,,
imu,233.264236,-0.9887465784000001,-9.202580828,3.8509077264,3.91800831,7.96239914,-0.11681868,,,
imu,233.272763,-1.0312154272,-9.218132800800001,3.8287760728,3.86566994,7.96239914,0.38413429,,,
imu,233.281291,-1.0814602624,-9.304864956800001,3.832963142400001,3.71613174,8.06707588,0.54862631,,,
imu,233.289818,-1.079665804,-9.221123564800001,3.739651305600001,3.589024269999999,8.396059919999999,0.1224424399999999,,,
imu,233.298345,-1.1011993048,-9.100894852000001,3.7223048744,3.64883955,8.72504396,0.02524261000000028,,,
imu,233.306872,-1.0264302048,-9.1481489232,3.6810323312,4.32923836,9.009166539999999,0.2869344599999999,,,
imu,233.315399,-1.0371969552,-9.231890315200001,3.614637370400001,5.15917537,9.39048895,0.30188828,,,
imu,233.323926,-1.0533470808,-9.298285276000001,3.5733648272,5.54797469,9.76433445,0.2495499100000003,,,
imu,233.332453,-0.9911391896000001,-9.342548583200001,3.530895978400001,5.88443564,10.28771815,0.2645037299999999,,,
imu,233.34098,-0.9432869656,-9.343744888800002,3.500390185600001,6.05640457,10.78119421,-0.2514030599999999,,,
imu,233.349507,-0.9373054376000002,-9.422102905600001,3.4650991704,6.36295788,11.12513207,-0.6476792899999999,,,
imu,233.358035,-0.9229497704,-9.481918185600001,3.418443252,6.49754226,11.43916229,-1.20844754,,,
imu,233.366562,-0.8433954480000001,-9.3586987088,3.386143000800001,6.28071187,11.77562324,-1.97109236,,,
imu,233.375089,-0.8756956992000001,-9.367671000800001,3.374778097600001,6.29566569,11.77562324,-2.62158353,,,
imu,233.383616,-0.9408943544,-9.4633754488,3.3520482912,6.35548097,11.61860813,-3.26459779,,,
imu,233.392143,-0.9498666464000002,-9.499862769600002,3.307784984,6.1536044,11.84291543,-3.89265823,,,
imu,233.40067,-0.9367072848000002,-9.4526086984,3.2850551776,5.66012834,11.9700229,-4.53567249,,,
imu,233.409197,-0.9881484256000002,-9.287518525600001,3.2623253712,5.45825177,11.99993054,-4.602964679999999,,,
imu,233.417724,-0.9666149248000001,-9.3868118904,3.2581383016,5.63769761,12.14946874,-4.43847266,,,
imu,233.426252,-0.9229497704,-9.472347740800002,3.258736454400001,5.57788233,12.52331424,-4.146873169999999,,,
imu,233.434779,-0.9313239096000001,-9.514218436800002,3.2635216768,5.06197554,12.6429448,-3.82536604,,,
imu,233.443306,-0.9235479232000001,-9.562070660800002,3.2443807872,4.35166909,12.66537553,-3.36179762,,,
imu,231.825902,,,,,,,74.00003559999999,-4.058924400000019,0.8362079999999938
imu,231.92719,,,,,,,75.916566,-4.962257200000009,-1.837168800000011
imu,232.028752,,,,,,,73.93899960000002,-4.180996400000003,0.6286855999999896
imu,232.130345,,,,,,,74.17093640000002,-4.351897200000021,-0.3356832000000032
imu,232.231999,,,,,,,73.07228839999999,-4.425140400000016,0.9460727999999974
imu,232.33347,,,,,,,72.5840004,-4.132167600000014,0.7995863999999964
imu,232.437352,,,,,,,72.5840004,-4.388518800000019,0.9949015999999977
imu,232.536687,,,,,,,72.4619284,-4.620455600000017,1.263459999999994
imu,233.451833,-0.8535640456000001,-9.568052188800001,3.2138749944,3.64136264,12.71023699,-3.24964397,,,
imu,233.46036,-0.8206656416,-9.5010590752,3.1857618128,2.70674889,12.74014463,-3.35432071,,,
imu,233.469135,-0.7793930984000002,-9.517807353600002,3.170807992800001,2.05625772,12.50836042,-3.46647436,,,
imu,233.477909,-0.6866794144,-9.541733465600002,3.1743969096,1.64502767,12.06722273,-3.44404363,,,
imu,233.486683,-0.6113121616,-9.565061424800001,3.158246784000001,1.18145925,11.34196246,-3.68330475,,,
imu,233.495458,-0.5544876456000001,-9.5219944232,3.1438911168,0.5982602699999999,10.40734871,-4.00481188,,,
imu,233.504232,-0.5144114080000001,-9.555490980000002,3.1438911168,0.04496892999999999,9.323196759999998,-4.19173463,,,
imu,233.513007,-0.4533998224,-9.5237888816,3.146881880800001,-0.13447691,8.27642936,-4.04967334,,,
imu,233.521781,-0.3756399584,-9.5219944232,3.1588449368,-0.38121494,6.885724099999999,-3.97490424,,,
imu,233.530556,-0.2595983152,-9.5249851872,3.154059714400001,-0.58309151,5.45015738,-3.78798149,,,
imu,233.53933,-0.080750628,-9.552500216,3.1923414936,-0.71767589,3.53606842,-3.60105874,,,
imu,233.548105,0.1112564208,-9.596763523200002,3.167817228800001,-0.81487572,1.06121121,-3.28702852,,,
imu,233.556879,0.3684621248000001,-9.5812115504,3.1486763392,-0.89712173,-2.0865679,-3.15244414,,,
imu,233.565654,0.7171852072000001,-9.573435564,3.164228312,-0.7550604399999999,-6.296068229999999,-3.10758268,,,
imu,233.574428,1.1191438888,-9.579417092000002,3.1618357008,-0.51579932,-11.8065509,-3.10758268,,,
imu,233.583203,1.4313796504,-9.551902063200002,3.136115130400001,-0.10456927,-18.78250793,-2.93561375,,,
imu,233.591977,1.5934790592,-9.596763523200002,3.113983476800001,0.26179932,-26.81270927,-2.26269185,,,
imu,233.600752,1.6233866992,-9.5877912312,3.0469903632,0.51601426,-35.33638667,-0.63272547,,,
imu,233.609526,1.5719455584,-9.588987536800001,3.056560808,0.74779847,-43.93483317,1.78979337,,,
imu,233.6183,1.417622136,-9.578818939200001,3.071514628,0.7702292,-52.24915709,4.922618659999999,,,
imu,233.627075,1.2136520312,-9.558481744000002,2.9925584584,0.65807555,-60.07748186,8.35452035,,,
imu,233.635849,0.9821668976000001,-9.5004609224,2.9500896096,0.22441477,-67.09082344,11.66679148,,,
imu,233.644624,0.7656355840000001,-9.426289975200001,2.8669463704,0.20198404,-73.41628929999999,14.62017093,,,
imu,233.653398,0.5191966304000001,-9.353913486400002,2.7550917968,0.32909151,-79.01649488999999,17.3641969,,,
imu,233.662173,0.2506260232,-9.226506940000002,2.6839116136,0.7702292,-84.02602458999999,19.67456209,,,
imu,233.670619,-0.107667504,-9.2001882168,2.7730363808,1.73475059,-87.96635615999999,21.44658976,,,
imu,233.679064,-0.4821111568000001,-9.338959666400001,2.8029440208,2.87871782,-90.99450470999999,23.23357125,,,
imu,233.68751,-0.8021229048,-9.4801237272,2.790382812,3.47687062,-92.81139384,24.31024629,,,
imu,233.695956,-1.1107697496,-9.511227672800002,2.8358424248,3.19274804,-93.61890011999999,24.28033865,,,
imu,233.704401,-1.444539012,-9.481320032800001,2.8627593008,2.85628709,-93.12542405999999,24.10089281,,,
imu,233.712847,-1.7232782168,-9.499264616800001,2.891470635200001,2.34785721,-91.23376583,24.11584663,,,
imu,233.721293,-1.9176778768,-9.435262267200002,2.9142004416,1.65250458,-88.25047873999999,24.13827736,,,
imu,233.729739,-2.066617924,-9.3688673064,2.980595402400001,1.20388998,-84.19051660999999,24.13080045,,,
imu,233.738184,-2.3244217808,-9.432869656000001,3.09544074,1.0693056,-79.36043274999999,24.36258466,,,
imu,233.74663,-2.52719558,-9.5985579816,3.2066971608,0.8749059399999999,-73.77518097999999,24.41492303,,,
imu,233.755076,-2.606749902400001,-9.7504887928,3.3394870824,0.20946095,-67.46466894,23.91397006,,,
imu,233.763522,-2.5188214408,-9.811500378400002,3.391526376000001,-1.10647521,-61.24387982,22.5232648,,,
imu,233.771967,-2.4500338688,-9.8432024768,3.4022931264,-2.69905704,-55.14272126,20.17551506,,,
imu,233.780413,-2.3991908808,-9.769031529600001,3.3664039584,-4.29163887,-49.08642416,17.52121201,,,
imu,233.788859,-2.3160476416,-9.5907819952,3.3269258736,-5.70477486,-43.39649565,14.47063273,,,
imu,233.797305,-2.156340844,-9.504647992000002,3.3113739008,-6.43751204,-38.08788955,11.3826689,,,
imu,233.80575,-1.9661282536,-9.4591883792,3.3119720536,-6.58705024,-33.19799041,8.63116602,,,
imu,233.814196,-1.797449164,-9.431075197600002,3.312570206400001,-6.29545075,-28.77165969,6.29089319,,,
imu,233.822642,-1.6323589912,-9.382624820800002,3.3646095,-5.99637435,-24.9659125,4.61606535,,,
imu,233.831088,-1.477437416,-9.4005694048,3.4070783488,-5.480467559999999,-21.63121064,3.33003683,,,
imu,233.839533,-1.4307814976,-9.450216087200001,3.435789683200001,-4.97951459,-18.70026192,2.64963802,,,
imu,233.847979,-1.309954632,-9.471749588000002,3.4776603792,-4.90474549,-16.15811252,1.94680848,,,
imu,233.856425,-1.2226243232,-9.457992073600002,3.4824456016,-5.293544809999999,-13.85522424,1.16173293,,,
imu,233.864871,-1.2058760448,-9.3269966104,3.490221588,-5.92160525,-12.1056273,0.2046884499999999,,,
imu,233.873321,-1.172379488,-9.2067678976,3.5267089088,-6.36274294,-10.42332255,-0.8420789499999999,,,
imu,233.881772,-1.2010908224,-9.096707782400001,3.4920160464,-6.60948097,-9.01766347,-1.88884635,,,
imu,233.890223,-1.2106612672,-9.034499891200001,3.487230824,-6.45994277,-7.769019500000001,-2.84589083,,,
imu,233.898674,-1.1532385984,-8.984255056000002,3.4650991704,-5.96646671,-6.49046789,-3.72816621,,,
imu,233.907125,-1.1299106392,-8.9178600952,3.481249296000001,-5.38326773,-5.24182392,-4.32631901,,,
imu,233.915576,-1.124527264,-8.882569080000001,3.478856684800001,-4.463607799999999,-3.85111866,-4.759979789999999,,,
imu,233.924027,-1.0868436376,-8.857446662400001,3.472875156800001,-3.10281018,-2.87164345,-5.11887147,,,
imu,233.932478,-1.0712916648,-8.831726092,3.4417712112,-1.66724346,-2.0117988,-5.283363489999999,,,
imu,233.940929,-1.0156634544,-8.899317358400001,3.462108406400001,-0.11952309,-1.45850746,-5.75440882,,,
imu,233.94938,-0.9175663952000002,-8.937599137600001,3.4800529904,1.34595127,-1.16690797,-6.33013089,,,
imu,233.957831,-0.9648204664000001,-9.058426003200001,3.5267089088,2.6394567,-1.29401544,-7.249790819999999,,,
imu,233.966282,-0.9396980488000001,-9.094315171200002,3.539270117600001,3.34976315,-1.61552257,-8.34141968,,,
imu,233.974733,-0.8619381848000001,-9.222918023200002,3.565588840800001,3.95539286,-2.26601374,-9.23117197,,,
imu,233.983184,-0.8697141712000002,-9.364082084000001,3.649330232800001,4.30680763,-2.96884328,-10.12840117,,,
imu,233.991634,-0.9067996448000001,-9.509433214400001,3.664882205600001,3.95539286,-3.68662664,-11.04058419,,,
imu,233.999985,-0.9247442288000001,-9.5877912312,3.6672748168,3.02825602,-4.15019506,-11.17516857,,,
imu,234.008436,-0.9396980488000001,-9.580613397600002,3.6774434144,2.0413039,-4.41188691,-11.14526093,,,
imu,234.016887,-0.9600352440000001,-9.5237888816,3.648732080000001,1.00201341,-4.46422528,-10.86861526,,,
imu,234.025338,-0.9367072848000002,-9.405952780000002,3.5841315776,0.08983038999999998,-4.51656365,-10.45738521,,,
imu,234.033789,-0.998915176,-9.370661764800001,3.6080576896,-0.38869185,-4.42684073,-9.71717112,,,
imu,234.042239,-0.9941299536000001,-9.311444637600001,3.5847297304,-0.45598404,-4.07542596,-8.75264973,,,
imu,234.05069,-0.963026008,-9.3317818328,3.587720494400001,-0.23915365,-3.68662664,-7.646067049999999,,,
imu,234.059141,-0.9719983000000001,-9.416121377600001,3.588916800000001,0.35899915,-3.26044277,-7.055391159999999,,,
imu,234.067592,-0.9983170232,-9.329389221600001,3.564392535200001,0.66555246,-3.11090457,-6.905852959999999,,,
imu,234.076043,-0.9893447312000001,-9.222319870400002,3.5691777576,0.9945364999999999,-2.99127401,-7.100252619999999,,,
imu,234.084507,-1.0210468296,-9.2061697448,3.5482424096,1.55530475,-2.89407418,-7.75074379,,,
imu,234.092971,-1.058730456,-9.132596950400002,3.4740714624,2.13102682,-2.909028,-8.588157709999999,,,
imu,234.101435,-1.0874417904,-9.0542389336,3.4477527392,2.91610237,-2.86416654,-9.44800236,,,
imu,234.109899,-1.1317050976,-9.001003334400002,3.3807596256,3.62640882,-2.73705907,-10.59196959,,,
imu,234.118363,-1.148453376,-8.975282764000001,3.354440902400001,4.36662291,-2.78939744,-11.56396789,,,
imu,234.126827,-1.2154464896,-9.044668488800001,3.3837503896,5.28628284,-2.63238233,-12.20698215,,,
imu,234.135291,-1.3051694096,-9.0787631984,3.3987042096,5.94425092,-2.32582902,-12.92476551,,,
imu,234.143755,-1.3207213824,-9.042874030400002,3.3969097512,6.39286552,-1.95198352,-13.32104174,,,
imu,234.152219,-1.3560123976,-9.066201989600001,3.418443252,7.04335669,-1.24915398,-13.11168826,,,
imu,234.160683,-1.3781440512,-9.214543884000001,3.4351915304,7.58917112,-0.5687551700000002,-12.73036585,,,
imu,234.169147,-1.36079762,-9.342548583200001,3.4316026136,7.76114005,0.27613566,-11.90042884,,,
imu,234.177611,-1.3500308696,-9.372456223200002,3.42442478,7.82095533,1.33037997,-11.16021475,,,
imu,234.186075,-1.3745551344,-9.439449336800001,3.4339952248,7.74618623,1.97339423,-10.43495448,,,
imu,234.194539,-1.3829292736,-9.499862769600002,3.4447619752,7.55926348,2.63883922,-9.68726348,,,
imu,234.203003,-1.3320862856,-9.437654878400002,3.385544848,7.08821815,3.20708438,-9.18631051,,,
imu,234.211467,-1.3063657152,-9.389204501600002,3.346066763200001,7.0508336,3.69308353,-8.52834243,,,
imu,234.219931,-1.2854303672,-9.4041583216,3.302999761600001,7.16298725,3.68560662,-8.16197384,,,
imu,234.228395,-1.2997860344,-9.4460290176,3.318551734400001,7.1256027,3.7454219,-7.840466709999999,,,
imu,234.236859,-1.2429615184,-9.437056725600002,3.3275240264,6.95363377,3.60336061,-7.85542053,,,
imu,234.245323,-1.2435596712,-9.5004609224,3.391526376000001,6.87886467,3.34166876,-7.930189629999999,,,
imu,234.253787,-1.2333910736,-9.568052188800001,3.372385486400001,6.60969591,3.02016163,-7.847943620000001,,,
imu,234.262251,-1.2214280176,-9.541733465600002,3.341879693600001,6.25828114,2.63883922,-7.474098119999999,,,
imu,232.645635,,,,,,,72.3886852,-5.328473200000006,0.2868839999999984
imu,232.841252,,,,,,,71.97364040000001,-4.974464400000023,0.3967487999999908
imu,232.942815,,,,,,,73.0356668,-5.743518000000014,-3.949014400000006
imu,233.044347,,,,,,,66.6879228,-3.228834800000002,-5.304013600000001
imu,233.14597,,,,,,,64.9422932,-2.484195600000016,-9.076038400000009
imu,233.247502,,,,,,,64.441798,-1.812799600000004,-7.879732800000006
imu,233.349065,,,,,,,64.60049160000001,-2.130186800000011,-7.928561600000005
imu,233.451299,,,,,,,63.9290956,-2.020322000000019,-9.185903200000013
imu,234.270715,-1.2363818376,-9.3269966104,3.279671802400001,5.72742053,2.12293243,-7.122683349999999,,,
imu,234.279537,-1.1717813352,-9.353315333600001,3.3083831368,5.69003598,1.43505671,-7.1600679,,,
imu,234.288359,-1.2304003096,-9.443636406400001,3.254549384800001,6.04145075,0.7546578999999998,-6.61425347,,,
imu,234.297182,-1.3075620208,-9.440645642400002,3.2527549264,6.21341968,0.21632038,-6.098346680000001,,,
imu,234.306004,-1.3243102992,-9.389204501600002,3.228828814400001,6.26575805,-0.2397711300000003,-5.60487062,,,
imu,234.314826,-1.3446474944,-9.329987374400002,3.2366048008,6.42277316,-0.7108164600000002,-5.46280933,,,
imu,234.323648,-1.3930978712,-9.325202152000001,3.236006648,6.74428029,-1.12952342,-4.67773378,,,
imu,234.33247,-1.3811348152,-9.3652783896,3.1947341048,7.14803343,-1.31644617,-3.83284295,,,
imu,234.341293,-1.3530216336,-9.4490197816,3.186958118400001,7.4246791,-1.32392308,-3.02533667,,,
imu,234.350115,-1.3721625232,-9.461580990400002,3.1600412424,7.24523326,-1.66038403,-2.39727623,,,
imu,234.358937,-1.3829292736,-9.436458572800001,3.1277409912,7.24523326,-1.69776858,-1.78416961,,,
imu,234.367759,-1.4373611784,-9.249236746400001,3.0583552664,7.22280253,-1.59309184,-1.69444669,,,
imu,234.376582,-1.411640608,-9.270172094400001,3.056560808,7.85086297,-1.36878454,-1.52247776,,,
imu,234.385404,-1.2866266728,-9.545322382400002,3.0122975008,8.31443139,-1.09213887,-0.77478676,,,
imu,234.394226,-1.3225158408,-9.554294674400001,2.9530803736,8.217231559999998,-0.86035466,-1.36546265,,,
imu,234.403048,-1.4660725128,-9.398176793600001,2.954874832000001,7.83590915,-0.6734319100000001,-1.67201596,,,
imu,234.411871,-1.399677552,-9.4526086984,2.9722212632,8.06769336,-0.20986349,-1.19349372,,,
imu,234.420693,-1.336871508,-9.5602762024,2.9512859152,8.30695448,0.33595094,-1.01404788,,,
imu,234.429515,-1.3865181904,-9.5668558832,2.9273598032,8.172370099999998,0.7471809899999999,-1.33555501,,,
imu,234.438337,-1.4074535384,-9.516611048000001,2.9267616504,7.80600151,1.0537343,-1.50004703,,,
imu,234.447159,-1.4020701632,-9.509433214400001,2.920181969600001,7.69384786,1.36028761,-1.50752394,,,
imu,234.455982,-1.3715643704,-9.527975951200002,2.9165930528,7.58917112,1.46496435,-2.01595382,,,
imu,234.464804,-1.3889108016,-9.568650341600001,2.9004429272,7.46954056,1.83880985,-2.27764567,,,
imu,234.473626,-1.402668316,-9.571042952800001,2.895657704800001,7.2003718,1.94348659,-2.47204533,,,
imu,234.48211,-1.4020701632,-9.599754287200001,2.9237708864,6.58726518,1.93600968,-2.748691,,,
imu,234.490594,-1.3829292736,-9.6087265792,2.9423136232,6.06388148,2.13040934,-2.57672207,,,
imu,234.499078,-1.3284973688,-9.595567217600001,2.945304387200001,5.53302087,2.30237827,-2.21783039,,,
imu,234.507562,-1.2997860344,-9.591978300800001,2.945304387200001,4.8825297,2.35471664,-1.7019236,,,
imu,234.516046,-1.2842340616,-9.604539509600002,2.942911776,4.50120729,2.51173175,-0.79721749,,,
imu,234.52453,-1.262102408,-9.603343204000002,2.924967192,4.1348387,2.63883922,0.1972115400000001,,,
imu,234.533013,-1.2405689072,-9.573435564,2.924967192,3.76847011,2.75099287,1.22154821,,,
imu,234.541497,-1.1975019056,-9.555490980000002,2.9142004416,3.55163972,2.81828506,1.94680848,,,
imu,234.549981,-1.1311069448,-9.520199964800002,2.8944613992,3.32733242,3.01268472,2.62720729,,,
imu,234.558465,-1.067702748,-9.482516338400002,2.8819001904,3.282470959999999,2.82576197,3.11320644,,,
imu,234.566949,-1.0515526224,-9.447225323200001,2.838833188800001,3.45443989,2.59397776,3.39732902,,,
imu,234.575433,-1.03181358,-9.471749588000002,2.841225800000001,3.61893191,2.23508608,3.35994447,,,
imu,234.583917,-1.0054948568,-9.468160671200001,2.8328516608,3.64883955,1.89114822,3.20292936,,,
imu,234.592401,-0.9971207176000002,-9.461580990400002,2.8573759256,3.55163972,1.56216418,2.82908386,,,
imu,234.600884,-0.9737927584000001,-9.474142199200001,2.8519925504,3.49182444,1.09111885,2.36551544,,,
imu,234.609368,-0.9672130776000001,-9.5172092008,2.859170384,3.60397809,0.6798887999999996,1.67016281,,,
imu,234.617852,-0.9839613560000001,-9.5590798968,2.8729278984,3.56659354,0.3060432999999998,1.15425602,,,
imu,234.626336,-1.00190594,-9.591978300800001,2.8789094264,3.18527113,-0.0603252900000002,0.6757337799999998,,,
imu,234.63482,-1.0162616072,-9.610521037600002,2.8998447744,2.69179507,-0.2995864100000003,0.07758098000000002,,,
imu,234.643304,-1.0336080384,-9.612913648800001,2.8944613992,2.37028794,-0.4715553400000001,-0.5654332799999999,,,
imu,234.651788,-1.0748805816,-9.599156134400001,2.895657704800001,1.68988913,-0.5612782599999999,-1.0290017,,,
imu,234.660272,-1.1047882216,-9.5668558832,2.895657704800001,1.30108981,-0.35192478,-1.16358608,,,
imu,234.668756,-1.127518028,-9.555490980000002,2.8902743296,1.17398234,-0.1126636599999999,-1.35798574,,,
imu,234.677239,-1.1382847784,-9.554294674400001,2.8836946488,0.97958268,0.01444380999999995,-1.61967759,,,
imu,234.685697,-1.15144414,-9.516012895200001,2.891470635200001,0.8973366700000001,0.3135202100000001,-1.69444669,,,
imu,234.694154,-1.16639796,-9.468758824,2.8687408288,1.00201341,0.7397040799999997,-1.71687742,,,
imu,234.702611,-1.148453376,-9.447225323200001,2.863955606400001,1.20388998,1.07616503,-1.69444669,,,
imu,234.711068,-1.1352940144,-9.425691822400001,2.910611524800001,1.39828964,1.47991817,-1.90380017,,,
imu,234.719525,-1.1317050976,-9.448421628800002,2.924369039200001,1.60016621,1.56964109,-2.00847691,,,
imu,234.727983,-1.1209383472,-9.492684936000002,2.9231727336,1.90671952,1.77151766,-1.93370781,,,
imu,234.73644,-1.0802639568,-9.462777296000002,2.9297524144,2.08616536,1.9509635,-1.96361545,,,
imu,234.744897,-1.064711984,-9.451412392800002,2.9674360408,1.8917657,1.97339423,-1.94866163,,,
imu,234.753354,-1.07667504,-9.507040603200002,2.978202791200001,2.07868845,1.97339423,-1.79912343,,,
imu,234.761811,-1.0724879704,-9.533359326400001,2.9811935552,2.03382699,1.92853277,-1.58976995,,,
imu,234.770268,-1.037795108,-9.552500216,2.990764,1.63755076,1.84628676,-1.33555501,,,
imu,234.778726,-1.0156634544,-9.520199964800002,3.001530750400001,1.33847436,1.8014253,-1.253309,,,
imu,234.787183,-1.022841288,-9.479525574400002,3.002727056,1.23379762,1.88367131,-0.99909406,,,
imu,234.79564,-1.0096819264,-9.4962738528,2.981791708,1.17398234,1.64441019,-0.76730985,,,
imu,234.804097,-0.9857558144000002,-9.4801237272,2.9704268048,1.03939796,1.65936401,-0.5878640099999999,,,
imu,234.812554,-0.9893447312000001,-9.4526086984,2.957267443200001,0.9272443100000001,1.49487199,-0.60281783,,,
imu,234.821012,-0.9923354952000002,-9.431075197600002,2.9506877624,1.09921324,1.39019525,-0.68506384,,,
imu,234.829469,-0.9773816752000002,-9.3766432928,2.9512859152,1.21136689,1.07616503,-0.8420789499999999,,,
imu,234.837926,-0.9492684936000001,-9.3479319584,2.951884068,1.48053565,0.8817653699999997,-1.04395552,,,
imu,234.846383,-0.9528574104000002,-9.404756474400001,2.957267443200001,1.86933497,0.5677351499999999,-1.13367844,,,
imu,234.85484,-0.9869521200000001,-9.4412437952,2.9470988456,2.19831901,0.4331507699999997,-1.17106299,,,
imu,234.863298,-0.9857558144000002,-9.402363863200002,2.9375284008,2.37776485,0.47801223,-1.05890934,,,
imu,234.871755,-0.9887465784000001,-9.3927934184,2.9423136232,2.70674889,0.4929660499999997,-1.0290017,,,
imu,234.880212,-1.007887468,-9.4280844336,2.9441080816,3.10302512,0.4555814999999996,-0.9766633299999998,,,
imu,234.888681,-1.0312154272,-9.48072188,2.9345376368,3.30490169,0.3209971199999999,-0.8719865899999999,,,
imu,234.897149,-1.043776636,-9.48072188,2.943509928800001,3.33480933,0.35838167,-0.7299252999999999,,,
imu,234.905618,-1.06172122,-9.493283088800002,2.969828652,3.21517877,0.56025824,-0.6551562,,,
imu,234.914086,-1.0371969552,-9.499862769600002,2.9650434296,3.1628404,0.70231953,-0.4981410899999998,,,
imu,234.922555,-1.0031022456,-9.501657228000001,2.9722212632,3.20770186,0.6873657099999999,-0.3560797999999998,,,
imu,234.931024,-0.9953262592000002,-9.5148165896,2.9722212632,3.20022495,0.64250425,-0.3112183399999999,,,
imu,234.939492,-0.9845595088000001,-9.532163020800002,2.975810180000001,3.02825602,0.52287369,-0.32617216,,,
imu,234.947961,-0.9702038416000002,-9.538742701600002,2.957267443200001,2.81890254,0.3733354899999997,-0.2514030599999999,,,
imu,233.552066,,,,,,,63.9168884,-2.423159600000013,-9.381218400000002
imu,233.653629,,,,,,,64.58828439999999,-1.849421200000023,-8.160498400000005
imu,233.756076,,,,,,,69.019498,-1.922664400000018,-3.363068800000002
imu,233.856876,,,,,,,73.5239548,-2.166808400000009,-3.826942400000011
imu,233.958286,,,,,,,72.2177844,-1.568655600000013,-2.594015200000011
imu,234.05994,,,,,,,74.573774,-2.618474800000015,-4.96221200000001
imu,234.161472,,,,,,,72.1689556,-2.252258800000018,-1.849376000000003
imu,234.263034,,,,,,,71.6196316,-2.410952400000022,-3.582798400000009
imu,234.95643,-0.9349128264000002,-9.530368562400001,2.951884068,2.75908726,0.2237972899999998,-0.17663396,,,
imu,234.964898,-0.9247442288000001,-9.495675700000001,2.938126553600001,2.50487232,-0.03789456000000024,0.03271952000000011,,,
imu,234.973367,-0.8900513664000002,-9.507040603200002,2.9303505672,2.3403803,-0.3294940500000001,-0.004665029999999959,,,
imu,234.981835,-0.8691160184000001,-9.512423978400001,2.907022608,2.39271867,-0.68090882,-0.1093417699999999,,,
imu,234.990304,-0.8589474208000002,-9.4962738528,2.8884798712,2.28804193,-0.94260067,0.0626271599999999,,,
imu,234.998773,-0.8475825176000001,-9.489694172,2.8819001904,2.10111918,-1.31644617,-0.07195722000000004,,,
imu,235.007241,-0.8559566568000001,-9.520199964800002,2.8699371344,2.17588828,-1.63047639,-0.29626452,,,
imu,235.01571,-0.8469843648000001,-9.5327611736,2.8519925504,2.08616536,-2.10152172,-0.51309491,,,
imu,235.024179,-0.8254508640000001,-9.5501076048,2.847207328000001,2.12354991,-2.19124464,-0.5878640099999999,,,
imu,235.032647,-0.8326286976000001,-9.572239258400002,2.8256738272,2.28804193,-2.303398290000001,-0.4981410899999998,,,
imu,235.041116,-0.8493769760000001,-9.557883591200001,2.8238793688,2.25065738,-2.33330593,-0.04204958000000003,,,
imu,235.049584,-0.8505732816000001,-9.522592576000001,2.8095237016,2.0413039,-2.45293649,-0.1018648599999998,,,
imu,235.058053,-0.8529658928000001,-9.468758824,2.794569881600001,2.0413039,-2.31835211,-0.08691103999999994,,,
imu,235.066522,-0.8912476720000001,-9.4753385048,2.805336632,2.116073,-2.28096756,-0.14672632,,,
imu,235.07499,-0.9139774784000001,-9.4382530312,2.8035421736,2.28056502,-2.15386009,-0.4532796299999999,,,
imu,235.083459,-0.8786864632000002,-9.555490980000002,2.8101218544,2.51234923,-1.97441425,-1.11872462,,,
imu,235.091958,-0.9139774784000001,-9.648802816800002,2.7951680344,2.69179507,-1.86973751,-1.96361545,,,
imu,235.100424,-0.9181645480000001,-9.575230022400001,2.8029440208,2.31794957,-1.712722400000001,-1.54490849,,,
imu,235.10889,-0.8876587552000001,-9.5668558832,2.808327396000001,2.30299575,-1.286538530000001,-1.64958523,,,
imu,235.117356,-0.9199590064000001,-9.562668813600002,2.7688493112,2.37776485,-0.9650314,-2.15801511,,,
imu,235.125822,-0.9319220624000001,-9.5237888816,2.7556899496,2.47496468,-0.37435551,-2.13558438,,,
imu,235.134288,-0.8810790744000001,-9.513620284000002,2.742530588,2.6394567,0.02192071999999978,-1.95613854,,,
imu,235.142754,-0.8583492680000002,-9.4962738528,2.7168100176,3.02825602,0.33595094,-1.98604618,,,
imu,235.15122,-0.8523677400000002,-9.501657228000001,2.70664142,3.43948607,0.6499811599999998,-2.06829219,,,
imu,235.159686,-0.8128896552000001,-9.499862769600002,2.6970709752,3.71613174,0.84438082,-2.2253073,,,
imu,235.168153,-0.7991321408000002,-9.487899713600001,2.699463586400001,3.947915950000001,0.86681155,-2.62906044,,,
imu,235.176619,-0.8104970440000001,-9.48072188,2.6845097664,3.95539286,0.6574580699999997,-3.2720747,,,
imu,235.185085,-0.8003284464,-9.469356976800002,2.6815190024,4.32176145,0.78456554,-3.39918217,,,
imu,235.193551,-0.7823838624,-9.508835061600001,2.699463586400001,4.53111493,0.5677351499999999,-3.48142818,,,
imu,235.202017,-0.7973376824000001,-9.575230022400001,2.686902377600001,4.59093021,0.50044296,-3.47395127,,,
imu,235.210483,-0.7997302936000001,-9.623680399200001,2.7084358784,4.34419218,0.4331507699999997,-3.32441307,,,
imu,235.218949,-0.8033192104000001,-9.632054538400002,2.7072395728,4.04511578,0.3882893099999998,-3.07767504,,,
imu,235.227415,-0.8140859608000002,-9.617698871200002,2.7102303368,3.589024269999999,0.2387511099999999,-2.9729983,,,
imu,235.235881,-0.8188711832000002,-9.633250844,2.713221100800001,3.07311748,0.11164364,-3.04029049,,,
imu,235.244347,-0.8236564056000001,-9.6799067624,2.709632184,2.87871782,0.05930526999999985,-3.10010577,,,
imu,235.252813,-0.8290397808000001,-9.7086180968,2.706043267200001,2.46001086,0.006966899999999665,-3.17487487,,,
imu,235.261279,-0.8529658928000001,-9.6745233872,2.7162118648,1.76465823,-0.06780220000000003,-3.45899745,,,
imu,235.269746,-0.8643307960000001,-9.638634219200002,2.726978615200001,1.32352054,-0.0603252900000002,-3.44404363,,,
imu,235.278212,-0.8631344904,-9.6290637744,2.694678364,0.9945364999999999,-0.03041764999999996,-3.52628964,,,
imu,235.286678,-0.8834716856000001,-9.604539509600002,2.70664142,0.65059864,-0.01546383000000029,-3.6459202,,,
imu,235.295487,-0.900219964,-9.614708107200002,2.7138192536,0.32909151,0.08921290999999965,-3.58610492,,,
imu,235.304296,-0.9020144224000001,-9.5877912312,2.7000617392,0.08235347999999998,0.35838167,-3.39170526,,,
imu,235.313105,-0.9109867144000001,-9.5668558832,2.6863042248,-0.05970781,0.5976427899999996,-3.37675144,,,
imu,235.321914,-0.8882569080000001,-9.543527924000001,2.685706072000001,-0.07466163,0.7920424499999998,-3.39170526,,,
imu,235.330723,-0.8649289488,-9.5602762024,2.724586004,-0.0522309,0.8742884599999998,-3.40665908,,,
imu,235.339532,-0.8577511152000001,-9.614109954400002,2.7568862552,0.03749201999999999,0.9041961000000001,-3.6459202,,,
imu,235.348341,-0.8810790744000001,-9.6296619272,2.7509047272,-0.127,1.03130357,-3.65339711,,,
imu,235.357149,-0.8721067824000002,-9.602745051200001,2.7802142144,-0.40364567,1.16588795,-3.66087402,,,
imu,235.365958,-0.86732156,-9.613511801600001,2.7855975896,-0.82235263,1.15093413,-3.87770441,,,
imu,235.374767,-0.8685178656000001,-9.624278552000002,2.787392048000001,-1.06161375,1.12102649,-4.124442439999999,,,
imu,235.383576,-0.8882569080000001,-9.585398620000001,2.775428992000001,-1.30835178,1.13598031,-4.22164227,,,
imu,235.392385,-0.8679197128000001,-9.554294674400001,2.8137107712,-1.46536689,1.23318014,-4.27398064,,,
imu,235.401194,-0.8547603512000002,-9.5393408544,2.8035421736,-1.51022835,1.24813396,-4.49081103,,,
imu,235.410003,-0.8679197128000001,-9.4873015608,2.7897846592,-1.51770526,1.15841104,-4.58801086,,,
imu,235.418812,-0.8625363376,-9.393989724,2.7826068256,-1.30835178,1.02382666,-4.90204108,,,
imu,235.427621,-0.8505732816000001,-9.401167557600001,2.784401284,-0.9793677399999999,0.8892422799999999,-5.07401001,,,
imu,235.43643,-0.8314323920000001,-9.440645642400002,2.7586807136,-0.5008455,0.76213481,-5.11139456,,,
imu,235.445239,-0.8296379336000002,-9.4460290176,2.7586807136,0.02253820000000001,0.35838167,-5.14877911,,,
imu,235.454048,-0.8583492680000002,-9.461580990400002,2.7526991856,0.46367589,0.1864127399999997,-5.16373293,,,
imu,235.462857,-0.8756956992000001,-9.434065961600002,2.7281749208,0.9048135799999999,0.19388965,-5.09644074,,,
imu,235.471666,-0.8816772272000001,-9.403560168800002,2.7467176576,1.33847436,0.1714589200000001,-4.81231816,,,
imu,235.480475,-0.8984255056000002,-9.410139849600002,2.739539824,1.76465823,0.08921290999999965,-4.43847266,,,
imu,235.489284,-0.8810790744000001,-9.453206851200001,2.745521352,2.31794957,0.05182836000000002,-4.25154991,,,
imu,235.497761,-0.8768920048000002,-9.5004609224,2.7670548528,2.54973378,-0.03789456000000024,-4.08705789,,,
imu,235.506239,-0.8942384360000002,-9.536948243200001,2.7682511584,2.65441052,0.06678217999999969,-3.82536604,,,
imu,235.514717,-0.9121830200000002,-9.5632669664,2.7718400752,2.63197979,0.1415512799999998,-3.6459202,,,
imu,235.523194,-0.9139774784000001,-9.6523917336,2.7951680344,2.39271867,0.2611818399999999,-3.45899745,,,
imu,235.531672,-0.9121830200000002,-9.723571916800001,2.7957661872,1.98148862,0.2537049300000001,-3.4216129,,,
imu,235.540149,-0.9271368400000001,-9.720581152800001,2.7999532568,1.42072037,0.4929660499999997,-3.2720747,,,
imu,235.548627,-0.9468758824000001,-9.703234721600001,2.7885883536,0.71789083,0.6724118899999998,-3.35432071,,,
imu,235.557104,-0.9337165208000001,-9.703234721600001,2.7855975896,0.15712258,0.8817653699999997,-3.5711511,,,
imu,235.565582,-0.9211553120000001,-9.668541859200001,2.760475172,-0.18681528,1.02382666,-3.74312003,,,
imu,235.574059,-0.9606333968,-9.6434194416,2.7586807136,-0.56066078,1.36028761,-3.75059694,,,
imu,235.582537,-0.9588389384,-9.595567217600001,2.7658585472,-0.71767589,1.74908693,-3.6459202,,,
imu,235.591014,-0.9396980488000001,-9.572837411200002,2.7682511584,-0.67281443,1.98087114,-3.56367419,,,
imu,235.599492,-0.9008181168,-9.543527924000001,2.7556899496,-0.68029134,2.10797861,-3.58610492,,,
imu,235.607969,-0.8691160184000001,-9.553696521600001,2.761671477600001,-0.59056842,2.18274771,-3.59358183,,,
imu,235.616447,-0.8756956992000001,-9.503451686400002,2.7443250464,-0.43355331,2.06311715,-3.55619728,,,
imu,235.624924,-0.8451899064,-9.471151435200001,2.78141052,-0.21672292,2.14536316,-3.4216129,,,
imu,235.633402,-0.8445917536,-9.537546396000002,2.8286645912,-0.20924601,2.23508608,-3.26459779,,,
imu,235.641879,-0.8398065312,-9.630260080000001,2.817897840800001,-0.08961545,2.1752708,-3.24216706,,,
imu,235.650357,-0.7955432240000001,-9.630858232800001,2.802345868,-0.14195382,2.12293243,-3.08515195,,,
imu,235.658835,-0.7835801680000001,-9.602745051200001,2.8035421736,-0.32887657,2.12293243,-2.72626027,,,
imu,235.667312,-0.7925524600000001,-9.557285438400001,2.796962492800001,-0.5307531400000001,1.94348659,-2.5243837,,,
imu,235.67579,-0.7799912512000001,-9.4843107968,2.7706437696,-0.76253735,1.95844041,-2.53186061,,,
imu,235.684267,-0.7967395296000002,-9.443636406400001,2.7748308392,-0.69524516,1.84628676,-2.75616791,,,
imu,235.692745,-0.8248527112,-9.4831144912,2.794569881600001,-0.54570696,1.83880985,-3.01785976,,,
imu,235.701211,-0.8368157672000002,-9.547714993600001,2.799355104,-0.35878421,1.92853277,-3.38422835,,,
imu,235.709677,-0.8266471696000001,-9.592576453600001,2.808327396000001,-0.54570696,1.92853277,-3.87770441,,,
imu,235.718143,-0.8272453224,-9.568650341600001,2.8035421736,-0.79244499,2.01077878,-4.28145755,,,
imu,235.726609,-0.8475825176000001,-9.5566872856,2.8065329376,-0.82235263,2.04068642,-4.58053395,,,
imu,235.735075,-0.86732156,-9.571042952800001,2.819692299200001,-0.8821679099999999,2.10797861,-4.85717962,,,
imu,235.743541,-0.8966310472000002,-9.580613397600002,2.805336632,-0.9943215599999999,2.34723973,-4.63287232,,,
imu,235.752007,-0.8966310472000002,-9.561472508000001,2.7838031312,-1.00927538,2.50425484,-4.55062631,,,
imu,235.760473,-0.8786864632000002,-9.507638756,2.79636434,-0.98684465,2.76594669,-4.48333412,,,
imu,235.768939,-0.8744993936000002,-9.510031367200002,2.804140326400001,-0.80739881,2.86314652,-4.363703559999999,,,
imu,234.364566,,,,,,,71.6196316,-2.887033200000011,-1.495367200000008
imu,234.466129,,,,,,,72.1567484,-3.888023600000023,-0.8117640000000037
imu,234.567813,,,,,,,71.521974,-3.472978800000015,-0.9216288000000072
imu,234.669467,,,,,,,71.90039720000001,-3.448564400000009,-0.714106400000003
imu,234.770816,,,,,,,72.4741356,-3.54622200000001,-1.336673600000005
imu,234.872379,,,,,,,72.59620760000001,-3.167798800000021,-0.8972144000000015
imu,234.973941,,,,,,,74.7202604,-4.144374800000006,-1.800547200000002
imu,235.075626,,,,,,,72.4130996,-3.241042000000016,-0.7507280000000116
imu,235.777405,-0.8810790744000001,-9.530966715200002,2.814308924,-0.7999219,2.85566961,-4.43847266,,,
imu,235.785872,-0.8774901576000002,-9.5566872856,2.802345868,-0.77001426,2.78090051,-4.59548777,,,
imu,235.794338,-0.8529658928000001,-9.551902063200002,2.793373576,-0.71767589,2.64631613,-4.65530305,,,
imu,235.802804,-0.8691160184000001,-9.531564868,2.817299688,-0.76253735,2.57154703,-4.61044159,,,
imu,235.81127,-0.903210728,-9.516012895200001,2.8161033824,-0.8821679099999999,2.44443956,-4.5431494,,,
imu,235.819736,-0.8625363376,-9.524387034400002,2.822084910400001,-0.77749117,2.44443956,-4.48333412,,,
imu,235.828202,-0.8302360864000001,-9.524387034400002,2.82627198,-0.93450628,2.23508608,-4.3936112,,,
imu,235.836668,-0.8140859608000002,-9.534555632000002,2.8244775216,-0.95693701,2.14536316,-4.15435008,,,
imu,235.845134,-0.8511714344000001,-9.5213962704,2.8495999392,-1.15881358,1.86871749,-4.034719519999999,,,
imu,235.8536,-0.8559566568000001,-9.4974701584,2.854983314400001,-1.1737674,1.64441019,-3.98238115,,,
imu,235.862066,-0.8595455736000001,-9.4944793944,2.866348217600001,-0.94198319,1.55468727,-3.62348947,,,
imu,235.870532,-0.8541621984000002,-9.5291722568,2.862161148000001,-0.8522602699999999,1.41262598,-3.33188998,,,
imu,235.878998,-0.8637326432000001,-9.583604161600002,2.8717315928,-0.93450628,1.28551851,-3.30198234,,,
imu,235.887465,-0.8595455736000001,-9.573435564,2.88608726,-1.09152139,1.1285034,-3.22721324,,,
imu,235.895931,-0.8750975464000001,-9.52558334,2.8687408288,-1.11395212,1.18831868,-3.1973056,,,
imu,235.90439,-0.9020144224000001,-9.519601812000001,2.8944613992,-1.18872122,1.09859576,-3.18235178,,,
imu,235.91285,-0.8924439776000002,-9.516611048000001,2.8585722312,-1.21115195,1.18831868,-3.21973633,,,
imu,235.92131,-0.8918458248000001,-9.5213962704,2.864553759200001,-1.18124431,1.23318014,-3.33936689,,,
imu,235.92977,-0.8786864632000002,-9.508835061600001,2.8729278984,-1.1737674,1.43505671,-3.27955161,,,
imu,235.938229,-0.8744993936000002,-9.477731116000001,2.8765168152,-1.12890594,1.62197946,-3.4216129,,,
imu,235.946689,-0.8762938520000002,-9.4801237272,2.917789358400001,-1.01675229,1.83133294,-3.7206893,,,
imu,235.955149,-0.8595455736000001,-9.526779645600001,2.899246621600001,-0.9644139199999999,1.88367131,-3.89265823,,,
imu,235.963608,-0.8595455736000001,-9.537546396000002,2.9022373856,-1.08404448,1.98087114,-4.169303899999999,,,
imu,235.972068,-0.8416009896000001,-9.486105255200002,2.887283565600001,-1.0242292,2.22760917,-4.58801086,,,
imu,235.980528,-0.8619381848000001,-9.481320032800001,2.931546872800001,-1.09152139,2.21265535,-4.81979507,,,
imu,235.988988,-0.8362176144000002,-9.408345391200001,2.935733942400001,-0.94198319,2.54163939,-4.93942563,,,
imu,235.997447,-0.8900513664000002,-9.474142199200001,2.8986484688,-0.6279529699999999,2.57154703,-4.887087259999999,,,
imu,236.005907,-0.9103885616000001,-9.4621791432,2.9064244552,-0.06718472,2.8481927,-4.56558013,,,
imu,236.014367,-0.8410028368000001,-9.412532460800001,2.9046299968,0.16459949,2.90800798,-5.27588658,,,
imu,236.022827,-0.8697141712000002,-9.330585527200002,2.904031844000001,0.5982602699999999,2.87062343,-5.50767079,,,
imu,236.031286,-0.9103885616000001,-9.3108464848,2.9159949,1.35342818,2.9229618,-5.20111748,,,
imu,236.039746,-0.9062014920000001,-9.3664746952,2.8962558576,2.42262631,2.96782326,-4.84970271,,,
imu,236.048206,-0.8846679912000001,-9.420906600000002,2.904031844000001,3.02077911,3.03511545,-4.81979507,,,
imu,236.056665,-0.8649289488,-9.399971252000002,2.921976428000001,3.0880713,2.91548489,-5.07401001,,,
imu,236.065125,-0.8523677400000002,-9.3664746952,2.9118078304,3.282470959999999,2.9977309,-4.887087259999999,,,
imu,236.073585,-0.8314323920000001,-9.346735652800001,2.9267616504,3.64883955,2.88557725,-4.647826139999999,,,
imu,236.082045,-0.8493769760000001,-9.373054376,2.9482951512,3.91800831,2.81080815,-4.46090339,,,
imu,236.090504,-0.8326286976000001,-9.419112141600001,2.948893304,3.9853005,2.67622377,-4.23659609,,,
imu,236.098964,-0.7883653904000001,-9.447225323200001,2.945304387200001,3.87314685,2.6238854,-4.40108811,,,
imu,236.107435,-0.8021229048,-9.456795768000001,2.939921012000001,3.3871477,2.43696265,-4.56558013,,,
imu,236.115906,-0.7925524600000001,-9.474740352000001,2.9291542616,3.2376095,2.06311715,-4.59548777,,,
imu,235.176939,,,,,,,75.9653948,-4.229825200000015,-3.167753600000012
imu,235.278563,,,,,,,73.353054,-3.72933000000002,-0.7751424000000062
imu,235.380095,,,,,,,73.658234,-3.595050800000021,-2.862573600000007
imu,235.481627,,,,,,,72.7549012,-3.765951600000017,-0.05491760000000401
imu,235.58322,,,,,,,73.41409000000002,-4.010095600000008,-0.6042416000000106
imu,235.684782,,,,,,,73.5605764,-3.802573200000015,0.3479199999999905
imu,235.786864,,,,,,,73.8657564,-3.448564400000009,-0.2868544000000028
imu,235.888029,,,,,,,73.5727836,-3.21662760000001,-0.8972144000000015
imu,235.989439,,,,,,,75.7578724,-3.009105200000017,-1.812754400000005
imu,236.091032,,,,,,,73.4385044,-2.264466000000009,-0.5798272000000049
