Type,Timestamp,Data Accelerometer X,Data Accelerometer Y,Data Accelerometer Z,Data Gyroscope X,Data Gyroscope Y,Data Gyroscope Z,Data Magnetometer X,Data Magnetometer Y,Data Magnetometer Z
imu,63.560265,0.04964668240000001,-9.300079734400002,3.5733648272,1.17398234,1.49487199,-2.92813684,,,
imu,63.568717,0.05861897440000001,-9.283929608800001,3.569775910400001,1.03939796,1.39019525,-2.9729983,,,
imu,63.577169,0.04845037680000001,-9.285724067200002,3.562598076800001,1.27118217,1.47991817,-2.69635263,,,
imu,63.585621,0.0502448352,-9.253423816000002,3.5614017712,1.12164397,1.2780416,-2.75616791,,,
imu,63.594073,0.0592171272,-9.249236746400001,3.560205465600001,1.08425942,1.37524143,-2.77859864,,,
imu,63.602525,0.0406743904,-9.251629357600002,3.55900916,1.09921324,1.46496435,-2.98795212,,,
imu,63.610977,0.03648732080000001,-9.243853371200002,3.556018396000001,1.18893616,1.36776452,-3.10010577,,,
imu,63.619429,0.04366515440000001,-9.225310634400001,3.5608036184,1.32352054,1.33785688,-3.29450543,,,
imu,63.627882,0.0490485296,-9.2312921624,3.5673832992,1.11416706,1.42010289,-3.26459779,,,
imu,63.636334,0.05084298800000001,-9.245049676800003,3.5661869936,1.18893616,1.41262598,-3.06272122,,,
imu,63.644786,0.05562821040000001,-9.254021968800002,3.561999924,1.36090509,1.49487199,-2.84589083,,,
imu,63.653238,0.062806044,-9.2546201216,3.562598076800001,1.27865908,1.53973345,-2.72626027,,,
imu,63.66169,0.0753672528,-9.246844135200002,3.553027632,1.42072037,1.56964109,-2.57672207,,,
imu,63.670142,0.0855358504,-9.246245982400001,3.5512331736,1.39081273,1.39019525,-2.59167589,,,
imu,63.678594,0.08792846160000001,-9.259405344000001,3.5512331736,1.70484295,1.42010289,-2.5243837,,,
imu,63.687046,0.07716171120000001,-9.2719665528,3.5548220904,1.92915025,1.41262598,-2.46456842,,,
imu,63.695498,0.07775986400000001,-9.282135150400002,3.549438715200001,1.95158098,1.3528107,-2.50195297,,,
imu,63.70395,0.0634041968,-9.287518525600001,3.5482424096,2.07121154,1.42010289,-2.5991528,,,
imu,63.712403,0.06160973840000001,-9.290509289600001,3.544653492800001,2.13102682,1.51730272,-2.5991528,,,
imu,63.720855,0.0663949608,-9.283331456,3.536877506400001,2.28804193,1.577118,-2.79355246,,,
imu,63.729307,0.06041343280000001,-9.273761011200001,3.532690436800001,2.16841137,1.59207182,-3.04029049,,,
imu,63.737759,0.06519865520000001,-9.272564705600002,3.5302978256,2.10111918,1.68927165,-2.99542903,,,
imu,63.746211,0.05981528000000001,-9.276751775200001,3.5243162976,2.34785721,1.93600968,-3.16739796,,,
imu,63.754671,0.0466559184,-9.280340692000001,3.532690436800001,2.25065738,2.06311715,-3.35432071,,,
imu,63.76313,0.0562263632,-9.304864956800001,3.52910152,2.15345755,2.09302479,-3.42908981,,,
imu,63.77159,0.06699311360000001,-9.3144354016,3.5273070616,2.00391935,2.25751681,-3.62348947,,,
imu,63.78005,0.06579680800000001,-9.3138372488,3.52910152,1.8169966,2.48930102,-3.63844329,,,
imu,63.78851,0.068787572,-9.304266804000001,3.5267089088,1.72727368,2.63136231,-3.68330475,,,
imu,63.796969,0.07775986400000001,-9.2970889704,3.521325533600001,1.71231986,2.69117759,-3.58610492,,,
imu,63.805429,0.0861340032,-9.2964908176,3.512353241600001,1.61512003,2.88557725,-3.55619728,,,
imu,63.813889,0.1004896704,-9.288714831200002,3.5165403112,1.54035093,2.94539253,-3.54872037,,,
imu,63.822348,0.1028822816,-9.277349928000001,3.5267089088,1.35342818,3.01268472,-3.36179762,,,
imu,63.830808,0.1040785872,-9.2659850248,3.512353241600001,1.37585891,2.96782326,-3.40665908,,,
imu,63.839268,0.116639796,-9.2641905664,3.515942158400001,1.35342818,2.88557725,-3.4216129,,,
imu,63.847728,0.122621324,-9.259405344000001,3.5183347696,1.48801256,2.86314652,-3.23469015,,,
imu,63.856187,0.113649032,-9.263592413600001,3.5207273808,1.45810492,2.82576197,-3.26459779,,,
imu,63.864624,0.1124527264,-9.274359164000002,3.5267089088,1.50296638,2.90053107,-3.33936689,,,
imu,63.873084,0.1112564208,-9.270172094400001,3.526110756,1.52539711,2.72108523,-3.21225942,,,
imu,63.881544,0.113649032,-9.269573941600001,3.5225218392,1.61512003,2.68370068,-3.2720747,,,
imu,63.890003,0.1118545736,-9.266583177600001,3.512353241600001,1.69736604,2.80333124,-3.20478251,,,
imu,63.898463,0.1094619624,-9.271368400000002,3.523718144800001,1.56278166,2.75846978,-3.1973056,,,
imu,63.906923,0.1064711984,-9.271368400000002,3.5225218392,1.76465823,2.75846978,-3.25712088,,,
imu,63.915383,0.1082656568,-9.268377636,3.520129228,1.8169966,2.70613141,-3.33936689,,,
imu,63.923842,0.1118545736,-9.2797425392,3.518932922400001,1.90671952,2.82576197,-3.26459779,,,
imu,63.932302,0.11963056,-9.283331456,3.5093624776,1.82447351,2.7734236,-3.38422835,,,
imu,63.940762,0.107667504,-9.2827333032,3.507568019200001,1.86933497,2.81080815,-3.35432071,,,
imu,63.949222,0.09749890640000002,-9.2851259144,3.508166172,1.86185806,2.81080815,-3.5711511,,,
imu,63.958037,0.092713684,-9.277349928000001,3.5027827968,1.80204278,2.66126995,-3.66835093,,,
imu,63.966853,0.07656355840000001,-9.284527761600001,3.49919388,1.91419643,2.84071579,-3.57862801,,,
imu,63.975668,0.07297464160000001,-9.2755554696,3.5009883384,1.87681188,3.06502309,-3.57862801,,,
imu,63.984484,0.06400234960000001,-9.2827333032,3.507568019200001,2.03382699,3.34914567,-3.45899745,,,
imu,63.9933,0.04725407120000001,-9.2917055952,3.4860345184,2.00391935,3.46877623,-3.48142818,,,
imu,64.002115,0.04187069600000001,-9.281536997600002,3.478258532,1.98896553,3.81271409,-3.58610492,,,
imu,64.010931,0.04366515440000001,-9.267779483200002,3.4698843928,1.92167334,4.05945212,-3.67582784,,,
imu,64.019746,0.03947808480000001,-9.2659850248,3.4639028648,1.90671952,4.23142105,-3.84779677,,,
imu,64.028562,0.04187069600000001,-9.283331456,3.453734267200001,1.85438115,4.455728349999999,-4.04219643,,,
imu,64.037378,0.04964668240000001,-9.285724067200002,3.4411730584,1.98148862,4.75480475,-4.10948862,,,
imu,64.046193,0.0406743904,-9.288714831200002,3.4459582808,2.01139626,5.113696429999999,-4.146873169999999,,,
imu,64.055009,0.05802082160000001,-9.294696359200001,3.4405749056,2.07868845,5.62212631,-4.079580979999999,,,
imu,64.063824,0.05742266880000001,-9.3108464848,3.4387804472,2.16841137,5.943633439999999,-4.15435008,,,
imu,64.07264,0.04725407120000001,-9.330585527200002,3.4220321688,2.05625772,6.160463829999999,-4.19921154,,,
imu,64.081456,0.0562263632,-9.344941194400002,3.4298081552,1.94410407,6.49692478,-4.28145755,,,
imu,64.090271,0.06220789120000001,-9.343744888800002,3.442369364000001,1.84690424,7.04273921,-3.95247351,,,
imu,64.099087,0.04545961280000001,-9.350922722400002,3.4292100024,1.54782784,7.409107799999999,-3.96742733,,,
imu,64.107902,0.0532355992,-9.347333805600002,3.4088728072,1.39081273,7.88015313,-4.22164227,,,
imu,64.116718,0.04127254320000001,-9.3246039992,3.3969097512,1.12912088,8.18670644,-4.72259524,,,
imu,64.125534,0.0442633072,-9.316229860000002,3.403489432,0.9272443100000001,8.463352109999999,-5.238502029999999,,,
imu,64.134349,0.04725407120000001,-9.370661764800001,3.4256210856,0.7702292,8.71756705,-5.72450118,,,
imu,64.143165,0.06160973840000001,-9.4286825864,3.420835863200001,0.6281679099999999,9.24095075,-5.97123921,,,
imu,64.15198,0.0783580168,-9.450814240000001,3.411863571200001,0.3216146,9.622273159999999,-6.046008309999999,,,
imu,64.160459,0.08852661440000001,-9.4203084472,3.419041404800001,-0.007369440000000005,9.869011189999998,-6.42733072,,,
imu,64.168938,0.11963056,-9.373652528800001,3.4220321688,-0.10456927,10.09331849,-6.56939201,,,
imu,64.177417,0.1507345056,-9.3545116392,3.4106672656,-0.14195382,10.31014888,-6.5619151,,,
imu,64.185896,0.1842310624,-9.33118368,3.413658029600001,-0.17186146,10.38491798,-6.43480763,,,
imu,64.194374,0.1985867296,-9.303070498400002,3.4046857376,-0.14195382,10.34753343,-6.42733072,,,
imu,64.202853,0.2171294664,-9.280340692000001,3.4082746544,-0.04475399000000001,10.20547214,-6.42733072,,,
imu,64.211332,0.2380648144,-9.291107442400001,3.417246946400001,0.04496892999999999,9.93630338,-6.487145999999999,,,
imu,64.219811,0.2488315648,-9.291107442400001,3.413658029600001,0.21693786,9.532550239999999,-6.382469260000001,,,
imu,64.22829,0.257205704,-9.289312984,3.420835863200001,0.28423005,9.233473839999998,-6.12825432,,,
imu,64.236768,0.2619909264,-9.28632222,3.4142561824,0.3216146,8.85962834,-5.91142393,,,
imu,64.245247,0.2673743016,-9.2958926648,3.42442478,0.28423005,8.43344447,-5.70954736,,,
imu,64.253726,0.2781410520000001,-9.3144354016,3.4339952248,0.3216146,7.96239914,-5.34317877,,,
imu,64.262205,0.2889078024000001,-9.335370749600001,3.442369364000001,0.16459949,7.54369218,-5.10391765,,,
imu,64.270684,0.2966837888,-9.352717180800001,3.453734267200001,0.0001074699999999984,7.08760067,-4.976810179999999,,,
imu,64.279162,0.3188154424,-9.368269153600002,3.451341656,-0.3513073,6.38477113,-4.78988743,,,
imu,64.287641,0.3241988176,-9.3664746952,3.451939808800001,-0.63542988,5.831479789999999,-4.647826139999999,,,
imu,64.29612,0.3307784984000001,-9.3628857784,3.4507435032,-0.90459864,5.15108098,-4.53567249,,,
imu,64.304599,0.3379563320000001,-9.357502403200002,3.460912100800001,-1.01675229,4.478159079999999,-4.30388828,,,
imu,64.313078,0.3289840400000001,-9.3652783896,3.4650991704,-1.33078251,3.68560662,-4.22164227,,,
imu,64.321556,0.3152265256,-9.364082084000001,3.472875156800001,-1.5476129,3.20708438,-3.96742733,,,
imu,64.330035,0.3056560808,-9.356904250400001,3.4740714624,-1.71210492,2.69117759,-3.91508896,,,
imu,64.338514,0.2679724544000001,-9.335968902400001,3.491417893600001,-1.9962275,2.05564024,-3.97490424,,,
imu,64.346993,0.2374666616,-9.326398457600002,3.5027827968,-2.13828879,1.77899457,-4.012288789999999,,,
imu,64.355472,0.1920070488,-9.308453873600001,3.4997920328,-2.23548862,1.56216418,-4.04967334,,,
imu,64.363936,0.176455076,-9.28632222,3.507568019200001,-2.27287317,1.577118,-4.11696553,,,
imu,64.372401,0.1393696024,-9.267779483200002,3.5057735608,-2.28782699,1.73413311,-4.26650373,,,
imu,64.380866,0.1040785872,-9.24146076,3.505175408000001,-2.18315025,1.90610204,-4.49828794,,,
imu,64.389331,0.08254508640000002,-9.2103568144,3.504577255200001,-2.01865823,2.22760917,-4.72259524,,,
imu,64.397796,0.08433954480000001,-9.211553120000001,3.5314941312,-1.9214584,2.44443956,-5.021671639999999,,,
imu,64.40626,0.0723764888,-9.220525412,3.5416627288,-1.71210492,2.80333124,-5.34317877,,,
imu,64.414725,0.06998387760000001,-9.219927259200002,3.536877506400001,-1.33078251,3.33419185,-5.55253225,,,
imu,64.42319,0.06579680800000001,-9.214543884000001,3.536877506400001,-1.11395212,3.78280645,-5.73197809,,,
imu,64.431655,0.05443190480000001,-9.194206688800001,3.5512331736,-1.00179847,4.23142105,-5.829177919999999,,,
imu,64.44012,0.0490485296,-9.1960011472,3.5536257848,-0.80739881,4.58283582,-5.896470109999999,,,
imu,64.448584,0.062806044,-9.218132800800001,3.569775910400001,-0.56066078,5.06135806,-5.522624609999999,,,
imu,64.457049,0.07895616960000001,-9.239666301600002,3.5733648272,-0.44850713,5.2408039,-5.612347529999999,,,
imu,64.465514,0.07895616960000001,-9.257012732800002,3.5841315776,-0.33635348,5.614649399999999,-5.47028624,,,
imu,64.473979,0.1004896704,-9.254021968800002,3.5901131056,-0.28401511,5.966064169999999,-5.500193879999999,,,
imu,64.482444,0.1244157824,-9.252825663200001,3.588916800000001,-0.37373803,6.182894559999999,-5.53757843,,,
imu,64.490909,0.1399677552,-9.225908787200002,3.5781500496,-0.13447691,6.205325289999999,-5.50767079,,,
imu,64.499373,0.1501363528,-9.224712481600001,3.590711258400001,-0.007369440000000005,6.182894559999999,-5.5151477,,,
imu,64.507838,0.1519308112,-9.226506940000002,3.5901131056,0.14216876,6.25766366,-5.567486069999999,,,
imu,64.516303,0.152528964,-9.232488468000001,3.605066925600001,0.29918387,6.138033099999999,-5.634778259999999,,,
imu,64.524768,0.1447529776,-9.229497704000002,3.6020761616,0.35899915,6.10812546,-5.67963972,,,
imu,64.533233,0.1214250184,-9.233086620800002,3.605066925600001,0.32909151,6.22027911,-5.70954736,,,
imu,64.541697,0.09749890640000002,-9.247442288000002,3.5984872448,0.4711528,6.35486349,-5.8142241,,,
imu,64.550162,0.068787572,-9.251629357600002,3.597889092,0.58330645,6.41467877,-6.01610067,,,
imu,64.558627,0.0532355992,-9.250433052000002,3.5871223416,0.5010604399999999,6.78104736,-6.135731229999999,,,
imu,64.567094,0.0490485296,-9.224712481600001,3.588916800000001,0.5010604399999999,7.16984668,-6.25536179,,,
imu,64.575562,0.0382817792,-9.2300958568,3.581738966400001,0.5982602699999999,7.49883072,-6.53948437,,,
imu,64.584029,0.03887993200000001,-9.235479232000001,3.5733648272,0.52349117,7.887630039999999,-6.74136094,,,
imu,64.592496,0.02990764000000001,-9.230694009600002,3.570972216,0.70293701,8.28390627,-6.82360695,,,
imu,64.600964,0.0191408896,-9.225908787200002,3.554223937600001,0.78518302,8.54559812,-7.10772953,,,
imu,64.609431,0.0173464312,-9.2277032456,3.5524294792,0.91229049,9.09141255,-7.317083009999999,,,
imu,64.617899,0.0143556672,-9.219329106400002,3.546447951200001,0.9646288599999999,9.63722698,-7.556344129999999,,,
imu,64.626366,0.0023926112,-9.216338342400002,3.533288589600001,1.21136689,10.10827231,-7.690928509999999,,,
imu,64.634833,-0.002990764,-9.2127494256,3.526110756,1.33099745,10.59427146,-7.997481819999999,,,
imu,64.643301,0.0011963056,-9.2103568144,3.536877506400001,1.49548947,11.12513207,-8.19188148,,,
imu,64.651768,0.0053833752,-9.24146076,3.5386719648,1.80204278,11.78310015,-8.29655822,,,
imu,64.660235,0.03588916800000001,-9.262396108,3.5302978256,2.06373463,12.42611441,-8.27412749,,,
imu,64.668703,0.07177833600000001,-9.252227510400001,3.528503367200001,2.22074974,12.8672521,-8.25917367,,,
imu,64.67717,0.1142471848,-9.233086620800002,3.520129228,2.31794957,13.00931339,-8.52086552,,,
imu,64.685637,0.140565908,-9.224712481600001,3.517138464,2.4899185,13.1663285,-8.48348097,,,
imu,64.694105,0.1609031032,-9.243853371200002,3.509960630400001,2.6394567,13.0167903,-8.5059117,,,
imu,64.702572,0.170473548,-9.255816427200001,3.4997920328,2.69179507,12.88220592,-8.62554226,,,
imu,64.711039,0.173464312,-9.258209038400002,3.4944086576,2.95348692,12.74014463,-8.5806808,,,
imu,64.719507,0.1776513816,-9.268377636,3.4956049632,2.92357928,12.38125295,-8.52834243,,,
imu,64.727974,0.1680809368,-9.276751775200001,3.4854363656,2.99087147,12.09713037,-8.4311426,,,
imu,64.736442,0.185427368,-9.2958926648,3.479454837600001,3.11050203,11.88777689,-8.40871187,,,
imu,64.744909,0.1890162848,-9.3108464848,3.472875156800001,3.11797894,11.6709465,-8.38628114,,,
imu,64.753376,0.1949978128,-9.321613235200001,3.470482545600001,3.22265568,11.38682392,-8.26665058,,,
imu,64.761844,0.1991848824,-9.328791068800001,3.457323184,3.08059439,10.96811696,-8.25169676,,,
imu,64.770308,0.2129423968,-9.329389221600001,3.453734267200001,2.95348692,10.42977944,-8.304035129999999,,,
imu,64.778773,0.2147368552,-9.3317818328,3.446556433600001,2.97591765,9.99611866,-8.04982019,,,
imu,64.787238,0.215335008,-9.3443430416,3.4393786,2.85628709,9.58488861,-7.840466709999999,,,
imu,64.795703,0.1860255208,-9.3455393472,3.430406308000001,2.63197979,8.88953598,-7.803082159999999,,,
imu,64.804168,0.1483418944,-9.346137500000001,3.416648793600001,2.37028794,8.418490649999999,-7.78812834,,,
imu,64.812632,0.1262102408,-9.3455393472,3.406480196,2.32542648,8.21661408,-7.43671357,,,
imu,64.821097,0.107667504,-9.343146736000001,3.404087584800001,2.14598064,7.93996841,-7.13763717,,,
imu,64.829562,0.08673215600000002,-9.338959666400001,3.3873393064,1.97401171,7.91753768,-6.965668239999999,,,
imu,64.838027,0.06579680800000001,-9.3413522776,3.3831522368,1.86185806,7.887630039999999,-6.793699309999999,,,
imu,64.846492,0.0550300576,-9.340754124800002,3.3693947224,1.8169966,7.88015313,-6.76379167,,,
imu,64.854957,0.0592171272,-9.325202152000001,3.3717873336,1.70484295,7.90258386,-6.5619151,,,
imu,64.863421,0.06699311360000001,-9.325800304800001,3.373581792,1.63007385,7.932491499999999,-6.44976145,,,
imu,64.871886,0.08194693360000001,-9.3383615136,3.372983639200001,1.62259694,7.92501459,-6.681545659999999,,,
imu,64.880351,0.05861897440000001,-9.349128264,3.3759744032,1.50296638,7.835291669999999,-6.62920729,,,
imu,64.888816,0.02871133440000001,-9.3586987088,3.3909282232,1.368382,7.94744532,-6.442284539999999,,,
imu,64.897281,0.0155519728,-9.353315333600001,3.39451714,1.30856672,8.2315679,-6.25536179,,,
imu,64.905745,0.004187069600000001,-9.327594763200002,3.39451714,1.13659779,8.42596756,-6.315177069999999,,,
imu,64.91421,-0.008972292000000002,-9.306659415200002,3.390330070400001,1.07678251,8.58298267,-6.52453055,,,
imu,64.922675,-0.03588916800000001,-9.305463109600002,3.406480196,1.0693056,8.88953598,-6.89837605,,,
imu,64.93114,-0.0430670016,-9.346137500000001,3.400498668,0.80761375,9.11384328,-7.39185211,,,
imu,64.939605,-0.0562263632,-9.3993730992,3.42442478,0.80013684,9.47273496,-7.668497779999999,,,
imu,64.948069,-0.0592171272,-9.4280844336,3.4130598768,0.71789083,9.94378029,-8.00495873,,,
imu,63.63611,,,,,,,32.4833484,-27.4601268,35.4680344
imu,63.737734,,,,,,,30.0907372,-26.60562280000001,37.99492479999999
imu,63.839235,,,,,,,30.4325388,-27.03287480000001,36.2248808
imu,63.940798,,,,,,,30.1029444,-26.65445160000002,37.70195199999999
imu,64.04233,,,,,,,30.0052868,-26.42251480000002,37.762988
imu,64.143862,,,,,,,29.87100760000001,-26.69107320000002,37.6287088
imu,64.956566,-0.0526374464,-9.4071490856,3.4202377104,0.5459219,10.40734871,-8.07972783,,,
imu,64.965031,-0.03349655680000001,-9.371259917600002,3.405283890400001,0.47862971,10.9980246,-7.85542053,,,
imu,64.973834,-0.0251224176,-9.359895014400001,3.404087584800001,0.26927623,11.43168538,-7.795605249999999,,,
imu,64.982637,-0.03289840400000001,-9.343744888800002,3.393918987200001,0.18703022,11.93263835,-7.885328169999999,,,
imu,64.99144,-0.04187069600000001,-9.328791068800001,3.3909282232,0.19450713,12.25414548,-8.064774009999999,,,
imu,65.000243,-0.04725407120000001,-9.321613235200001,3.386143000800001,0.15712258,12.77752918,-8.07225092,,,
imu,65.009046,-0.05861897440000001,-9.309650179200002,3.3867411536,0.19450713,13.51026636,-8.02738946,,,
imu,65.017849,-0.07716171120000001,-9.297687123200001,3.377768861600001,0.31413769,13.9140195,-8.16945075,,,
imu,65.026652,-0.06998387760000001,-9.285724067200002,3.382554084,0.30666078,14.54207994,-8.23674294,,,
imu,65.035455,-0.0783580168,-9.249834899200001,3.3813577784,0.65807555,15.23743257,-8.37880423,,,
imu,65.044258,-0.1034804344,-9.2588071912,3.37956332,0.8375213899999999,16.07484649,-8.52834243,,,
imu,65.053062,-0.131593616,-9.302472345600002,3.390330070400001,0.9945364999999999,16.71786075,-8.79003428,,,
imu,65.061865,-0.137575144,-9.290509289600001,3.3801614728,0.9945364999999999,17.56275158,-9.11901832,,,
imu,65.070668,-0.1333880744,-9.274957316800002,3.39451714,1.04687487,18.66185735,-9.223695059999999,,,
imu,65.079471,-0.1303973104,-9.286920372800001,3.395713445600001,1.15155161,19.50674818,-9.52277146,,,
imu,65.088274,-0.09690075360000001,-9.300079734400002,3.3849466952,1.28613599,20.4937003,-9.75455567,,,
imu,65.097077,-0.05802082160000001,-9.313239096000002,3.3921245288,1.19641307,21.18905293,-10.21064718,,,
imu,65.10588,-0.017944584,-9.308453873600001,3.4082746544,1.06182869,21.8395441,-10.38261611,,,
imu,65.114683,0.0167482784,-9.309052026400002,3.409470960000001,1.03192105,22.32554325,-10.66673869,,,
imu,65.123486,0.04127254320000001,-9.3246039992,3.4088728072,1.12912088,22.57975819,-10.73403088,,,
imu,65.132289,0.03648732080000001,-9.335968902400001,3.4130598768,0.9646288599999999,22.8115424,-11.00319964,,,
imu,65.141092,0.04127254320000001,-9.340155972000002,3.417246946400001,0.9945364999999999,23.17791099,-10.92843054,,,
imu,65.149895,0.05802082160000001,-9.3335762912,3.4160506408,0.80013684,23.30501846,-10.77141543,,,
imu,65.158698,0.06101158560000001,-9.335968902400001,3.404087584800001,0.60573718,23.39474138,-10.86113835,,,
imu,65.167501,0.08015247520000002,-9.3347725968,3.411863571200001,0.42629134,23.5592334,-10.86861526,,,
imu,65.176304,0.110658268,-9.337165208000002,3.4010968208,0.45619898,23.70129469,-10.79384616,,,
imu,65.184759,0.125612088,-9.340754124800002,3.391526376000001,0.620691,23.67138705,-10.73403088,,,
imu,65.193214,0.1543234224,-9.316229860000002,3.386143000800001,0.67302937,23.64147941,-10.80132307,,,
imu,65.201668,0.1770532288,-9.310248332,3.3909282232,0.77770611,23.15548026,-10.8985229,,,
imu,65.210123,0.2147368552,-9.3168280128,3.397507904,0.91229049,22.62461965,-10.90599981,,,
imu,65.218577,0.2243073,-9.339557819200001,3.395713445600001,1.0693056,21.93674393,-11.00319964,,,
imu,65.227032,0.248233412,-9.3455393472,3.381955931200001,1.03939796,21.04699164,-11.09292256,,,
imu,65.235487,0.2560093984,-9.3317818328,3.388535612000001,1.08425942,20.09742407,-11.07049183,,,
imu,65.243941,0.2595983152,-9.3246039992,3.3951152928,0.94967504,19.05065667,-10.92843054,,,
imu,65.252396,0.2506260232,-9.325800304800001,3.4046857376,1.02444414,18.10856601,-10.5246774,,,
imu,65.260851,0.2308869808,-9.356306097600001,3.407676501600001,0.94219813,17.22629063,-10.17326263,,,
imu,65.269305,0.212344244,-9.370661764800001,3.403489432,0.6954601,16.2318616,-9.67230966,,,
imu,65.27776,0.2141387024,-9.3664746952,3.3933208344,0.6132140899999999,15.39444768,-9.1040645,,,
imu,65.286215,0.2117460912,-9.3622876256,3.3921245288,0.4861066199999999,14.62432595,-8.64049608,,,
imu,65.294669,0.2225128416,-9.3419504304,3.3771707088,0.35899915,13.72709675,-8.31898895,,,
imu,65.303124,0.2386629672,-9.349128264,3.3771707088,0.32909151,12.72519081,-8.109635469999999,,,
imu,65.311578,0.2518223288000001,-9.352119028,3.384348542400001,0.25432241,11.48402375,-8.07225092,,,
imu,65.320033,0.2590001624000001,-9.349726416800001,3.3717873336,0.14216876,10.31762579,-7.89280508,,,
imu,65.328488,0.2625890792,-9.343744888800002,3.3741799448,-0.02232326000000001,9.19608929,-7.623636319999999,,,
imu,65.336942,0.2488315648,-9.3347725968,3.3717873336,0.05244583999999999,7.96239914,-7.20492936,,,
imu,65.345397,0.2434481896,-9.3246039992,3.3693947224,-0.06718472,6.751139719999999,-6.91332987,,,
imu,65.353852,0.2296906752000001,-9.3144354016,3.3771707088,-0.05970781,5.681941589999999,-6.53948437,,,
imu,65.362306,0.2087553272,-9.301276040000001,3.3759744032,-0.11204618,4.47068217,-6.180592689999999,,,
imu,65.370761,0.1920070488,-9.298285276000001,3.3807596256,0.12721494,3.49868387,-5.70954736,,,
imu,65.379216,0.1662864784,-9.308453873600001,3.398106056800001,0.05244583999999999,2.40705501,-5.40299405,,,
imu,65.387678,0.1220231712,-9.3126409432,3.4022931264,0.03749201999999999,1.47991817,-4.89456417,,,
imu,65.39614,0.08852661440000001,-9.310248332,3.4058820432,0.14216876,0.7546578999999998,-4.386134289999999,,,
imu,65.404602,0.04785222400000001,-9.318622471200001,3.414854335200001,0.31413769,0.1565051,-3.97490424,,,
imu,65.413065,0.005981528000000001,-9.343146736000001,3.4322007664,0.20198404,-0.4416477000000003,-3.84779677,,,
imu,65.421527,-0.06579680800000001,-9.3592968616,3.4292100024,0.25432241,-0.5612782599999999,-3.52628964,,,
imu,65.429989,-0.09749890640000002,-9.3455393472,3.4250229328,0.16459949,-0.5014629800000003,-3.36927453,,,
imu,65.438451,-0.1297991576,-9.319818776800002,3.4202377104,-0.08961545,-0.2846325900000002,-3.18982869,,,
imu,65.446914,-0.1333880744,-9.3060612624,3.417246946400001,0.05992275,0.21632038,-3.1973056,,,
imu,65.455376,-0.1513326584,-9.301276040000001,3.4238266272,0.25432241,0.47801223,-3.39918217,,,
imu,65.463838,-0.1513326584,-9.298285276000001,3.416648793600001,0.19450713,0.94905756,-3.54872037,,,
imu,65.472301,-0.1483418944,-9.304864956800001,3.4202377104,0.31413769,1.32290306,-3.90013514,,,
imu,65.480763,-0.1399677552,-9.289312984,3.4112654184,0.3889067899999999,1.68179474,-4.18425772,,,
imu,65.489225,-0.1495382,-9.287518525600001,3.414854335200001,0.3216146,2.16779389,-4.18425772,,,
imu,65.497687,-0.1399677552,-9.281536997600002,3.416648793600001,0.49358353,2.6986545,-4.25902682,,,
imu,65.50615,-0.09989151760000002,-9.288714831200002,3.4106672656,0.59078336,3.19960747,-4.37865738,,,
imu,65.514612,-0.07895616960000001,-9.284527761600001,3.3993023624,0.63564482,3.57345297,-4.25154991,,,
imu,65.523074,-0.06041343280000001,-9.2935000536,3.411863571200001,0.7552753799999999,3.73046808,-4.35622665,,,
imu,65.531536,-0.0376836264,-9.298883428800002,3.417246946400001,0.9870595899999999,3.9697292,-4.244073,,,
imu,65.539999,-0.01495382,-9.2958926648,3.4088728072,0.9272443100000001,4.11179049,-4.02724261,,,
imu,65.548461,-0.0137575144,-9.291107442400001,3.4112654184,1.11416706,4.20151341,-3.83284295,,,
imu,65.556923,0.0131593616,-9.288714831200002,3.417246946400001,1.24875144,4.35852852,-3.59358183,,,
imu,65.565386,0.04007623760000001,-9.294098206400001,3.405283890400001,1.30856672,4.32114397,-3.36927453,,,
imu,65.573848,0.06041343280000001,-9.295294512000002,3.399900515200001,1.368382,4.171605769999999,-3.29450543,,,
imu,65.58231,0.08733030880000002,-9.2761536224,3.3813577784,1.31604363,3.96225229,-3.32441307,,,
imu,65.590767,0.1184342544,-9.294696359200001,3.3987042096,1.60016621,3.73046808,-3.18982869,,,
imu,65.599224,0.1453511304,-9.3006778872,3.3867411536,1.71979677,3.4463455,-3.00290594,,,
imu,65.607682,0.161501256,-9.298883428800002,3.385544848,1.65998149,2.81828506,-2.99542903,,,
imu,65.616139,0.173464312,-9.307257568,3.39451714,1.83195042,2.4743472,-2.83841392,,,
imu,65.624596,0.1836329096,-9.3168280128,3.390330070400001,1.83942733,1.93600968,-2.81598319,,,
imu,65.633053,0.1842310624,-9.313239096000002,3.390330070400001,1.95905789,1.34533379,-2.5991528,,,
imu,65.64151,0.1836329096,-9.311444637600001,3.391526376000001,2.14598064,0.8817653699999997,-2.43466078,,,
imu,65.649968,0.170473548,-9.304266804000001,3.3879374592,2.28804193,0.3658585799999998,-2.47952224,,,
imu,65.658425,0.1441548248,-9.316229860000002,3.386143000800001,2.48244159,-0.05284837999999992,-2.50195297,,,
imu,65.666882,0.116639796,-9.332379985600001,3.3831522368,2.45253395,-0.3668786000000002,-2.61410662,,,
imu,65.675339,0.1022841288,-9.3545116392,3.3873393064,2.45253395,-0.5612782599999999,-2.83093701,,,
imu,65.683796,0.0933118368,-9.356306097600001,3.373581792,2.3403803,-0.7108164600000002,-3.06272122,,,
imu,65.692253,0.0747691,-9.361091320000002,3.373581792,2.4151494,-0.5313706200000001,-3.10758268,,,
imu,65.700711,0.07656355840000001,-9.377241445600001,3.3628150416,2.15345755,-0.57623208,-3.18982869,,,
imu,65.709168,0.0741709472,-9.353913486400002,3.3490575272,2.116073,-0.5014629800000003,-3.25712088,,,
imu,65.717625,0.0741709472,-9.313239096000002,3.355637208000001,2.10111918,-0.4117400600000001,-3.4216129,,,
imu,65.726082,0.0735727944,-9.291107442400001,3.3580298192,1.90671952,-0.5089398900000002,-3.83284295,,,
imu,65.734539,0.0681894192,-9.304266804000001,3.361020583200001,1.70484295,-0.7556779200000001,-4.30388828,,,
imu,65.742997,0.04187069600000001,-9.340754124800002,3.3759744032,1.76465823,-0.9276468500000004,-4.58053395,,,
imu,65.751454,0.0233279592,-9.3658765424,3.3801614728,1.70484295,-0.9725083100000003,-4.66277996,,,
imu,65.759911,0.0203371952,-9.361091320000002,3.3921245288,1.60764312,-0.9351237599999997,-4.34874974,,,
imu,65.768368,0.011963056,-9.3377633608,3.377768861600001,1.5926893,-0.8454008399999999,-4.22164227,,,
imu,64.245506,,,,,,,29.5780348,-26.53237960000001,37.2502856
imu,64.347038,,,,,,,29.285062,-26.45913640000002,36.83524079999999
imu,64.448661,,,,,,,28.7845668,-26.52017240000002,36.96952
imu,64.550224,,,,,,,30.7987548,-26.99625320000001,34.6379448
imu,64.651817,,,,,,,27.88123400000001,-26.26382120000002,36.8840696
imu,64.753471,,,,,,,30.38371,-27.20377560000003,34.1862784
imu,64.855125,,,,,,,27.55163960000001,-26.26382120000002,36.1882592
imu,64.956626,,,,,,,27.2464596,-26.38589320000002,34.9797464
imu,65.776825,0.007775986400000001,-9.318024318400001,3.361618736,1.79456587,-0.8379239300000001,-3.68330475,,,
imu,65.785282,0.023926112,-9.329389221600001,3.3550390552,1.87681188,-0.7033395499999999,-3.17487487,,,
imu,65.794099,0.0370854736,-9.297687123200001,3.3394870824,2.1908421,-0.5687551700000002,-2.95804448,,,
imu,65.802916,0.04246884880000001,-9.288714831200002,3.344870457600001,2.43010322,-0.6958626400000001,-2.72626027,,,
imu,65.811733,0.04605776560000001,-9.302472345600002,3.313766512,2.54973378,-0.7706317400000002,-2.76364482,,,
imu,65.82055,0.0634041968,-9.3246039992,3.3119720536,2.77404108,-0.9500775800000003,-2.89075229,,,
imu,65.829367,0.0514411408,-9.3126409432,3.314962817600001,3.02077911,-0.9126930300000002,-2.98795212,,,
imu,65.838184,0.04845037680000001,-9.3006778872,3.300607150400001,3.09554821,-0.9500775800000003,-3.13749032,,,
imu,65.847001,0.0550300576,-9.315631707200001,3.3089812896,3.32733242,-1.1145696,-3.27955161,,,
imu,65.855818,0.0562263632,-9.3455393472,3.280868108,3.49182444,-1.1893387,-3.37675144,,,
imu,65.864635,0.0550300576,-9.347333805600002,3.273092121600001,3.35724006,-1.2641078,-3.36927453,,,
imu,65.873452,0.05802082160000001,-9.368269153600002,3.288045941600001,3.34228624,-1.33139999,-3.24964397,,,
imu,65.882269,0.05443190480000001,-9.377241445600001,3.2826625664,3.41705534,-1.5631842,-3.36927453,,,
imu,65.891086,0.05203929360000001,-9.401765710400001,3.2760828856,3.22265568,-1.712722400000001,-3.40665908,,,
imu,65.899903,0.0352910152,-9.395186029600001,3.2623253712,3.11050203,-1.92955279,-3.46647436,,,
imu,65.908719,0.017944584,-9.393989724,3.262923524000001,2.998348379999999,-2.10152172,-3.37675144,,,
imu,65.917536,0.0017944584,-9.408943544000001,3.265914288000001,2.7142258,-2.07909099,-3.17487487,,,
imu,65.926353,-0.007177833600000002,-9.422102905600001,3.2677087464,2.58711833,-2.05666026,-3.11505959,,,
imu,65.93517,-0.0245242648,-9.423897364000002,3.25993276,2.407672489999999,-2.00432189,-3.1225365,,,
imu,65.943987,-0.023926112,-9.437056725600002,3.2623253712,2.0413039,-2.00432189,-3.14496723,,,
imu,65.952804,-0.02871133440000001,-9.431075197600002,3.258736454400001,1.83195042,-1.86973751,-3.17487487,,,
imu,65.961621,-0.02990764000000001,-9.420906600000002,3.265914288000001,1.5179202,-1.712722400000001,-3.11505959,,,
imu,65.970438,-0.0502448352,-9.422102905600001,3.2581383016,1.54035093,-1.42112291,-3.15244414,,,
imu,65.979255,-0.04725407120000001,-9.4203084472,3.256941996000001,1.36090509,-1.30149235,-3.1973056,,,
imu,65.988072,-0.0514411408,-9.4071490856,3.249166009600001,1.11416706,-1.06970814,-3.21973633,,,
imu,65.996546,-0.0430670016,-9.379035904000002,3.230025120000001,1.10669015,-1.00989286,-3.27955161,,,
imu,66.005019,-0.0562263632,-9.352717180800001,3.2401937176,1.07678251,-0.80053938,-3.15992105,,,
imu,66.013493,-0.0466559184,-9.33118368,3.237801106400001,1.04687487,-0.65847809,-3.25712088,,,
imu,66.021967,-0.02990764000000001,-9.358100556000002,3.2407918704,1.09921324,-0.5089398900000002,-3.13001341,,,
imu,66.03044,-0.0263187232,-9.3586987088,3.2366048008,1.20388998,-0.3818324200000003,-3.18235178,,,
imu,66.038914,-0.0155519728,-9.3592968616,3.2282306616,1.09921324,-0.3444478700000002,-3.39170526,,,
imu,66.047388,-0.002990764,-9.334174444000002,3.2324177312,1.11416706,-0.2173404000000003,-3.30945925,,,
imu,66.056161,0.005981528000000001,-9.348530111200002,3.2455770928,0.9870595899999999,-0.2771556799999999,-3.27955161,,,
imu,66.064635,0.0113649032,-9.3802322096,3.252156773600001,0.88985976,-0.1874327600000001,-3.10758268,,,
imu,66.073108,0.0167482784,-9.405952780000002,3.2593346072,0.8973366700000001,-0.05284837999999992,-2.94309066,,,
imu,66.081582,0.0275150288,-9.417915836,3.2581383016,0.80013684,-0.08275602000000015,-2.84589083,,,
imu,66.090056,0.04246884880000001,-9.423897364000002,3.258736454400001,0.7253677399999999,-0.1051867500000001,-2.77859864,,,
imu,66.09853,0.05084298800000001,-9.429280739200001,3.274288427200001,0.68050628,-0.2472480400000001,-2.71130645,,,
imu,66.107003,0.06101158560000001,-9.4286825864,3.268306899200001,0.52349117,-0.3893093300000001,-2.77859864,,,
imu,66.115477,0.0663949608,-9.405354627200001,3.256941996000001,0.46367589,-0.53884753,-2.92813684,,,
imu,66.123951,0.0562263632,-9.390998960000001,3.271895816,0.44872207,-0.65847809,-3.01038285,,,
imu,66.132424,0.07058203040000001,-9.390998960000001,3.275484732800001,0.32909151,-0.8454008399999999,-3.01785976,,,
imu,66.140898,0.0681894192,-9.392195265600002,3.273092121600001,0.23189168,-1.1145696,-3.21973633,,,
imu,66.149372,0.05742266880000001,-9.3832229736,3.2611290656,0.23936859,-1.21176943,-3.28702852,,,
imu,66.157846,0.0562263632,-9.363483931200001,3.2617272184,0.22441477,-1.21176943,-3.10758268,,,
imu,66.166319,0.05981528000000001,-9.3455393472,3.277877344000001,0.26179932,-1.36130763,-2.96552139,,,
imu,66.174793,0.06400234960000001,-9.3622876256,3.2736902744,0.20198404,-1.68281476,-2.91318302,,,
imu,66.183267,0.068787572,-9.361091320000002,3.2790736496,0.18703022,-1.83235296,-2.80850628,,,
imu,66.19174,0.0735727944,-9.3443430416,3.2790736496,0.25432241,-2.019275710000001,-2.62906044,,,
imu,66.200191,0.0735727944,-9.344941194400002,3.2862514832,0.16459949,-2.28096756,-2.5243837,,,
imu,66.208642,0.07058203040000001,-9.349726416800001,3.2886440944,0.10478421,-2.5351825,-2.47952224,,,
imu,66.217093,0.06041343280000001,-9.349726416800001,3.2904385528,0.01506129,-2.52770559,-2.35989168,,,
imu,66.225544,0.04785222400000001,-9.349128264,3.2952237752,0.13469185,-2.84173581,-2.38979932,,,
imu,66.233995,0.04486146000000001,-9.3383615136,3.3024016088,0.14964567,-3.01370474,-2.3000764,,,
imu,66.242446,0.0352910152,-9.328791068800001,3.297616386400001,0.07487657,-3.18567367,-2.3000764,,,
imu,66.250897,0.009570444800000001,-9.3383615136,3.301803456,0.23936859,-3.17819676,-2.27016876,,,
imu,66.259348,-0.0053833752,-9.3317818328,3.300607150400001,0.47862971,-3.00622783,-2.21783039,,,
imu,66.267799,-0.0197390424,-9.3335762912,3.3035979144,0.40386061,-2.66976688,-2.3000764,,,
imu,66.27625,-0.02871133440000001,-9.335968902400001,3.3089812896,0.32909151,-2.55013632,-2.38979932,,,
imu,66.284701,-0.03947808480000001,-9.340754124800002,3.3041960672,0.27675314,-2.2361061,-2.58419898,,,
imu,66.293152,-0.04366515440000001,-9.337165208000002,3.3095794424,0.50853735,-1.94450661,-2.69635263,,,
imu,66.301603,-0.0490485296,-9.3479319584,3.3089812896,0.6281679099999999,-1.55570729,-2.74121409,,,
imu,66.310053,-0.03887993200000001,-9.3586987088,3.322738804,0.57582954,-1.42112291,-2.87579847,,,
imu,66.318504,-0.0263187232,-9.355109792000002,3.3131683592,0.59078336,-1.19681561,-2.94309066,,,
imu,66.326955,-0.0203371952,-9.364082084000001,3.3245332624,0.44124516,-0.80053938,-3.00290594,,,
imu,66.335406,-0.0137575144,-9.367671000800001,3.3233369568,0.53096808,-0.5238937100000003,-2.86832156,,,
imu,66.343857,-0.0053833752,-9.367072848000001,3.318551734400001,0.45619898,-0.25472495,-2.96552139,,,
imu,66.352308,0.004187069600000001,-9.367072848000001,3.3275240264,0.43376825,-0.1799558500000003,-3.30945925,,,
imu,66.360759,0.011963056,-9.3628857784,3.316757276000001,0.4711528,-0.03041764999999996,-3.31693616,,,
imu,66.36921,0.0185427368,-9.352119028,3.313766512,0.40386061,0.1639820099999998,-3.4216129,,,
imu,66.377661,0.0370854736,-9.3455393472,3.305392372800001,0.26927623,0.21632038,-3.60105874,,,
imu,66.386112,0.04964668240000001,-9.3545116392,3.3041960672,0.25432241,0.2312741999999997,-3.74312003,,,
imu,66.394563,0.06220789120000001,-9.344941194400002,3.3119720536,0.3963837,0.33595094,-3.76555076,,,
imu,66.403014,0.06101158560000001,-9.3586987088,3.314962817600001,0.42629134,0.2686587499999997,-3.78050458,,,
imu,66.411463,0.0681894192,-9.363483931200001,3.3155609704,0.45619898,0.3060432999999998,-3.98238115,,,
imu,66.419913,0.06220789120000001,-9.3658765424,3.322738804,0.620691,0.2013665599999999,-3.98238115,,,
imu,66.428362,0.05802082160000001,-9.364680236800002,3.3161591232,0.60573718,0.06678217999999969,-4.04967334,,,
imu,66.436812,0.06220789120000001,-9.352717180800001,3.3059905256,0.58330645,-0.01546383000000029,-4.0197657,,,
imu,66.445261,0.0550300576,-9.3479319584,3.314364664800001,0.58330645,-0.1874327600000001,-4.10948862,,,
imu,66.453711,0.05203929360000001,-9.3443430416,3.3035979144,0.64312173,-0.2622018600000002,-4.079580979999999,,,
imu,66.462161,0.0442633072,-9.329987374400002,3.305392372800001,0.56087572,-0.2921095,-4.13191935,,,
imu,66.47061,0.03947808480000001,-9.3335762912,3.300607150400001,0.65059864,-0.4266938800000002,-4.102011709999999,,,
imu,66.47906,0.0251224176,-9.328791068800001,3.298812692000001,0.67302937,-0.5538013500000001,-4.25154991,,,
imu,66.487509,0.0203371952,-9.325800304800001,3.2994108448,0.91229049,-0.5238937100000003,-4.19921154,,,
imu,66.495959,0.0173464312,-9.329389221600001,3.2922330112,1.00201341,-0.6360473600000001,-4.11696553,,,
imu,66.504408,0.0101685976,-9.332379985600001,3.296420080800001,1.05435178,-0.7407241,-4.19173463,,,
imu,66.512858,0.004187069600000001,-9.3479319584,3.2952237752,1.17398234,-0.7556779200000001,-4.102011709999999,,,
imu,66.521307,0.0005981528000000001,-9.3443430416,3.2850551776,1.03192105,-0.7332471900000002,-4.07210407,,,
imu,66.529757,-0.0053833752,-9.364680236800002,3.295821928000001,0.8973366700000001,-0.6360473600000001,-4.04219643,,,
imu,66.538207,0.0125612088,-9.370661764800001,3.279671802400001,1.05435178,-0.6734319100000001,-3.97490424,,,
imu,66.546656,0.007775986400000001,-9.393989724,3.286849636000001,0.88985976,-0.7257702800000003,-3.93004278,,,
imu,66.555106,0.0023926112,-9.413130613600002,3.286849636000001,0.9048135799999999,-0.7930624700000002,-3.76555076,,,
imu,66.563555,0.0185427368,-9.411934308000001,3.271895816,0.8449983,-0.7407241,-3.66087402,,,
imu,66.572005,0.008972292000000002,-9.364680236800002,3.262923524000001,0.7104139199999999,-0.9650314,-3.66835093,,,
imu,66.580454,0.0155519728,-9.3545116392,3.2677087464,0.56835263,-1.09961578,-3.77302767,,,
imu,66.588904,0.0191408896,-9.373054376,3.2898404,0.38142988,-1.25663089,-3.89265823,,,
imu,65.058006,,,,,,,26.6727212,-26.44692920000002,35.321548
imu,65.167442,,,,,,,25.04916360000001,-26.1173348,34.8210528
imu,65.269126,,,,,,,24.38997480000001,-26.4103076,34.1252424
imu,65.370536,,,,,,,24.4143892,-26.22719960000002,33.08763039999999
imu,65.472099,,,,,,,23.6819572,-26.38589320000002,33.56371119999999
imu,65.573661,,,,,,,26.23326200000001,-26.87418120000002,31.08564959999999
imu,65.675224,,,,,,,23.48664200000001,-26.42251480000002,34.1496568
imu,65.776786,,,,,,,26.23326200000001,-27.19156840000001,31.3297936
imu,66.597353,0.0137575144,-9.420906600000002,3.2982145392,0.21693786,-1.6379533,-4.124442439999999,,,
imu,66.605803,0.011963056,-9.415523224800001,3.2922330112,0.03749201999999999,-1.8622606,-4.11696553,,,
imu,66.614295,0.008374139200000002,-9.385017432000001,3.293429316800001,-0.13447691,-1.94450661,-3.86275059,,,
imu,66.622788,0.0113649032,-9.361091320000002,3.2910367056,-0.17933837,-2.16881391,-3.76555076,,,
imu,66.63128,0.0233279592,-9.3622876256,3.296420080800001,-0.30644584,-2.28096756,-3.30945925,,,
imu,66.639773,0.04187069600000001,-9.3455393472,3.2940274696,-0.23167674,-2.4604134,-2.6739219,,,
imu,66.648265,0.0592171272,-9.3269966104,3.2940274696,-0.0522309,-2.65481306,-2.23278421,,,
imu,66.656758,0.06400234960000001,-9.322211388000001,3.2886440944,0.20198404,-3.09595075,-1.96361545,,,
imu,66.66525,0.0861340032,-9.325800304800001,3.298812692000001,0.33656842,-3.42493479,-1.82155416,,,
imu,66.673742,0.09510629520000001,-9.3383615136,3.2982145392,0.45619898,-3.79878029,-1.89632326,,,
imu,66.682235,0.09390998960000001,-9.3479319584,3.3024016088,0.8375213899999999,-4.12776433,-1.81407725,,,
imu,66.690727,0.080750628,-9.327594763200002,3.2994108448,0.8749059399999999,-4.51656365,-2.06081528,,,
imu,66.69922,0.07297464160000001,-9.3383615136,3.3012053032,1.0693056,-4.7034864,-2.28512258,,,
imu,66.707712,0.04127254320000001,-9.350324569600001,3.301803456,1.20388998,-4.87545533,-2.41223005,,,
imu,66.716205,0.0275150288,-9.3592968616,3.30479422,1.25622835,-5.167054820000001,-2.56176825,,,
imu,66.724697,0.0,-9.364082084000001,3.3024016088,1.18145925,-5.421269759999999,-2.71130645,,,
imu,66.733189,-0.0227298064,-9.368269153600002,3.310177595200001,1.03939796,-5.28668538,-2.74121409,,,
imu,66.741682,-0.0562263632,-9.388606348800002,3.3131683592,0.97958268,-5.137147179999999,-2.86832156,,,
imu,66.750174,-0.0723764888,-9.373054376,3.310177595200001,0.70293701,-5.077331900000001,-3.16739796,,,
imu,66.758667,-0.08433954480000001,-9.3754469872,3.312570206400001,0.33656842,-4.91283988,-3.37675144,,,
imu,66.767159,-0.09749890640000002,-9.370661764800001,3.3293184848,0.03001510999999998,-4.86050151,-3.60105874,,,
imu,66.775652,-0.1010878232,-9.367671000800001,3.318551734400001,-0.19429219,-4.68105567,-3.69078166,,,
imu,66.784144,-0.110658268,-9.351520875200002,3.3191498872,-0.32139966,-4.59880966,-3.66087402,,,
imu,66.792636,-0.13458438,-9.339557819200001,3.328720332000001,-0.26906129,-4.47170219,-3.61601256,,,
imu,66.801129,-0.1459492832,-9.342548583200001,3.33470186,-0.29149202,-4.24739489,-3.44404363,,,
imu,66.809621,-0.1471455888,-9.328192916,3.3341037072,-0.26906129,-3.90345703,-3.31693616,,,
imu,66.818114,-0.143556672,-9.321613235200001,3.3394870824,-0.30644584,-3.78382647,-3.13001341,,,
imu,66.826883,-0.1513326584,-9.318024318400001,3.3454686104,-0.10456927,-3.56699608,-2.90570611,,,
imu,66.835652,-0.152528964,-9.323407693600002,3.343674152,-0.15690764,-3.33521187,-2.72626027,,,
imu,66.844421,-0.1698753952,-9.313239096000002,3.337692624000001,-0.04475399000000001,-3.10342766,-2.63653735,,,
imu,66.85319,-0.1632957144,-9.288116678400002,3.33470186,0.32909151,-2.91650491,-2.47204533,,,
imu,66.86196,-0.1716698536,-9.262396108,3.340085235200001,0.64312173,-2.66976688,-2.39727623,,,
imu,66.870729,-0.1698753952,-9.2719665528,3.3520482912,0.8823828499999999,-2.41555194,-2.27764567,,,
imu,66.879498,-0.1680809368,-9.290509289600001,3.358627972000001,1.03192105,-2.14638318,-2.27016876,,,
imu,66.888267,-0.1782495344,-9.301874192800001,3.363413194400001,1.27118217,-1.92207588,-2.41970696,,,
imu,66.897036,-0.1932033544,-9.289312984,3.355637208000001,1.32352054,-1.60804566,-2.53186061,,,
imu,66.905805,-0.2039701048,-9.28632222,3.3580298192,1.45062801,-1.32392308,-2.58419898,,,
imu,66.914575,-0.2075590216,-9.2851259144,3.3550390552,1.84690424,-0.6360473600000001,-2.35241477,,,
imu,66.923344,-0.2219146888,-9.309052026400002,3.3699928752,2.03382699,-0.2248173100000002,-2.34493786,,,
imu,66.932113,-0.212344244,-9.330585527200002,3.351450138400001,2.06373463,0.2836125699999998,-2.35989168,,,
imu,66.940882,-0.2051664104,-9.347333805600002,3.3490575272,2.22074974,0.9939190199999999,-2.33746095,,,
imu,66.949651,-0.1926052016,-9.371259917600002,3.354440902400001,2.28056502,1.59207182,-2.5243837,,,
imu,66.95842,-0.1746606176,-9.3718580704,3.3412815408,2.51234923,2.07059406,-2.65896808,,,
imu,66.967189,-0.1573141864,-9.379035904000002,3.3412815408,2.50487232,2.66874686,-2.68139881,,,
imu,66.975959,-0.1351825328,-9.389204501600002,3.3173554288,2.42262631,3.18465365,-2.65149117,,,
imu,66.984728,-0.0980970592,-9.3802322096,3.310775748,2.23570356,3.63326825,-2.6739219,,,
imu,66.993497,-0.0681894192,-9.373652528800001,3.3161591232,2.19831901,4.07440594,-2.63653735,,,
imu,67.002266,-0.0352910152,-9.3898026544,3.3024016088,2.07868845,4.32862088,-2.55429134,,,
imu,67.011035,-0.0161501256,-9.3963823352,3.2994108448,1.80204278,4.433297619999999,-2.50195297,,,
imu,67.019804,0.005981528000000001,-9.405354627200001,3.2970182336,1.52539711,4.500589809999999,-2.69635263,,,
imu,67.028272,0.0173464312,-9.399971252000002,3.2946256224,1.19641307,4.37348234,-2.73373718,,,
imu,67.036739,0.03349655680000001,-9.385017432000001,3.2904385528,0.9197674,4.29871324,-2.70382954,,,
imu,67.045207,0.03947808480000001,-9.398176793600001,3.293429316800001,0.67302937,4.388436159999999,-2.49447606,,,
imu,67.053674,0.05981528000000001,-9.4071490856,3.2874477888,0.41881443,4.149175039999999,-2.47204533,,,
imu,67.062141,0.0681894192,-9.3898026544,3.280868108,0.34404533,4.126744309999999,-2.34493786,,,
imu,67.070609,0.07118018320000001,-9.370063612000001,3.2898404,0.19450713,3.820191,-2.47952224,,,
imu,67.079076,0.080750628,-9.367072848000001,3.2844570248,0.28423005,3.70803735,-2.41223005,,,
imu,67.087543,0.08912476720000001,-9.3688673064,3.2994108448,0.12721494,3.61083752,-2.27764567,,,
imu,67.096011,0.08733030880000002,-9.353315333600001,3.3035979144,-0.11204618,3.3715764,-2.44213769,,,
imu,67.104478,0.08792846160000001,-9.3622876256,3.3203461928,-0.18681528,3.35662258,-2.47952224,,,
imu,67.112945,0.09749890640000002,-9.359895014400001,3.310177595200001,-0.16438455,3.3715764,-2.4496146,,,
imu,67.121413,0.10467674,-9.349726416800001,3.316757276000001,-0.25410747,3.13979219,-2.66644499,,,
imu,67.12988,0.1058730456,-9.346735652800001,3.3203461928,-0.15690764,3.02016163,-2.748691,,,
imu,67.138347,0.09450814240000002,-9.343146736000001,3.337692624000001,-0.26158438,2.9229618,-2.86084465,,,
imu,67.146713,0.1004896704,-9.328192916,3.331711096,-0.18681528,2.9977309,-2.92813684,,,
imu,67.15518,0.09929336480000002,-9.335370749600001,3.3275240264,-0.24663056,2.95286944,-3.00290594,,,
imu,67.163648,0.1112564208,-9.335370749600001,3.3370944712,-0.02980017,2.75099287,-3.10010577,,,
imu,67.172115,0.1022841288,-9.340754124800002,3.3412815408,0.0001074699999999984,2.6986545,-3.18235178,,,
imu,67.180582,0.1010878232,-9.3347725968,3.346066763200001,-0.02980017,2.57154703,-3.13001341,,,
imu,67.18905,0.09929336480000002,-9.323407693600002,3.346664916,0.22441477,2.61640849,-3.04029049,,,
imu,67.197517,0.09989151760000002,-9.326398457600002,3.346664916,0.19450713,2.40705501,-3.18982869,,,
imu,67.205984,0.1010878232,-9.3246039992,3.3520482912,0.3963837,2.45939338,-3.1973056,,,
imu,67.214452,0.1160416432,-9.319818776800002,3.346664916,0.3963837,2.36219355,-3.24216706,,,
imu,67.222919,0.1148453376,-9.323407693600002,3.3550390552,0.35899915,2.22760917,-3.39918217,,,
imu,67.231388,0.1280046992,-9.324005846400002,3.3490575272,0.3739529699999999,2.05564024,-3.45152054,,,
imu,67.239856,0.1363788384,-9.328791068800001,3.346066763200001,0.38142988,1.91357895,-3.60105874,,,
imu,67.248325,0.1333880744,-9.3210150824,3.351450138400001,0.4861066199999999,1.74161002,-3.59358183,,,
imu,67.256794,0.1214250184,-9.311444637600001,3.352646444,0.5982602699999999,1.62197946,-3.50385891,,,
imu,67.265262,0.116639796,-9.319818776800002,3.3574316664,0.49358353,1.51730272,-3.60105874,,,
imu,67.273731,0.1070693512,-9.332978138400001,3.3550390552,0.51601426,1.32290306,-3.69825857,,,
imu,67.282199,0.09091922560000001,-9.327594763200002,3.3640113472,0.46367589,1.24065705,-3.75059694,,,
imu,67.290668,0.08673215600000002,-9.3335762912,3.351450138400001,0.45619898,1.21822632,-3.84031986,,,
imu,67.299137,0.08015247520000002,-9.323407693600002,3.358627972000001,0.3889067899999999,1.2032725,-3.84779677,,,
imu,67.307605,0.06998387760000001,-9.33118368,3.355637208000001,0.53096808,1.31542615,-3.7954584,,,
imu,67.316074,0.04964668240000001,-9.332379985600001,3.3520482912,0.60573718,1.34533379,-3.74312003,,,
imu,67.324543,0.04964668240000001,-9.325800304800001,3.354440902400001,0.7104139199999999,1.31542615,-3.83284295,,,
imu,67.333011,0.04127254320000001,-9.325202152000001,3.354440902400001,0.58330645,1.37524143,-3.91508896,,,
imu,67.34148,0.03110394560000001,-9.327594763200002,3.3592261248,0.77770611,1.54721036,-3.91508896,,,
imu,67.349949,0.026916876,-9.344941194400002,3.344870457600001,0.7702292,1.68927165,-4.02724261,,,
imu,67.358417,0.02871133440000001,-9.336567055200002,3.3364963184,0.81509066,1.89862513,-4.0197657,,,
imu,67.366886,0.0275150288,-9.327594763200002,3.346066763200001,0.81509066,2.03320951,-3.84779677,,,
imu,67.375354,0.0233279592,-9.326398457600002,3.3508519856,0.77770611,2.18274771,-3.75059694,,,
imu,67.383823,0.0293094872,-9.325202152000001,3.347263068800001,0.77770611,2.34723973,-3.69825857,,,
imu,67.392292,0.0442633072,-9.316229860000002,3.3502538328,0.73284465,2.37714737,-3.78798149,,,
imu,67.40076,0.0562263632,-9.288116678400002,3.3442723048,0.7552753799999999,2.21265535,-4.10948862,,,
imu,67.409229,0.04486146000000001,-9.295294512000002,3.3412815408,0.83004448,2.10797861,-4.51324176,,,
imu,65.878375,,,,,,,23.86506520000001,-26.70328040000001,33.8200624
imu,65.979876,,,,,,,23.80402920000001,-26.44692920000002,33.368396
imu,66.08153,,,,,,,23.730786,-26.47134360000001,34.1374496
imu,66.18294,,,,,,,24.2068668,-26.43472200000001,33.50267519999999
imu,66.284625,,,,,,,24.57308280000001,-26.6422444,34.1862784
imu,66.393908,,,,,,,24.86605560000001,-26.56900120000001,34.73560239999999
imu,66.49544,,,,,,,25.04916360000001,-26.59341560000001,34.17407119999999
imu,66.597003,,,,,,,24.6829476,-26.5079652,34.6867736
imu,67.417698,0.04127254320000001,-9.343744888800002,3.354440902400001,0.9870595899999999,1.99582496,-4.58801086,,,
imu,67.426166,0.0442633072,-9.371259917600002,3.3628150416,1.06182869,1.92853277,-4.49081103,,,
imu,67.434634,0.0514411408,-9.3694654592,3.355637208000001,1.18893616,1.90610204,-4.25154991,,,
imu,67.443101,0.0352910152,-9.3443430416,3.3520482912,1.32352054,1.68927165,-4.08705789,,,
imu,67.451568,0.03947808480000001,-9.3210150824,3.3442723048,1.48053565,1.66684092,-3.7954584,,,
imu,67.460036,0.0382817792,-9.328192916,3.341879693600001,1.57773548,1.68927165,-3.39170526,,,
imu,67.468503,0.0370854736,-9.33118368,3.326327720800001,1.78708896,1.67431783,-3.24216706,,,
imu,67.47697,0.03648732080000001,-9.327594763200002,3.322738804,1.85438115,1.63693328,-3.14496723,,,
imu,67.485438,0.023926112,-9.322809540800002,3.316757276000001,1.80204278,1.45748744,-3.21973633,,,
imu,67.493905,0.0155519728,-9.328192916,3.3035979144,1.86933497,1.30794924,-3.30945925,,,
imu,67.502372,0.0101685976,-9.335968902400001,3.2970182336,1.91419643,1.34533379,-3.24964397,,,
imu,67.51084,0.0053833752,-9.337165208000002,3.2874477888,1.83195042,1.45748744,-3.25712088,,,
imu,67.519307,0.0125612088,-9.346735652800001,3.2826625664,1.75718132,1.58459491,-3.13749032,,,
imu,67.527774,0.009570444800000001,-9.3664746952,3.297616386400001,1.8169966,1.76404075,-3.11505959,,,
imu,67.536242,0.0215335008,-9.3862137376,3.2886440944,1.64502767,2.09302479,-3.01038285,,,
imu,67.544709,0.0251224176,-9.4005694048,3.296420080800001,1.57025857,2.14536316,-2.99542903,,,
imu,67.553177,0.0293094872,-9.405354627200001,3.2910367056,1.40576655,2.19022462,-2.92065993,,,
imu,67.561644,0.03588916800000001,-9.405354627200001,3.2898404,1.0693056,2.28742445,-3.05524431,,,
imu,67.570111,0.04725407120000001,-9.3993730992,3.298812692000001,0.6954601,2.36967046,-3.09262886,,,
imu,67.578579,0.0376836264,-9.399971252000002,3.2946256224,0.5982602699999999,2.34723973,-3.18982869,,,
imu,67.587046,0.03588916800000001,-9.414326919200002,3.2952237752,0.49358353,2.4743472,-3.1973056,,,
imu,67.595513,0.0532355992,-9.434065961600002,3.292831164,0.26927623,2.49677793,-3.13749032,,,
imu,67.603981,0.0681894192,-9.417915836,3.305392372800001,0.13469185,2.67622377,-2.90570611,,,
imu,67.612448,0.0747691,-9.393391571200002,3.3035979144,-0.007369440000000005,2.75099287,-2.90570611,,,
imu,67.620915,0.0903210728,-9.387410043200001,3.307186831200001,-0.08961545,2.76594669,-2.73373718,,,
imu,67.629383,0.1022841288,-9.396980488,3.3065886784,-0.26906129,2.78090051,-2.71130645,,,
imu,67.637916,0.1208268656,-9.387410043200001,3.310177595200001,-0.33635348,2.67622377,-2.8234601,,,
imu,67.64645,0.131593616,-9.3652783896,3.300607150400001,-0.22419983,2.6238854,-2.8234601,,,
imu,67.654983,0.1393696024,-9.3479319584,3.2994108448,-0.20924601,2.53416248,-2.8982292,,,
imu,67.663517,0.1387714496,-9.335370749600001,3.3000089976,-0.30644584,2.38462428,-2.88327538,,,
imu,67.67205,0.146547436,-9.318622471200001,3.305392372800001,-0.24663056,2.28742445,-2.79355246,,,
imu,67.680584,0.1549215752,-9.3269966104,3.318551734400001,-0.19429219,2.13040934,-3.17487487,,,
imu,67.689117,0.1537252696,-9.3443430416,3.3233369568,-0.14195382,2.07059406,-3.29450543,,,
imu,67.697651,0.1579123392,-9.3377633608,3.3245332624,-0.11952309,1.92105586,-3.44404363,,,
imu,67.706184,0.1626975616,-9.325202152000001,3.31974804,0.03749201999999999,1.8761944,-3.24964397,,,
imu,67.714717,0.1513326584,-9.311444637600001,3.3221406512,-0.07466163,1.67431783,-3.2720747,,,
imu,67.723251,0.1507345056,-9.323407693600002,3.3221406512,-0.02232326000000001,1.59954873,-3.17487487,,,
imu,67.731784,0.1489400472,-9.343744888800002,3.3299166376,0.03001510999999998,1.577118,-3.03281358,,,
imu,67.740318,0.1393696024,-9.346735652800001,3.3442723048,0.08983038999999998,1.59954873,-2.87579847,,,
imu,67.748851,0.1429585192,-9.361689472800002,3.352646444,0.007584380000000002,1.577118,-2.83841392,,,
imu,67.757385,0.1483418944,-9.3658765424,3.343674152,-0.01484635000000001,1.53225654,-2.91318302,,,
imu,67.765918,0.1477437416,-9.377241445600001,3.3388889296,0.03749201999999999,1.49487199,-3.14496723,,,
imu,67.774452,0.1573141864,-9.3628857784,3.3364963184,0.07487657,1.34533379,-3.29450543,,,
imu,67.782985,0.1716698536,-9.363483931200001,3.333505554400001,0.10478421,1.31542615,-3.39918217,,,
imu,67.791519,0.1597067976,-9.347333805600002,3.3329074016,0.03749201999999999,1.21822632,-3.55619728,,,
imu,67.800052,0.1656883256,-9.339557819200001,3.330514790400001,0.06739966,1.15093413,-3.53376655,,,
imu,67.808586,0.1597067976,-9.328791068800001,3.3388889296,0.0001074699999999984,1.17336486,-3.5711511,,,
imu,67.817119,0.1501363528,-9.321613235200001,3.340085235200001,0.04496892999999999,1.18084177,-3.57862801,,,
imu,67.825653,0.1519308112,-9.311444637600001,3.3364963184,-0.007369440000000005,1.01634975,-3.57862801,,,
imu,67.834186,0.1489400472,-9.307855720800001,3.326327720800001,-0.02980017,0.9789651999999998,-3.59358183,,,
imu,67.842929,0.1381732968,-9.3060612624,3.3490575272,0.03001510999999998,0.8593346399999997,-3.59358183,,,
imu,67.851671,0.1387714496,-9.323407693600002,3.3442723048,0.1720764,0.9341037399999998,-3.60853565,,,
imu,67.860414,0.1268083936,-9.3168280128,3.346664916,0.26927623,0.8518577299999999,-3.73564312,,,
imu,67.869157,0.1202287128,-9.319818776800002,3.3508519856,0.29170696,0.98644211,-3.74312003,,,
imu,67.877899,0.125612088,-9.319220624000002,3.3532445968,0.35152224,1.01634975,-3.6459202,,,
imu,67.886642,0.131593616,-9.328192916,3.349655680000001,0.4861066199999999,1.08364194,-3.6459202,,,
imu,67.895385,0.140565908,-9.3246039992,3.351450138400001,0.4861066199999999,1.24065705,-3.70573548,,,
imu,67.904127,0.1429585192,-9.3269966104,3.3520482912,0.47862971,1.36776452,-3.75059694,,,
imu,67.91287,0.1351825328,-9.322211388000001,3.354440902400001,0.43376825,1.48739508,-3.88518132,,,
imu,67.921612,0.1387714496,-9.3335762912,3.346664916,0.5010604399999999,1.50982581,-4.04967334,,,
imu,67.930355,0.1537252696,-9.3419504304,3.3592261248,0.58330645,1.62945637,-4.124442439999999,,,
imu,67.939098,0.1597067976,-9.352717180800001,3.3658058056,0.43376825,1.50982581,-4.19173463,,,
imu,67.94784,0.16449202,-9.3419504304,3.373581792,0.43376825,1.53973345,-4.169303899999999,,,
imu,67.956583,0.170473548,-9.340754124800002,3.3783670144,0.3216146,1.43505671,-4.34874974,,,
imu,67.965326,0.1698753952,-9.3419504304,3.3711891808,0.3216146,1.31542615,-4.34874974,,,
imu,67.974068,0.1620994088,-9.330585527200002,3.378965167200001,0.35152224,1.00139593,-4.363703559999999,,,
imu,67.982811,0.1531271168,-9.328791068800001,3.3831522368,0.22441477,0.7397040799999997,-4.55810322,,,
imu,67.991553,0.1369769912,-9.3269966104,3.3849466952,0.05244583999999999,0.4929660499999997,-4.70764142,,,
imu,68.000296,0.128602852,-9.319818776800002,3.384348542400001,0.007584380000000002,0.2537049300000001,-4.7674567,,,
imu,68.009039,0.1088638096,-9.315631707200001,3.391526376000001,0.11226112,0.1789358299999999,-4.57305704,,,
imu,68.017781,0.08972292000000001,-9.301874192800001,3.3849466952,0.07487657,-0.09023292999999999,-4.51324176,,,
imu,68.026524,0.07177833600000001,-9.292303748000002,3.391526376000001,0.13469185,-0.2397711300000003,-4.44594957,,,
imu,68.035266,0.0502448352,-9.2899111368,3.3897319176,0.18703022,-0.1350943900000003,-4.22911918,,,
imu,68.043601,0.0305057928,-9.297687123200001,3.396311598400001,0.53096808,-0.05284837999999992,-4.04967334,,,
imu,68.051936,0.0251224176,-9.294098206400001,3.39451714,0.52349117,-0.1276174800000001,-4.169303899999999,,,
imu,68.060271,0.0215335008,-9.288116678400002,3.3951152928,0.65059864,0.08173599999999981,-3.98238115,,,
imu,68.068606,0.02871133440000001,-9.2761536224,3.3837503896,0.7702292,0.1565051,-3.90013514,,,
imu,68.076941,0.0185427368,-9.271368400000002,3.3807596256,1.03192105,0.41819695,-3.87770441,,,
imu,68.085276,0.0227298064,-9.281536997600002,3.3831522368,1.2188438,0.6499811599999998,-3.7954584,,,
imu,68.093611,0.0275150288,-9.28632222,3.3909282232,1.39828964,0.7172733499999997,-3.7206893,,,
imu,68.101946,0.0323002512,-9.294098206400001,3.3687965696,1.65250458,0.9341037399999998,-3.6459202,,,
imu,68.110281,0.0526374464,-9.290509289600001,3.3562353608,1.83942733,1.12102649,-3.62348947,,,
imu,68.118616,0.0753672528,-9.298883428800002,3.3550390552,1.9665348,1.30047233,-3.496382,,,
imu,68.126951,0.08852661440000001,-9.3246039992,3.347263068800001,2.01887317,1.3528107,-3.51133582,,,
imu,68.135286,0.1088638096,-9.327594763200002,3.3412815408,2.27308811,1.52477963,-3.40665908,,,
imu,68.143621,0.1244157824,-9.332379985600001,3.328720332000001,2.30299575,1.42010289,-3.56367419,,,
imu,68.151956,0.1309954632,-9.346735652800001,3.322738804,2.19831901,1.29299542,-3.86275059,,,
imu,68.160291,0.1423603664,-9.363483931200001,3.3155609704,2.29551884,1.24813396,-3.81041222,,,
imu,68.168626,0.1471455888,-9.379035904000002,3.3191498872,2.16841137,1.15093413,-3.84779677,,,
imu,68.176961,0.1513326584,-9.404756474400001,3.3233369568,2.16093446,1.0537343,-3.78798149,,,
imu,68.185296,0.1501363528,-9.409541696800002,3.3089812896,1.98896553,1.00887284,-3.53376655,,,
imu,68.193631,0.1441548248,-9.3754469872,3.312570206400001,1.64502767,0.8892422799999999,-3.48890509,,,
imu,68.201966,0.143556672,-9.347333805600002,3.31974804,1.28613599,0.5901658799999998,-3.66835093,,,
imu,68.210301,0.1411640608,-9.343744888800002,3.3191498872,1.19641307,0.47801223,-3.90013514,,,
imu,68.218636,0.1202287128,-9.359895014400001,3.314364664800001,0.9646288599999999,0.3284740299999998,-4.26650373,,,
imu,68.226971,0.09570444800000001,-9.380830362400001,3.3245332624,0.8749059399999999,0.2462280199999998,-4.49081103,,,
imu,66.706378,,,,,,,26.904658,-27.05728920000001,32.1965048
imu,66.807971,,,,,,,25.13461400000001,-26.44692920000002,34.33276479999999
imu,66.909503,,,,,,,27.576054,-27.80192840000002,32.758036
imu,67.011065,,,,,,,25.4520012,-26.61783000000002,35.3581696
imu,67.112628,,,,,,,25.2200644,-26.25161400000002,34.0642064
imu,67.21419,,,,,,,25.09799240000001,-26.32485720000002,34.88208879999999
imu,67.315875,,,,,,,25.37875800000001,-26.52017240000002,34.6379448
imu,67.417315,,,,,,,25.2933076,-26.91080280000002,34.7966384
imu,68.235253,0.07058203040000001,-9.390998960000001,3.33470186,0.82256757,0.2836125699999998,-4.44594957,,,
imu,68.243587,0.0550300576,-9.3766432928,3.3269258736,0.88985976,0.2611818399999999,-4.22164227,,,
imu,68.252185,0.0442633072,-9.360493167200001,3.322738804,0.9197674,0.52287369,-4.07210407,,,
imu,68.260783,0.03588916800000001,-9.340754124800002,3.3173554288,1.00949032,0.6724118899999998,-3.75059694,,,
imu,68.269381,0.05443190480000001,-9.336567055200002,3.2982145392,0.9571519499999999,0.9116730099999999,-3.51133582,,,
imu,68.277979,0.05802082160000001,-9.3383615136,3.295821928000001,1.09921324,1.03878048,-3.51133582,,,
imu,68.286577,0.05084298800000001,-9.3347725968,3.312570206400001,1.39828964,1.16588795,-3.50385891,,,
imu,68.295175,0.05562821040000001,-9.343744888800002,3.2994108448,1.47305874,1.19579559,-3.74312003,,,
imu,68.303773,0.0514411408,-9.3479319584,3.3012053032,1.45810492,1.33785688,-3.8702275,,,
imu,68.312371,0.05443190480000001,-9.3455393472,3.302999761600001,1.51044329,1.50982581,-4.0945348,,,
imu,68.320969,0.04187069600000001,-9.3479319584,3.286849636000001,1.54035093,1.55468727,-4.17678081,,,
imu,68.329567,0.03887993200000001,-9.343146736000001,3.2844570248,1.41324346,1.62945637,-4.124442439999999,,,
imu,68.338165,0.03289840400000001,-9.355109792000002,3.2850551776,1.46558183,1.85376367,-4.18425772,,,
imu,68.346763,0.0382817792,-9.3694654592,3.2850551776,1.24875144,1.86124058,-4.22911918,,,
imu,68.355361,0.0526374464,-9.3652783896,3.2910367056,1.03939796,1.99582496,-4.28893446,,,
imu,68.363959,0.06160973840000001,-9.367671000800001,3.301803456,0.8973366700000001,2.09302479,-4.19921154,,,
imu,68.372557,0.06699311360000001,-9.370063612000001,3.296420080800001,0.82256757,2.01077878,-4.20668845,,,
imu,68.381155,0.07895616960000001,-9.374848834400002,3.307784984,0.80761375,2.00330187,-4.22164227,,,
imu,68.389753,0.07656355840000001,-9.3796340568,3.3065886784,0.68798319,1.9509635,-4.057150249999999,,,
imu,68.398351,0.08015247520000002,-9.3993730992,3.314962817600001,0.64312173,1.91357895,-3.90013514,,,
imu,68.406949,0.07775986400000001,-9.398176793600001,3.323935109600001,0.4861066199999999,1.76404075,-3.9449966,,,
imu,68.415547,0.0693857248,-9.399971252000002,3.325729568,0.35899915,1.76404075,-3.81788913,,,
imu,68.424145,0.0592171272,-9.399971252000002,3.320944345600001,0.31413769,1.90610204,-3.65339711,,,
imu,68.432743,0.0562263632,-9.396980488,3.3275240264,0.08983038999999998,1.8761944,-3.60853565,,,
imu,68.441341,0.05682451600000001,-9.385017432000001,3.3203461928,-0.08213854000000001,1.79394839,-3.6459202,,,
imu,68.449815,0.04187069600000001,-9.372456223200002,3.330514790400001,-0.29896893,1.75656384,-3.73564312,,,
imu,68.458289,0.03947808480000001,-9.360493167200001,3.332309248800001,-0.3513073,1.94348659,-3.65339711,,,
imu,68.466763,0.0382817792,-9.347333805600002,3.320944345600001,-0.2017691,1.99582496,-3.58610492,,,
imu,68.475236,0.03289840400000001,-9.334174444000002,3.312570206400001,-0.18681528,2.19770153,-3.69078166,,,
imu,68.48371,0.0263187232,-9.311444637600001,3.310775748,-0.21672292,2.42200883,-3.63844329,,,
imu,68.492184,0.03110394560000001,-9.316229860000002,3.322738804,-0.14195382,2.63136231,-3.69078166,,,
imu,68.500657,0.04545961280000001,-9.344941194400002,3.3388889296,-0.20924601,2.69117759,-3.78798149,,,
imu,68.509131,0.03947808480000001,-9.338959666400001,3.331112943200001,-0.18681528,2.75099287,-4.00481188,,,
imu,68.517605,0.0514411408,-9.332379985600001,3.3353000128,0.007584380000000002,2.98277708,-3.93004278,,,
imu,68.526079,0.0490485296,-9.323407693600002,3.347263068800001,-0.21672292,3.12483837,-4.00481188,,,
imu,68.534552,0.04545961280000001,-9.329389221600001,3.346664916,-0.17933837,3.28185348,-3.97490424,,,
imu,68.543026,0.04007623760000001,-9.358100556000002,3.338290776800001,-0.17186146,3.32671494,-3.89265823,,,
imu,68.5515,0.04366515440000001,-9.3652783896,3.3550390552,-0.30644584,3.61083752,-3.5711511,,,
imu,67.518859,,,,,,,24.9392988,-25.67787560000001,34.69898079999999
imu,67.620422,,,,,,,25.317722,-26.08071320000001,35.0651968
imu,67.721984,,,,,,,27.4417748,-26.95963160000001,32.47727039999999
imu,67.823638,,,,,,,24.75619080000001,-25.65346120000001,34.88208879999999
imu,67.92514,,,,,,,27.2952884,-26.77652360000003,31.7692528
imu,68.026672,,,,,,,24.95150600000001,-26.12954200000001,35.3947912
imu,68.128265,,,,,,,24.81722680000001,-25.77553320000001,33.7590264
imu,68.234588,,,,,,,25.0247492,-26.47134360000001,35.1262328
imu,68.331359,,,,,,,25.256686,-26.75210920000002,34.30835039999999
imu,68.432952,,,,,,,25.1590284,-26.44692920000002,34.7233952
imu,68.534667,,,,,,,25.0613708,-26.37368600000001,34.61353039999999
