Type,Timestamp,Data Accelerometer X,Data Accelerometer Y,Data Accelerometer Z,Data Gyroscope X,Data Gyroscope Y,Data Gyroscope Z,Data Magnetometer X,Data Magnetometer Y,Data Magnetometer Z
imu,195.154018,0.05981528000000001,-9.343146736000001,3.4830437544,-1.18124431,0.92662683,-4.22164227,,,
imu,195.162489,0.04785222400000001,-9.330585527200002,3.4740714624,-1.11395212,0.9191499199999997,-3.95247351,,,
imu,195.17096,0.0406743904,-9.3174261656,3.4740714624,-1.12142903,0.9116730099999999,-3.47395127,,,
imu,195.179432,0.0430670016,-9.3210150824,3.4615102536,-0.97189083,1.06121121,-3.07019813,,,
imu,195.187903,0.0406743904,-9.323407693600002,3.467491781600001,-0.9494601,1.09111885,-2.86832156,,,
imu,195.196374,0.04486146000000001,-9.325202152000001,3.46928624,-0.82982954,1.10607267,-2.86084465,,,
imu,195.204845,0.04964668240000001,-9.344941194400002,3.4830437544,-0.88964482,1.01634975,-2.96552139,,,
imu,195.213316,0.04366515440000001,-9.350922722400002,3.472875156800001,-0.8821679099999999,1.15841104,-3.03281358,,,
imu,195.221787,0.04246884880000001,-9.352119028,3.479454837600001,-0.88964482,1.15093413,-3.21225942,,,
imu,195.230259,0.04246884880000001,-9.3658765424,3.4860345184,-1.05413684,1.27056469,-3.37675144,,,
imu,195.23873,0.0382817792,-9.3694654592,3.4776603792,-1.22610577,1.36028761,-3.45152054,,,
imu,195.247796,0.04187069600000001,-9.363483931200001,3.4818474488,-1.45041307,1.51730272,-3.5711511,,,
imu,195.256863,0.04127254320000001,-9.3479319584,3.478856684800001,-1.87659694,1.61450255,-3.82536604,,,
imu,195.265929,0.0526374464,-9.357502403200002,3.4956049632,-2.1457657,1.66684092,-3.98985806,,,
imu,195.274995,0.06220789120000001,-9.355109792000002,3.5009883384,-2.15324261,1.86124058,-3.88518132,,,
imu,195.284062,0.06041343280000001,-9.3592968616,3.5033809496,-2.36259609,1.82385603,-3.97490424,,,
imu,195.293128,0.0681894192,-9.350922722400002,3.518932922400001,-2.67662631,1.77899457,-4.04219643,,,
imu,195.302194,0.06579680800000001,-9.3419504304,3.521325533600001,-3.00561035,1.69674856,-4.19921154,,,
imu,195.311261,0.06460050240000001,-9.329389221600001,3.5279052144,-3.28973293,1.69674856,-4.15435008,,,
imu,195.320327,0.0693857248,-9.309650179200002,3.549438715200001,-3.50656332,1.84628676,-3.92256587,,,
imu,195.329394,0.07716171120000001,-9.313239096000002,3.560205465600001,-3.42431731,1.80890221,-3.72816621,,,
imu,195.33846,0.0813487808,-9.318622471200001,3.576953744000001,-3.4168404,1.77899457,-3.63096638,,,
imu,195.347526,0.0855358504,-9.309650179200002,3.581738966400001,-3.42431731,1.60702564,-3.55619728,,,
imu,195.356593,0.0855358504,-9.287518525600001,3.5841315776,-3.49908641,1.46496435,-3.54124346,,,
imu,195.365659,0.09211553120000002,-9.268377636,3.591309411200001,-3.65610152,1.45748744,-3.47395127,,,
imu,195.374725,0.09211553120000002,-9.247442288000002,3.6014780088,-3.39440967,1.34533379,-3.39918217,,,
imu,195.383792,0.08374139200000001,-9.2300958568,3.606861384000001,-3.1925331,1.36776452,-3.38422835,,,
imu,195.392858,0.0861340032,-9.215142036800001,3.614039217600001,-2.8934567,1.2780416,-3.45152054,,,
imu,195.401925,0.07955432240000002,-9.2091605088,3.637367176800001,-2.68410322,1.24065705,-3.54872037,,,
imu,195.410991,0.0903210728,-9.214543884000001,3.652919149600001,-2.58690339,1.13598031,-3.68330475,,,
imu,195.420057,0.0741709472,-9.232488468000001,3.6594988304,-2.33268845,1.18831868,-3.69078166,,,
imu,195.429124,0.0753672528,-9.2067678976,3.6475357744,-2.4448421,1.18084177,-3.80293531,,,
imu,195.43819,0.07596540560000001,-9.187627008000002,3.6594988304,-2.28035008,1.22570323,-3.77302767,,,
imu,195.447256,0.0723764888,-9.176262104800001,3.679237872800001,-2.17567334,1.18831868,-3.7206893,,,
imu,195.455547,0.07596540560000001,-9.187627008000002,3.6947898456,-1.89902767,1.28551851,-3.72816621,,,
imu,195.463838,0.07177833600000001,-9.210954967200001,3.697780609600001,-1.72705874,1.41262598,-3.63844329,,,
imu,195.472128,0.06519865520000001,-9.197197452800001,3.7061547488,-1.55508981,1.4275798,-3.47395127,,,
imu,195.480419,0.05742266880000001,-9.186430702400001,3.7079492072,-1.40555161,1.40514907,-3.54124346,,,
imu,195.488709,0.0532355992,-9.195402994400002,3.7181178048,-1.11395212,1.59207182,-3.48142818,,,
imu,195.497,0.0532355992,-9.1965993,3.721108568800001,-1.07656757,1.54721036,-3.66835093,,,
imu,195.505291,0.0502448352,-9.193608536000001,3.725893791200001,-0.84478336,1.54721036,-3.81041222,,,
imu,195.513581,0.05084298800000001,-9.2001882168,3.7252956384,-0.51579932,1.70422547,-3.7954584,,,
imu,195.521872,0.05562821040000001,-9.2091605088,3.742043916800001,-0.37373803,1.82385603,-3.90013514,,,
imu,195.530162,0.05203929360000001,-9.207964203200001,3.728286402400001,-0.21672292,1.81637912,-4.012288789999999,,,
imu,195.538453,0.0634041968,-9.190617772000001,3.726491944,-0.08213854000000001,1.86124058,-4.0197657,,,
imu,195.546744,0.07297464160000001,-9.173271340800001,3.7336697776,0.12721494,1.90610204,-3.98238115,,,
imu,195.555034,0.07775986400000001,-9.1672898128,3.729482708,0.25432241,2.06311715,-3.90761205,,,
imu,195.563325,0.0813487808,-9.163700896000002,3.7276882496,0.3889067899999999,2.04816333,-3.95247351,,,
imu,195.571616,0.080750628,-9.169682424000001,3.7270900968,0.67302937,1.98834805,-3.9449966,,,
imu,195.579906,0.0861340032,-9.1720750352,3.728286402400001,0.8973366700000001,1.92853277,-3.90013514,,,
imu,195.588197,0.08015247520000002,-9.183439938400001,3.7252956384,0.9870595899999999,1.93600968,-3.80293531,,,
imu,195.596487,0.08314323920000001,-9.188823313600002,3.735464236,1.27118217,1.77899457,-3.81788913,,,
imu,195.604778,0.08015247520000002,-9.195402994400002,3.7336697776,1.4431511,1.66684092,-3.83284295,,,
imu,195.613069,0.07656355840000001,-9.197197452800001,3.730080860800001,1.43567419,1.56216418,-3.7206893,,,
imu,195.621359,0.0741709472,-9.211553120000001,3.720510416000001,1.5179202,1.41262598,-3.69825857,,,
imu,195.62965,0.07716171120000001,-9.2127494256,3.728884555200001,1.69736604,1.45748744,-3.70573548,,,
imu,195.63794,0.07177833600000001,-9.210954967200001,3.7217067216,1.65998149,1.43505671,-3.72816621,,,
imu,195.646231,0.0741709472,-9.222319870400002,3.7079492072,1.71979677,1.36028761,-3.7206893,,,
imu,195.654627,0.0741709472,-9.2366755376,3.7217067216,1.73475059,1.25561087,-3.62348947,,,
imu,195.663023,0.0723764888,-9.2432552184,3.7181178048,1.74970441,1.36028761,-3.54124346,,,
imu,195.671419,0.06460050240000001,-9.246245982400001,3.721108568800001,1.8169966,1.27056469,-3.54124346,,,
imu,195.679816,0.06220789120000001,-9.247442288000002,3.6959861512,1.65250458,1.22570323,-3.63844329,,,
imu,195.688212,0.07058203040000001,-9.238469996000001,3.690004623200001,1.63007385,1.18831868,-3.61601256,,,
imu,195.696608,0.06160973840000001,-9.238469996000001,3.7013695264,1.77213514,1.19579559,-3.58610492,,,
imu,195.705004,0.0747691,-9.236077384800002,3.688210164800001,1.78708896,1.21822632,-3.47395127,,,
imu,195.7134,0.0735727944,-9.246844135200002,3.684023095200001,1.74970441,1.06868812,-3.47395127,,,
imu,195.721796,0.07297464160000001,-9.249236746400001,3.6828267896,1.80204278,1.10607267,-3.45152054,,,
imu,195.730192,0.07656355840000001,-9.249834899200001,3.6732563448,1.86185806,1.07616503,-3.496382,,,
imu,195.738589,0.07118018320000001,-9.240264454400002,3.672658192000001,1.84690424,1.11354958,-3.60105874,,,
imu,195.746985,0.0861340032,-9.239666301600002,3.665480358400001,1.90671952,0.9714882899999999,-3.58610492,,,
imu,195.755381,0.08374139200000001,-9.246844135200002,3.6618914416,1.92167334,1.03878048,-3.66087402,,,
imu,195.763777,0.0783580168,-9.259405344000001,3.6565080664,1.88428879,1.00139593,-3.5711511,,,
imu,195.772173,0.08254508640000002,-9.262994260800001,3.6505265384,1.94410407,0.94905756,-3.58610492,,,
imu,195.780569,0.07716171120000001,-9.273162858400001,3.6403579408,2.07121154,1.07616503,-3.60853565,,,
imu,195.788966,0.0741709472,-9.271368400000002,3.637367176800001,2.06373463,1.00139593,-3.66835093,,,
imu,195.797362,0.07297464160000001,-9.283929608800001,3.6403579408,1.95905789,1.06868812,-3.70573548,,,
imu,195.805758,0.07177833600000001,-9.28632222,3.636769024,1.9665348,1.15841104,-3.51881273,,,
imu,195.814154,0.07058203040000001,-9.285724067200002,3.6343764128,1.98148862,1.19579559,-3.53376655,,,
imu,195.82255,0.07716171120000001,-9.290509289600001,3.623609662400001,1.83942733,1.16588795,-3.68330475,,,
imu,195.830946,0.0783580168,-9.282135150400002,3.6230115096,1.70484295,1.15841104,-3.6459202,,,
imu,195.839342,0.08493769760000001,-9.2785462336,3.6110484536,1.58521239,1.21074941,-3.62348947,,,
imu,195.847739,0.08912476720000001,-9.2755554696,3.609852148000001,1.53287402,1.27056469,-3.60105874,,,
imu,195.856234,0.092713684,-9.285724067200002,3.612842912,1.51044329,1.27056469,-3.51881273,,,
imu,195.864729,0.09390998960000001,-9.291107442400001,3.624805968,1.37585891,1.30047233,-3.56367419,,,
imu,195.873225,0.092713684,-9.288714831200002,3.6242078152,1.51044329,1.30794924,-3.58610492,,,
imu,195.88172,0.08912476720000001,-9.282135150400002,3.618226287200001,1.46558183,1.36028761,-3.60853565,,,
imu,195.890215,0.08733030880000002,-9.291107442400001,3.623609662400001,1.23379762,1.30047233,-3.80293531,,,
imu,195.898711,0.09211553120000002,-9.2899111368,3.6289930376,1.18145925,1.42010289,-3.76555076,,,
imu,195.907206,0.08852661440000001,-9.3006778872,3.634974565600001,0.9272443100000001,1.3528107,-3.73564312,,,
imu,195.915701,0.09929336480000002,-9.324005846400002,3.6433487048,1.03192105,1.43505671,-3.65339711,,,
imu,195.924197,0.09929336480000002,-9.307855720800001,3.6355727184,1.12164397,1.52477963,-3.58610492,,,
imu,195.932692,0.107667504,-9.251629357600002,3.621815204,0.82256757,1.37524143,-3.81788913,,,
imu,195.941187,0.1028822816,-9.245049676800003,3.639161635200001,0.65059864,1.22570323,-4.169303899999999,,,
imu,195.949683,0.1028822816,-9.271368400000002,3.6589006776,0.56087572,1.08364194,-4.341272829999999,,,
imu,195.958178,0.0747691,-9.298285276000001,3.664882205600001,0.43376825,0.92662683,-4.57305704,,,
imu,195.966673,0.06220789120000001,-9.285724067200002,3.6612932888,0.32909151,0.86681155,-4.61044159,,,
imu,195.975169,0.05084298800000001,-9.259405344000001,3.657704372,0.30666078,0.8967191899999998,-4.34874974,,,
imu,195.983664,0.04486146000000001,-9.235479232000001,3.6565080664,0.35152224,1.00139593,-3.98985806,,,
imu,195.992159,0.04486146000000001,-9.236077384800002,3.6523209968,0.59078336,1.04625739,-3.53376655,,,
imu,196.000655,0.04605776560000001,-9.2277032456,3.651124691200001,0.53096808,1.10607267,-3.2720747,,,
imu,196.00915,0.05742266880000001,-9.2133475784,3.644545010400001,0.65059864,1.17336486,-3.13001341,,,
imu,196.017645,0.06460050240000001,-9.208562356000002,3.642750552,0.9272443100000001,1.40514907,-3.02533667,,,
imu,196.026141,0.06519865520000001,-9.2133475784,3.6439468576,1.18893616,1.31542615,-3.0477674,,,
imu,196.034636,0.0693857248,-9.219329106400002,3.636769024,1.22632071,1.38271834,-3.21973633,,,
imu,196.043131,0.0735727944,-9.2336847736,3.6433487048,1.30856672,1.44253362,-3.37675144,,,
imu,196.051627,0.06579680800000001,-9.234881079200001,3.637367176800001,1.53287402,1.45748744,-3.55619728,,,
imu,196.060543,0.0675912664,-9.24146076,3.639759788000001,1.71979677,1.67431783,-3.76555076,,,
imu,196.069336,0.06220789120000001,-9.256414580000001,3.639759788000001,1.8169966,1.71917929,-3.95247351,,,
imu,196.078129,0.0681894192,-9.264788719200002,3.642750552,1.80204278,1.64441019,-4.13939626,,,
imu,196.086922,0.06160973840000001,-9.280340692000001,3.6403579408,1.68241222,1.70422547,-4.19173463,,,
imu,196.095715,0.06699311360000001,-9.291107442400001,3.6379653296,1.56278166,1.75656384,-4.244073,,,
imu,196.104508,0.0675912664,-9.289312984,3.6313856488,1.57025857,1.68927165,-4.13939626,,,
imu,196.113301,0.07656355840000001,-9.28632222,3.630787496000001,1.24127453,1.68927165,-4.20668845,,,
imu,196.122094,0.07297464160000001,-9.289312984,3.639161635200001,1.02444414,1.48739508,-4.363703559999999,,,
imu,196.130888,0.0783580168,-9.3006778872,3.6385634824,0.91229049,1.32290306,-4.17678081,,,
imu,196.139681,0.0723764888,-9.3006778872,3.6385634824,0.6281679099999999,1.0537343,-3.95247351,,,
imu,196.148474,0.07118018320000001,-9.292303748000002,3.639759788000001,0.620691,1.09859576,-3.80293531,,,
imu,196.157267,0.06699311360000001,-9.289312984,3.6385634824,0.38142988,1.11354958,-3.50385891,,,
imu,196.16606,0.06519865520000001,-9.283929608800001,3.636769024,0.35899915,1.01634975,-3.30945925,,,
imu,196.174853,0.05383375200000001,-9.262994260800001,3.6403579408,0.3889067899999999,0.98644211,-3.13749032,,,
imu,196.183646,0.0370854736,-9.247442288000002,3.649330232800001,0.42629134,1.06121121,-3.1225365,,,
imu,196.192439,0.0502448352,-9.2432552184,3.6403579408,0.4861066199999999,1.07616503,-3.1225365,,,
imu,196.201232,0.04785222400000001,-9.225908787200002,3.624805968,0.5982602699999999,1.04625739,-3.13749032,,,
imu,196.210025,0.0376836264,-9.205571592000002,3.61882444,0.8524752099999999,1.1285034,-3.15992105,,,
imu,196.218818,0.03947808480000001,-9.211553120000001,3.6403579408,0.97210577,1.13598031,-3.1225365,,,
imu,196.227611,0.0466559184,-9.233086620800002,3.6594988304,1.20388998,1.34533379,-3.21225942,,,
imu,196.236404,0.04605776560000001,-9.2366755376,3.6523209968,1.15902852,1.42010289,-3.50385891,,,
imu,196.245197,0.06041343280000001,-9.2169364952,3.655311760800001,1.35342818,1.53973345,-3.56367419,,,
imu,196.25399,0.07118018320000001,-9.2169364952,3.663087747200001,1.37585891,1.50982581,-3.58610492,,,
imu,196.262464,0.07058203040000001,-9.220525412,3.655311760800001,1.31604363,1.46496435,-3.70573548,,,
imu,196.270938,0.07177833600000001,-9.246245982400001,3.6600969832,1.42819728,1.63693328,-3.51133582,,,
imu,196.279411,0.07297464160000001,-9.246245982400001,3.6690692752,1.57025857,1.69674856,-3.20478251,,,
imu,196.287885,0.08194693360000001,-9.2432552184,3.6684711224,1.61512003,1.62945637,-3.16739796,,,
imu,196.296359,0.08912476720000001,-9.2510312048,3.667872969600001,1.62259694,1.55468727,-3.13749032,,,
imu,196.304832,0.092713684,-9.254021968800002,3.6708637336,1.60016621,1.40514907,-3.25712088,,,
imu,196.313306,0.09690075360000001,-9.2659850248,3.6594988304,1.72727368,1.30794924,-3.26459779,,,
imu,196.32178,0.1082656568,-9.262994260800001,3.6571062192,1.62259694,1.2032725,-3.18982869,,,
imu,196.330254,0.1040785872,-9.269573941600001,3.6672748168,1.65250458,1.09859576,-3.17487487,,,
imu,196.338727,0.1058730456,-9.273162858400001,3.651722844000001,1.73475059,1.09859576,-3.1973056,,,
imu,196.347201,0.09989151760000002,-9.2552182744,3.651722844000001,1.8169966,1.06868812,-3.2720747,,,
imu,196.355675,0.09630260080000001,-9.251629357600002,3.6499283856,1.71979677,1.00139593,-3.29450543,,,
imu,196.364148,0.1028822816,-9.251629357600002,3.644545010400001,1.70484295,0.8369039099999998,-3.45899745,,,
imu,196.372622,0.09390998960000001,-9.249236746400001,3.6421523992,1.71231986,0.80699627,-3.496382,,,
imu,196.381096,0.09630260080000001,-9.253423816000002,3.630189343200001,1.8917657,0.9041961000000001,-3.39170526,,,
imu,196.38957,0.09091922560000001,-9.251629357600002,3.631983801600001,1.86933497,0.9714882899999999,-3.43656672,,,
imu,196.398043,0.09570444800000001,-9.262994260800001,3.6283948848,1.92167334,1.01634975,-3.48890509,,,
imu,196.406517,0.0861340032,-9.263592413600001,3.612842912,1.83195042,0.9341037399999998,-3.52628964,,,
imu,196.414991,0.08972292000000001,-9.264788719200002,3.612244759200001,1.77213514,0.9041961000000001,-3.45899745,,,
imu,196.423464,0.08912476720000001,-9.274359164000002,3.6200207456,1.8169966,0.92662683,-3.28702852,,,
imu,196.431938,0.09989151760000002,-9.284527761600001,3.612244759200001,1.84690424,1.15093413,-3.33188998,,,
imu,196.440412,0.0903210728,-9.276751775200001,3.5984872448,1.71231986,0.98644211,-3.38422835,,,
imu,196.448886,0.09570444800000001,-9.2851259144,3.591309411200001,1.71979677,1.0537343,-3.44404363,,,
imu,196.457359,0.1028822816,-9.294696359200001,3.606861384000001,1.69736604,1.09111885,-3.47395127,,,
imu,196.46582,0.0980970592,-9.292303748000002,3.607459536800001,1.56278166,1.09859576,-3.56367419,,,
imu,196.474281,0.092713684,-9.288714831200002,3.600281703200001,1.48801256,1.06121121,-3.58610492,,,
imu,196.482742,0.09510629520000001,-9.2851259144,3.6032724672,1.65998149,1.15841104,-3.69078166,,,
imu,196.491203,0.09989151760000002,-9.2761536224,3.6056650784,1.57773548,1.21822632,-3.69825857,,,
imu,196.499664,0.09570444800000001,-9.281536997600002,3.60387062,1.51044329,1.21822632,-3.68330475,,,
imu,196.508125,0.09989151760000002,-9.281536997600002,3.5984872448,1.6674584,1.24065705,-3.57862801,,,
imu,196.516586,0.110658268,-9.2827333032,3.597290939200001,1.5926893,1.22570323,-3.48142818,,,
imu,196.525047,0.1148453376,-9.281536997600002,3.600879856,1.77213514,1.17336486,-3.55619728,,,
imu,196.533508,0.1172379488,-9.287518525600001,3.5984872448,1.80951969,1.24813396,-3.61601256,,,
imu,196.541969,0.1160416432,-9.2917055952,3.5984872448,1.77213514,1.19579559,-3.6459202,,,
imu,196.55043,0.1172379488,-9.294098206400001,3.6020761616,1.68241222,1.07616503,-3.72816621,,,
imu,196.558891,0.11963056,-9.2958926648,3.591309411200001,1.71979677,1.03130357,-3.72816621,,,
imu,196.567352,0.1112564208,-9.291107442400001,3.5984872448,1.51044329,0.9191499199999997,-3.89265823,,,
imu,196.575813,0.1088638096,-9.2935000536,3.597290939200001,1.24875144,0.7471809899999999,-3.86275059,,,
imu,196.584274,0.09929336480000002,-9.289312984,3.5943001752,1.16650543,0.5453044199999999,-4.057150249999999,,,
imu,196.592735,0.09869521200000002,-9.2964908176,3.5960946336,1.23379762,0.5153967799999997,-3.85527368,,,
imu,196.601196,0.09570444800000001,-9.2929019008,3.5960946336,1.00201341,0.5453044199999999,-3.83284295,,,
imu,195.230537,,,,,,,22.7175884,-26.00747000000001,30.8415056
imu,195.332466,,,,,,,20.9597516,-25.458146,33.69799039999999
imu,195.433693,,,,,,,22.76641720000001,-26.19057800000002,30.9147488
imu,195.535408,,,,,,,20.78885080000001,-25.04310120000002,33.673576
imu,195.636818,,,,,,,21.3259676,-24.72571400000001,33.2829456
imu,195.73835,,,,,,,20.97195880000001,-24.90882200000002,33.5392968
imu,195.839912,,,,,,,20.69119320000001,-24.68909240000001,33.49046799999999
imu,196.609657,0.08972292000000001,-9.277349928000001,3.6014780088,0.9272443100000001,0.4630584099999999,-3.89265823,,,
imu,196.618118,0.08673215600000002,-9.272564705600002,3.593103869600001,1.10669015,0.62007352,-3.76555076,,,
imu,196.626579,0.08015247520000002,-9.274957316800002,3.588916800000001,0.9870595899999999,0.4929660499999997,-3.90761205,,,
imu,196.63504,0.0753672528,-9.2707702472,3.5895149528,0.9945364999999999,0.4929660499999997,-3.87770441,,,
imu,196.643501,0.07596540560000001,-9.261199802400002,3.5901131056,1.05435178,0.5303505999999998,-3.86275059,,,
imu,196.651962,0.062806044,-9.253423816000002,3.600879856,1.05435178,0.6051196999999999,-3.80293531,,,
imu,196.660423,0.0526374464,-9.271368400000002,3.6110484536,1.09921324,0.4705353199999998,-3.90013514,,,
imu,196.668885,0.05203929360000001,-9.280938844800001,3.608655842400001,1.28613599,0.6350273399999997,-3.84031986,,,
imu,196.677348,0.0442633072,-9.283331456,3.6020761616,1.20388998,0.66493498,-3.69825857,,,
imu,196.68581,0.04605776560000001,-9.277948080800002,3.604468772800001,1.27118217,0.7172733499999997,-3.7954584,,,
imu,196.694272,0.03349655680000001,-9.283331456,3.60387062,1.20388998,0.7920424499999998,-3.83284295,,,
imu,196.702735,0.03887993200000001,-9.277349928000001,3.5996835504,1.17398234,0.94905756,-3.78050458,,,
imu,196.711197,0.0281131816,-9.273761011200001,3.6020761616,1.25622835,1.02382666,-3.89265823,,,
imu,196.719659,0.04007623760000001,-9.288116678400002,3.597290939200001,1.20388998,1.1285034,-3.91508896,,,
imu,196.728121,0.04605776560000001,-9.283929608800001,3.5901131056,1.30108981,1.17336486,-3.86275059,,,
imu,196.736584,0.0466559184,-9.298285276000001,3.595496480800001,1.45062801,1.4275798,-3.68330475,,,
imu,196.745046,0.05802082160000001,-9.309650179200002,3.594898328000001,1.37585891,1.49487199,-3.60105874,,,
imu,196.753508,0.07118018320000001,-9.2958926648,3.597889092,1.37585891,1.47991817,-3.48142818,,,
imu,196.76197,0.06220789120000001,-9.267779483200002,3.6110484536,1.09921324,1.41262598,-3.84031986,,,
imu,196.770433,0.06160973840000001,-9.262994260800001,3.6032724672,1.13659779,1.33037997,-4.04219643,,,
imu,196.778895,0.05084298800000001,-9.265386872,3.60387062,1.00949032,1.32290306,-4.10948862,,,
imu,196.787357,0.0346928624,-9.288116678400002,3.6152355232,0.70293701,1.21822632,-4.06462716,,,
imu,196.79582,0.0346928624,-9.3108464848,3.623609662400001,0.76275229,1.22570323,-3.85527368,,,
imu,196.804282,0.0323002512,-9.290509289600001,3.61882444,0.77770611,1.28551851,-3.51133582,,,
imu,196.812744,0.0376836264,-9.254021968800002,3.607459536800001,0.8823828499999999,1.38271834,-3.25712088,,,
imu,196.821206,0.04964668240000001,-9.2480404408,3.5990853976,1.08425942,1.55468727,-3.07767504,,,
imu,196.829669,0.05861897440000001,-9.249236746400001,3.5853278832,1.24127453,1.60702564,-2.81598319,,,
imu,196.838131,0.0592171272,-9.251629357600002,3.591309411200001,1.4431511,1.56964109,-2.77859864,,,
imu,196.846593,0.0693857248,-9.2378718432,3.585926036,1.65998149,1.58459491,-2.83093701,,,
imu,196.855055,0.068787572,-9.252227510400001,3.586524188800001,1.80951969,1.47244126,-3.02533667,,,
imu,196.863518,0.07118018320000001,-9.2510312048,3.5715703688,2.0413039,1.48739508,-3.11505959,,,
imu,196.871988,0.0747691,-9.267779483200002,3.576953744000001,2.02635008,1.51730272,-3.1225365,,,
imu,196.880457,0.0735727944,-9.2761536224,3.579346355200001,2.12354991,1.56216418,-3.11505959,,,
imu,196.888927,0.0813487808,-9.284527761600001,3.5841315776,1.97401171,1.56964109,-3.25712088,,,
imu,196.897397,0.08374139200000001,-9.283331456,3.564392535200001,2.10859609,1.83133294,-3.18235178,,,
imu,196.905867,0.08792846160000001,-9.290509289600001,3.5614017712,1.95905789,1.69674856,-3.24216706,,,
imu,196.914337,0.09630260080000001,-9.294098206400001,3.5781500496,1.91419643,1.64441019,-3.29450543,,,
imu,196.922807,0.09929336480000002,-9.3210150824,3.575159285600001,1.79456587,1.577118,-3.30198234,,,
imu,196.931277,0.1118545736,-9.330585527200002,3.572168521600001,1.52539711,1.71917929,-3.39170526,,,
imu,196.939747,0.10467674,-9.328192916,3.575159285600001,1.23379762,1.62945637,-3.43656672,,,
imu,196.948217,0.10467674,-9.332379985600001,3.5787482024,1.07678251,1.56216418,-3.45152054,,,
imu,196.956687,0.110658268,-9.335968902400001,3.5781500496,0.88985976,1.61450255,-3.48142818,,,
imu,196.965156,0.1052748928,-9.325800304800001,3.5781500496,0.80761375,1.53225654,-3.46647436,,,
imu,196.973626,0.1130508792,-9.319220624000002,3.5853278832,0.7104139199999999,1.49487199,-3.40665908,,,
imu,196.982096,0.1208268656,-9.3174261656,3.586524188800001,0.66555246,1.4275798,-3.3468438,,,
imu,196.990566,0.11963056,-9.318622471200001,3.586524188800001,0.49358353,1.56216418,-3.30198234,,,
imu,196.999036,0.1268083936,-9.319220624000002,3.576953744000001,0.56087572,1.52477963,-3.2720747,,,
imu,197.007506,0.1327899216,-9.3006778872,3.586524188800001,0.41133752,1.53973345,-3.30198234,,,
imu,197.015976,0.13458438,-9.274957316800002,3.5667851464,0.29170696,1.4275798,-3.35432071,,,
imu,197.024446,0.1309954632,-9.259405344000001,3.5524294792,0.3216146,1.52477963,-3.43656672,,,
imu,197.032916,0.137575144,-9.2432552184,3.5691777576,0.56087572,1.39767216,-3.54872037,,,
imu,197.041386,0.1393696024,-9.273162858400001,3.581140813600001,0.46367589,1.09859576,-4.0197657,,,
imu,197.049855,0.1190324072,-9.28632222,3.5823371192,0.5459219,1.17336486,-4.079580979999999,,,
imu,197.058325,0.1052748928,-9.2755554696,3.583533424800001,0.5982602699999999,1.26308778,-4.057150249999999,,,
imu,197.066795,0.09630260080000001,-9.251629357600002,3.569775910400001,0.53844499,1.08364194,-4.21416536,,,
imu,197.075611,0.08972292000000001,-9.2480404408,3.5745611328,0.57582954,1.27056469,-4.057150249999999,,,
imu,197.084426,0.08433954480000001,-9.2641905664,3.579944508,0.52349117,1.24813396,-3.97490424,,,
imu,197.093242,0.09630260080000001,-9.277948080800002,3.5823371192,0.7104139199999999,1.32290306,-3.68330475,,,
imu,197.102058,0.0980970592,-9.285724067200002,3.605066925600001,0.58330645,1.49487199,-3.52628964,,,
imu,197.110873,0.1010878232,-9.2917055952,3.5960946336,0.46367589,1.47244126,-3.2720747,,,
imu,197.119689,0.1004896704,-9.308453873600001,3.5895149528,0.6281679099999999,1.56964109,-3.27955161,,,
imu,197.128504,0.09749890640000002,-9.304864956800001,3.5996835504,0.6281679099999999,1.59954873,-3.45899745,,,
imu,197.13732,0.1052748928,-9.3036686512,3.5943001752,0.58330645,1.55468727,-3.66087402,,,
imu,197.146136,0.09690075360000001,-9.298285276000001,3.5943001752,0.56087572,1.53225654,-3.78798149,,,
imu,197.154871,0.09929336480000002,-9.303070498400002,3.5925057168,0.53844499,1.49487199,-3.93004278,,,
imu,197.163687,0.09510629520000001,-9.294098206400001,3.5895149528,0.5982602699999999,1.52477963,-4.012288789999999,,,
imu,197.172502,0.0855358504,-9.272564705600002,3.5841315776,0.53096808,1.47991817,-4.19173463,,,
imu,197.181318,0.08673215600000002,-9.264788719200002,3.581738966400001,0.68798319,1.52477963,-4.13191935,,,
imu,197.190133,0.0861340032,-9.273162858400001,3.583533424800001,0.6132140899999999,1.53973345,-4.16182699,,,
imu,197.198949,0.09211553120000002,-9.259405344000001,3.5775518968,0.44872207,1.52477963,-4.04967334,,,
imu,197.207765,0.08673215600000002,-9.258209038400002,3.583533424800001,0.5010604399999999,1.49487199,-3.96742733,,,
imu,197.21658,0.0855358504,-9.258209038400002,3.582935272,0.63564482,1.44253362,-3.91508896,,,
imu,197.225396,0.0855358504,-9.257012732800002,3.587720494400001,0.7552753799999999,1.47991817,-3.7954584,,,
imu,197.234211,0.07955432240000002,-9.269573941600001,3.5895149528,0.6954601,1.43505671,-3.86275059,,,
imu,197.243027,0.0741709472,-9.273761011200001,3.594898328000001,0.7253677399999999,1.2780416,-3.68330475,,,
imu,197.251843,0.0741709472,-9.272564705600002,3.597290939200001,0.6954601,1.09859576,-3.75059694,,,
imu,197.260658,0.0723764888,-9.283929608800001,3.591309411200001,0.58330645,1.06121121,-3.72816621,,,
imu,197.269474,0.06220789120000001,-9.2917055952,3.585926036,0.79265993,1.24065705,-3.54124346,,,
imu,197.27795,0.06460050240000001,-9.2970889704,3.597889092,0.80013684,1.28551851,-3.39170526,,,
imu,197.286426,0.06400234960000001,-9.2964908176,3.600879856,0.71789083,1.17336486,-3.45152054,,,
imu,197.294902,0.0592171272,-9.295294512000002,3.5966927864,0.64312173,1.33785688,-3.51133582,,,
imu,197.303379,0.06519865520000001,-9.292303748000002,3.595496480800001,0.73284465,1.43505671,-3.36179762,,,
imu,197.311855,0.0532355992,-9.288714831200002,3.6014780088,0.620691,1.51730272,-3.47395127,,,
imu,197.320331,0.07058203040000001,-9.277948080800002,3.597889092,0.4861066199999999,1.51730272,-3.55619728,,,
imu,197.328808,0.06160973840000001,-9.2797425392,3.5966927864,0.43376825,1.49487199,-3.52628964,,,
imu,197.337284,0.06519865520000001,-9.294098206400001,3.605066925600001,0.49358353,1.58459491,-3.5711511,,,
imu,197.34576,0.0723764888,-9.291107442400001,3.604468772800001,0.38142988,1.71170238,-3.54124346,,,
imu,197.354236,0.07775986400000001,-9.284527761600001,3.602674314400001,0.40386061,1.71917929,-3.45899745,,,
imu,197.362713,0.08733030880000002,-9.267181330400001,3.5943001752,0.53096808,1.84628676,-3.42908981,,,
imu,197.371189,0.08733030880000002,-9.270172094400001,3.590711258400001,0.50853735,1.8761944,-3.46647436,,,
imu,197.379665,0.09091922560000001,-9.273761011200001,3.6014780088,0.41881443,1.83133294,-3.43656672,,,
imu,197.388141,0.09091922560000001,-9.277948080800002,3.5996835504,0.38142988,1.97339423,-3.39170526,,,
imu,197.396618,0.1022841288,-9.268377636,3.600281703200001,0.43376825,2.03320951,-3.41413599,,,
imu,197.405094,0.1040785872,-9.266583177600001,3.600879856,0.2468455,1.86871749,-3.45152054,,,
imu,197.41357,0.1124527264,-9.267779483200002,3.6056650784,0.50853735,1.86871749,-3.38422835,,,
imu,197.422046,0.1178361016,-9.262396108,3.612244759200001,0.53844499,1.91357895,-3.3468438,,,
imu,195.941473,,,,,,,20.92313000000001,-24.55481320000001,32.96555839999999
imu,196.042944,,,,,,,20.1052476,-24.73792120000002,33.1364592
imu,196.144507,,,,,,,22.91290360000001,-24.84778600000002,32.79465759999999
imu,196.246222,,,,,,,21.05740920000001,-24.83557880000003,33.01438719999999
imu,196.347632,,,,,,,23.1326332,-25.38490280000001,30.3654248
imu,196.449194,,,,,,,20.92313000000001,-24.81116440000002,33.86889119999999
imu,196.550757,,,,,,,23.4622276,-25.34828120000001,30.57294719999999
imu,196.65235,,,,,,,21.6189404,-24.44494840000002,33.2097024
imu,197.430523,0.1160416432,-9.252825663200001,3.609852148000001,0.5010604399999999,1.82385603,-3.42908981,,,
imu,197.438999,0.1190324072,-9.255816427200001,3.6104503008,0.38142988,1.7266562,-3.48890509,,,
imu,197.447475,0.1309954632,-9.254021968800002,3.6056650784,0.57582954,1.86124058,-3.3468438,,,
imu,197.455951,0.1148453376,-9.2641905664,3.60387062,0.58330645,1.8014253,-3.44404363,,,
imu,197.464428,0.13458438,-9.2617979552,3.607459536800001,0.81509066,1.88367131,-3.46647436,,,
imu,197.472904,0.131593616,-9.2707702472,3.614637370400001,0.67302937,1.74161002,-3.51881273,,,
imu,197.481364,0.1381732968,-9.2755554696,3.6134410648,0.71789083,1.71917929,-3.60105874,,,
imu,197.489823,0.1387714496,-9.274957316800002,3.614039217600001,0.79265993,1.7266562,-3.53376655,,,
imu,197.498283,0.1495382,-9.267181330400001,3.6134410648,0.6954601,1.67431783,-3.48890509,,,
imu,197.506743,0.1471455888,-9.2755554696,3.6104503008,0.74779847,1.56964109,-3.52628964,,,
imu,197.515203,0.1429585192,-9.2827333032,3.60387062,0.9048135799999999,1.53225654,-3.48890509,,,
imu,197.523662,0.1417622136,-9.277948080800002,3.606861384000001,0.83004448,1.53973345,-3.5711511,,,
imu,197.532122,0.1495382,-9.268377636,3.612842912,0.73284465,1.40514907,-3.77302767,,,
imu,197.540582,0.1399677552,-9.274957316800002,3.6062632312,0.78518302,1.39019525,-3.97490424,,,
imu,197.549041,0.1333880744,-9.2755554696,3.6092539952,0.71789083,1.38271834,-4.0197657,,,
imu,197.557501,0.1268083936,-9.294098206400001,3.614637370400001,0.6954601,1.38271834,-4.04967334,,,
imu,197.565961,0.1351825328,-9.307257568,3.61882444,0.70293701,1.33785688,-3.99733497,,,
imu,197.574421,0.1381732968,-9.284527761600001,3.607459536800001,0.73284465,1.53225654,-3.88518132,,,
imu,197.58288,0.1357806856,-9.247442288000002,3.6170299816,0.66555246,1.31542615,-4.15435008,,,
imu,197.59134,0.1250139352,-9.2546201216,3.6271985792,0.63564482,1.24813396,-4.386134289999999,,,
imu,197.5998,0.1154434904,-9.2827333032,3.627796732000001,0.44124516,1.08364194,-4.692687599999999,,,
imu,197.60826,0.09570444800000001,-9.2851259144,3.6361708712,0.2468455,1.10607267,-4.78988743,,,
imu,197.616719,0.08254508640000002,-9.276751775200001,3.634974565600001,0.32909151,1.14345722,-4.52071867,,,
imu,197.625179,0.07895616960000001,-9.2641905664,3.6325819544,0.20946095,1.04625739,-4.47585721,,,
imu,197.633639,0.0723764888,-9.2546201216,3.6283948848,0.33656842,1.09111885,-4.18425772,,,
imu,197.642098,0.0735727944,-9.254021968800002,3.61882444,0.64312173,1.38271834,-3.89265823,,,
imu,197.650558,0.08792846160000001,-9.230694009600002,3.608655842400001,0.74779847,1.40514907,-3.6459202,,,
imu,197.659018,0.09570444800000001,-9.225310634400001,3.6056650784,1.03939796,1.43505671,-3.63096638,,,
imu,197.667478,0.09630260080000001,-9.2277032456,3.6116466064,1.15155161,1.49487199,-3.78050458,,,
imu,197.675937,0.09151737840000002,-9.247442288000002,3.6104503008,1.25622835,1.36028761,-3.86275059,,,
imu,197.684406,0.08733030880000002,-9.2546201216,3.597290939200001,1.45062801,1.38271834,-4.057150249999999,,,
imu,197.692875,0.08433954480000001,-9.256414580000001,3.5984872448,1.61512003,1.33037997,-4.15435008,,,
imu,197.701343,0.0723764888,-9.270172094400001,3.5943001752,1.63755076,1.34533379,-4.244073,,,
imu,197.709812,0.08194693360000001,-9.273761011200001,3.5925057168,1.65250458,1.3528107,-4.23659609,,,
imu,197.71828,0.07775986400000001,-9.281536997600002,3.5960946336,1.55530475,1.53973345,-4.21416536,,,
imu,197.726749,0.08015247520000002,-9.291107442400001,3.5960946336,1.54782784,1.52477963,-4.146873169999999,,,
imu,197.735218,0.080750628,-9.303070498400002,3.588916800000001,1.42819728,1.45748744,-4.20668845,,,
imu,197.743686,0.08852661440000001,-9.2994815816,3.597290939200001,1.15155161,1.39767216,-4.19173463,,,
imu,197.752155,0.09630260080000001,-9.304864956800001,3.5960946336,1.08425942,1.26308778,-4.28893446,,,
imu,197.760624,0.07895616960000001,-9.3060612624,3.5990853976,0.8449983,1.18831868,-4.31136519,,,
imu,197.769092,0.06579680800000001,-9.3144354016,3.600879856,0.64312173,1.14345722,-4.18425772,,,
imu,197.777561,0.062806044,-9.3060612624,3.6104503008,0.29918387,1.16588795,-4.10948862,,,
imu,197.786029,0.06041343280000001,-9.294098206400001,3.606861384000001,0.15712258,1.03878048,-4.012288789999999,,,
imu,197.794498,0.0502448352,-9.301276040000001,3.618226287200001,0.34404533,1.03130357,-3.77302767,,,
imu,197.802967,0.05562821040000001,-9.291107442400001,3.615833676,0.20198404,1.09859576,-3.56367419,,,
imu,197.811435,0.0502448352,-9.2827333032,3.622413356800001,0.08983038999999998,1.2032725,-3.43656672,,,
imu,197.819904,0.0634041968,-9.268377636,3.6271985792,0.09730729999999999,1.32290306,-3.36927453,,,
imu,197.828373,0.06101158560000001,-9.2617979552,3.6271985792,0.29170696,1.21822632,-3.56367419,,,
imu,197.836841,0.07118018320000001,-9.256414580000001,3.6134410648,0.35152224,1.36776452,-3.63096638,,,
imu,197.84531,0.07177833600000001,-9.239068148800001,3.607459536800001,0.35899915,1.47991817,-3.50385891,,,
imu,197.853779,0.080750628,-9.2157401896,3.6080576896,0.53096808,1.42010289,-3.55619728,,,
imu,197.862247,0.08912476720000001,-9.214543884000001,3.620618898400001,0.76275229,1.41262598,-3.63096638,,,
imu,197.870716,0.08314323920000001,-9.242058912800001,3.642750552,0.81509066,1.36028761,-3.87770441,,,
imu,197.879184,0.07775986400000001,-9.2486385936,3.6230115096,0.8973366700000001,1.44253362,-3.92256587,,,
imu,197.887648,0.08852661440000001,-9.242058912800001,3.6283948848,0.97210577,1.33785688,-4.06462716,,,
imu,197.896111,0.08433954480000001,-9.217534648,3.6283948848,0.9945364999999999,1.30047233,-4.13191935,,,
imu,197.904575,0.08314323920000001,-9.2277032456,3.634974565600001,0.97958268,1.30794924,-4.079580979999999,,,
imu,197.913039,0.0903210728,-9.2510312048,3.6421523992,1.10669015,1.33037997,-3.8702275,,,
imu,197.921502,0.09630260080000001,-9.2659850248,3.6361708712,1.18145925,1.45001053,-3.56367419,,,
imu,197.929966,0.092713684,-9.268377636,3.6475357744,1.03192105,1.36776452,-3.36927453,,,
imu,197.938429,0.1118545736,-9.2719665528,3.6343764128,1.07678251,1.21074941,-3.38422835,,,
imu,197.946893,0.09929336480000002,-9.277349928000001,3.6325819544,1.15155161,1.15093413,-3.35432071,,,
imu,197.955356,0.09929336480000002,-9.283331456,3.633180107200001,1.16650543,1.02382666,-3.43656672,,,
imu,197.96382,0.09211553120000002,-9.290509289600001,3.6295911904,1.23379762,0.8967191899999998,-3.61601256,,,
imu,197.972283,0.08733030880000002,-9.2851259144,3.6266004264,1.27118217,0.8892422799999999,-3.77302767,,,
imu,197.980747,0.08194693360000001,-9.269573941600001,3.6242078152,1.33847436,0.94905756,-3.75059694,,,
imu,197.98921,0.0813487808,-9.273162858400001,3.6230115096,1.30108981,1.09859576,-3.75059694,,,
imu,197.997674,0.07118018320000001,-9.273162858400001,3.614039217600001,1.20388998,1.09111885,-3.84031986,,,
imu,198.006138,0.07596540560000001,-9.262994260800001,3.612842912,1.10669015,1.25561087,-3.74312003,,,
imu,198.014601,0.0747691,-9.2588071912,3.614039217600001,1.11416706,1.30047233,-3.77302767,,,
imu,198.023065,0.07716171120000001,-9.2552182744,3.6056650784,1.19641307,1.28551851,-3.75807385,,,
imu,198.031528,0.0747691,-9.259405344000001,3.6062632312,1.11416706,1.25561087,-3.83284295,,,
imu,198.039992,0.08374139200000001,-9.2659850248,3.620618898400001,1.09921324,1.27056469,-3.85527368,,,
imu,198.048455,0.08254508640000002,-9.260601649600002,3.5984872448,1.20388998,1.27056469,-3.82536604,,,
imu,198.056919,0.080750628,-9.270172094400001,3.6032724672,1.30108981,1.28551851,-3.88518132,,,
imu,198.065382,0.0783580168,-9.2827333032,3.604468772800001,1.27865908,1.24813396,-3.82536604,,,
imu,198.073846,0.07656355840000001,-9.273162858400001,3.608655842400001,1.24127453,1.24065705,-3.89265823,,,
imu,198.082309,0.06579680800000001,-9.288116678400002,3.597290939200001,1.26370526,1.33785688,-3.86275059,,,
imu,198.091126,0.06519865520000001,-9.2935000536,3.600879856,1.2188438,1.3528107,-3.89265823,,,
imu,198.099943,0.05802082160000001,-9.305463109600002,3.6014780088,1.15155161,1.32290306,-3.91508896,,,
imu,198.10876,0.0663949608,-9.301874192800001,3.5960946336,1.0693056,1.38271834,-3.90761205,,,
imu,198.117577,0.06220789120000001,-9.287518525600001,3.5943001752,1.00949032,1.39019525,-3.86275059,,,
imu,198.126394,0.06400234960000001,-9.2797425392,3.588916800000001,1.0693056,1.60702564,-3.66087402,,,
imu,198.135211,0.06220789120000001,-9.2827333032,3.597889092,0.91229049,1.56216418,-3.86275059,,,
imu,198.144028,0.06400234960000001,-9.295294512000002,3.593702022400001,0.8375213899999999,1.58459491,-3.84031986,,,
imu,198.152845,0.0675912664,-9.3036686512,3.595496480800001,0.78518302,1.58459491,-3.68330475,,,
imu,198.161662,0.0663949608,-9.298285276000001,3.6116466064,0.78518302,1.6518871,-3.63844329,,,
imu,198.170479,0.0783580168,-9.301276040000001,3.604468772800001,0.8524752099999999,1.74161002,-3.6459202,,,
imu,198.179296,0.07716171120000001,-9.2899111368,3.602674314400001,0.68798319,1.65936401,-3.60105874,,,
imu,198.188113,0.0813487808,-9.287518525600001,3.607459536800001,0.53844499,1.60702564,-3.66835093,,,
imu,198.196929,0.08433954480000001,-9.290509289600001,3.606861384000001,0.50853735,1.577118,-3.62348947,,,
imu,198.205746,0.0861340032,-9.288116678400002,3.6104503008,0.4711528,1.56964109,-3.75059694,,,
imu,198.214563,0.07297464160000001,-9.28632222,3.6020761616,0.3963837,1.53973345,-3.80293531,,,
imu,198.22338,0.08493769760000001,-9.2964908176,3.615833676,0.45619898,1.59207182,-3.89265823,,,
imu,198.232197,0.0693857248,-9.287518525600001,3.623609662400001,0.4711528,1.54721036,-3.78798149,,,
imu,198.241014,0.0723764888,-9.279144386400002,3.609852148000001,0.42629134,1.62945637,-3.71321239,,,
imu,196.753882,,,,,,,21.106238,-24.82337160000001,32.5505136
imu,196.855505,,,,,,,21.106238,-24.70129960000001,33.09983759999999
imu,196.957037,,,,,,,21.0085804,-24.51819160000002,33.62474719999999
imu,197.058691,,,,,,,20.91092280000001,-24.82337160000001,33.17308079999999
imu,197.160193,,,,,,,22.7908316,-24.90882200000002,33.31956719999999
imu,197.261694,,,,,,,21.0818236,-24.603642,32.9289368
imu,197.363287,,,,,,,23.53547080000001,-25.51918200000001,30.6095688
imu,197.464941,,,,,,,20.6667788,-24.44494840000002,33.0510088
imu,198.249856,0.07955432240000002,-9.276751775200001,3.616431828800001,0.41133752,1.61450255,-3.72816621,,,
imu,198.258673,0.0783580168,-9.262396108,3.614039217600001,0.45619898,1.64441019,-3.60853565,,,
imu,198.26749,0.08852661440000001,-9.2510312048,3.6116466064,0.51601426,1.71170238,-3.55619728,,,
imu,198.276307,0.0783580168,-9.249236746400001,3.6152355232,0.47862971,1.59954873,-3.68330475,,,
imu,198.285124,0.08673215600000002,-9.2510312048,3.6152355232,0.56087572,1.59954873,-3.72816621,,,
imu,198.293599,0.0855358504,-9.2486385936,3.6194225928,0.53844499,1.55468727,-3.78798149,,,
imu,198.302074,0.0861340032,-9.249834899200001,3.621815204,0.57582954,1.4275798,-3.84779677,,,
imu,198.310549,0.08792846160000001,-9.2552182744,3.6254041208,0.65059864,1.34533379,-3.83284295,,,
imu,198.319024,0.08015247520000002,-9.273162858400001,3.6313856488,0.73284465,1.47991817,-3.69078166,,,
imu,198.327499,0.0747691,-9.284527761600001,3.6325819544,0.74779847,1.577118,-3.60105874,,,
imu,198.335974,0.08314323920000001,-9.287518525600001,3.627796732000001,0.70293701,1.47244126,-3.72816621,,,
imu,198.344449,0.09211553120000002,-9.2827333032,3.626002273600001,0.63564482,1.50982581,-3.72816621,,,
imu,198.352924,0.0980970592,-9.269573941600001,3.614039217600001,0.71789083,1.5023489,-3.7206893,,,
imu,198.361399,0.1148453376,-9.249236746400001,3.609852148000001,0.80013684,1.54721036,-3.83284295,,,
imu,198.369874,0.1154434904,-9.252227510400001,3.623609662400001,0.97958268,1.44253362,-3.75807385,,,
imu,198.378349,0.1274065464,-9.315033554400001,3.6409560936,0.9571519499999999,1.40514907,-3.89265823,,,
imu,198.386824,0.1501363528,-9.4460290176,3.6941916928,0.94219813,1.37524143,-3.93004278,,,
imu,198.395299,0.1459492832,-9.690075360000002,3.7958776688,0.79265993,1.30794924,-3.95995042,,,
imu,198.403774,0.1609031032,-9.921560493600001,3.8688523104,0.34404533,1.18084177,-4.012288789999999,,,
imu,198.412249,0.1495382,-9.977786856800002,3.8742356856,-0.51579932,1.10607267,-4.169303899999999,,,
imu,198.420724,0.158510492,-9.892849159200003,3.923284215200001,-1.63733582,0.9041961000000001,-4.42351884,,,
imu,198.429199,0.1441548248,-9.7809945856,3.907134089600001,-2.61681103,0.6350273399999997,-4.976810179999999,,,
imu,198.437674,0.11963056,-9.66016772,3.8856005888,-3.54394787,0.33595094,-5.761885729999999,,,
imu,198.446149,0.08972292000000001,-9.516012895200001,3.862870782400001,-4.373884879999999,0.1789358299999999,-6.14320814,,,
imu,198.454624,0.0592171272,-9.33118368,3.8198037808,-4.85988403,0.05182836000000002,-6.180592689999999,,,
imu,198.463099,0.0125612088,-9.128409880800001,3.760586653600001,-4.986991499999999,-0.0005100100000001717,-6.1880696,,,
imu,198.471574,-0.0197390424,-9.0159571544,3.721108568800001,-4.48603853,0.02939763000000006,-5.86656247,,,
imu,198.480049,-0.06579680800000001,-9.059024156000001,3.717519652,-3.35702512,0.41819695,-5.17120984,,,
imu,198.488524,-0.1172379488,-9.112857908,3.675050803200001,-1.94388913,0.8593346399999997,-4.44594957,,,
imu,198.496996,-0.1519308112,-9.0129663904,3.6283948848,-0.61299915,1.39767216,-4.0197657,,,
imu,198.505469,-0.1752587704,-8.862231884800002,3.6116466064,0.29918387,1.93600968,-3.84779677,,,
imu,198.513941,-0.1848292152,-8.750975464000001,3.5673832992,1.25622835,2.40705501,-3.90761205,,,
imu,198.522414,-0.1836329096,-8.7007306288,3.518932922400001,2.14598064,3.27437657,-3.9449966,,,
imu,198.530886,-0.1860255208,-8.733030880000001,3.490819740800001,2.64693361,3.86505246,-4.13191935,,,
imu,198.539358,-0.137575144,-8.6935527952,3.451939808800001,2.93105619,4.455728349999999,-4.4683803,,,
imu,198.547831,-0.1010878232,-8.70312324,3.448350892000001,3.04320984,5.03145042,-4.715118329999999,,,
imu,198.556303,-0.0430670016,-8.789855396000002,3.4351915304,3.57407045,5.637080129999999,-4.70764142,,,
imu,198.564776,0.0466559184,-8.878382010400001,3.428611849600001,4.11988488,6.16794074,-4.13939626,,,
imu,198.573248,0.1381732968,-8.937599137600001,3.4220321688,4.44886892,6.24270984,-3.72816621,,,
imu,198.581721,0.200381188,-8.9639178608,3.451939808800001,4.964775710000001,6.19037147,-3.32441307,,,
imu,198.590193,0.2613927736,-9.076968740000002,3.475267768000001,5.39843649,5.8389567,-3.00290594,,,
imu,198.598666,0.296085636,-9.1858325496,3.4824456016,5.74985126,5.20341935,-2.92065993,,,
imu,198.607138,0.3337692624,-9.277349928000001,3.507568019200001,5.93677401,4.478159079999999,-2.8234601,,,
imu,198.61561,0.3576953744,-9.358100556000002,3.5434571872,5.82462036,3.72299117,-2.87579847,,,
imu,198.624083,0.3654713608,-9.471151435200001,3.5608036184,5.57788233,2.71360832,-2.85336774,,,
imu,198.632555,0.3463304712,-9.548313146400002,3.570374063200001,5.06945245,1.8014253,-3.03281358,,,
imu,198.641028,0.3295821928000001,-9.554892827200002,3.5685796048,4.41896128,0.72475026,-3.27955161,,,
imu,198.6495,0.2990764,-9.5249851872,3.5781500496,3.69370101,-0.2771556799999999,-3.66087402,,,
imu,198.657973,0.2536167872,-9.513022131200001,3.5841315776,2.6394567,-1.30149235,-4.26650373,,,
imu,198.666445,0.1902125904,-9.513620284000002,3.5757574384,1.38333582,-2.26601374,-4.61044159,,,
imu,198.674918,0.1214250184,-9.504647992000002,3.5572147016,0.33656842,-2.90155109,-5.12634838,,,
imu,198.68339,0.03349655680000001,-9.4729458936,3.5452516456,-0.54570696,-3.44736552,-5.283363489999999,,,
imu,198.691862,-0.03349655680000001,-9.423897364000002,3.5434571872,-1.20367504,-3.46979625,-5.216071299999999,,,
imu,198.700321,-0.1064711984,-9.381428515200001,3.528503367200001,-1.82425857,-3.31278114,-5.021671639999999,,,
imu,198.708779,-0.1537252696,-9.367671000800001,3.5452516456,-2.25791935,-2.88659727,-4.82727198,,,
imu,198.717238,-0.1967922712,-9.3652783896,3.565588840800001,-2.43736519,-2.36321357,-4.41604193,,,
imu,198.725696,-0.2117460912,-9.419710294400002,3.604468772800001,-2.84111833,-1.52579965,-4.04967334,,,
imu,198.734155,-0.212344244,-9.495077547200001,3.660695136000001,-3.05794872,-0.37435551,-3.48890509,,,
imu,198.742613,-0.2129423968,-9.5985579816,3.717519652,-3.28225602,0.72475026,-3.11505959,,,
imu,198.751072,-0.1932033544,-9.671532623200001,3.746230986400001,-3.7159168,1.76404075,-2.748691,,,
imu,198.75953,-0.1519308112,-9.596165370400001,3.748025444800001,-4.134623759999999,2.80333124,-2.63653735,,,
imu,198.767989,-0.1064711984,-9.431075197600002,3.7199122632,-4.57576145,3.90991392,-2.71130645,,,
imu,198.776447,-0.0430670016,-9.256414580000001,3.6959861512,-4.78511493,4.72489711,-2.92065993,,,
imu,198.784905,0.0233279592,-9.155924909600001,3.6732563448,-4.441177069999999,5.41277283,-3.2720747,,,
imu,198.793364,0.06998387760000001,-9.138578478400001,3.675648956,-3.82059354,5.66698777,-3.69825857,,,
imu,198.801822,0.1232194768,-9.146952617600002,3.6600969832,-2.99813344,5.80904906,-4.02724261,,,
imu,198.810281,0.1686790896,-9.1720750352,3.6810323312,-2.06351969,5.95111035,-4.08705789,,,
imu,198.818739,0.2099516328,-9.171476882400002,3.6959861512,-1.30087487,5.74175687,-4.10948862,,,
imu,198.827198,0.2500278704,-9.155924909600001,3.6917990816,-0.62047606,5.375388279999999,-4.15435008,,,
imu,198.835656,0.2697669128,-9.134391408800001,3.706752901600001,-0.25410747,4.65012801,-4.13939626,,,
imu,198.844115,0.2930948720000001,-9.178056563200002,3.751016208800001,0.06739966,3.94729847,-4.11696553,,,
imu,198.852573,0.2883096496000001,-9.223516176,3.7737460152,0.05992275,2.87062343,-4.37118047,,,
imu,198.861032,0.251224176,-9.215142036800001,3.76836264,-0.46346095,1.77151766,-4.78988743,,,
imu,198.86949,0.1949978128,-9.1918140776,3.806046266400001,-1.31582869,0.5901658799999998,-5.22354821,,,
imu,198.877948,0.1357806856,-9.150541534400002,3.809037030400001,-1.94388913,-0.1949096699999999,-5.37308641,,,
imu,198.886407,0.0663949608,-9.121830200000002,3.795279516000001,-2.66167249,-1.1145696,-5.4403786,,,
imu,198.894865,-0.004187069600000001,-9.0823521152,3.788101682400001,-3.0429949,-1.60056875,-5.27588658,,,
imu,198.903323,-0.06998387760000001,-9.042275877600002,3.7845127656,-3.18505619,-1.84730678,-4.98428709,,,
imu,198.91178,-0.1190324072,-9.0159571544,3.764773723200001,-2.96074889,-1.75758386,-4.49081103,,,
imu,198.920237,-0.1549215752,-8.9878439728,3.733071624800001,-2.4448421,-1.4884151,-3.95995042,,,
imu,198.928694,-0.1609031032,-9.000405181600001,3.738455000000001,-1.70462801,-1.04727741,-3.26459779,,,
imu,198.937151,-0.1549215752,-9.017153460000001,3.709145512800001,-0.63542988,-0.2846325900000002,-2.41223005,,,
imu,198.945608,-0.1118545736,-8.9980125704,3.683424942400001,0.35152224,0.5303505999999998,-1.82903107,,,
imu,198.954066,-0.0723764888,-8.986647667200002,3.7001732208,1.08425942,1.44253362,-1.4776163,,,
imu,198.962523,-0.0023926112,-9.006386709600001,3.70854736,1.60016621,2.04068642,-1.50004703,,,
imu,198.97098,0.06460050240000001,-9.0578278504,3.697182456800001,2.07868845,2.49677793,-1.73183124,,,
imu,198.979437,0.1483418944,-9.0572296976,3.690602776,2.0413039,2.66126995,-2.35241477,,,
imu,198.987894,0.206362716,-9.042874030400002,3.6810323312,1.86185806,2.67622377,-2.78607555,,,
imu,198.996352,0.2530186344000001,-9.0159571544,3.6780415672,1.57025857,2.43696265,-3.25712088,,,
imu,199.004809,0.2930948720000001,-8.962123402400001,3.655311760800001,1.48053565,1.9509635,-3.60853565,,,
imu,199.013266,0.323002512,-8.929224998400002,3.6481339272,1.58521239,1.39767216,-3.78798149,,,
imu,199.021723,0.3475267768,-8.976479069600002,3.675648956,1.60016621,0.5677351499999999,-4.04219643,,,
imu,199.03018,0.3433397072,-9.076968740000002,3.690602776,1.68241222,-0.2696787700000001,-3.97490424,,,
imu,199.038637,0.3469286240000001,-9.1750657992,3.718715957600001,1.6674584,-1.2641078,-4.0197657,,,
imu,199.047095,0.3241988176,-9.273761011200001,3.7755404736,1.56278166,-2.303398290000001,-4.13191935,,,
imu,199.055552,0.28412258,-9.393989724,3.818607475200001,1.51044329,-3.45484243,-4.408565019999999,,,
imu,197.566426,,,,,,,23.3279484,-25.09193,31.30537919999999
imu,197.667928,,,,,,,21.1916884,-24.29846200000001,32.89231519999999
imu,197.769582,,,,,,,21.16727400000001,-24.7989572,33.25853119999999
imu,197.871175,,,,,,,21.35038200000001,-24.84778600000002,32.697
imu,197.972676,,,,,,,21.20389560000001,-24.9332364,33.2219096
imu,198.074239,,,,,,,21.25272440000001,-24.66467800000001,32.72141439999999
imu,198.175771,,,,,,,21.3137604,-24.54260600000002,33.71019759999999
imu,198.277333,,,,,,,22.7908316,-25.09193,33.19749519999999
imu,199.064009,0.2135405496,-9.499862769600002,3.840739128800001,1.33099745,-4.48665601,-4.692687599999999,,,
imu,199.072466,0.1297991576,-9.592576453600001,3.876030144,1.15902852,-5.45865431,-4.87213344,,,
imu,199.080923,0.0370854736,-9.632054538400002,3.8951710336,0.94219813,-6.13157621,-5.193640569999999,,,
imu,199.089381,-0.06160973840000001,-9.6505972752,3.897563644800001,0.76275229,-6.48299098,-5.41047096,,,
imu,199.097838,-0.1668846312,-9.636839760800001,3.90294702,0.68050628,-6.61757536,-5.58243989,,,
imu,199.106664,-0.2590001624000001,-9.61530626,3.9011525616,0.51601426,-6.28859132,-5.47028624,,,
imu,199.11549,-0.3194135952000001,-9.597959828800002,3.885002436000001,0.49358353,-5.555854139999999,-5.12634838,,,
imu,199.124316,-0.3493212352000001,-9.52558334,3.8509077264,0.35899915,-4.35207163,-4.75250288,,,
imu,199.133143,-0.3499193880000001,-9.444832712,3.8215982392,0.29918387,-3.17819676,-4.34874974,,,
imu,199.141969,-0.2787392048,-9.3347725968,3.786307224000001,0.44124516,-1.78001459,-3.72816621,,,
imu,199.150795,-0.1770532288,-9.291107442400001,3.7916905992,0.620691,-0.65847809,-3.17487487,,,
imu,199.159621,-0.0783580168,-9.2342829264,3.7665681816,0.42629134,0.02192071999999978,-2.9729983,,,
imu,199.168447,-0.008972292000000002,-9.152934145600002,3.7390531528,0.31413769,0.2237972899999998,-2.73373718,,,
imu,199.177274,0.0562263632,-9.074576128800002,3.7318753192,0.16459949,0.3060432999999998,-2.47204533,,,
imu,199.1861,0.1184342544,-9.0398832664,3.746230986400001,0.03001510999999998,0.3284740299999998,-2.05333837,,,
imu,199.194926,0.1381732968,-9.034499891200001,3.7611848064,-0.18681528,0.08921290999999965,-1.71687742,,,
imu,199.203752,0.161501256,-9.059024156000001,3.7755404736,-0.59056842,-0.31454023,-1.38041647,,,
imu,199.212579,0.1543234224,-9.053042628,3.7958776688,-0.9494601,-0.7257702800000003,-1.19349372,,,
imu,199.221405,0.1280046992,-9.014162696000001,3.793485057600001,-1.35321324,-1.21924634,-1.53743158,,,
imu,199.230231,0.08912476720000001,-8.993825500800002,3.8180093224,-1.63733582,-1.66786094,-2.03090764,,,
imu,199.239057,0.0352910152,-9.041079572000001,3.841935434400001,-1.61490509,-1.82487605,-2.38979932,,,
imu,199.247883,-0.002990764,-9.1056800744,3.8664596992,-1.58499745,-1.91459897,-2.49447606,,,
imu,199.25671,-0.04845037680000001,-9.124222811200001,3.8586837128,-1.2485365,-1.91459897,-2.63653735,,,
imu,199.265536,-0.09690075360000001,-9.1170449776,3.876030144,-0.71019898,-1.62299948,-2.83841392,,,
imu,199.274362,-0.13458438,-9.1122597552,3.8646652408,-0.08961545,-1.29401544,-2.90570611,,,
imu,199.283188,-0.1597067976,-9.1409710896,3.858085560000001,0.85995212,-0.8902623000000003,-2.74121409,,,
imu,199.292014,-0.1782495344,-9.1445600064,3.844328045600001,1.8169966,-0.3220171400000003,-2.53933752,,,
imu,199.300841,-0.1908107432,-9.123026505600002,3.8239908504,2.64693361,0.3135202100000001,-2.81598319,,,
imu,199.309314,-0.1949978128,-9.097305935200001,3.7898961408,3.85071612,1.16588795,-2.70382954,,,
imu,199.317788,-0.1812402984,-9.079361351200001,3.774344168000001,4.89000661,1.93600968,-2.69635263,,,
imu,199.326262,-0.1483418944,-9.060220461600002,3.741445764000001,5.86948182,2.74351596,-2.74121409,,,
imu,199.334736,-0.1154434904,-9.0751742816,3.730679013600001,6.78166484,3.50616078,-2.86832156,,,
imu,199.343175,-0.07058203040000001,-9.1014930048,3.7013695264,7.45458674,4.126744309999999,-2.92065993,,,
imu,199.351649,-0.0203371952,-9.1290080336,3.684023095200001,7.85833988,4.70246638,-2.99542903,,,
imu,199.360122,0.0370854736,-9.1409710896,3.670265580800001,8.060216449999999,5.00901969,-2.99542903,,,
imu,199.368596,0.08015247520000002,-9.1475507704,3.658302524800001,8.09012409,5.15108098,-3.09262886,,,
imu,199.37707,0.11963056,-9.194804841600002,3.6535173024,8.00787808,5.07631188,-3.21225942,,,
imu,199.385544,0.1549215752,-9.209758661600002,3.630787496000001,7.67141713,4.76975857,-3.62348947,,,
imu,199.394017,0.1728661592,-9.210954967200001,3.6385634824,7.17794107,4.32114397,-3.80293531,,,
imu,199.402491,0.1830347568,-9.2546201216,3.6636859,6.60969591,3.65569898,-3.95995042,,,
imu,199.410965,0.1818384512,-9.28632222,3.649330232800001,5.63769761,2.98277708,-4.0945348,,,
imu,199.419438,0.1429585192,-9.2408626072,3.642750552,4.516161110000001,2.13040934,-4.20668845,,,
imu,199.427912,0.107667504,-9.184038091200001,3.6361708712,3.51425517,1.51730272,-4.37118047,,,
imu,199.436386,0.06220789120000001,-9.139176631200002,3.6355727184,2.62450288,0.80699627,-4.41604193,,,
imu,199.44486,0.026916876,-9.1481489232,3.639161635200001,1.86933497,0.3733354899999997,-4.17678081,,,
imu,199.453333,-0.0107667504,-9.190617772000001,3.6361708712,1.19641307,0.0368745399999999,-3.86275059,,,
imu,199.461807,-0.04545961280000001,-9.273162858400001,3.6642840528,0.9197674,0.0368745399999999,-3.51133582,,,
imu,199.470281,-0.06041343280000001,-9.359895014400001,3.6864157064,0.8973366700000001,0.2387511099999999,-2.99542903,,,
imu,199.478754,-0.06220789120000001,-9.416719530400002,3.684023095200001,1.08425942,0.5453044199999999,-2.47952224,,,
imu,199.487228,-0.04845037680000001,-9.440645642400002,3.699575068000001,1.34595127,1.1285034,-1.99352309,,,
imu,199.495702,-0.0053833752,-9.4555994624,3.726491944,1.72727368,1.74908693,-1.69444669,,,
imu,199.504176,0.0251224176,-9.512423978400001,3.742043916800001,2.13102682,2.1005017,-1.82903107,,,
imu,199.512631,0.0514411408,-9.5459205352,3.7378568472,2.27308811,2.25751681,-2.20287657,,,
imu,199.521087,0.08433954480000001,-9.5213962704,3.724697485600001,2.23570356,2.21265535,-2.58419898,,,
imu,199.529543,0.1040785872,-9.491488630400001,3.710939971200001,2.4899185,2.27994754,-3.1225365,,,
imu,199.537999,0.1220231712,-9.463973601600001,3.683424942400001,2.7889949,2.20517844,-3.38422835,,,
imu,199.546455,0.1262102408,-9.443636406400001,3.663087747200001,3.07311748,2.10797861,-3.51133582,,,
imu,199.554911,0.1184342544,-9.423299211200002,3.6385634824,3.140409669999999,1.76404075,-3.78050458,,,
imu,199.563367,0.11963056,-9.412532460800001,3.633180107200001,3.49182444,1.42010289,-3.8702275,,,
imu,199.571823,0.1082656568,-9.3993730992,3.60387062,3.67874719,0.9341037399999998,-3.88518132,,,
imu,199.580279,0.1010878232,-9.3868118904,3.567981452000001,3.74603938,0.5752120599999997,-3.89265823,,,
imu,199.588735,0.09211553120000002,-9.361091320000002,3.5362793536,4.00025432,0.27613566,-3.86275059,,,
imu,199.597191,0.06699311360000001,-9.3413522776,3.5093624776,3.80585466,-0.03041764999999996,-3.90761205,,,
imu,199.605646,0.04187069600000001,-9.2689757888,3.449547197600001,3.93296213,0.02939763000000006,-3.72816621,,,
imu,199.614102,0.0340947096,-9.204973439200002,3.433397072000001,3.91800831,0.05182836000000002,-3.56367419,,,
imu,199.622558,0.0346928624,-9.139176631200002,3.393918987200001,4.00025432,0.1864127399999997,-3.66835093,,,
imu,199.631014,0.0161501256,-9.128409880800001,3.398106056800001,4.29185381,0.3658585799999998,-3.95247351,,,
imu,199.63947,0.0011963056,-9.1672898128,3.4280136968,4.15726943,0.4107200399999997,-4.13191935,,,
imu,199.647926,0.009570444800000001,-9.217534648,3.435789683200001,3.84323921,0.5303505999999998,-4.33379592,,,
imu,199.656382,0.0023926112,-9.246844135200002,3.457323184,3.18527113,0.4854891399999999,-4.625395409999999,,,
imu,199.664838,0.0005981528000000001,-9.2761536224,3.4968012688,2.46001086,0.2013665599999999,-4.991764,,,
imu,199.673294,-0.0251224176,-9.283929608800001,3.523119992000001,1.78708896,0.1415512799999998,-4.85717962,,,
imu,199.68175,-0.0323002512,-9.329389221600001,3.5637943824,0.78518302,-0.4042631500000002,-5.18616366,,,
imu,199.690206,-0.05203929360000001,-9.385615584800002,3.595496480800001,-0.05970781,-0.6510011800000002,-5.24597894,,,
imu,199.698661,-0.05084298800000001,-9.401167557600001,3.616431828800001,-0.90459864,-1.01736977,-5.05905619,,,
imu,199.707117,-0.05742266880000001,-9.405354627200001,3.6499283856,-1.35321324,-1.45850746,-4.65530305,,,
imu,199.71559,-0.06998387760000001,-9.405354627200001,3.6505265384,-1.56256672,-1.78001459,-3.98985806,,,
imu,199.724062,-0.08374139200000001,-9.3993730992,3.664882205600001,-1.61490509,-2.03422953,-3.36179762,,,
imu,199.732535,-0.08374139200000001,-9.373054376,3.6810323312,-1.45041307,-1.98189116,-2.71130645,,,
imu,199.741007,-0.06519865520000001,-9.352717180800001,3.691200928800001,-1.15881358,-1.72767622,-1.78416961,,,
imu,199.74948,-0.02990764000000001,-9.329389221600001,3.7223048744,-0.76253735,-1.48093819,-1.06638625,,,
imu,199.757952,0.0,-9.2970889704,3.729482708,-0.40364567,-1.36130763,-0.4981410899999998,,,
imu,199.766425,0.0376836264,-9.281536997600002,3.7450346808,-0.38869185,-1.1893387,-0.01961884999999985,,,
imu,199.774897,0.09091922560000001,-9.2486385936,3.7450346808,-0.21672292,-0.9575544899999997,0.2495499100000003,,,
imu,199.783369,0.125612088,-9.214543884000001,3.7528106672,-0.17933837,-1.08466196,0.1972115400000001,,,
imu,199.791842,0.1483418944,-9.159513826400001,3.7378568472,-0.08961545,-1.15943106,-0.1093417699999999,,,
imu,199.800314,0.1591086448,-9.100894852000001,3.7348660832,0.15712258,-1.27906162,-0.49066418,,,
imu,199.808787,0.1453511304,-9.041677724800001,3.721108568800001,0.36647606,-1.36130763,-0.8794635,,,
imu,199.817259,0.1124527264,-9.0123682376,3.709743665600001,0.79265993,-1.60056875,-1.34303192,,,
imu,199.825732,0.07118018320000001,-8.984255056000002,3.697780609600001,1.49548947,-1.7874915,-1.84398489,,,
imu,199.834204,0.03289840400000001,-8.9627215552,3.684023095200001,1.92167334,-1.73515313,-2.42718387,,,
imu,199.842676,0.0011963056,-8.95733818,3.681630484000001,2.54973378,-1.61552257,-2.61410662,,,
imu,199.851149,-0.026916876,-8.983058750400001,3.674452650400001,3.25256332,-1.31644617,-2.68887572,,,
imu,199.859621,-0.0340947096,-9.020742376800001,3.6612932888,3.94043904,-0.9126930300000002,-2.748691,,,
imu,199.868094,-0.0233279592,-9.067996448000002,3.6642840528,4.658222400000001,-0.3294940500000001,-2.50195297,,,
imu,199.876566,-0.0065796808,-9.103885616000001,3.6499283856,5.07692936,0.2237972899999998,-2.25521494,,,
imu,198.378865,,,,,,,20.77664360000001,-25.14075880000002,33.64916159999999
imu,198.480489,,,,,,,23.9261012,-25.90981240000001,31.59835199999999
imu,198.582021,,,,,,,20.7644364,-24.87220040000002,34.2595216
imu,198.683736,,,,,,,23.29132680000001,-25.71449720000001,31.9767752
imu,198.785146,,,,,,,20.74002200000001,-24.55481320000001,33.90551279999999
imu,198.886769,,,,,,,21.0085804,-24.78675000000001,33.97875599999999
imu,198.988301,,,,,,,20.8743012,-24.95765080000001,34.2595216
imu,199.089864,,,,,,,21.1428596,-25.23841640000002,33.734612
imu,199.885039,0.0245242648,-9.177458410400002,3.648732080000001,5.52554396,0.8294269999999999,-1.66453905,,,
imu,199.893511,0.09570444800000001,-9.2408626072,3.6421523992,5.91434328,1.17336486,-1.27573973,,,
imu,199.901984,0.1447529776,-9.295294512000002,3.6409560936,6.26575805,1.53225654,-1.07386316,,,
imu,199.910456,0.1818384512,-9.328791068800001,3.6325819544,6.42277316,1.39019525,-1.22340136,,,
imu,199.918916,0.2057645632,-9.372456223200002,3.626002273600001,6.34800406,1.23318014,-1.28321664,,,
imu,199.927375,0.2135405496,-9.3975786408,3.600879856,6.28818878,0.9789651999999998,-1.30564737,,,
imu,199.935835,0.2075590216,-9.4071490856,3.5871223416,6.27323496,0.7322271699999998,-1.53743158,,,
imu,199.944295,0.191408896,-9.423299211200002,3.575159285600001,6.08631221,0.52287369,-1.85893871,,,
imu,199.952755,0.1728661592,-9.401765710400001,3.549438715200001,5.73489744,0.2387511099999999,-2.12810747,,,
imu,199.961214,0.173464312,-9.394587876800001,3.535083048000001,5.58535924,0.21632038,-2.24026112,,,
imu,199.969674,0.1650901728,-9.3832229736,3.521325533600001,5.54049778,0.21632038,-2.09072292,,,
imu,199.978134,0.1501363528,-9.3658765424,3.5033809496,5.34609812,-0.07527911000000032,-2.31503022,,,
imu,199.986594,0.1262102408,-9.326398457600002,3.4860345184,5.06197554,-0.2622018600000002,-2.83841392,,,
imu,199.995053,0.0813487808,-9.2785462336,3.460313948,4.59093021,-0.6061397200000003,-3.37675144,,,
imu,200.003513,0.062806044,-9.2917055952,3.4549305728,4.41148437,-0.6435242699999999,-3.7954584,,,
imu,200.011973,0.0263187232,-9.329389221600001,3.442369364000001,4.15726943,-0.6958626400000001,-3.72816621,,,
imu,200.020432,0.0370854736,-9.361689472800002,3.4316026136,4.06754651,-0.5463244400000002,-3.53376655,,,
imu,200.028892,0.03588916800000001,-9.353315333600001,3.416648793600001,4.07502342,-0.2397711300000003,-3.36927453,,,
imu,200.037352,0.04725407120000001,-9.2970889704,3.4016949736,4.03016196,-0.02294074000000013,-2.91318302,,,
imu,200.045812,0.08374139200000001,-9.28632222,3.374778097600001,3.94043904,0.1041667299999998,-2.29259949,,,
imu,200.054271,0.1172379488,-9.289312984,3.363413194400001,3.97782359,0.2910894799999997,-1.79164652,,,
imu,200.062731,0.1387714496,-9.2958926648,3.3562353608,4.06754651,0.2013665599999999,-1.50752394,,,
imu,200.071191,0.1507345056,-9.335968902400001,3.3646095,4.10493106,-0.03789456000000024,-1.32060119,,,
imu,200.079651,0.1573141864,-9.370661764800001,3.3783670144,4.11240797,-0.15004821,-1.16358608,,,
imu,200.08811,0.1429585192,-9.387410043200001,3.3598242776,4.05259269,-0.1949096699999999,-1.07386316,,,
imu,200.09657,0.1262102408,-9.4005694048,3.367600264,3.88810067,-0.2472480400000001,-1.22340136,,,
imu,200.10503,0.1064711984,-9.405354627200001,3.3693947224,3.55911663,-0.2622018600000002,-1.5523854,,,
imu,200.113489,0.0783580168,-9.429280739200001,3.346664916,3.37967079,-0.20986349,-1.71687742,,,
imu,200.122301,0.0693857248,-9.4382530312,3.352646444,3.30490169,0.0368745399999999,-1.83650798,,,
imu,200.131113,0.0675912664,-9.4412437952,3.3562353608,3.05068675,0.2686587499999997,-2.08324601,,,
imu,200.139924,0.07177833600000001,-9.441841948000002,3.3442723048,3.08059439,0.5303505999999998,-2.27016876,,,
imu,200.148736,0.0747691,-9.410139849600002,3.3442723048,3.05068675,0.78456554,-2.32250713,,,
imu,199.191418,,,,,,,21.25272440000001,-24.81116440000002,33.94213439999999
imu,199.293072,,,,,,,21.1550668,-24.603642,34.1984856
imu,199.394513,,,,,,,22.4246156,-24.59143480000001,33.2341168
imu,199.496167,,,,,,,21.1794812,-24.78675000000001,34.589116
imu,199.597668,,,,,,,24.402182,-25.90981240000001,31.87911759999999
imu,199.6992,,,,,,,21.2405172,-24.66467800000001,34.2595216
imu,199.800763,,,,,,,23.8406508,-25.53138920000002,31.720424
imu,199.902447,,,,,,,21.44803960000001,-24.3717052,34.5769088
imu,200.003918,,,,,,,21.83867,-24.39611960000001,33.5881256
imu,200.10545,,,,,,,21.97294920000001,-25.17738040000001,34.4548368
