Type,Timestamp,Data Accelerometer X,Data Accelerometer Y,Data Accelerometer Z,Data Gyroscope X,Data Gyroscope Y,Data Gyroscope Z,Data Magnetometer X,Data Magnetometer Y,Data Magnetometer Z
imu,94.630615,-0.6292567456000001,-9.7151977776,2.1228442872,0.11973803,1.51730272,-3.2720747,,,
imu,94.639438,-0.6196863008000001,-9.6918698184,2.1138719952,0.17955331,1.56964109,-3.31693616,,,
imu,94.64826,-0.6190881480000001,-9.678710456800001,2.1108812312,0.19450713,1.53973345,-3.48890509,,,
imu,94.657082,-0.6244715232,-9.6817012208,2.1090867728,0.40386061,1.50982581,-3.47395127,,,
imu,94.665904,-0.6202844536000002,-9.681103068,2.1132738424,0.46367589,1.47244126,-3.59358183,,,
imu,94.674727,-0.6214807592000001,-9.690075360000002,2.111479384,0.68798319,1.34533379,-3.6459202,,,
imu,94.683549,-0.6286585928,-9.690673512800002,2.1108812312,1.00201341,1.29299542,-3.59358183,,,
imu,94.692028,-0.6340419680000001,-9.689477207200001,2.1138719952,0.8674290299999999,1.40514907,-3.48890509,,,
imu,94.700506,-0.62806044,-9.6846919848,2.1168627592,0.97210577,1.5023489,-3.43656672,,,
imu,94.708985,-0.6358364264000002,-9.688280901600002,2.1078904672,1.27118217,1.56216418,-3.3468438,,,
imu,94.717464,-0.6483976352,-9.706823638400001,2.111479384,1.49548947,1.76404075,-3.13001341,,,
imu,94.725943,-0.6406216488000002,-9.7295534448,2.120451676000001,1.47305874,1.78647148,-2.94309066,,,
imu,94.734422,-0.6298548984000001,-9.743310959200002,2.1228442872,1.51044329,1.9509635,-2.71878336,,,
imu,94.7429,-0.6298548984000001,-9.7427128064,2.1312184264,1.40576655,2.07807097,-2.94309066,,,
imu,94.751379,-0.6298548984000001,-9.7403201952,2.117460912,1.4431511,2.20517844,-2.94309066,,,
imu,94.759858,-0.6178918424000002,-9.736731278400002,2.1090867728,1.48801256,2.39210119,-2.86084465,,,
imu,94.768337,-0.5999472584000001,-9.730749750400001,2.1078904672,1.39828964,2.56407012,-2.81598319,,,
imu,94.776816,-0.6023398696000001,-9.748096181600001,2.1138719952,1.57025857,2.84071579,-2.93561375,,,
imu,94.785294,-0.5843952856000001,-9.758862932000001,2.1019089392,1.65250458,2.96034635,-2.96552139,,,
imu,94.793773,-0.5796100632000001,-9.7540777096,2.0989181752,1.73475059,3.10240764,-3.07019813,,,
imu,94.802252,-0.5658525488000001,-9.752881404000002,2.1007126336,1.53287402,3.09493073,-3.13001341,,,
imu,94.810731,-0.5550857984,-9.746899876,2.102507092,1.74970441,3.21456129,-3.0477674,,,
imu,94.81921,-0.5514968816000001,-9.766638918400002,2.0989181752,1.70484295,3.25942275,-3.23469015,,,
imu,94.827688,-0.5556839512000001,-9.767835224,2.0941329528,1.63755076,3.22951511,-3.35432071,,,
imu,94.836167,-0.5467116592000001,-9.752881404000002,2.0947311056,1.33099745,3.05754618,-3.60105874,,,
imu,94.844646,-0.5443190480000001,-9.746899876,2.0779828272,1.368382,3.19213056,-3.68330475,,,
imu,94.853125,-0.5383375200000001,-9.728955292000002,2.0708049936,1.27865908,3.04259236,-3.77302767,,,
imu,94.861604,-0.535346756,-9.7325442088,2.072599452,1.26370526,2.88557725,-3.74312003,,,
imu,94.870082,-0.535346756,-9.7492924872,2.0714031464,1.19641307,2.79585433,-3.90013514,,,
imu,94.878561,-0.5389356728,-9.748096181600001,2.0731976048,1.23379762,2.65379304,-4.00481188,,,
imu,94.88704,-0.5401319784,-9.741516500800001,2.0737957576,1.28613599,2.56407012,-3.96742733,,,
imu,94.895504,-0.5323559920000001,-9.7056273328,2.0678142296,1.33847436,2.38462428,-3.93004278,,,
imu,94.903967,-0.5467116592000001,-9.706225485600001,2.0618327016,1.24127453,2.18274771,-4.034719519999999,,,
imu,94.912431,-0.5479079648000001,-9.736731278400002,2.0642253128,1.25622835,2.09302479,-3.96742733,,,
imu,94.920894,-0.5371412144000001,-9.745105417600001,2.0660197712,1.26370526,1.9509635,-3.8702275,,,
imu,94.929358,-0.5592728680000001,-9.713403319200001,2.054654868000001,1.43567419,1.8014253,-3.88518132,,,
imu,94.937821,-0.5634599376000001,-9.708019944000002,2.0540567152,1.46558183,1.63693328,-3.91508896,,,
imu,94.946285,-0.5790119104,-9.738525736800002,2.0702068408,1.43567419,1.55468727,-3.84779677,,,
imu,94.954748,-0.5736285352000001,-9.7606573904,2.057645632,1.368382,1.48739508,-3.65339711,,,
imu,94.963212,-0.5843952856000001,-9.7809945856,2.0534585624,1.21136689,1.47991817,-3.8702275,,,
imu,94.971675,-0.5927694248,-9.767835224,2.051664104,1.18145925,1.53973345,-3.8702275,,,
imu,94.980139,-0.5909749664,-9.748694334400001,2.0588419376,1.11416706,1.67431783,-3.87770441,,,
imu,94.988603,-0.5903768136,-9.755872168000002,2.0684123824,1.02444414,1.73413311,-3.69825857,,,
imu,94.997066,-0.5748248408000001,-9.766638918400002,2.0642253128,0.81509066,1.78647148,-3.66835093,,,
imu,95.00553,-0.5658525488000001,-9.76484446,2.0690105352,0.80013684,1.79394839,-3.7954584,,,
imu,95.013993,-0.565254396,-9.772620446400001,2.0791791328,0.68798319,1.77151766,-3.96742733,,,
imu,95.022457,-0.580208216,-9.7702278352,2.0690105352,0.7104139199999999,1.77899457,-3.82536604,,,
imu,95.03092,-0.5646562432000001,-9.7612555432,2.0761883688,0.65059864,2.0257326,-3.84031986,,,
imu,95.039384,-0.5622636320000001,-9.7510869456,2.0684123824,0.38142988,2.11545552,-3.67582784,,,
imu,95.047847,-0.5514968816000001,-9.748096181600001,2.0684123824,0.36647606,2.16779389,-3.78050458,,,
imu,95.056311,-0.5628617848,-9.7510869456,2.06362716,0.2468455,1.98834805,-3.89265823,,,
imu,95.064774,-0.5568802568000001,-9.734338667200001,2.07858098,0.16459949,2.05564024,-3.95995042,,,
imu,95.073238,-0.5562821040000001,-9.724768222400002,2.0857588136,0.11973803,2.04068642,-3.9449966,,,
imu,95.081702,-0.5491042704000001,-9.741516500800001,2.0678142296,0.22441477,1.97339423,-3.98238115,,,
imu,95.090165,-0.5658525488000001,-9.7361331256,2.0749920632,0.20198404,2.00330187,-4.11696553,,,
imu,95.098632,-0.5574784096000001,-9.699047652,2.0672160768,0.01506129,1.90610204,-4.25902682,,,
imu,95.10714,-0.5538894928000001,-9.693664276800002,2.0708049936,0.11973803,1.89114822,-4.25154991,,,
imu,95.115607,-0.5544876456000001,-9.706225485600001,2.0731976048,0.41881443,1.85376367,-4.17678081,,,
imu,95.124075,-0.5467116592000001,-9.703832874400002,2.0959274112,0.35899915,1.85376367,-4.28893446,,,
imu,95.132542,-0.5544876456000001,-9.706823638400001,2.0809735912,0.43376825,1.7266562,-4.30388828,,,
imu,95.141009,-0.5401319784,-9.699645804800001,2.0797772856,0.60573718,1.65936401,-4.0945348,,,
imu,95.149477,-0.5323559920000001,-9.709216249600003,2.0731976048,0.6954601,1.58459491,-4.18425772,,,
imu,95.157944,-0.5526931872,-9.7301515976,2.0857588136,0.9272443100000001,1.39019525,-4.40108811,,,
imu,95.166411,-0.5616654792000001,-9.748096181600001,2.0935348,0.8449983,1.17336486,-4.42351884,,,
imu,95.174879,-0.5556839512000001,-9.748096181600001,2.096525564,0.76275229,1.18831868,-4.44594957,,,
imu,95.183346,-0.5634599376000001,-9.738525736800002,2.0887495776,0.68798319,1.09859576,-4.37118047,,,
imu,95.191813,-0.5790119104,-9.7492924872,2.0851606608,0.64312173,1.07616503,-4.58053395,,,
imu,95.200281,-0.5766192992000001,-9.734338667200001,2.0851606608,0.56835263,0.9640113799999996,-4.52071867,,,
imu,95.208748,-0.5843952856000001,-9.717590388800001,2.1013107864,0.51601426,0.9565344699999998,-4.52819558,,,
imu,95.217215,-0.5969564944000001,-9.7086180968,2.1019089392,0.50853735,0.9116730099999999,-4.57305704,,,
imu,95.225683,-0.6017417168000001,-9.711010708000002,2.0983200224,0.5982602699999999,0.9714882899999999,-4.65530305,,,
imu,95.23415,-0.6059287864000001,-9.7086180968,2.089347730400001,0.44872207,1.03878048,-4.70016451,,,
imu,95.242618,-0.6286585928,-9.7074217912,2.0749920632,0.67302937,1.08364194,-4.77493361,,,
imu,95.251085,-0.6340419680000001,-9.709814402400001,2.069608688,0.7403215599999999,1.06868812,-4.66277996,,,
imu,95.259552,-0.6208826064000001,-9.708019944000002,2.0761883688,0.76275229,1.00139593,-4.715118329999999,,,
imu,95.26802,-0.6220789120000001,-9.688879054400001,2.0779828272,1.05435178,1.09111885,-4.58801086,,,
imu,95.276487,-0.6298548984000001,-9.7086180968,2.0863569664,1.25622835,1.17336486,-4.52071867,,,
imu,95.284954,-0.6322475096000001,-9.716992236000001,2.0935348,1.24127453,1.24813396,-4.55062631,,,
imu,95.293422,-0.6370327320000001,-9.746899876,2.0989181752,1.25622835,1.27056469,-4.430995749999999,,,
imu,95.301879,-0.6477994824000001,-9.797742864000002,2.1007126336,1.22632071,1.44253362,-4.26650373,,,
imu,95.310336,-0.6430142600000001,-9.779200127200001,2.0935348,1.0693056,1.4275798,-4.25902682,,,
imu,95.318793,-0.6352382736000001,-9.742114653600002,2.0911421888,1.00949032,1.53225654,-4.08705789,,,
imu,95.32725,-0.646005024,-9.766638918400002,2.0917403416,0.8674290299999999,1.65936401,-3.90761205,,,
imu,95.335708,-0.6256678288,-9.765442612800001,2.0690105352,0.85995212,1.70422547,-3.69825857,,,
imu,95.344165,-0.6101158560000001,-9.709814402400001,2.069608688,0.8524752099999999,1.67431783,-3.81041222,,,
imu,95.352622,-0.6047324808000001,-9.690673512800002,2.07858098,0.7702292,1.59207182,-4.32631901,,,
imu,95.361079,-0.6190881480000001,-9.727160833600001,2.096525564,0.7104139199999999,1.46496435,-4.64034923,,,
imu,95.369536,-0.6238733704,-9.7750130576,2.0749920632,0.9048135799999999,1.30047233,-4.64034923,,,
imu,94.675815,,,,,,,82.2398956,-23.79796680000002,121.3090648
imu,95.377994,-0.6316493568000001,-9.758264779200001,2.069608688,0.79265993,1.19579559,-4.6179185,,,
imu,95.386451,-0.631051204,-9.751685098400001,2.0761883688,0.85995212,1.18084177,-4.35622665,,,
imu,95.394908,-0.6442105656,-9.766040765600001,2.0899458832,0.9197674,1.37524143,-3.83284295,,,
imu,95.403365,-0.6454068712000001,-9.7702278352,2.0851606608,0.80013684,1.31542615,-3.47395127,,,
imu,95.411822,-0.6358364264000002,-9.749890640000002,2.0761883688,0.63564482,1.30047233,-3.22721324,,,
imu,95.420279,-0.6352382736000001,-9.7295534448,2.069608688,0.6954601,1.4275798,-2.9729983,,,
imu,95.428737,-0.6364345792000001,-9.714599624800002,2.066617924,0.77770611,1.39019525,-2.8982292,,,
imu,95.437194,-0.631051204,-9.683495679200002,2.0600382432,0.83004448,1.47991817,-2.93561375,,,
imu,95.445651,-0.6262659816,-9.694860582400002,2.0594400904,0.8524752099999999,1.61450255,-2.94309066,,,
imu,95.454108,-0.6202844536000002,-9.667345553600002,2.0510659512,0.8524752099999999,1.6518871,-3.22721324,,,
imu,95.462565,-0.6274622872000001,-9.652989886400002,2.0528604096,0.9347212199999999,1.74908693,-3.57862801,,,
imu,95.471023,-0.6202844536000002,-9.6428212888,2.048673340000001,1.13659779,1.77899457,-3.81041222,,,
imu,95.47948,-0.6196863008000001,-9.6505972752,2.0468788816,1.42819728,2.04068642,-3.69078166,,,
imu,95.487937,-0.5999472584000001,-9.672130776000001,2.057645632,1.51044329,1.97339423,-3.7954584,,,
imu,95.496394,-0.5969564944000001,-9.7056273328,2.0564493264,1.62259694,2.03320951,-3.89265823,,,
imu,95.50521,-0.5820026744000001,-9.714001472000001,2.0462807288,1.77213514,2.21265535,-3.75059694,,,
imu,95.514025,-0.5640580904000001,-9.7301515976,2.0474770344,1.89924261,2.14536316,-3.67582784,,,
imu,95.522841,-0.5778156048000002,-9.7474980288,2.0618327016,2.01139626,1.97339423,-3.90761205,,,
imu,95.531657,-0.5742266880000001,-9.7714241408,2.0708049936,2.04878081,1.82385603,-4.057150249999999,,,
imu,95.540472,-0.5778156048000002,-9.801929933600002,2.0642253128,1.94410407,1.71170238,-3.8702275,,,
imu,95.549288,-0.5766192992000001,-9.8079114616,2.0594400904,1.86933497,1.56216418,-3.82536604,,,
imu,95.558103,-0.5885823552,-9.803724392000001,2.0678142296,1.60016621,1.33037997,-3.78798149,,,
imu,95.566919,-0.5993491056000001,-9.8210708232,2.0779828272,1.46558183,1.33785688,-3.78050458,,,
imu,95.575735,-0.6149010784000001,-9.831837573600001,2.0672160768,1.30856672,1.36028761,-3.66835093,,,
imu,95.58455,-0.6214807592000001,-9.8228652816,2.0570474792,1.00201341,1.19579559,-3.67582784,,,
imu,95.593366,-0.6286585928,-9.800733628000001,2.0492714928,0.80761375,1.08364194,-3.69078166,,,
imu,95.602181,-0.6214807592000001,-9.797742864000002,2.0385047424,0.80013684,1.2032725,-3.61601256,,,
imu,95.610997,-0.6358364264000002,-9.7911631832,2.0373084368,0.8375213899999999,1.23318014,-3.54872037,,,
imu,95.619813,-0.6418179544000001,-9.773218599200002,2.0187657,0.8749059399999999,1.36028761,-3.4216129,,,
imu,95.628628,-0.6358364264000002,-9.7510869456,2.0151767832,0.88985976,1.47991817,-3.33936689,,,
imu,95.637444,-0.6382290376000002,-9.746899876,2.015774936,1.12164397,1.69674856,-3.36927453,,,
imu,95.646259,-0.6418179544000001,-9.742114653600002,2.0145786304,1.18145925,1.70422547,-3.5711511,,,
imu,95.655075,-0.6436124128,-9.716992236000001,2.0133823248,1.18893616,1.93600968,-3.54872037,,,
imu,95.66389,-0.6454068712000001,-9.730749750400001,2.031326908800001,1.02444414,2.12293243,-3.51881273,,,
imu,95.672706,-0.6328456624000001,-9.745105417600001,2.0265416864,0.80761375,2.22760917,-3.51133582,,,
imu,95.681522,-0.6376308848000001,-9.7331423616,2.0205601584,0.8375213899999999,2.1752708,-3.74312003,,,
imu,95.690337,-0.6472013296000001,-9.735534972800002,2.0181675472,0.50853735,2.40705501,-3.7206893,,,
imu,95.699153,-0.6382290376000002,-9.724768222400002,2.0205601584,0.34404533,2.45939338,-3.63844329,,,
imu,95.707634,-0.6406216488000002,-9.725964528,2.00381188,0.21693786,2.58650085,-3.38422835,,,
imu,95.716116,-0.6346401208000001,-9.714001472000001,1.9984285048,0.15712258,2.63883922,-3.36179762,,,
imu,95.724597,-0.6250696760000001,-9.708019944000002,2.0079989496,0.20946095,2.87810034,-3.04029049,,,
imu,95.733078,-0.6137047728000001,-9.7151977776,2.006802644,0.44872207,3.10988455,-2.86084465,,,
imu,95.74156,-0.5945638832000001,-9.723571916800001,2.0121860192,0.50853735,3.31176112,-2.80102937,,,
imu,95.750041,-0.5939657304000001,-9.745105417600001,2.021756464,0.51601426,3.23699202,-2.89075229,,,
imu,95.758522,-0.5885823552,-9.742114653600002,2.0205601584,0.53844499,3.24446893,-3.05524431,,,
imu,95.767004,-0.5742266880000001,-9.752283251200002,2.0408973536,0.6132140899999999,3.31923803,-3.25712088,,,
imu,95.775485,-0.5694414656000001,-9.754675862400001,2.0408973536,0.620691,3.31923803,-3.3468438,,,
imu,95.783966,-0.5622636320000001,-9.769629682400002,2.0379065896,0.4861066199999999,3.35662258,-3.4216129,,,
imu,95.792448,-0.5544876456000001,-9.779200127200001,2.0474770344,0.46367589,3.48373005,-3.1973056,,,
imu,95.800929,-0.5365430616000001,-9.782789044000001,2.057645632,0.30666078,3.36409949,-3.24216706,,,
imu,95.80941,-0.5168040192000001,-9.783985349600002,2.062430854400001,0.1720764,3.20708438,-3.33188998,,,
imu,95.817892,-0.5120187968000001,-9.788770572,2.0618327016,0.01506129,3.03511545,-3.35432071,,,
imu,95.826373,-0.5012520464000001,-9.7786019744,2.0474770344,-0.01484635000000001,2.94539253,-3.33936689,,,
imu,95.834854,-0.4898871432,-9.769031529600001,2.060636396,0.0001074699999999984,2.68370068,-3.58610492,,,
imu,95.843336,-0.4982612824000001,-9.755274015200001,2.0672160768,0.007584380000000002,2.45939338,-3.69078166,,,
imu,95.851817,-0.5000557408,-9.748096181600001,2.0731976048,-0.16438455,2.23508608,-3.88518132,,,
imu,95.860298,-0.5138132552000001,-9.742114653600002,2.0582437848,-0.17933837,2.1005017,-3.83284295,,,
imu,95.86878,-0.5209910888,-9.745703570400002,2.06362716,-0.04475399000000001,1.96591732,-3.92256587,,,
imu,95.877261,-0.5132151024,-9.724170069600001,2.0749920632,-0.05970781,1.89114822,-3.95247351,,,
imu,95.885742,-0.5066354216000001,-9.734338667200001,2.0839643552,0.08235347999999998,1.76404075,-3.92256587,,,
imu,95.894224,-0.5269726168000001,-9.730749750400001,2.0761883688,0.13469185,1.49487199,-4.08705789,,,
imu,95.902705,-0.5383375200000001,-9.724170069600001,2.07858098,0.16459949,1.45748744,-4.28893446,,,
imu,95.911161,-0.5443190480000001,-9.706823638400001,2.0983200224,0.23189168,1.42010289,-4.48333412,,,
imu,95.919617,-0.5431227424,-9.706225485600001,2.0923384944,0.16459949,1.43505671,-4.58053395,,,
imu,95.928073,-0.5514968816000001,-9.7193848472,2.0983200224,0.23189168,1.63693328,-4.3936112,,,
imu,95.936529,-0.5497024232000001,-9.708019944000002,2.0947311056,0.2468455,1.56964109,-4.55062631,,,
imu,95.944985,-0.5556839512000001,-9.683495679200002,2.1072923144,0.28423005,1.43505671,-4.74502597,,,
imu,95.953441,-0.5538894928000001,-9.693664276800002,2.1043015504,0.3739529699999999,1.55468727,-4.81231816,,,
imu,95.961897,-0.5508987288,-9.709814402400001,2.0989181752,0.56087572,1.4275798,-4.81231816,,,
imu,95.970352,-0.5580765624000001,-9.704431027200002,2.1072923144,0.70293701,1.30794924,-4.94690254,,,
imu,95.978808,-0.5526931872,-9.692467971200001,2.117460912,0.73284465,1.18831868,-5.16373293,,,
imu,95.987264,-0.565254396,-9.697253193600002,2.1096849256,0.9646288599999999,0.9341037399999998,-5.34317877,,,
imu,95.99572,-0.5736285352000001,-9.696655040800001,2.1060960088,1.08425942,0.7770886299999997,-5.283363489999999,,,
imu,96.004176,-0.580208216,-9.687084596000002,2.1072923144,1.30856672,0.6948426199999997,-5.260932759999999,,,
imu,96.012632,-0.5939657304000001,-9.696655040800001,2.1108812312,1.46558183,0.58268897,-5.39551714,,,
imu,96.021088,-0.5963583416000001,-9.699047652,2.1096849256,1.71231986,0.33595094,-5.4403786,,,
imu,96.029544,-0.6154992312,-9.703234721600001,2.10848862,1.77213514,0.19388965,-5.46280933,,,
imu,96.038,-0.6220789120000001,-9.701440263200002,2.1090867728,2.0413039,0.2312741999999997,-5.32074804,,,
imu,96.046456,-0.6328456624000001,-9.710412555200001,2.1031052448,2.1908421,0.13407437,-5.40299405,,,
imu,96.054912,-0.6412198016000001,-9.7074217912,2.0947311056,2.24318047,-0.0005100100000001717,-5.20859439,,,
imu,96.063367,-0.6472013296000001,-9.703234721600001,2.0977218696,2.38524176,-0.007986920000000008,-5.01419473,,,
imu,96.071823,-0.6483976352,-9.7008421104,2.0863569664,2.51234923,-0.01546383000000029,-4.87213344,,,
imu,96.080279,-0.6609588440000002,-9.724170069600001,2.0779828272,2.66188743,-0.09023292999999999,-4.90204108,,,
imu,96.088735,-0.6579680800000002,-9.7283571392,2.0851606608,2.92357928,-0.1575251200000003,-4.887087259999999,,,
imu,96.097191,-0.6633514552,-9.714001472000001,2.0773846744,2.85628709,-0.04537147000000008,-4.72259524,,,
imu,96.105647,-0.6687348304,-9.711010708000002,2.0761883688,2.96096383,0.02192071999999978,-4.59548777,,,
imu,96.114112,-0.6597625384000001,-9.7128051664,2.0570474792,3.10302512,-0.09770984000000027,-4.33379592,,,
imu,96.122577,-0.6424161072,-9.706225485600001,2.0618327016,3.4619168,-0.007986920000000008,-4.15435008,,,
imu,96.131041,-0.6519865520000001,-9.7128051664,2.0462807288,3.35724006,-0.08275602000000015,-4.25902682,,,
imu,96.139506,-0.6472013296000001,-9.743310959200002,2.0331213672,3.60397809,-0.1425713000000002,-4.23659609,,,
imu,96.147971,-0.6406216488000002,-9.748694334400001,2.0109897136,3.70865483,-0.2921095,-4.11696553,,,
imu,96.156436,-0.646005024,-9.718786694400002,2.0325232144,3.64883955,-0.2771556799999999,-4.06462716,,,
imu,96.164901,-0.6579680800000002,-9.7086180968,2.0241490752,3.59650118,-0.2023865800000002,-3.95995042,,,
imu,96.173366,-0.6771089696000001,-9.737927584000001,2.0050081856,3.56659354,-0.37435551,-4.034719519999999,,,
imu,96.18183,-0.6675385248000001,-9.745105417600001,1.9804839208,3.40957843,-0.3668786000000002,-3.90761205,,,
imu,96.190295,-0.6633514552,-9.722375611200002,1.979885768,3.3123786,-0.3818324200000003,-3.76555076,,,
imu,94.77735,,,,,,,82.2398956,-23.93224600000001,121.1747856
imu,94.878852,,,,,,,82.36196760000001,-24.21301160000002,121.3578936
imu,94.980445,,,,,,,82.8258412,-23.94445320000001,121.80956
imu,95.081977,,,,,,,82.142238,-24.01769640000002,121.443344
imu,95.18357,,,,,,,82.26431000000001,-23.81017400000001,122.236812
imu,95.285102,,,,,,,84.8766508,-24.06652520000001,121.1259568
imu,95.386695,,,,,,,82.32534600000001,-24.45715560000001,121.3578936
imu,95.488349,,,,,,,84.6325068,-24.85999320000001,119.06294
imu,96.198684,-0.6597625384000001,-9.730749750400001,1.9810820736,3.45443989,-0.1650020300000001,-3.65339711,,,
imu,96.207149,-0.6358364264000002,-9.760059237600002,1.9774931568,3.282470959999999,-0.2472480400000001,-3.73564312,,,
imu,96.215614,-0.6113121616,-9.7540777096,1.9541651976,3.28994787,-0.17247894,-3.60105874,,,
imu,96.224078,-0.5969564944000001,-9.744507264800001,1.9457910584,3.3123786,-0.2397711300000003,-3.55619728,,,
imu,96.232543,-0.5820026744000001,-9.7606573904,1.952968892,3.42453225,-0.3893093300000001,-3.40665908,,,
imu,96.241008,-0.5670488544000001,-9.783387196800001,1.941005836,3.40210152,-0.6883857300000003,-3.31693616,,,
imu,96.249473,-0.5485061176,-9.790565030400002,1.9356224608,3.37967079,-0.90521612,-3.10010577,,,
imu,96.257938,-0.5108224912,-9.801929933600002,1.9505762808,3.14788658,-1.27158471,-3.15992105,,,
imu,96.266402,-0.4462219888000001,-9.828846809600002,1.946987364,3.02825602,-1.70524549,-3.21973633,,,
imu,96.274867,-0.376836264,-9.8749045752,1.9643337952,2.83385636,-2.43050576,-3.26459779,,,
imu,96.283332,-0.3636769024000001,-9.918569729600001,1.9780913096,2.4899185,-3.25296586,-2.89075229,,,
imu,96.291797,-0.3517138464,-9.922756799200002,1.964931948,1.80204278,-4.31468708,-2.47952224,,,
imu,96.300262,-0.3421434016,-9.8527729216,1.955959656,1.27118217,-5.443700489999999,-1.87389253,,,
imu,96.308726,-0.3732473472,-9.7995373224,1.9463892112,0.8749059399999999,-6.475514069999999,-1.49257012,,,
imu,96.317189,-0.4205014184,-9.760059237600002,1.9254538632,0.43376825,-7.454989279999999,-1.35050883,,,
imu,96.325651,-0.5120187968000001,-9.740918348000001,1.9039203624,0.3216146,-8.17277264,-1.35050883,,,
imu,96.334113,-0.5664507016000001,-9.724170069600001,1.92904278,0.40386061,-8.58400269,-1.15610917,,,
imu,96.342576,-0.5640580904000001,-9.809107767200002,1.9774931568,0.32909151,-8.50175668,-0.99909406,,,
imu,96.351038,-0.5299633808,-9.941897688800001,2.0265416864,0.09730729999999999,-8.59895651,-0.79721749,,,
imu,96.3595,-0.4504090584,-10.0561448736,2.0743939104,-0.5980453299999999,-9.15972476,-0.8719865899999999,,,
imu,96.367962,-0.4049494456000001,-10.3486415928,2.2717843344,-1.55508981,-10.01956941,-1.03647861,,,
imu,96.376425,-0.4312681688,-10.6542976736,2.2861400016,-3.35702512,-11.58972051,-1.5523854,,,
imu,96.384887,-0.4420349192,-10.6208011168,2.2855418488,-5.413175369999999,-13.54867093,-2.41223005,,,
imu,96.393349,-0.6531828576,-10.4724592224,2.3938075056,-7.62634073,-15.31322169,-3.48142818,,,
imu,96.401811,-0.8744993936000002,-10.2331981024,2.386629672,-9.06938436,-15.9936205,-3.99733497,,,
imu,96.410274,-1.0545433864,-10.1871403368,2.413546548,-9.98904429,-14.84965327,-2.62158353,,,
imu,96.418736,-1.0605249144,-10.1273250568,2.4446504936,-10.60962782,-12.77107229,0.04767334000000023,,,
imu,96.427198,-1.0342061912,-10.0884451248,2.4051724088,-10.80402748,-10.87193715,2.08886977,,,
imu,96.435661,-0.7518780696000001,-9.794153947200002,2.290925224,-10.16849013,-9.57843172,2.01410067,,,
imu,96.444123,-0.6448087184,-9.443636406400001,2.2299136384,-8.97218453,-9.64572391,-0.60281783,,,
imu,96.452585,-0.5754229936,-9.1924122304,2.170696511200001,-6.923511189999999,-10.92427552,-4.26650373,,,
imu,96.461047,-0.5335522976000001,-9.204375286400001,2.2957104464,-4.373884879999999,-12.59162645,-7.52643649,,,
imu,96.46951,-0.6777071224000001,-9.4699551296,2.434481896,-2.04856587,-14.01223935,-9.223695059999999,,,
imu,96.477972,-0.8816772272000001,-9.655980650400002,2.389620436,0.11226112,-14.47580777,-8.28908131,,,
imu,96.486434,-0.9253423816,-9.7151977776,2.353731268,1.47305874,-13.75802441,-4.670256869999999,,,
imu,96.494896,-0.9337165208000001,-9.794153947200002,2.3920130472,1.52539711,-12.36731915,0.2944113700000002,,,
imu,96.503359,-0.8828735328,-9.995731440800002,2.4919045648,0.5010604399999999,-10.96166007,4.840372649999999,,,
imu,96.511821,-0.7925524600000001,-10.010087108,2.460202466400001,-1.45041307,-9.74292374,8.02553631,,,
imu,96.520659,-0.7225685824,-9.676317845600002,2.290327071200001,-3.34954821,-9.1148633,9.29661101,,,
imu,96.529497,-0.7949450712000001,-9.337165208000002,2.1497611632,-4.59819218,-8.80830999,8.56387383,,,
imu,96.538335,-0.885266144,-9.087735490400002,1.961941184,-4.59819218,-8.554095049999999,7.40495278,,,
imu,96.547174,-0.9020144224000001,-8.7043195456,1.7244745224,-3.15514855,-7.97089607,7.090922560000001,,,
imu,96.556012,-0.8439936008000001,-8.5661462488,1.6706407704,-0.80739881,-7.417604730000001,6.36566229,,,
imu,96.56485,-0.8655271016000001,-8.8083981328,1.641929436,1.94410407,-6.998897769999999,5.079633769999999,,,
imu,96.573688,-0.9085941032000001,-9.058426003200001,1.5444305296,4.04511578,-6.213822220000001,4.18988148,,,
imu,96.582526,-0.900219964,-9.269573941600001,1.573141864,5.02459099,-4.99508589,4.010435640000001,,,
imu,96.591364,-0.7662337368000001,-9.401167557600001,1.5916846008,5.49563632,-2.99875092,4.73569591,,,
imu,96.600203,-0.6178918424000002,-9.4496179344,1.543234224,5.21899065,-1.20429252,5.804894040000001,,,
imu,96.609041,-0.4378478496000001,-9.439449336800001,1.5151210424,4.36662291,-0.03041764999999996,6.612400320000001,,,
imu,96.617879,-0.227298064,-9.286920372800001,1.528280404,3.07311748,0.3060432999999998,6.20117027,,,
imu,96.626717,-0.1770532288,-9.2917055952,1.5414397656,2.0413039,-0.2771556799999999,4.750649729999999,,,
imu,96.635555,-0.176455076,-9.353913486400002,1.5270840984,1.34595127,-1.31644617,2.89637605,,,
imu,96.644393,-0.1932033544,-9.360493167200001,1.5468231408,0.88985976,-2.57256705,1.25893276,,,
imu,96.653231,-0.242251884,-9.408943544000001,1.5450286824,0.97958268,-3.85111866,-0.57291019,,,
imu,96.66207,-0.3152265256,-9.432869656000001,1.573141864,1.16650543,-4.9277937,-2.55429134,,,
imu,96.670908,-0.3989679176000001,-9.585996772800002,1.6550887976,1.38333582,-6.0493302,-3.85527368,,,
imu,96.679746,-0.4791203928000001,-9.855763685600001,1.7507932456,1.74970441,-6.542806260000001,-3.8702275,,,
imu,96.688584,-0.5574784096000001,-10.1901311008,1.7771119688,2.42262631,-6.61757536,-2.83093701,,,
imu,96.697422,-0.5993491056000001,-10.3653898712,1.8674330416,2.66188743,-6.303545140000001,-1.61220068,,,
imu,96.70626,-0.6286585928,-10.380941844,1.9583522672,2.74413344,-5.884838179999999,-0.6402023799999998,,,
imu,96.715099,-0.6795015808000001,-10.3970919696,2.0295324504,2.72917962,-5.66053088,-0.34860289,,,
imu,96.723576,-0.7207741240000002,-10.4461404992,2.0534585624,2.67684125,-5.122193360000001,-0.49066418,,,
imu,96.732054,-0.6992406232000001,-10.518516988,2.120451676000001,2.44505704,-4.7034864,-0.99909406,,,
imu,96.740531,-0.6938572480000001,-10.506553932,2.1521537744,1.88428879,-4.16514888,-1.4028472,,,
imu,96.749009,-0.6645477608,-10.5777341152,2.1407888712,1.33847436,-3.46231934,-1.3280781,,,
imu,96.757486,-0.5640580904000001,-10.4592998608,2.0947311056,0.65807555,-2.94641255,-0.8495558599999999,,,
imu,96.765964,-0.5138132552000001,-10.3384729952,2.0283361448,-0.11952309,-2.88659727,-0.79721749,,,
imu,96.774441,-0.5126169496,-10.2995930632,1.9810820736,-0.21672292,-2.7594898,-0.51309491,,,
imu,96.782919,-0.5006538936,-10.2379833248,1.8835831672,-0.47841477,-2.63985924,0.4215188400000001,,,
imu,96.791396,-0.4175106544000001,-10.1153620008,1.8267586512,-0.73262971,-2.6847207,1.33370186,,,
imu,96.799874,-0.3451341656,-9.9789831624,1.7172966888,-0.7550604399999999,-2.97632019,1.18416366,,,
imu,96.808351,-0.3654713608,-9.922158646400002,1.6233866992,-0.7251528,-3.23801204,0.3990881100000001,,,
imu,96.816829,-0.3929863896,-9.8144911424,1.5545991272,-0.73262971,-3.39502715,-0.004665029999999959,,,
imu,96.825306,-0.331974804,-9.725964528,1.531271168,-0.7251528,-3.06604311,-0.06448030999999999,,,
imu,96.833784,-0.2966837888,-9.706823638400001,1.5384490016,-0.47841477,-2.97632019,0.0177657,,,
imu,96.842261,-0.2613927736,-9.731946056000002,1.5701511,-0.64290679,-3.15576603,0.1448731699999999,,,
imu,96.850739,-0.1842310624,-9.690673512800002,1.5833104616,-0.9793677399999999,-3.29035041,0.2345960900000001,,,
imu,96.859217,-0.1160416432,-9.694860582400002,1.6503035752,-1.25601341,-3.58942681,0.002811879999999878,,,
imu,96.867694,-0.07955432240000002,-9.642223136000002,1.6592758672,-1.89155076,-4.14271815,-0.40841817,,,
imu,96.876172,-0.0197390424,-9.478927421600002,1.6562851032,-2.57194957,-5.032470440000001,-0.9243249599999999,,,
imu,96.884649,-0.0346928624,-9.364680236800002,1.743615412,-3.3420713,-5.884838179999999,-1.71687742,,,
imu,96.893127,-0.08912476720000001,-9.371259917600002,1.818384512,-4.00751629,-6.849359570000001,-2.25521494,,,
imu,96.901604,-0.1064711984,-9.394587876800001,1.821375276,-4.36640797,-7.73911186,-2.57672207,,,
imu,96.910082,-0.1399677552,-9.453805004000001,1.8674330416,-4.36640797,-8.15781882,-2.65149117,,,
imu,96.918559,-0.1818384512,-9.496872005600002,1.9834746848,-4.57576145,-8.18772646,-3.03281358,,,
imu,96.927041,-0.2542149400000001,-9.549509452,2.0821698968,-4.66548437,-8.06061899,-3.0477674,,,
imu,96.935522,-0.2936930248,-9.554294674400001,2.1168627592,-4.67296128,-7.6942504,-2.76364482,,,
imu,96.944003,-0.391790084,-9.614109954400002,2.191631859200001,-4.747730379999999,-7.066189959999999,-2.57672207,,,
imu,96.952485,-0.4557924336,-9.7504887928,2.2873363072,-4.942130039999999,-6.168960759999999,-2.5991528,,,
imu,96.960966,-0.4593813504000001,-9.815687448000002,2.3411700592,-4.942130039999999,-5.152101,-2.41970696,,,
imu,96.969447,-0.454596128,-9.830641268,2.3638998656,-5.16643734,-4.36702545,-2.77112173,,,
imu,96.977929,-0.3810233336,-9.850380310400002,2.4452486464,-5.45055992,-3.68662664,-3.3468438,,,
imu,96.98641,-0.3307784984000001,-9.842006171200001,2.4751562864,-5.6599134,-3.06604311,-3.74312003,,,
imu,96.994891,-0.2613927736,-9.808509614400002,2.499082398400001,-5.60757503,-2.48284413,-4.37118047,,,
imu,97.003373,-0.2308869808,-9.802528086400002,2.5355697192,-5.555236659999999,-2.26601374,-4.72259524,,,
imu,97.011854,-0.1902125904,-9.803126239200001,2.58701086,-5.27859099,-2.16881391,-4.75250288,,,
imu,95.589789,,,,,,,82.36196760000001,-23.19981400000002,122.3832984
imu,95.691382,,,,,,,83.4606156,-24.89661480000001,120.1860024
imu,95.792914,,,,,,,82.7037692,-24.02990360000001,122.0781184
imu,95.894507,,,,,,,82.2276884,-23.321886,122.5541992
imu,95.996039,,,,,,,81.9469228,-23.78575960000002,122.1391544
imu,96.097602,,,,,,,82.31313879999999,-23.83458840000001,122.3222624
imu,96.199195,,,,,,,82.55728280000001,-24.1397684,123.0180728
imu,96.300757,,,,,,,84.8400292,-24.0421108,122.4077128
imu,97.020335,-0.1872218264,-9.7995373224,2.5923942352,-4.82997639,-2.19124464,-4.73007215,,,
imu,97.028817,-0.2129423968,-9.742114653600002,2.6252926392,-4.47108471,-2.27349065,-4.63287232,,,
imu,97.037298,-0.2416537312,-9.675719692800001,2.6725467104,-4.26173123,-2.13142936,-4.341272829999999,,,
imu,97.045779,-0.215335008,-9.666149248000002,2.7329601432,-3.97013174,-2.04170644,-3.68330475,,,
imu,97.054261,-0.1860255208,-9.666149248000002,2.7443250464,-3.33459439,-1.7874915,-3.03281358,,,
imu,97.062742,-0.161501256,-9.606932120800002,2.7413342824,-2.76634923,-1.73515313,-3.02533667,,,
imu,97.071223,-0.1698753952,-9.6051376624,2.7999532568,-2.37754991,-1.77253768,-3.29450543,,,
imu,97.079705,-0.161501256,-9.553098368800002,2.7718400752,-2.13828879,-1.83982987,-3.15244414,,,
imu,97.088186,-0.09749890640000002,-9.4765348104,2.7497084216,-1.73453565,-1.66038403,-2.68139881,,,
imu,97.096667,-0.0442633072,-9.4215047528,2.7192026288,-1.14385976,-1.53327656,-2.32250713,,,
imu,97.105149,-0.0191408896,-9.396980488,2.6940802112,-0.24663056,-1.45103055,-2.06829219,,,
imu,97.11363,0.023926112,-9.429878892000001,2.628881556000001,0.55339881,-1.54075347,-1.88884635,,,
imu,97.122111,0.09450814240000002,-9.373652528800001,2.6360593896,1.368382,-1.84730678,-1.87389253,,,
imu,97.130541,0.158510492,-9.382624820800002,2.620507416800001,2.25065738,-2.47536722,-2.33746095,,,
imu,97.13897,0.1268083936,-9.427486280800002,2.554112456,3.31985551,-3.2081044,-2.9729983,,,
imu,97.147399,0.0861340032,-9.401167557600001,2.4871193424,4.2843769,-3.97822613,-3.55619728,,,
imu,97.155828,0.0131593616,-9.3904008072,2.464389536000001,5.30123666,-4.39693309,-3.81788913,,,
imu,97.164258,0.0017944584,-9.4460290176,2.443454188,5.9292971,-4.68105567,-4.16182699,,,
imu,97.172687,-0.0275150288,-9.5219944232,2.3878259776,6.49006535,-4.942747519999999,-4.55810322,,,
imu,97.181116,-0.1058730456,-9.540537160000001,2.3363848368,6.66203428,-5.34650066,-5.02914855,,,
imu,97.189545,-0.1668846312,-9.5501076048,2.320832864,6.75923411,-5.54090032,-5.2908404,,,
imu,97.197974,-0.2434481896,-9.5632669664,2.281952932,6.69194192,-5.43622358,-5.634778259999999,,,
imu,97.206404,-0.3146283728000001,-9.590183842400002,2.2658028064,6.49006535,-5.19696246,-5.67963972,,,
imu,97.214833,-0.3606861384,-9.641624983200002,2.2358951664,6.21341968,-4.98013207,-5.85908556,,,
imu,97.223262,-0.3989679176000001,-9.708019944000002,2.201202304,6.07135839,-4.81564005,-6.36751544,,,
imu,97.231691,-0.43366078,-9.769031529600001,2.1683039,5.64517452,-4.62124039,-6.98062206,,,
imu,97.24012,-0.4240903352000001,-9.8079114616,2.1557426912,5.57040542,-4.06794905,-7.01800661,,,
imu,97.24855,-0.376836264,-9.8563618384,2.117460912,5.52554396,-3.76139574,-7.10772953,,,
imu,97.256979,-0.3786307224000001,-9.770825988000002,2.081571744,5.49563632,-3.5819499,-7.10772953,,,
imu,97.265408,-0.3840140976,-9.6984494992,2.0839643552,5.58535924,-3.45484243,-6.965668239999999,,,
imu,97.273837,-0.4193051128000001,-9.7702278352,2.0791791328,5.83209727,-3.24548895,-6.771268579999999,,,
imu,97.282266,-0.4833074624000001,-9.8527729216,2.0115878664,5.99658929,-3.02865856,-6.404899990000001,,,
imu,97.2906,-0.5479079648000001,-9.920962340800001,2.0444862704,6.06388148,-2.42302885,-5.76936264,,,
imu,97.299029,-0.5891805080000001,-10.0417892064,2.0253453808,5.90686637,-1.89216824,-4.80484125,,,
imu,97.307458,-0.5945638832000001,-10.0417892064,1.9697171704,5.49563632,-1.34635381,-4.70016451,,,
imu,97.315887,-0.6250696760000001,-10.0226483168,1.9523707392,5.15169846,-0.8753084800000002,-4.991764,,,
imu,97.324316,-0.6406216488000002,-10.0190594,1.8787979448,4.77037605,-0.82297011,-5.60487062,,,
imu,97.332779,-0.6651459136000001,-10.0525559568,1.8070196088,4.50120729,-0.6285704500000002,-6.15068505,,,
imu,97.341241,-0.6836886504,-10.0136760248,1.7627563016,4.29185381,-0.5089398900000002,-6.816130039999999,,,
imu,97.349703,-0.6741182056000001,-9.8946436176,1.7627563016,3.79837775,-0.6435242699999999,-7.294652279999999,,,
imu,97.358165,-0.6346401208000001,-9.8049206976,1.8130011368,3.02077911,-0.65847809,-7.451667389999999,,,
imu,97.366628,-0.6549773160000001,-9.7959484056,1.8518810688,2.37028794,-0.5538013500000001,-7.63111323,,,
imu,97.37509,-0.7219704296,-9.772022293600001,1.9069111264,1.57025857,-0.6659550000000003,-8.16945075,,,
imu,97.383552,-0.8326286976000001,-9.7714241408,1.9368187664,0.68050628,-0.90521612,-8.88723411,,,
imu,97.392015,-0.9737927584000001,-9.741516500800001,1.935024308,0.06739966,-1.03232359,-9.56015601,,,
imu,97.400477,-1.0479637056,-9.730749750400001,1.9601467256,-0.41859949,-0.4640784300000003,-9.70969421,,,
imu,97.408939,-1.040785872,-9.6260730104,1.9762968512,-0.44850713,0.6948426199999997,-8.61806535,,,
imu,97.417401,-0.9887465784000001,-9.517807353600002,2.012784172,-0.18681528,1.8761944,-6.965668239999999,,,
imu,97.425864,-0.9385017432000002,-9.6087265792,2.072001299200001,0.38142988,2.82576197,-5.60487062,,,
imu,97.434326,-0.8571529624000002,-9.727160833600001,2.1240405928,0.83004448,3.26689966,-5.33570186,,,
imu,97.442788,-0.8152822664000001,-9.704431027200002,2.1940244704,0.79265993,3.45382241,-6.25536179,,,
imu,97.45125,-0.726755652,-9.672728928800002,2.3100661136,0.4861066199999999,3.5211146,-7.578774859999999,,,
imu,97.459713,-0.6059287864000001,-9.658971414400002,2.320832864,0.13469185,3.32671494,-8.82741883,,,
imu,97.468175,-0.4940742128000001,-9.573435564,2.3668906296,-0.20924601,3.1472691,-9.73960185,,,
imu,97.476637,-0.370854736,-9.523190728800001,2.398592728,-0.4260764,3.01268472,-9.89661696,,,
imu,97.4851,-0.236270356,-9.456795768000001,2.4416597296,-0.49336859,2.83323888,-9.21621815,,,
imu,97.493562,-0.0352910152,-9.4908904776,2.499082398400001,-0.29149202,2.52668557,-7.518959579999999,,,
imu,97.502024,0.1537252696,-9.5184055064,2.5080546904,-0.04475399000000001,1.97339423,-6.34508471,,,
imu,97.510486,0.2249054528,-9.5656595776,2.5702625816,0.25432241,1.01634975,-6.15068505,,,
imu,97.518949,0.1896144376,-9.697253193600002,2.595983152,0.31413769,0.2910894799999997,-6.135731229999999,,,
imu,97.527411,0.1788476872,-9.684093832000002,2.569066276,0.17955331,0.05182836000000002,-5.62730135,,,
imu,97.536281,0.1967922712,-9.51062952,2.5176251352,0.10478421,0.3209971199999999,-5.10391765,,,
imu,97.545151,0.1770532288,-9.4203084472,2.4691747584,0.33656842,0.56025824,-5.40299405,,,
imu,97.554021,0.1369769912,-9.450814240000001,2.404574256,1.03192105,0.76213481,-6.053485220000001,,,
imu,97.562891,0.02871133440000001,-9.4316733504,2.3046827384,2.13850373,0.78456554,-7.010529699999999,,,
imu,97.571761,-0.0723764888,-9.260003496800001,2.2018004568,2.96096383,0.9041961000000001,-8.44609642,,,
imu,97.580631,-0.1537252696,-9.074576128800002,2.1240405928,4.00773123,1.41262598,-8.76760355,,,
imu,97.589501,-0.1208268656,-9.1475507704,2.030728756,5.66760525,2.01077878,-7.758220699999999,,,
imu,97.598371,-0.1327899216,-9.355109792000002,1.9122945016,7.888247519999999,2.42948574,-7.189975539999999,,,
imu,97.607241,-0.2009793408,-9.463973601600001,1.8237678872,9.877105579999998,3.16222292,-7.145114079999999,,,
imu,97.616111,-0.170473548,-9.572239258400002,1.848292152,11.37248758,3.88000628,-6.62920729,,,
imu,97.624981,-0.155519728,-9.898830687200002,1.8698256528,12.44168571,4.27628251,-6.135731229999999,,,
imu,97.633851,-0.1638938672,-10.2002996984,1.848292152,12.37439352,4.38095925,-6.76379167,,,
imu,97.642721,-0.2434481896,-10.2451611584,1.8141974424,11.28276466,4.68003565,-7.870374350000001,,,
imu,97.651591,-0.3194135952000001,-10.2894244656,1.7968510112,9.75747502,4.979112049999999,-8.12458929,,,
imu,97.660461,-0.3648732080000001,-10.2595168256,1.7603636904,8.05273954,5.45763429,-7.87785126,,,
imu,97.669331,-0.4013605288,-10.1016044864,1.7298578976,6.36295788,5.92867962,-7.952620359999999,,,
imu,97.678201,-0.4252866408000001,-10.06392086,1.7149040776,5.27880593,5.966064169999999,-8.11711238,,,
imu,97.687071,-0.4593813504000001,-10.054948568,1.6843982848,4.67317622,5.92867962,-8.677880629999999,,,
imu,97.695941,-0.4779240872000001,-9.942495841600001,1.7184929944,3.925485220000001,5.74175687,-9.99381679,,,
imu,97.704811,-0.4952705184000001,-9.8264541984,1.7741212048,3.52173208,5.659510859999999,-11.37704514,,,
imu,97.713681,-0.5622636320000001,-9.8778953392,1.8554699856,3.34976315,5.45015738,-12.51353546,,,
imu,97.722551,-0.6615569968000001,-9.959842272800001,1.935024308,3.07311748,5.442680469999999,-12.98458079,,,
imu,97.731421,-0.7411113192000001,-9.9365143136,2.0211583112,2.45253395,5.81652597,-13.32851865,,,
imu,97.739902,-0.8559566568000001,-9.885671325600002,2.133611037600001,1.21136689,6.19784838,-13.71731797,,,
imu,97.748384,-0.9749890640000002,-9.999320357600002,2.278962168,-0.19429219,6.467017139999999,-14.09116347,,,
imu,97.756865,-1.1263217224,-10.1937200176,2.3782555328,-1.67472037,6.92310865,-14.50987043,,,
imu,97.765346,-1.253130116,-10.2080756848,2.3950038112,-3.15514855,7.551169089999999,-14.51734734,,,
imu,97.773828,-1.3284973688,-9.955655203200001,2.4093594784,-4.2393005,8.67270559,-13.964056,,,
imu,97.782309,-1.3332825912,-9.710412555200001,2.396798269600001,-4.254254319999999,10.38491798,-12.47615091,,,
imu,97.79079,-1.3948923296,-9.578818939200001,2.3782555328,-3.52899405,11.78310015,-11.2723684,,,
imu,97.799272,-1.4104443024,-9.479525574400002,2.3489460456,-2.58690339,12.95697502,-10.44243139,,,
imu,97.807753,-1.2627005608,-9.340155972000002,2.326814392,-1.36069015,13.80186585,-9.43304854,,,
imu,97.816234,-1.0539452336,-9.3168280128,2.3758629216,-0.04475399000000001,14.19066517,-8.99191085,,,
imu,97.824716,-0.9450814240000001,-9.357502403200002,2.3046827384,1.45062801,14.11589607,-9.27603343,,,
imu,97.833197,-0.8487788232000001,-9.2689757888,2.2059875264,2.89367164,13.57755855,-10.0012937,,,
imu,96.402182,,,,,,,83.3385436,-24.01769640000002,122.908208
imu,96.503745,,,,,,,86.24385720000001,-25.44593880000001,121.1259568
imu,96.608084,,,,,,,84.9376868,-24.49377720000001,124.4707296
imu,96.707358,,,,,,,87.15939720000002,-25.7877404,121.1992
imu,96.808585,,,,,,,85.10858759999999,-24.59143480000001,123.9702344
imu,96.910025,,,,,,,85.1452092,-24.61584920000002,124.0190632
imu,97.011557,,,,,,,85.92647,-22.91904840000001,123.0546944
imu,97.113181,,,,,,,85.8898484,-21.80819320000001,123.213388
imu,97.841678,-0.7405131664000002,-9.2342829264,2.2167542768,4.47129965,12.42611441,-11.04058419,,,
imu,97.85016,-0.6579680800000002,-9.483712644000002,2.1934263176,6.20594277,10.76624039,-12.45372018,,,
imu,97.858641,-0.6914646368,-9.801929933600002,2.1318165792,7.77609387,8.9044898,-13.97153291,,,
imu,97.867122,-0.7070166096,-9.914382660000001,2.1078904672,8.40415431,6.87077028,-15.27999216,,,
imu,97.875604,-0.8164785720000002,-9.997525899200001,2.060636396,8.48640032,5.158557889999999,-15.07063868,,,
imu,97.884085,-0.8954347416000001,-9.9012232984,1.952968892,8.262093019999998,3.61083752,-14.09864038,,,
imu,97.892566,-0.9995133288000001,-9.8946436176,1.908107432,7.88077061,2.39210119,-12.9920577,,,
imu,97.901048,-1.1568275152,-9.955655203200001,1.8040288448,7.75366314,1.24813396,-12.25932052,,,
imu,97.909529,-1.3380678136,-9.824061587200001,1.7238763696,7.20784871,0.8369039099999998,-11.54153716,,,
imu,97.91801,-1.492391236,-9.852174768800001,1.7669433712,6.53492681,0.9714882899999999,-10.73403088,,,
imu,97.926492,-1.6287700744,-10.0023111216,1.7131096192,5.89938946,1.36776452,-9.79941713,,,
imu,97.934973,-1.6730333816,-9.66016772,1.5803196976,4.65074549,2.34723973,-9.11154141,,,
imu,97.943379,-1.6999502576,-9.2480404408,1.5886938368,3.50677826,3.70803735,-8.40123496,,,
imu,97.951786,-1.7011465632,-9.217534648,1.5743381696,3.30490169,5.18098862,-7.18249863,,,
imu,97.960192,-1.7501950928,-9.361689472800002,1.5785252392,3.27499405,6.66889371,-6.33013089,,,
imu,97.968598,-1.7836916496,-9.486105255200002,1.7041373272,3.5366859,8.56802885,-5.61982444,,,
imu,97.977005,-1.73464312,-9.589585689600002,1.8052251504,3.20770186,10.72885584,-5.00671782,,,
imu,97.985411,-1.5898901424,-9.675121540000001,1.8225715816,2.90862546,12.59808334,-4.89456417,,,
imu,97.993817,-1.4367630256,-9.5877912312,1.8052251504,2.92357928,13.95888096,-6.01610067,,,
imu,98.002224,-1.3284973688,-9.495675700000001,1.8357309432,3.24508641,14.95330999,-7.690928509999999,,,
imu,98.01063,-1.2070723504,-9.536948243200001,1.8285531096,4.18717707,15.71595481,-8.04982019,,,
imu,98.019036,-1.0294209688,-9.568052188800001,1.8076177616,5.80966654,16.29915379,-7.92271272,,,
imu,98.027443,-0.9696056888000001,-9.604539509600002,1.8309457208,7.54430966,16.50850727,-8.700311359999999,,,
imu,98.035849,-0.8888550608000001,-9.668541859200001,1.85427368,9.21166059,16.54589182,-8.92461866,,,
imu,98.044255,-0.7530743752000001,-9.788172419200002,1.8823868616,10.58741203,16.27672306,-8.610588439999999,,,
imu,98.052662,-0.5808063688,-9.8982325344,1.8847794728,11.27528775,15.54398588,-8.565726979999999,,,
imu,98.061068,-0.4910834488,-9.911391896000003,1.8476939992,11.24538011,14.10094225,-8.655449899999999,,,
imu,98.069474,-0.4103328208,-9.862343366400001,1.8040288448,10.7145195,12.48592969,-7.885328169999999,,,
imu,98.077881,-0.3391526376000001,-9.855763685600001,1.7896731776,10.16870507,11.05036297,-6.15068505,,,
imu,98.086287,-0.3612842912,-9.8527729216,1.6921742712,9.69018283,9.24095075,-4.244073,,,
imu,98.094693,-0.5012520464000001,-9.803724392000001,1.603049504,8.994830199999999,7.581076729999999,-3.28702852,,,
imu,98.1031,-0.6771089696000001,-9.818080059200001,1.519308112,8.142462459999999,6.489447869999999,-3.02533667,,,
imu,98.111506,-0.8912476720000001,-9.8013317808,1.4259962752,7.52935584,5.90624889,-3.36179762,,,
imu,98.119912,-1.073684276,-9.744507264800001,1.3721625232,6.78914175,5.853910519999999,-4.169303899999999,,,
imu,98.128319,-1.2214280176,-9.783985349600002,1.336871508,5.9292971,6.51935551,-5.283363489999999,,,
imu,98.136725,-1.3392641192,-9.725964528,1.2435596712,5.20403683,7.506307629999999,-6.928283689999999,,,
imu,98.145369,-1.384723732,-9.632054538400002,1.22621324,4.57597639,8.76990542,-8.94704939,,,
imu,98.154013,-1.4523149984,-9.672728928800002,1.2405689072,4.12736179,10.3251027,-10.42747757,,,
imu,98.162657,-1.4708577352,-9.786976113600002,1.2309984624,3.79837775,12.27657621,-11.04058419,,,
imu,98.171301,-1.4433427064,-9.810304072800001,1.2016889752,3.26751714,14.11589607,-11.47424497,,,
imu,98.179945,-1.3500308696,-9.740918348000001,1.1711831824,2.75161035,15.50660133,-11.72845991,,,
imu,98.188589,-1.2507375048,-9.721179305600002,1.1927166832,2.38524176,16.3813998,-12.3939049,,,
imu,98.197234,-1.1915203776,-9.879689797600001,1.2154464896,2.69179507,16.65804547,-12.58830456,,,
imu,98.205878,-1.1376866256,-9.938308772000001,1.2034834336,2.91610237,16.35896907,-12.77522731,,,
imu,98.214522,-1.1293124864,-9.932327244000001,1.220231712,2.90114855,15.52155515,-13.0668268,,,
imu,98.223166,-1.1598182792,-10.010087108,1.2638968664,3.11797894,14.10094225,-13.01448843,,,
imu,98.23181,-1.2543264216,-10.0525559568,1.268083936,3.31985551,12.52331424,-12.68550439,,,
imu,98.240454,-1.2884211312,-10.0387984424,1.2997860344,3.1628404,10.88587095,-12.41633563,,,
imu,98.249098,-1.3302918272,-9.9813757736,1.3572087032,3.06564057,9.17365856,-12.31165889,,,
imu,98.257742,-1.3649846896,-9.9783850096,1.3889108016,2.84881018,7.54369218,-12.23688979,,,
imu,98.266386,-1.3948923296,-10.0202557056,1.417622136,2.46748777,5.97354108,-11.40695278,,,
imu,98.27503,-1.3990793992,-9.993936982400001,1.414631372,2.27308811,4.35852852,-10.13587808,,,
imu,98.283675,-1.4541094568,-9.939505077600002,1.4224073584,1.91419643,2.44443956,-9.43304854,,,
imu,98.292319,-1.5713474056,-9.906008520800002,1.4224073584,1.50296638,0.64250425,-8.894711019999999,,,
imu,98.300963,-1.7232782168,-9.825257892800002,1.384723732,1.73475059,-0.25472495,-7.81055907,,,
imu,98.309607,-1.8058233032,-9.7427128064,1.4020701632,1.78708896,-0.7482010100000003,-6.01610067,,,
imu,98.318251,-1.938015072,-9.744507264800001,1.4259962752,2.1908421,-0.6360473600000001,-4.34874974,,,
imu,98.326895,-2.024747228,-9.794752100000002,1.4259962752,2.63197979,-0.1650020300000001,-3.16739796,,,
imu,98.335539,-2.1043015504,-9.738525736800002,1.4212110528,2.65441052,0.5378275100000001,-2.65149117,,,
imu,98.344183,-2.1258350512,-9.672728928800002,1.4708577352,2.68431816,1.78647148,-2.53186061,,,
imu,98.352471,-2.1641168304,-9.7074217912,1.4858115552,2.55721069,2.9229618,-3.05524431,,,
imu,98.360759,-2.1216479816,-9.756470320800002,1.5169155008,2.28804193,4.32862088,-3.78798149,,,
imu,98.369048,-2.06362716,-9.8013317808,1.5205044176,1.75718132,5.77166451,-4.625395409999999,,,
imu,98.377336,-1.997830352,-9.785779808000001,1.519308112,1.26370526,7.102554489999999,-5.17868675,,,
imu,98.385807,-1.920070488,-9.671532623200001,1.5246914872,0.67302937,8.306337,-5.305794219999999,,,
imu,98.394095,-1.8309457208,-9.618297024,1.5211025704,0.44872207,9.7269499,-4.84970271,,,
imu,98.402383,-1.7292597448,-9.694860582400002,1.52528964,0.3963837,10.70642511,-4.602964679999999,,,
imu,98.410671,-1.67482784,-9.6912716656,1.5534028216,0.44872207,11.49150066,-4.37118047,,,
imu,98.418959,-1.552206516,-9.589585689600002,1.5545991272,0.4711528,12.17189947,-4.00481188,,,
imu,98.427247,-1.486409708,-9.552500216,1.5480194464,0.68050628,12.37377604,-3.55619728,,,
imu,98.435535,-1.4493242344,-9.644615747200001,1.5635714192,1.30108981,12.17937638,-3.38422835,,,
imu,98.443823,-1.501363528,-9.740918348000001,1.5683566416,1.77213514,11.79057706,-3.51133582,,,
imu,98.452111,-1.5001672224,-9.786377960800001,1.5540009744,2.05625772,11.31953173,-3.4216129,,,
imu,98.460399,-1.5599825024,-9.777405668800002,1.5916846008,2.0413039,10.78119421,-3.24216706,,,
imu,98.468687,-1.6018531984,-9.828248656800001,1.6257793104,1.87681188,10.37744107,-2.99542903,,,
imu,98.476975,-1.6341534496,-9.911391896000003,1.6425275888,1.70484295,10.2503336,-2.4496146,,,
imu,98.485263,-1.6915761184,-9.975992398400003,1.6694444648,1.35342818,10.28771815,-1.41780102,,,
imu,98.493551,-1.70473548,-9.9012232984,1.6646592424,0.8375213899999999,10.57184073,0.2944113700000002,,,
imu,98.501839,-1.6503035752,-9.7576666264,1.6820056736,0.4711528,11.30457791,2.24588488,,,
imu,98.510128,-1.6287700744,-9.783387196800001,1.6951650352,0.27675314,11.84291543,3.89828199,,,
imu,98.518416,-1.6562851032,-9.8581562968,1.6915761184,0.30666078,12.40368368,5.057203039999999,,,
imu,98.526704,-1.6437238944,-9.8497821576,1.6706407704,0.29170696,13.1663285,5.98433988,,,
imu,98.534992,-1.5988624344,-9.824061587200001,1.692772424,0.26927623,13.95140405,6.545108130000001,,,
imu,98.54328,-1.5516083632,-9.895839923200002,1.7448117176,0.26179932,14.76638724,6.589969590000001,,,
imu,98.552091,-1.504354292,-10.0304243032,1.7609618432,0.007584380000000002,15.34958622,6.00677061,,,
imu,98.560903,-1.441548248,-10.042985512,1.7543821624,-0.35878421,16.02250812,5.670309659999999,,,
imu,98.569715,-1.303973104,-9.7744149048,1.728661592,-1.0242292,16.8300144,5.61797129,,,
imu,98.578526,-1.1885296136,-9.618297024,1.7053336328,-1.36816706,17.51041321,5.59554056,,,
imu,98.587338,-1.085647332,-9.594370912,1.632957144,-1.21862886,17.98893545,5.41609472,,,
imu,98.596149,-0.9235479232000001,-9.568650341600001,1.5886938368,-0.6279529699999999,18.21324275,5.13944905,,,
imu,98.604961,-0.8206656416,-9.514218436800002,1.5575898912,0.16459949,18.16838129,4.71326518,,,
imu,98.613773,-0.6812960392000001,-9.4801237272,1.5498139048,1.00949032,17.98145854,3.99548182,,,
imu,98.622584,-0.6400234960000001,-9.52558334,1.5510102104,1.8917657,17.37582883,3.02348352,,,
imu,98.631396,-0.5987509528,-9.52558334,1.5414397656,2.54225687,16.63561474,1.92437775,,,
imu,98.640208,-0.5790119104,-9.4250936696,1.5617769608,2.69927198,16.06736958,1.15425602,,,
imu,98.649019,-0.6035361752000001,-9.5118258256,1.5868993784,2.66188743,15.39444768,0.4813341200000001,,,
imu,97.214682,,,,,,,86.3781364,-22.29648120000001,123.5551896
imu,97.316245,,,,,,,86.07295640000001,-22.67490440000002,123.9824416
imu,97.417807,,,,,,,87.8307932,-22.88242680000001,123.9702344
imu,97.51937,,,,,,,85.7311548,-22.52841800000001,123.701676
imu,97.620932,,,,,,,88.428946,-23.26085000000002,121.1869928
imu,97.723563,,,,,,,86.30489320000001,-23.45616520000002,124.0434776
imu,97.824118,,,,,,,88.1359732,-24.54260600000002,121.4067224
imu,97.926871,,,,,,,85.1452092,-24.28625480000002,124.2754144
imu,98.657831,-0.6412198016000001,-9.639830524800002,1.5665621832,2.66936434,15.08789437,0.04019642999999995,,,
imu,98.666642,-0.6902683312000001,-9.614708107200002,1.5384490016,2.62450288,15.08041746,-0.1093417699999999,,,
imu,98.675454,-0.7213722768,-9.571042952800001,1.543234224,2.61702597,15.08789437,-0.28878761,,,
imu,98.684266,-0.7746078760000001,-9.595567217600001,1.5378508488,2.64693361,15.24490948,-0.4682334499999998,,,
imu,98.693077,-0.7967395296000002,-9.688879054400001,1.5468231408,2.81890254,15.84306228,-0.02709575999999991,,,
imu,98.701889,-0.7261574992000001,-9.752283251200002,1.5414397656,3.10302512,16.46364581,0.95237945,,,
imu,98.710701,-0.7261574992000001,-9.765442612800001,1.5109339728,3.34976315,16.8300144,1.87203938,,,
imu,98.719512,-0.7363260968000002,-9.683495679200002,1.4720540408,3.3871477,16.97207569,2.08139286,,,
imu,98.728324,-0.7817857096,-9.6117173432,1.4660725128,3.84323921,17.23376754,2.60477656,,,
imu,98.737135,-0.8362176144000002,-9.6918698184,1.5031579864,4.2843769,17.49545939,3.25526773,,,
imu,98.745947,-0.8984255056000002,-9.807313308800001,1.5187099592,4.47129965,17.82444343,3.41975975,,,
imu,98.754435,-0.9259405344000001,-9.889858395200001,1.626975616,4.27689999,18.16090438,3.12068335,,,
imu,98.762922,-0.8768920048000002,-10.1829532672,1.827356804,3.60397809,18.34782713,2.91132987,,,
imu,98.77141,-0.7973376824000001,-10.3647917184,1.8500866104,2.05625772,18.30296567,2.7842224,,,
imu,98.779898,-0.7393168608000001,-10.1183527648,1.7717285936,0.06739966,18.05622764,2.09634668,,,
imu,98.788386,-0.6723237472000001,-9.737927584000001,1.722680064,-1.26349032,17.278629,1.65520899,,,
imu,98.796873,-0.5335522976000001,-9.412532460800001,1.6353497552,-1.07656757,16.2318616,1.99914685,,,
imu,98.805361,-0.4563905864000001,-9.633848996800001,1.752587704,0.3963837,15.09537128,2.69449948,,,
imu,98.813849,-0.5323559920000001,-9.945486605600001,1.7699341352,1.63007385,13.87663495,3.63659014,,,
imu,98.822336,-0.4833074624000001,-9.755872168000002,1.7531858568,1.92167334,12.83734446,4.444096419999999,,,
imu,98.830824,-0.4330626272,-9.6817012208,1.7998417752,2.53477996,11.93263835,5.42357163,,,
imu,98.839312,-0.5485061176,-9.914382660000001,1.7543821624,3.43948607,11.23728572,6.36566229,,,
imu,98.847799,-0.4922797544,-9.8916528536,1.7161003832,3.88810067,10.87091713,7.40495278,,,
imu,98.856287,-0.4210995712,-9.724768222400002,1.665855548,4.25446926,10.41482562,7.52458334,,,
imu,98.864775,-0.4384460024000001,-9.724170069600001,1.6263774632,4.89000661,9.74190372,6.27593937,,,
imu,98.873263,-0.4653628784000001,-9.5865949256,1.5139247368,5.47320559,9.166181649999999,4.90018793,,,
imu,98.88175,-0.382817792,-9.4591883792,1.519308112,6.1536044,8.85962834,3.69640542,,,
imu,98.890238,-0.3989679176000001,-9.5704448,1.5719455584,7.23027944,8.82224379,3.1580679,,,
imu,98.898726,-0.4755314760000001,-9.845595088000001,1.6227885464,7.64150949,9.076458729999999,2.82908386,,,
imu,98.907213,-0.481513004,-9.876699033600001,1.5994605872,7.51440202,9.41291968,2.37299235,,,
imu,98.915701,-0.499457588,-9.800733628000001,1.5934790592,7.14055652,9.869011189999998,1.2140713,,,
imu,98.924189,-0.6531828576,-10.0035074272,1.5857030728,6.57978827,10.43725635,0.08505788999999986,,,
imu,98.932676,-0.5670488544000001,-9.9789831624,1.516317348,6.1536044,11.5214083,-0.04204958000000003,,,
imu,98.941164,-0.4916816016,-9.903615909600001,1.4846152496,5.76480508,12.68780626,0.7579797899999998,,,
imu,98.949652,-0.3744436528,-10.0555467208,1.5797215448,5.47320559,13.70466602,2.23093106,,,
imu,98.958114,-0.2320832864,-10.1261287512,1.537252696,4.92739116,14.15328062,3.37489829,,,
imu,98.966576,-0.1579123392,-10.1590271552,1.5868993784,3.91800831,13.86915804,3.57677486,,,
imu,98.975039,-0.155519728,-10.1632142248,1.5486175992,2.83385636,13.26352833,3.50948267,,,
imu,98.983501,-0.1782495344,-9.851576616000001,1.3601994672,1.63007385,12.74014463,3.58425177,,,
imu,98.991963,-0.0251224176,-9.326398457600002,1.324908452,1.31604363,12.05226891,4.10763547,,,
imu,99.000425,-0.0191408896,-9.301276040000001,1.2806451448,2.57216451,11.01297842,4.249696759999999,,,
imu,99.008888,-0.1740624648,-9.914382660000001,1.4451371648,4.22456162,10.11574922,4.48148097,,,
imu,99.01735,-0.3098431504,-10.0812672912,1.4469316232,4.29185381,9.03907418,4.556250070000001,,,
imu,99.025812,-0.2685706072,-9.88447502,1.483418944,3.34228624,8.119414249999998,3.31508301,,,
imu,99.034275,-0.3206099008000001,-9.736731278400002,1.3889108016,2.82637945,7.177323589999999,1.26640967,,,
imu,99.042737,-0.290104108,-9.430477044800002,1.2387744488,3.02077911,6.182894559999999,-0.31869525,,,
imu,99.051199,-0.143556672,-9.4107380024,1.3709662176,4.01520814,5.17351171,-1.7019236,,,
imu,99.059661,-0.3600879856,-9.740918348000001,1.363788384,5.31619048,4.4931129,-2.32250713,,,
imu,99.068124,-0.3535083048,-9.8013317808,1.3871163432,6.01902002,4.2688056,-1.97856927,,,
imu,99.076586,-0.3367600264,-9.755274015200001,1.4200147472,6.37043479,4.73237402,-0.6925407499999998,,,
imu,99.085048,-0.3146283728000001,-10.0172649416,1.4768392632,6.71437265,5.27818845,0.81031816,,,
imu,99.09351,-0.3385544848000001,-10.1859440312,1.4588946792,6.71437265,5.81652597,1.30379422,,,
imu,99.101973,-0.275150288,-10.0573411792,1.4397537896,5.98163547,6.19784838,0.83274889,,,
imu,99.110435,-0.2446444952,-10.105791556,1.4828207912,5.15169846,6.4371095,-0.09438795,,,
imu,99.118897,-0.2709632184,-10.3653898712,1.5115321256,4.5086842,6.818431909999999,-0.4308489,,,
imu,99.12736,-0.2709632184,-10.159625308,1.4529131512,3.46939371,7.11750831,-0.6177716499999999,,,
imu,99.135822,-0.3271895816000001,-10.1847477256,1.4690632768,2.33290339,7.56612291,-1.14115535,,,
imu,99.144284,-0.3905937784,-10.1422788768,1.4403519424,1.2936129,8.022214420000001,-1.63463141,,,
imu,99.152746,-0.4121272792,-9.776209363200001,1.2746636168,-0.28401511,8.373629189999999,-2.76364482,,,
imu,99.161201,-0.3044597752,-9.522592576000001,1.2668876304,-1.12142903,8.77738233,-3.99733497,,,
imu,99.169656,-0.3780325696000001,-9.3455393472,1.085647332,-0.8672140899999999,8.88205907,-4.363703559999999,,,
imu,99.17811,-0.2296906752000001,-9.3718580704,1.1000029992,0.0001074699999999984,8.84467452,-4.034719519999999,,,
imu,99.186565,-0.2207183832,-9.767237071200002,1.2106612672,1.11416706,8.62784413,-3.63096638,,,
imu,99.19502,-0.290104108,-10.0172649416,1.2124557256,1.24875144,8.16427571,-3.46647436,,,
imu,99.203474,-0.155519728,-9.688280901600002,1.0838528736,0.6132140899999999,7.46892308,-3.35432071,,,
imu,99.211929,-0.08852661440000001,-9.198393758400002,1.0413840248,0.60573718,6.444586409999999,-2.83093701,,,
imu,99.220383,-0.06460050240000001,-9.4250936696,1.0072893152,1.8169966,5.136127159999999,-2.84589083,,,
imu,99.228838,-0.1549215752,-9.759461084800002,0.9666149248000001,3.18527113,3.56597606,-3.28702852,,,
imu,99.237293,-0.1417622136,-9.7953502528,1.028822816,3.40957843,2.29490136,-3.57862801,,,
imu,99.245747,-0.1680809368,-9.7636481544,1.007887468,3.589024269999999,1.09111885,-3.82536604,,,
imu,99.254202,-0.218325772,-9.7122070136,0.9947281064000002,3.56659354,0.11164364,-3.78798149,,,
imu,99.262657,-0.3188154424,-9.944290300000002,1.0270283576,4.02268505,-0.4939860700000001,-3.13749032,,,
imu,99.271111,-0.4091365152000001,-10.1769717392,1.0300191216,4.1348387,-1.00989286,-2.66644499,,,
imu,99.279566,-0.4629702672000001,-10.1345028904,1.085647332,3.79090084,-1.23420016,-2.4496146,,,
imu,99.288021,-0.4952705184000001,-10.1931218648,1.1891277664,2.97591765,-1.51084583,-2.44213769,,,
imu,99.296475,-0.5843952856000001,-10.1997015456,1.0988066936,2.2656112,-1.51832274,-2.24026112,,,
imu,99.30493,-0.5724322296000001,-9.944290300000002,1.1167512776,1.5179202,-1.47346128,-2.11315365,,,
imu,99.313384,-0.6137047728000001,-10.0035074272,1.2010908224,1.03192105,-1.36130763,-2.05333837,,,
imu,99.321839,-0.6154992312,-10.1195490704,1.22621324,0.53096808,-1.16690797,-1.19349372,,,
imu,99.330294,-0.4898871432,-9.9580478144,1.250139352,-0.06718472,-0.8454008399999999,-0.2439261499999998,,,
imu,99.338748,-0.4216977240000001,-9.83961356,1.283037756,-0.32139966,-0.7332471900000002,0.4364726600000002,,,
imu,99.347203,-0.3899956256000001,-9.977786856800002,1.2782525336,-0.13447691,-0.9276468500000004,1.27388658,,,
imu,99.355658,-0.3241988176,-10.1033989448,1.3123472432,-0.15690764,-1.30896926,1.97671612,,,
imu,99.364123,-0.2883096496000001,-9.998124052,1.3051694096,-0.44850713,-1.75010695,2.12625432,,,
imu,99.372587,-0.206362716,-9.9167752712,1.3087583264,-0.8522602699999999,-2.49032104,1.90194702,,,
imu,99.381052,-0.2398592728,-9.805518850400002,1.1849406968,-0.9793677399999999,-3.72401119,0.9299487200000001,,,
imu,99.389517,-0.191408896,-9.597959828800002,1.1173494304,-0.38121494,-4.75582477,-0.37103362,,,
imu,99.397982,-0.2051664104,-9.477132963200003,1.1000029992,0.77770611,-5.91474582,-1.48509321,,,
imu,99.406447,-0.2308869808,-9.5949690648,1.127518028,2.2656112,-7.02880541,-1.85893871,,,
imu,99.414911,-0.2829262744000001,-9.6218859408,1.0641138312,3.6862241,-8.19520337,-1.91127708,,,
imu,99.423376,-0.2500278704,-9.413130613600002,1.0449729416,4.71803768,-9.3391706,-2.16549202,,,
imu,99.431841,-0.3756399584,-9.5237888816,1.0605249144,5.86200491,-10.07190778,-2.13558438,,,
imu,99.440306,-0.4755314760000001,-9.817481906400001,1.058730456,6.51249608,-10.43827637,-1.31312428,,,
imu,99.448771,-0.5066354216000001,-10.0561448736,1.0964140824,6.41529625,-10.13919997,-0.4532796299999999,,,
imu,99.457235,-0.5742266880000001,-10.2708817288,1.1101715968,5.37600576,-9.4887088,0.1299193500000002,,,
imu,99.4657,-0.6184899952000001,-10.3743621632,1.0880399432,3.79837775,-8.39707994,0.7654567000000001,,,
imu,98.027137,,,,,,,85.48701080000001,-25.04310120000002,125.3740624
imu,98.128669,,,,,,,84.9743084,-25.99526280000002,125.2641976
imu,98.230262,,,,,,,85.41376759999999,-26.65445160000002,125.960008
imu,98.335181,,,,,,,84.0831828,-26.81314520000002,125.9844224
imu,98.433387,,,,,,,84.3761556,-27.54557720000001,126.08208
imu,98.53501,,,,,,,84.82782200000001,-26.89859560000001,124.8857744
imu,98.636573,,,,,,,83.2653004,-26.47134360000001,125.1421256
imu,98.738044,,,,,,,84.7789932,-27.25260440000001,122.3344696
imu,99.474088,-0.5891805080000001,-10.2804521736,1.0880399432,1.87681188,-6.70729828,1.91690084,,,
imu,99.482553,-0.4839056152000001,-10.3468471344,1.1442663064,-0.03727708,-4.74834786,2.81413004,,,
imu,99.491018,-0.3941826952,-10.4132420952,1.0820584152,-1.92893531,-2.80435126,3.65154396,,,
imu,99.499483,-0.2494297176,-10.2864337016,1.1143586664,-3.84302427,-1.10709269,3.8309898,,,
imu,99.507948,-0.1208268656,-10.3474452872,1.1729776408,-5.51785211,0.3957662200000001,3.4571443,,,
imu,99.516412,0.0,-10.3815399968,1.187333308,-7.491756349999999,1.86871749,3.03843734,,,
imu,99.524877,0.1297991576,-10.2649002008,1.2710747,-9.435752950000001,3.25942275,3.1580679,,,
imu,99.533342,0.28412258,-10.2020941568,1.3536197864,-11.29002663,4.31366706,3.92818963,,,
imu,99.541807,0.3630787496,-10.2768632568,1.4038646216,-12.89756228,5.34548064,4.89271102,,,
imu,99.550272,0.4611758088,-10.0651171656,1.4032664688,-14.81165124,5.99597181,5.76750949,,,
imu,99.558736,0.5879842024,-9.676915998400002,1.4206129,-16.4266638,6.489447869999999,5.999293700000001,,,
imu,99.567553,0.6585662328000002,-9.6470083584,1.5151210424,-17.18930862,6.34738658,5.46843309,,,
imu,99.57637,0.6567717744000001,-9.868923047200001,1.5845067672,-17.30146227,5.80904906,4.30951204,,,
imu,99.585187,0.6292567456000001,-9.835426490400001,1.5635714192,-17.33884682,5.1660348,2.76179167,,,
imu,99.594004,0.6687348304,-9.434065961600002,1.5707492528,-16.97247823,4.58283582,1.85708556,,,
imu,99.602821,0.7207741240000002,-8.923243470400001,1.5007653752,-15.52195769,4.0444983,1.49071697,,,
imu,99.611638,0.7566632920000002,-9.438851184,1.8070196088,-13.00223902,3.55849915,1.35613259,,,
imu,99.620455,0.6609588440000002,-10.0226483168,1.8668348888,-11.16291916,2.87062343,1.42342478,,,
imu,98.839728,,,,,,,81.4586348,-26.26382120000002,124.312036
imu,98.941321,,,,,,,84.0465612,-26.67886600000002,121.1259568
imu,99.042762,,,,,,,81.1900764,-26.00747000000001,124.067892
imu,99.144507,,,,,,,80.84827480000001,-26.56900120000001,123.9091984
imu,99.245856,,,,,,,80.51868040000001,-26.63003720000001,123.1645592
imu,99.347419,,,,,,,80.3355724,-26.34927160000002,122.9570368
imu,99.448981,,,,,,,80.7262028,-26.48355080000002,123.0058656
imu,99.550574,,,,,,,81.8858868,-25.39711000000002,122.7006856
