Type,Timestamp,Data Accelerometer X,Data Accelerometer Y,Data Accelerometer Z,Data Gyroscope X,Data Gyroscope Y,Data Gyroscope Z,Data Magnetometer X,Data Magnetometer Y,Data Magnetometer Z
imu,145.208427,-0.3983697648000001,-9.840809865600002,0.7907580016000001,-0.16438455,1.02382666,-2.92813684,,,
imu,145.216841,-0.3893974728000001,-9.8228652816,0.7841783208,-0.17186146,1.21074941,-2.91318302,,,
imu,145.225255,-0.3899956256000001,-9.8168837536,0.7883653904000001,-0.08213854000000001,1.55468727,-2.8234601,,,
imu,145.233669,-0.3786307224000001,-9.802528086400002,0.7752060288000001,0.07487657,2.06311715,-2.81598319,,,
imu,145.242083,-0.370854736,-9.780396432800002,0.7608503616000001,0.18703022,2.24256299,-2.91318302,,,
imu,145.250497,-0.3505175408000001,-9.751685098400001,0.7530743752000001,0.38142988,2.6238854,-2.748691,,,
imu,145.258911,-0.3427415544,-9.7636481544,0.7369242496000001,0.76275229,2.8481927,-2.58419898,,,
imu,145.267325,-0.3241988176,-9.776209363200001,0.726755652,0.94219813,3.02016163,-2.55429134,,,
imu,145.275739,-0.3068523864000001,-9.7702278352,0.7016332344,1.24127453,3.31176112,-2.57672207,,,
imu,145.284153,-0.2685706072,-9.765442612800001,0.7022313872,1.54035093,3.49868387,-2.61410662,,,
imu,145.292567,-0.2781410520000001,-9.7923594888,0.7094092208000001,1.99644244,3.35662258,-2.72626027,,,
imu,145.301406,-0.2518223288000001,-9.800733628000001,0.6795015808000001,2.01887317,3.09493073,-3.15992105,,,
imu,145.310246,-0.2374666616,-9.803126239200001,0.6765108168000001,2.09364227,2.91548489,-3.56367419,,,
imu,145.319085,-0.2500278704,-9.834828337600001,0.6860812616,2.39271867,2.61640849,-3.82536604,,,
imu,145.327925,-0.2374666616,-9.8617452136,0.684884956,2.59459524,2.35471664,-3.90761205,,,
imu,145.336764,-0.2446444952,-9.880886103200002,0.6711274416,2.75908726,2.1005017,-3.83284295,,,
imu,145.345604,-0.257205704,-9.9305327856,0.6753145112000001,2.9385331,1.86871749,-3.57862801,,,
imu,145.354443,-0.2799355104,-9.950869980800002,0.6795015808000001,2.998348379999999,1.68927165,-3.35432071,,,
imu,145.363192,-0.2745521352,-9.942495841600001,0.6789034280000001,2.60207215,1.47244126,-3.06272122,,,
imu,145.372031,-0.287113344,-9.956851508800002,0.6711274416,2.48244159,1.53973345,-2.71878336,,,
imu,145.380871,-0.2907022608000001,-9.957449661600002,0.6621551496,2.21327283,1.40514907,-2.51690679,,,
imu,145.38971,-0.2936930248,-9.937710619200002,0.6466031768,2.10111918,1.29299542,-2.53933752,,,
imu,145.39855,-0.3068523864000001,-9.868923047200001,0.6388271904000001,1.91419643,1.36776452,-2.50942988,,,
imu,145.407389,-0.3104413032000001,-9.8563618384,0.6424161072,1.83942733,1.30794924,-2.6739219,,,
imu,145.416228,-0.2954874832,-9.834828337600001,0.6154992312,1.55530475,1.21822632,-2.80850628,,,
imu,145.425068,-0.2895059552,-9.839015407200002,0.6125084672000001,1.67493531,1.21074941,-2.86084465,,,
imu,145.433907,-0.3056560808,-9.822267128800002,0.6023398696000001,1.83195042,1.25561087,-2.91318302,,,
imu,145.442747,-0.3128339144,-9.824659740000001,0.5891805080000001,1.89924261,1.2780416,-2.92813684,,,
imu,145.451586,-0.3116376088,-9.8234634344,0.5927694248,1.95905789,1.29299542,-2.87579847,,,
imu,145.460426,-0.3271895816000001,-9.844398782400003,0.5951620360000001,1.98148862,1.36028761,-2.85336774,,,
imu,145.469265,-0.3158246784000001,-9.8264541984,0.5742266880000001,2.21327283,1.51730272,-2.72626027,,,
imu,145.478105,-0.3008708584000001,-9.8228652816,0.5903768136,2.30299575,1.68179474,-2.80102937,,,
imu,145.486944,-0.3020671640000001,-9.811500378400002,0.5879842024,2.36281103,1.78647148,-2.83841392,,,
imu,145.495784,-0.2990764,-9.8061170032,0.5861897440000001,2.407672489999999,1.81637912,-2.91318302,,,
imu,145.504237,-0.305057928,-9.834230184800003,0.5999472584000001,2.54973378,1.93600968,-2.96552139,,,
imu,145.512691,-0.2948893304,-9.866530436000001,0.5981528,2.55721069,2.06311715,-2.98047521,,,
imu,145.521144,-0.2847207328,-9.857558144000002,0.5784137576,2.51982614,2.22013226,-2.95056757,,,
imu,145.529597,-0.2936930248,-9.8647359776,0.5879842024,2.53477996,2.23508608,-3.07767504,,,
imu,145.538051,-0.28412258,-9.896438076,0.6053306336000001,2.6394567,2.35471664,-2.95056757,,,
imu,145.546504,-0.2745521352,-9.914382660000001,0.5921712720000001,2.75161035,2.42200883,-2.8234601,,,
imu,145.554957,-0.2697669128,-9.937112466400002,0.5921712720000001,2.57216451,2.60893158,-2.75616791,,,
imu,145.563411,-0.257205704,-9.931130938400003,0.5957601888000001,2.37028794,2.78090051,-2.69635263,,,
imu,145.571864,-0.251224176,-9.9299346328,0.6083213976,2.28804193,2.93791562,-2.86832156,,,
imu,145.580318,-0.2595983152,-9.905410368000002,0.5987509528,2.19831901,2.9977309,-2.91318302,,,
imu,145.588771,-0.2434481896,-9.901821451200002,0.5963583416000001,1.98148862,3.1472691,-2.93561375,,,
imu,145.597224,-0.2159331608,-9.904214062400001,0.5879842024,2.01887317,3.19960747,-2.78607555,,,
imu,145.605678,-0.2009793408,-9.925149410400001,0.5784137576,2.01139626,3.13231528,-3.14496723,,,
imu,145.614131,-0.2021756464,-9.9078029792,0.5742266880000001,1.99644244,2.98277708,-3.50385891,,,
imu,145.622584,-0.200381188,-9.903615909600001,0.5640580904000001,2.07868845,2.91548489,-3.50385891,,,
imu,145.631038,-0.1896144376,-9.896438076,0.5425245896,2.03382699,2.67622377,-3.69078166,,,
imu,145.639491,-0.1710717008,-9.8850731728,0.5239818528000001,2.05625772,2.51920866,-3.66835093,,,
imu,145.647944,-0.158510492,-9.8820824088,0.5090280328000001,2.40019558,2.27994754,-3.7206893,,,
imu,145.656398,-0.1603049504,-9.869521200000003,0.490485296,2.68431816,2.04068642,-3.95995042,,,
imu,145.664851,-0.1746606176,-9.859950755200002,0.4779240872000001,2.90862546,1.64441019,-4.29641137,,,
imu,145.673305,-0.1782495344,-9.8629415192,0.4366515440000001,3.23013259,1.09111885,-4.737549059999999,,,
imu,145.681758,-0.1932033544,-9.8719138112,0.4085383624000001,3.50677826,0.3733354899999997,-5.1413022,,,
imu,145.690211,-0.1985867296,-9.8749045752,0.4019586816,3.7609932,-0.3594016900000003,-5.68711663,,,
imu,145.698665,-0.2344758976,-9.889858395200001,0.4073420568000001,3.86566994,-0.9725083100000003,-6.098346680000001,,,
imu,145.707132,-0.2787392048,-9.927542021600003,0.4312681688,3.70865483,-1.60804566,-6.360038530000001,,,
imu,145.715599,-0.3241988176,-10.0094889552,0.4647647256,3.28994787,-2.10899863,-6.06096213,,,
imu,145.724067,-0.35889168,-10.069902388,0.4982612824000001,2.66936434,-2.16881391,-5.41047096,,,
imu,145.732534,-0.3714528888,-10.0902395832,0.5317578392000001,1.77961205,-1.97441425,-4.70764142,,,
imu,145.741001,-0.3696584304000001,-10.0830617496,0.5574784096000001,0.8375213899999999,-1.67533785,-4.124442439999999,,,
imu,145.749469,-0.367863972,-10.0746876104,0.5628617848,-0.08961545,-1.27158471,-3.53376655,,,
imu,145.757936,-0.3666676664,-10.0507614984,0.5592728680000001,-0.83730645,-0.5164168,-2.8982292,,,
imu,145.766404,-0.3475267768,-10.0202557056,0.5754229936,-1.50275144,0.1864127399999997,-2.3748455,,,
imu,145.774871,-0.334965568,-10.0364058312,0.5975546472000001,-2.16071952,0.8294269999999999,-1.89632326,,,
imu,145.783338,-0.2733558296,-9.994535135200001,0.58319898,-2.69905704,1.62945637,-1.42527793,,,
imu,145.791806,-0.2356722032,-9.937710619200002,0.5963583416000001,-3.05794872,2.41453192,-1.38041647,,,
imu,145.800273,-0.2021756464,-9.894045464800001,0.6172936896000001,-3.10281018,2.97530017,-1.31312428,,,
imu,145.80874,-0.1758569232,-9.890456548000001,0.6053306336000001,-3.0429949,3.43886859,-1.45518557,,,
imu,145.817208,-0.155519728,-9.887465784000002,0.6077232448000001,-2.97570271,4.09683667,-1.66453905,,,
imu,145.825675,-0.1208268656,-9.879689797600001,0.6149010784000001,-2.91588743,4.54545127,-1.99352309,,,
imu,145.834142,-0.08972292000000001,-9.885671325600002,0.646005024,-2.67662631,4.9417275,-2.49447606,,,
imu,145.84261,-0.0592171272,-9.900625145600001,0.6609588440000002,-2.71401086,5.21089626,-3.10758268,,,
imu,145.851077,-0.0406743904,-9.8982325344,0.6711274416,-2.87102597,5.43520356,-3.52628964,,,
imu,145.859544,-0.0131593616,-9.887465784000002,0.6842868032,-2.84111833,5.59969558,-3.9449966,,,
imu,145.868012,0.007177833600000002,-9.85456738,0.6777071224000001,-2.83364142,5.55483412,-4.70764142,,,
imu,145.876479,0.011963056,-9.8300431152,0.6597625384000001,-2.92336434,5.3903421,-5.350655679999999,,,
imu,145.884947,0.0113649032,-9.7989391696,0.6495939408000001,-2.81121069,4.98658896,-5.8889932,,,
imu,145.893414,0.008972292000000002,-9.769629682400002,0.6376308848000001,-2.5943803,4.42582071,-6.61425347,,,
imu,145.901881,-0.004785222400000001,-9.7636481544,0.6262659816,-2.18315025,3.90991392,-7.34699065,,,
imu,145.910453,-0.0155519728,-9.741516500800001,0.6089195504,-1.76444329,3.28185348,-7.952620359999999,,,
imu,145.919025,-0.05443190480000001,-9.7534795568,0.6166955368000001,-1.41302852,2.65379304,-8.281604399999999,,,
imu,145.927596,-0.1118545736,-9.794153947200002,0.6376308848000001,-1.06909066,2.15284007,-8.44609642,,,
imu,145.936168,-0.1609031032,-9.837220948800002,0.6358364264000002,-0.93450628,1.63693328,-8.53581934,,,
imu,145.944739,-0.1938015072,-9.855763685600001,0.62806044,-0.93450628,1.12102649,-8.47600406,,,
imu,145.953311,-0.2500278704,-9.8432024768,0.6089195504,-0.874691,0.7322271699999998,-8.37880423,,,
imu,145.961883,-0.2907022608000001,-9.8079114616,0.6005454112,-1.10647521,0.5079198699999998,-8.042343279999999,,,
imu,145.970454,-0.3271895816000001,-9.786976113600002,0.5897786608000001,-0.93450628,0.2686587499999997,-7.451667389999999,,,
imu,145.979026,-0.3517138464,-9.812098531200002,0.5957601888000001,-0.7401066199999999,0.1041667299999998,-6.80117622,,,
imu,145.987598,-0.3630787496,-9.8270523512,0.6005454112,-0.68776825,-0.08275602000000015,-6.51705364,,,
imu,145.996169,-0.3822196392,-9.836622796,0.6160973840000001,-0.5681376899999999,-0.3294940500000001,-6.54696128,,,
imu,146.004741,-0.3959771536000001,-9.873708269600002,0.6274622872000001,-0.51579932,-0.6659550000000003,-6.883422229999999,,,
imu,146.013312,-0.4354552384000001,-9.900625145600001,0.6304530512000001,-0.62047606,-0.9126930300000002,-7.00305279,,,
imu,146.021884,-0.4761296288000001,-9.941299536000002,0.6250696760000001,-0.69524516,-1.07718505,-6.80117622,,,
imu,146.030456,-0.481513004,-9.985562843200002,0.646005024,-0.7999219,-1.03232359,-6.24040797,,,
imu,146.039027,-0.4528016696000001,-10.0112834136,0.6525847048000001,-1.04665993,-0.9949390400000002,-5.92637775,,,
imu,146.047599,-0.4767277816000001,-10.0082926496,0.6597625384000001,-1.19619813,-0.8454008399999999,-5.57496298,,,
imu,146.05617,-0.4827093096,-10.0154704832,0.6657440664000001,-1.62985891,-0.80053938,-5.38056332,,,
imu,146.064742,-0.4791203928000001,-9.9999185104,0.6759126640000002,-1.82425857,-0.82297011,-4.976810179999999,,,
imu,146.073314,-0.472540712,-9.986759148800001,0.6783052752000002,-1.92893531,-0.6061397200000003,-4.61044159,,,
imu,146.081885,-0.4689517952000001,-9.950869980800002,0.6687348304,-2.10090424,-0.4865091600000002,-4.386134289999999,,,
imu,146.090457,-0.4486146000000001,-9.908999284800002,0.6753145112000001,-2.2953039,-0.5089398900000002,-4.5431494,,,
imu,146.099029,-0.4539979752000001,-9.887465784000002,0.6836886504,-2.40745755,-0.5238937100000003,-4.647826139999999,,,
imu,146.1076,-0.4617739616000001,-9.856959991200002,0.6902683312000001,-2.60933412,-0.5089398900000002,-4.79736434,,,
imu,146.116312,-0.4677554896000001,-9.834230184800003,0.6830904976000001,-2.61681103,-0.39678624,-4.58053395,,,
imu,146.125024,-0.4683536424000001,-9.807313308800001,0.6866794144,-2.65419558,-0.1949096699999999,-4.33379592,,,
imu,146.133737,-0.4647647256,-9.8013317808,0.6914646368,-2.52708811,-0.0603252900000002,-4.079580979999999,,,
imu,146.142449,-0.472540712,-9.802528086400002,0.7129981376000001,-2.48970356,0.1490281899999997,-3.72816621,,,
imu,146.151161,-0.4677554896000001,-9.805518850400002,0.7219704296,-2.40745755,0.3957662200000001,-3.3468438,,,
imu,146.159873,-0.4707462536000001,-9.8049206976,0.7243630408,-2.16819643,0.6724118899999998,-3.16739796,,,
imu,146.168585,-0.4683536424000001,-9.8061170032,0.7387187080000002,-2.04108896,1.07616503,-2.83093701,,,
imu,146.177297,-0.4749333232000001,-9.810304072800001,0.7614485144,-1.7719202,1.45748744,-2.6739219,,,
imu,146.186009,-0.4749333232000001,-9.825856045600002,0.7740097232000002,-1.622382,1.91357895,-2.41223005,,,
imu,146.194721,-0.4671573368000001,-9.838417254400001,0.7883653904000001,-1.41302852,2.30985518,-2.23278421,,,
imu,146.203433,-0.4522035168,-9.844996935200001,0.7907580016000001,-1.42798234,2.82576197,-2.32250713,,,
imu,146.212146,-0.4360533912000001,-9.8479876992,0.8051136688,-1.31582869,3.27437657,-2.47204533,,,
imu,146.220858,-0.4282774048000001,-9.875502728,0.8188711832000002,-1.48779762,3.81271409,-2.748691,,,
imu,146.22957,-0.4085383624000001,-9.894045464800001,0.8248527112,-1.4728438,4.149175039999999,-2.90570611,,,
imu,146.238282,-0.4001642232,-9.903615909600001,0.8344231560000002,-1.45041307,4.4931129,-3.17487487,,,
imu,146.246994,-0.3654713608,-9.911990048800002,0.8481806704000001,-1.50275144,4.8669584,-3.36179762,,,
imu,146.255706,-0.3517138464,-9.937710619200002,0.8697141712000002,-1.61490509,5.158557889999999,-3.41413599,,,
imu,146.264418,-0.3212080536,-9.9401032304,0.8798827688,-1.71958183,5.27071154,-3.36179762,,,
imu,146.27313,-0.3068523864000001,-9.9197660352,0.8691160184000001,-1.93641222,5.3903421,-3.39170526,,,
imu,146.281842,-0.2978800944000001,-9.905410368000002,0.8834716856000001,-2.01865823,5.38286519,-3.59358183,,,
imu,146.290554,-0.2954874832,-9.869521200000003,0.8924439776000002,-2.13828879,5.308096089999999,-3.48890509,,,
imu,146.299267,-0.2823281216,-9.853371074400002,0.8972292000000002,-2.19062716,5.397819009999999,-3.29450543,,,
imu,146.307979,-0.2578038568000001,-9.8647359776,0.9133793256000001,-2.15324261,5.38286519,-3.05524431,,,
imu,146.316445,-0.2488315648,-9.8527729216,0.9163700896000002,-2.13081188,5.21089626,-3.20478251,,,
imu,146.324911,-0.2494297176,-9.8300431152,0.9038088808000001,-2.04108896,4.95668132,-3.21225942,,,
imu,146.333377,-0.2416537312,-9.797144711200001,0.9091922560000001,-1.89155076,4.7921893,-3.1973056,,,
imu,146.341843,-0.2326814392,-9.777405668800002,0.9139774784000001,-1.70462801,4.478159079999999,-3.23469015,,,
imu,146.350309,-0.2578038568000001,-9.752881404000002,0.9038088808000001,-1.41302852,4.26132869,-3.24964397,,,
imu,146.358775,-0.2607946208,-9.743909112,0.8972292000000002,-0.94198319,4.09683667,-3.27955161,,,
imu,146.367241,-0.2625890792,-9.7193848472,0.8990236584000001,-0.50832241,3.86505246,-3.38422835,,,
imu,146.375707,-0.2709632184,-9.709814402400001,0.903210728,-0.13447691,3.7454219,-3.33936689,,,
imu,146.384173,-0.2697669128,-9.725964528,0.9067996448000001,0.22441477,3.63326825,-3.18235178,,,
imu,146.39264,-0.2883096496000001,-9.749890640000002,0.8858642968000001,0.80761375,3.40148404,-3.1973056,,,
imu,146.401106,-0.296085636,-9.797742864000002,0.8739012408000001,1.09921324,3.13231528,-3.46647436,,,
imu,146.409572,-0.3008708584000001,-9.797742864000002,0.8906495192000001,1.2936129,2.86314652,-3.71321239,,,
imu,146.418038,-0.3080486920000001,-9.8049206976,0.8691160184000001,1.40576655,2.51920866,-3.85527368,,,
imu,146.426504,-0.3152265256,-9.83961356,0.8685178656000001,1.61512003,2.3995781,-3.87770441,,,
imu,146.43497,-0.3271895816000001,-9.8593526024,0.8637326432000001,1.65250458,2.15284007,-4.04967334,,,
imu,146.443436,-0.331974804,-9.8581562968,0.8715086296000001,1.69736604,1.96591732,-4.00481188,,,
imu,146.451902,-0.3397507904000001,-9.897036228800001,0.8864624496000001,1.71231986,1.88367131,-3.7954584,,,
imu,146.460267,-0.3445360128,-9.935318008000001,0.8721067824000002,1.68988913,1.89862513,-3.44404363,,,
imu,146.468733,-0.3457323184,-9.940701383200002,0.8685178656000001,1.47305874,1.89862513,-3.20478251,,,
imu,146.477199,-0.3606861384,-9.9365143136,0.8649289488,1.28613599,2.11545552,-2.86832156,,,
imu,146.485665,-0.3553027632,-9.920364188,0.8661252544000001,1.09173633,2.22760917,-2.65896808,,,
imu,146.494131,-0.3493212352000001,-9.9048122152,0.8398065312,0.9347212199999999,2.43696265,-2.43466078,,,
imu,146.502597,-0.3523119992,-9.9000269928,0.8338250032000001,0.65059864,2.65379304,-2.50942988,,,
imu,146.511063,-0.3553027632,-9.875502728,0.8362176144000002,0.65059864,2.85566961,-2.61410662,,,
imu,146.519538,-0.3379563320000001,-9.874306422400002,0.8290397808000001,0.6281679099999999,3.28933039,-2.66644499,,,
imu,146.528013,-0.3355637208,-9.901821451200002,0.8398065312,0.31413769,3.49868387,-2.87579847,,,
imu,146.536488,-0.3361618736,-9.903615909600001,0.8230582528,0.3739529699999999,3.82766791,-2.91318302,,,
imu,146.544963,-0.3092449976000001,-9.894045464800001,0.8296379336000002,0.29170696,3.85009864,-3.32441307,,,
imu,146.553438,-0.2847207328,-9.867726741600002,0.8194693360000002,0.30666078,4.14169813,-3.496382,,,
imu,146.561913,-0.2673743016,-9.851576616000001,0.8051136688,0.28423005,4.410866889999999,-3.54124346,,,
imu,146.570388,-0.2595983152,-9.844996935200001,0.7985339880000002,0.2468455,4.59031273,-3.52628964,,,
imu,146.578863,-0.2356722032,-9.8916528536,0.8110951968000001,0.23189168,4.56040509,-3.496382,,,
imu,146.587338,-0.2129423968,-9.932327244000001,0.8176748776000001,0.30666078,4.388436159999999,-3.22721324,,,
imu,145.284371,,,,,,,84.46160600000002,-27.7286852,125.0078464
imu,145.385933,,,,,,,85.7311548,-28.3512524,125.0688824
imu,145.487649,,,,,,,84.42498439999999,-28.11931560000001,125.0566752
imu,145.589058,,,,,,,86.3781364,-28.64422520000001,123.33546
imu,145.690652,,,,,,,83.912282,-28.11931560000001,125.1787472
imu,145.792183,,,,,,,86.3781364,-28.72967560000001,122.5053704
imu,145.893868,,,,,,,84.13201160000001,-27.74089240000002,124.9468104
imu,146.595813,-0.2021756464,-9.925747563200002,0.8033192104000001,0.05244583999999999,4.25385178,-3.10758268,,,
imu,146.604288,-0.1890162848,-9.9131863544,0.8122915024000001,-0.07466163,4.02954448,-3.02533667,,,
imu,146.612763,-0.1758569232,-9.8850731728,0.8081044328000001,-0.02232326000000001,3.86505246,-2.94309066,,,
imu,146.621238,-0.1716698536,-9.8467913936,0.8254508640000001,-0.2765382,3.5211146,-2.92065993,,,
imu,146.629713,-0.1656883256,-9.802528086400002,0.8093007384,-0.44850713,3.16969983,-2.86832156,,,
imu,146.638188,-0.1812402984,-9.801929933600002,0.8081044328000001,-0.46346095,2.95286944,-2.89075229,,,
imu,146.646663,-0.19439966,-9.798341016800002,0.8027210576,-0.79244499,2.59397776,-3.07019813,,,
imu,146.655138,-0.2249054528,-9.7989391696,0.8057118216000001,-0.92702937,2.46687029,-3.30945925,,,
imu,146.663613,-0.2249054528,-9.820472670400001,0.8200674888,-1.00927538,2.39210119,-3.33936689,,,
imu,146.672088,-0.230288828,-9.845595088000001,0.8158804192000001,-1.10647521,2.33228591,-3.45152054,,,
imu,146.680563,-0.2446444952,-9.8647359776,0.8206656416,-1.0989983,2.21265535,-3.67582784,,,
imu,146.689038,-0.2643835376,-9.899428840000002,0.8344231560000002,-1.09152139,2.31733209,-3.8702275,,,
imu,146.697513,-0.2613927736,-9.911391896000003,0.8374139200000001,-1.29339796,2.28742445,-4.26650373,,,
imu,146.705988,-0.2595983152,-9.959842272800001,0.8625363376,-1.57752054,2.324809,-4.5431494,,,
imu,146.714463,-0.2715613712,-10.0124797192,0.8900513664000002,-1.83173548,2.28742445,-4.87213344,,,
imu,146.722944,-0.2775428992,-10.0035074272,0.8888550608000001,-2.06351969,2.33976282,-5.0665331,,,
imu,146.731425,-0.2787392048,-9.9819739264,0.9073977976000001,-2.46727283,2.324809,-5.20859439,,,
imu,146.739907,-0.281131816,-9.959244120000001,0.9127811728000002,-2.70653395,2.34723973,-5.33570186,,,
imu,146.748388,-0.2954874832,-9.960440425600002,0.9175663952000002,-2.84111833,2.59397776,-5.42542478,,,
imu,146.756869,-0.2996745528,-9.9401032304,0.9056033392000001,-3.01308726,2.52668557,-5.2908404,,,
imu,146.765351,-0.2793373576,-9.908401132000002,0.9199590064000001,-3.12524091,2.48930102,-5.350655679999999,,,
imu,146.773832,-0.2769447464000001,-9.880287950400001,0.9307257568000001,-2.90841052,2.51173175,-5.29831731,,,
imu,146.782313,-0.2859170384,-9.85456738,0.9181645480000001,-2.75139541,2.38462428,-5.44785551,,,
imu,146.790795,-0.3038616224,-9.825856045600002,0.8912476720000001,-2.62428794,2.26499372,-5.350655679999999,,,
imu,146.799276,-0.3068523864000001,-9.822267128800002,0.9062014920000001,-2.60185721,2.10797861,-5.20111748,,,
imu,146.807758,-0.2948893304,-9.8228652816,0.9044070336000001,-2.52708811,2.03320951,-5.02914855,,,
imu,146.816239,-0.3134320672,-9.8049206976,0.9014162696000001,-2.21305789,2.05564024,-4.625395409999999,,,
imu,146.82472,-0.3098431504,-9.8061170032,0.9109867144000001,-1.95136604,1.89862513,-4.32631901,,,
imu,146.833202,-0.3116376088,-9.7953502528,0.8996218112000001,-2.09342733,1.8014253,-4.08705789,,,
imu,146.841683,-0.3128339144,-9.776807516000002,0.9062014920000001,-2.09342733,1.74908693,-3.93004278,,,
imu,146.850164,-0.3331711096,-9.797742864000002,0.9133793256000001,-2.15324261,1.68179474,-3.85527368,,,
imu,146.858646,-0.3337692624,-9.820472670400001,0.9097904088000002,-2.16071952,1.74161002,-3.66087402,,,
imu,146.867127,-0.3337692624,-9.852174768800001,0.9235479232000001,-2.370073,1.82385603,-3.7954584,,,
imu,146.875608,-0.3337692624,-9.879689797600001,0.9217534648000001,-2.39250373,1.85376367,-3.82536604,,,
imu,146.88409,-0.3337692624,-9.9012232984,0.9379035904000002,-2.53456502,1.99582496,-3.7206893,,,
imu,146.892571,-0.3253951232,-9.934719855200001,0.9468758824000001,-2.49718047,2.1005017,-3.78050458,,,
imu,146.901052,-0.3259932760000001,-9.966421953600003,0.9612315496000001,-2.69905704,2.1005017,-3.81041222,,,
imu,146.909534,-0.3176191368,-9.999320357600002,0.9749890640000002,-2.90841052,2.31733209,-3.90761205,,,
imu,146.918015,-0.3146283728000001,-10.0142741776,0.9887465784000001,-3.2673022,2.36967046,-4.04219643,,,
imu,146.926448,-0.3164228312,-10.0154704832,1.00190594,-3.55142478,2.22013226,-4.06462716,,,
imu,146.934881,-0.3104413032000001,-10.007096344,1.013868996,-4.00751629,2.30237827,-4.18425772,,,
imu,146.943314,-0.3134320672,-10.0166667888,1.0270283576,-4.38136179,2.29490136,-4.26650373,,,
imu,146.951747,-0.3056560808,-9.993936982400001,1.0210468296,-4.74025347,2.20517844,-4.40108811,,,
imu,146.96018,-0.3086468448,-9.968216412,1.0204486768,-4.94960695,2.19022462,-4.50576485,,,
imu,146.968613,-0.3128339144,-9.954458897600002,1.0413840248,-5.054283689999999,2.01077878,-4.42351884,,,
imu,146.977046,-0.3086468448,-9.943692147200002,1.0413840248,-5.14400661,1.89114822,-4.52071867,,,
imu,146.985479,-0.3146283728000001,-9.954458897600002,1.037795108,-5.15896043,1.86871749,-4.28893446,,,
imu,146.993912,-0.3176191368,-9.952664439200001,1.0515526224,-5.39822155,1.64441019,-4.0945348,,,
imu,147.002345,-0.3313766512,-9.956851508800002,1.0653101368,-5.68982104,1.56964109,-3.87770441,,,
imu,147.010778,-0.3379563320000001,-9.9496736752,1.0760768872,-5.89169761,1.42010289,-3.72816621,,,
imu,147.019211,-0.3451341656,-9.9329253968,1.0958159296,-6.108528,1.53225654,-3.54872037,,,
imu,147.027644,-0.3511156936,-9.8982325344,1.1017974576,-6.430035129999999,1.577118,-3.36927453,,,
imu,147.036077,-0.3576953744,-9.879689797600001,1.1215365,-6.714157709999999,1.53225654,-3.14496723,,,
imu,147.04451,-0.3582935272000001,-9.859950755200002,1.1263217224,-7.185203039999999,1.45001053,-3.08515195,,,
imu,147.052943,-0.3834159448,-9.842006171200001,1.1352940144,-7.304833599999999,1.50982581,-2.95804448,,,
imu,147.061376,-0.3786307224000001,-9.834230184800003,1.1556312096,-7.207633769999999,1.7266562,-2.75616791,,,
imu,147.069809,-0.3780325696000001,-9.822267128800002,1.1825480856,-7.304833599999999,1.85376367,-2.62158353,,,
imu,147.078242,-0.3738455000000001,-9.833632032,1.2088668088,-7.31231051,1.99582496,-2.56924516,,,
imu,147.086675,-0.3666676664,-9.855763685600001,1.229204004,-7.20015686,2.22760917,-2.64401426,,,
imu,147.095109,-0.3786307224000001,-9.8330338792,1.244157824,-7.065572479999999,2.5491163,-2.61410662,,,
imu,147.103542,-0.3559009160000001,-9.810304072800001,1.2734673112,-7.05061866,2.81080815,-2.54681443,,,
imu,147.111975,-0.3445360128,-9.824659740000001,1.3081601736,-6.968372649999999,3.02016163,-2.53933752,,,
imu,147.120408,-0.3218062064,-9.8210708232,1.3123472432,-6.60200406,3.1472691,-2.51690679,,,
imu,147.129227,-0.2972819416,-9.800733628000001,1.3213195352,-6.25058929,3.13231528,-2.63653735,,,
imu,147.138047,-0.2781410520000001,-9.769031529600001,1.3643865368,-6.22068165,3.18465365,-3.05524431,,,
imu,147.146866,-0.2590001624000001,-9.772022293600001,1.4098461496,-6.048712719999999,3.03511545,-3.33936689,,,
imu,147.155686,-0.2518223288000001,-9.785181655200002,1.4164258304,-5.89917452,2.6986545,-3.75807385,,,
imu,147.164505,-0.230288828,-9.745703570400002,1.4182202888,-5.794497779999999,2.33976282,-3.89265823,,,
imu,147.173325,-0.248233412,-9.710412555200001,1.4367630256,-5.577667389999999,2.26499372,-3.90013514,,,
imu,147.182145,-0.248233412,-9.689477207200001,1.45052054,-5.248683349999999,2.16031698,-3.69825857,,,
imu,147.190964,-0.248233412,-9.706225485600001,1.4816244856,-4.88231476,2.08554788,-3.38422835,,,
imu,147.199784,-0.2584020096,-9.7283571392,1.4995690696,-4.69539201,2.07807097,-3.03281358,,,
imu,147.208603,-0.2446444952,-9.735534972800002,1.5240933344,-4.560807629999999,2.16779389,-2.81598319,,,
imu,147.217423,-0.2308869808,-9.728955292000002,1.5444305296,-4.34397724,2.45191647,-2.56176825,,,
imu,147.226243,-0.233279592,-9.718188541600002,1.5701511,-4.09723921,2.66874686,-2.46456842,,,
imu,147.235062,-0.2326814392,-9.704431027200002,1.5827123088,-4.03742393,2.86314652,-2.64401426,,,
imu,147.243882,-0.2195220776,-9.699047652,1.5839086144,-3.91779337,3.12483837,-2.91318302,,,
imu,147.252701,-0.1926052016,-9.704431027200002,1.588095684,-3.55890169,3.25194584,-3.2720747,,,
imu,147.261521,-0.1818384512,-9.708019944000002,1.5815160032,-3.21496383,3.31923803,-3.7206893,,,
imu,147.27034,-0.173464312,-9.680504915200002,1.5749363224,-2.72896468,3.32671494,-4.102011709999999,,,
imu,147.27916,-0.1662864784,-9.6733270816,1.5653658776,-2.15324261,3.13231528,-4.386134289999999,,,
imu,147.28798,-0.158510492,-9.675121540000001,1.552206516,-1.59995127,3.09493073,-4.58801086,,,
imu,147.296799,-0.161501256,-9.669738164800002,1.5360563904,-0.81487572,3.09493073,-4.692687599999999,,,
imu,147.305619,-0.185427368,-9.669738164800002,1.5540009744,-0.18681528,2.78837742,-4.85717962,,,
imu,147.314438,-0.200381188,-9.700243957600001,1.5617769608,0.44872207,2.57902394,-4.92447181,,,
imu,147.323258,-0.2075590216,-9.722375611200002,1.5426360712,1.09921324,2.39210119,-4.81231816,,,
imu,147.331732,-0.200381188,-9.7474980288,1.54024346,1.53287402,2.04068642,-4.887087259999999,,,
imu,147.340205,-0.2284943696,-9.766638918400002,1.519308112,1.86185806,1.79394839,-5.03662546,,,
imu,147.348679,-0.2494297176,-9.7809945856,1.4929893888,2.15345755,1.45001053,-5.23102512,,,
imu,147.357153,-0.272159524,-9.803126239200001,1.5037561392,2.25065738,1.21822632,-5.05905619,,,
imu,147.365626,-0.2787392048,-9.825856045600002,1.489400472,2.3403803,1.00139593,-5.07401001,,,
imu,147.3741,-0.2942911776,-9.857558144000002,1.471455888,2.50487232,0.72475026,-5.1413022,,,
imu,147.382574,-0.3068523864000001,-9.891054700800002,1.4822226384,2.48244159,0.5752120599999997,-5.216071299999999,,,
imu,147.391048,-0.3271895816000001,-9.898830687200002,1.4732503464,2.28804193,0.41819695,-5.216071299999999,,,
imu,147.399521,-0.3511156936,-9.897036228800001,1.459492832,2.19831901,0.1265974599999997,-5.13382529,,,
imu,147.407995,-0.3660695136000001,-9.902419604000002,1.4648762072,1.77213514,0.01444380999999995,-5.1413022,,,
imu,145.995278,,,,,,,83.668138,-27.81413560000001,125.2641976
imu,146.09684,,,,,,,83.851246,-27.89958600000002,124.55618
imu,146.198403,,,,,,,83.7413812,-28.14373000000001,124.5195584
imu,146.299965,,,,,,,83.71696680000001,-27.167154,125.3130264
imu,146.403634,,,,,,,83.9855252,-27.48454120000001,125.1299184
imu,146.503121,,,,,,,84.9621012,-27.11832520000002,124.5073512
imu,146.605538,,,,,,,83.41178680000002,-27.22819000000001,124.2876216
imu,146.706399,,,,,,,85.499218,-27.4601268,121.626452
imu,147.416469,-0.3876030144000001,-9.914980812800001,1.4559039152,1.30108981,-0.1051867500000001,-5.0665331,,,
imu,147.424942,-0.4055475984,-9.911990048800002,1.4463334704,1.03939796,-0.1650020300000001,-4.94690254,,,
imu,147.433416,-0.4019586816,-9.897036228800001,1.4481279288,0.68050628,-0.17247894,-4.909517989999999,,,
imu,147.44189,-0.4145198904,-9.8629415192,1.4403519424,0.49358353,-0.1575251200000003,-4.78241052,,,
imu,147.450364,-0.4127254320000001,-9.8294449624,1.4499223872,0.22441477,-0.1575251200000003,-4.5431494,,,
imu,147.458837,-0.4234921824,-9.855165532800001,1.4732503464,-0.06718472,-0.1276174800000001,-4.46090339,,,
imu,147.467311,-0.4199032656,-9.8713156584,1.4732503464,-0.38869185,-0.007986920000000008,-4.44594957,,,
imu,147.475785,-0.4366515440000001,-9.8653341304,1.4690632768,-0.67281443,-0.05284837999999992,-4.453426479999999,,,
imu,147.484258,-0.4420349192,-9.828846809600002,1.4702595824,-1.10647521,-0.1575251200000003,-4.49081103,,,
imu,147.492732,-0.454596128,-9.802528086400002,1.4947838472,-1.38312088,0.006966899999999665,-4.40108811,,,
imu,147.501206,-0.4569887392,-9.798341016800002,1.4840170968,-1.38312088,0.1191205499999999,-4.16182699,,,
imu,147.50968,-0.4492127528000001,-9.789966877600001,1.4828207912,-1.33078251,0.5079198699999998,-3.73564312,,,
imu,147.518153,-0.439642308,-9.7845835024,1.4971764584,-1.2485365,0.7546578999999998,-3.37675144,,,
imu,147.526627,-0.4276792520000001,-9.780396432800002,1.5001672224,-0.9494601,1.01634975,-3.09262886,,,
imu,147.535089,-0.4282774048000001,-9.766638918400002,1.5061487504,-0.66533752,1.2032725,-3.01038285,,,
imu,147.543552,-0.4181088072000001,-9.765442612800001,1.5109339728,-0.44103022,1.40514907,-2.91318302,,,
imu,147.552033,-0.4258847936,-9.775611210400001,1.5234951816,-0.15690764,1.80890221,-2.84589083,,,
imu,147.560496,-0.4175106544000001,-9.803126239200001,1.5378508488,0.007584380000000002,1.86124058,-2.75616791,,,
imu,147.568958,-0.4073420568000001,-9.8043225448,1.5414397656,0.29170696,2.19022462,-2.5991528,,,
imu,147.57742,-0.3780325696000001,-9.802528086400002,1.5474212936,0.40386061,2.42948574,-2.60662971,,,
imu,147.585882,-0.3804251808,-9.803126239200001,1.5528046688,0.56835263,2.51920866,-2.56176825,,,
imu,147.594345,-0.3564990688,-9.808509614400002,1.5330656264,0.5982602699999999,2.60893158,-2.55429134,,,
imu,147.602807,-0.3451341656,-9.821668976000002,1.5593843496,0.58330645,2.63136231,-2.30755331,,,
imu,147.611269,-0.3469286240000001,-9.8270523512,1.5468231408,0.6954601,2.76594669,-2.001,,,
imu,147.619731,-0.3379563320000001,-9.8330338792,1.5456268352,0.64312173,2.87062343,-1.91875399,,,
imu,147.628194,-0.3265914288,-9.837819101600003,1.561178808,0.7253677399999999,2.88557725,-1.80660034,,,
imu,147.636656,-0.334965568,-9.819276364800002,1.5348600848,0.79265993,2.79585433,-1.74678506,,,
imu,147.645118,-0.3289840400000001,-9.8168837536,1.5474212936,0.81509066,3.01268472,-1.56733922,,,
imu,147.653581,-0.3313766512,-9.8061170032,1.5510102104,0.58330645,3.16222292,-1.48509321,,,
imu,147.662043,-0.3080486920000001,-9.8593526024,1.5677584888,0.57582954,3.36409949,-1.36546265,,,
imu,147.670505,-0.3068523864000001,-9.912588201600002,1.5701511,0.22441477,3.7454219,-1.22340136,,,
imu,147.678967,-0.3038616224,-9.889260242400002,1.5653658776,-0.29896893,3.92486774,-1.23835518,,,
imu,147.68743,-0.2847207328,-9.8749045752,1.5701511,-0.55318387,4.26132869,-1.31312428,,,
imu,147.695892,-0.257205704,-9.931130938400003,1.618003324,-0.9793677399999999,4.62769728,-1.43275484,,,
imu,147.704354,-0.2320832864,-10.0423873592,1.6413312832,-1.53265908,4.739850929999999,-1.67949287,,,
imu,147.712816,-0.1836329096,-10.1554382384,1.662864784,-2.31773463,4.7921893,-2.09072292,,,
imu,147.721279,-0.1471455888,-10.1572326968,1.6544906448,-3.2673022,4.65012801,-2.99542903,,,
imu,147.729741,-0.09211553120000002,-10.0824635968,1.632957144,-4.538376899999999,4.246374869999999,-4.49081103,,,
imu,147.738257,-0.05084298800000001,-9.925747563200002,1.6018531984,-5.63000576,3.70056044,-6.135731229999999,,,
imu,147.746772,-0.0346928624,-9.845595088000001,1.5874975312,-6.377696759999999,3.24446893,-7.646067049999999,,,
imu,147.755288,-0.023926112,-9.837220948800002,1.5868993784,-6.616957879999999,2.84071579,-8.48348097,,,
imu,147.763804,-0.0245242648,-9.820472670400001,1.579123392,-6.856218999999999,2.36219355,-8.872280289999999,,,
imu,147.772319,-0.0406743904,-9.803724392000001,1.594077212,-6.88612664,2.12293243,-9.00686467,,,
imu,147.780835,-0.068787572,-9.773816752000002,1.5749363224,-6.60948097,1.85376367,-8.90966484,,,
imu,147.789351,-0.09869521200000002,-9.685888290400001,1.5617769608,-6.15338946,1.79394839,-8.52834243,,,
imu,147.797866,-0.1321917688,-9.6505972752,1.5563935856,-5.42065228,1.55468727,-7.99000491,,,
imu,147.806382,-0.1638938672,-9.633250844,1.564169572,-4.702868919999999,1.40514907,-7.61615941,,,
imu,147.814898,-0.2081571744,-9.661364025600001,1.582114156,-4.02247011,1.15093413,-7.578774859999999,,,
imu,147.823413,-0.2554112456,-9.6817012208,1.5874975312,-3.476655679999999,1.04625739,-7.37689829,,,
imu,147.831929,-0.3002727056,-9.671532623200001,1.5922827536,-2.86354906,1.03130357,-7.227360089999999,,,
imu,147.840445,-0.35889168,-9.685888290400001,1.6245830048,-2.49718047,1.17336486,-6.920806779999999,,,
imu,147.84896,-0.3983697648000001,-9.706823638400001,1.6323589912,-2.0709966,1.59207182,-6.404899990000001,,,
imu,147.857476,-0.4085383624000001,-9.744507264800001,1.6431257416,-2.08595042,2.21265535,-5.70954736,,,
imu,147.865992,-0.4091365152000001,-9.802528086400002,1.6646592424,-2.04856587,3.05006927,-4.954379449999999,,,
imu,147.874507,-0.4205014184,-9.800135475200001,1.6353497552,-2.15324261,3.73794499,-4.4683803,,,
imu,147.883023,-0.4169125016,-9.768433376800001,1.6377423664,-2.23548862,4.51554363,-4.034719519999999,,,
imu,147.891539,-0.4127254320000001,-9.752283251200002,1.6467146584,-2.23548862,5.21089626,-3.80293531,,,
imu,147.900054,-0.3899956256000001,-9.745703570400002,1.6233866992,-2.28035008,5.80157215,-3.83284295,,,
imu,147.90857,-0.3684621248000001,-9.7331423616,1.597067976,-2.28035008,6.10812546,-4.04219643,,,
imu,147.917086,-0.3576953744,-9.718786694400002,1.5982642816,-2.08595042,6.16794074,-4.715118329999999,,,
imu,147.925601,-0.3445360128,-9.682299373600001,1.5857030728,-1.68967419,6.33243276,-5.20859439,,,
imu,147.934117,-0.3505175408000001,-9.6745233872,1.5773289336,-1.09152139,6.50440169,-5.65720899,,,
imu,147.942531,-0.3373581792000001,-9.672728928800002,1.5569917384,-0.46346095,6.57169388,-5.98619303,,,
imu,147.950945,-0.3295821928000001,-9.669140012000002,1.5534028216,0.40386061,6.534309329999999,-6.203023419999999,,,
imu,147.959359,-0.31403022,-9.667345553600002,1.549215752,1.12912088,6.38477113,-6.47219218,,,
imu,147.967773,-0.3289840400000001,-9.657775108800001,1.5450286824,1.8169966,6.05578709,-7.010529699999999,,,
imu,147.976187,-0.3379563320000001,-9.678710456800001,1.5629732664,2.60207215,5.9137258,-7.35446756,,,
imu,147.984601,-0.3547046104000001,-9.709814402400001,1.5557954328,3.05816366,5.330526819999999,-8.18440457,,,
imu,147.993015,-0.3451341656,-9.7361331256,1.579123392,3.58154736,4.82209694,-8.84984956,,,
imu,148.001429,-0.3798270280000001,-9.785779808000001,1.5857030728,3.69370101,4.216467229999999,-9.69474039,,,
imu,148.009843,-0.3995660704000001,-9.783985349600002,1.5719455584,3.85819303,3.6706528,-10.225601,,,
imu,148.018257,-0.4222958768,-9.876100880800003,1.6371442136,3.9105314,3.25942275,-10.26298555,,,
imu,148.026671,-0.4199032656,-9.824659740000001,1.58510492,3.82828539,2.91548489,-10.09101662,,,
imu,148.035085,-0.4252866408000001,-9.798341016800002,1.5988624344,3.88810067,2.68370068,-9.747078759999999,,,
imu,148.043499,-0.4354552384000001,-9.783985349600002,1.5857030728,3.84323921,2.33228591,-9.23864888,,,
imu,148.051912,-0.442633072,-9.752283251200002,1.5569917384,3.94043904,1.94348659,-8.326465859999999,,,
imu,148.060326,-0.451605364,-9.748096181600001,1.5480194464,3.99277741,1.56216418,-7.511482669999999,,,
imu,148.06874,-0.4731388648000001,-9.731347903200001,1.5330656264,4.12736179,1.21822632,-6.793699309999999,,,
imu,148.077154,-0.4886908376000001,-9.741516500800001,1.5318693208,4.30680763,0.8294269999999999,-6.00114685,,,
imu,148.085568,-0.5030465048,-9.7534795568,1.537252696,4.66569931,0.4107200399999997,-5.216071299999999,,,
imu,148.093982,-0.505439116,-9.807313308800001,1.5659640304,4.81523751,0.1490281899999997,-4.43847266,,,
imu,148.102396,-0.517402172,-9.843800629600002,1.5695529472,4.65074549,-0.0005100100000001717,-3.89265823,,,
imu,148.11081,-0.5401319784,-9.875502728,1.5868993784,4.44139201,-0.1949096699999999,-3.45152054,,,
imu,148.119224,-0.5425245896,-9.905410368000002,1.5874975312,4.29185381,-0.2023865800000002,-2.79355246,,,
imu,148.127638,-0.5311596864,-9.9305327856,1.6078347264,3.90305449,-0.1949096699999999,-2.39727623,,,
imu,148.136052,-0.5419264368000001,-9.976590551200001,1.6293682272,3.26751714,-0.2023865800000002,-2.21783039,,,
imu,148.14465,-0.5305615336,-9.979581315200003,1.6275737688,2.84133327,-0.1201405700000002,-2.09819983,,,
imu,148.153249,-0.5150095608,-9.9819739264,1.6383405192,2.59459524,0.05930526999999985,-2.12063056,,,
imu,148.161847,-0.5162058664000001,-9.9915443712,1.6574814088,2.10859609,0.1714589200000001,-2.27764567,,,
imu,148.170445,-0.499457588,-9.979581315200003,1.665855548,1.54782784,0.1639820099999998,-2.46456842,,,
imu,148.179044,-0.4845037680000001,-9.952664439200001,1.6544906448,1.06182869,0.4481045899999998,-2.73373718,,,
imu,148.187642,-0.4737370176,-9.897036228800001,1.6550887976,0.42629134,0.5677351499999999,-3.11505959,,,
imu,148.19624,-0.46356842,-9.850978463200002,1.6544906448,-0.01484635000000001,0.5079198699999998,-3.63844329,,,
imu,148.204839,-0.4605776560000001,-9.817481906400001,1.6503035752,-0.26906129,0.41819695,-3.91508896,,,
imu,148.213437,-0.4713444064,-9.801929933600002,1.6341534496,-0.38869185,0.2910894799999997,-4.33379592,,,
imu,148.222035,-0.4677554896000001,-9.785181655200002,1.6431257416,-0.65786061,0.29856639,-4.70016451,,,
imu,146.807783,,,,,,,83.2897148,-26.84976680000002,124.1045136
imu,146.910108,,,,,,,85.8532268,-27.55778440000001,121.4799656
imu,147.010938,,,,,,,82.6793548,-25.99526280000002,123.7260904
imu,147.112501,,,,,,,83.59489479999999,-26.01967720000003,123.7993336
imu,147.214033,,,,,,,82.9234988,-25.23841640000002,122.8105504
imu,147.315656,,,,,,,83.8634532,-25.01868680000001,123.1401448
imu,147.417219,,,,,,,83.1554356,-25.40931720000001,123.274424
imu,147.518751,,,,,,,83.7413812,-24.92102920000001,123.1645592
imu,148.230634,-0.4611758088,-9.797144711200001,1.6520980336,-0.56066078,0.3733354899999997,-4.737549059999999,,,
imu,148.239232,-0.4569887392,-9.792957641600001,1.6341534496,-0.67281443,0.35838167,-4.78988743,,,
imu,148.24783,-0.4611758088,-9.783387196800001,1.6449202,-0.70272207,0.21632038,-5.021671639999999,,,
imu,148.256429,-0.4689517952000001,-9.789966877600001,1.6652573952,-0.73262971,-0.007986920000000008,-5.12634838,,,
imu,148.265027,-0.4767277816000001,-9.802528086400002,1.6820056736,-0.82235263,-0.1799558500000003,-5.17120984,,,
imu,148.273625,-0.4779240872000001,-9.803126239200001,1.6730333816,-1.10647521,-0.4939860700000001,-5.49271697,,,
imu,148.282224,-0.502448352,-9.761853696000001,1.6413312832,-1.01675229,-0.4715553400000001,-5.70207045,,,
imu,148.290822,-0.5257763112000001,-9.714001472000001,1.6461165056,-1.06161375,-0.5014629800000003,-5.69459354,,,
imu,148.29942,-0.5413282840000001,-9.694860582400002,1.6431257416,-1.07656757,-0.5313706200000001,-5.50767079,,,
imu,148.308019,-0.5497024232000001,-9.644017594400001,1.609031032,-0.83730645,-0.5238937100000003,-5.216071299999999,,,
imu,148.316617,-0.5628617848,-9.591380148,1.5892919896,-0.29149202,-0.3668786000000002,-5.31327113,,,
imu,148.325215,-0.5814045216000001,-9.597959828800002,1.5982642816,0.17955331,-0.1350943900000003,-5.350655679999999,,,
imu,148.333814,-0.5909749664,-9.639830524800002,1.5839086144,0.88985976,0.04435144999999974,-5.32074804,,,
imu,148.342412,-0.5867878968000001,-9.697253193600002,1.576132628,1.60764312,0.4481045899999998,-5.03662546,,,
imu,148.351198,-0.61310662,-9.721179305600002,1.5695529472,2.32542648,0.94905756,-4.78988743,,,
imu,148.359985,-0.6340419680000001,-9.772022293600001,1.5743381696,2.76656417,1.42010289,-4.28893446,,,
imu,148.368771,-0.6196863008000001,-9.808509614400002,1.5749363224,3.14788658,2.22760917,-3.32441307,,,
imu,148.377557,-0.5873860496000001,-9.870717505600002,1.5767307808,3.36471697,2.79585433,-2.46456842,,,
imu,148.386344,-0.5688433128,-9.916177118400002,1.582114156,3.62640882,3.56597606,-1.82903107,,,
imu,148.39513,-0.5544876456000001,-9.934719855200001,1.5677584888,3.63388573,4.13422122,-1.61220068,,,
imu,148.403917,-0.5233837000000001,-9.932327244000001,1.5767307808,3.50677826,4.48563599,-1.29817046,,,
imu,148.412703,-0.4910834488,-9.960440425600002,1.5964698232,3.14788658,4.91929677,-1.1037708,,,
imu,148.42149,-0.4623721144,-9.9999185104,1.6036476568,2.58711833,5.30061918,-1.3280781,,,
imu,148.430276,-0.4264829464000001,-9.990946218400001,1.6084328792,2.02635008,5.57726485,-1.43275484,,,
imu,148.439062,-0.3959771536000001,-9.9789831624,1.6102273376,1.31604363,5.69689541,-1.57481613,,,
imu,148.447849,-0.3816214864,-9.953860744800002,1.6221903936,0.60573718,5.69689541,-1.50004703,,,
imu,148.456635,-0.3594898328000001,-9.935318008000001,1.6197977824,0.16459949,5.614649399999999,-1.4776163,,,
imu,148.465422,-0.334965568,-9.892251006400002,1.6168070184,-0.41859949,5.45763429,-1.64210832,,,
imu,148.474208,-0.3068523864000001,-9.873708269600002,1.6263774632,-0.9494601,5.19594244,-1.76173888,,,
imu,148.482994,-0.2966837888,-9.850978463200002,1.6275737688,-1.23358268,4.8669584,-1.97856927,,,
imu,148.491781,-0.3080486920000001,-9.825257892800002,1.6203959352,-1.41302852,4.63517419,-2.12063056,,,
imu,148.500567,-0.3038616224,-9.815687448000002,1.641929436,-1.52518217,4.20899032,-2.3000764,,,
imu,148.509354,-0.2859170384,-9.810902225600001,1.668846312,-1.71958183,3.87252937,-2.56176825,,,
imu,148.51814,-0.2936930248,-9.8264541984,1.683800132,-1.74948947,3.58840679,-2.98047521,,,
imu,148.526926,-0.3032634696000001,-9.822267128800002,1.6784167568,-1.95136604,3.16969983,-3.30198234,,,
imu,148.535713,-0.3176191368,-9.802528086400002,1.6879872016,-2.01865823,2.66874686,-3.51133582,,,
imu,148.544499,-0.31403022,-9.7780038216,1.6915761184,-1.98127368,2.34723973,-3.68330475,,,
imu,148.552867,-0.331974804,-9.748096181600001,1.6843982848,-2.04108896,2.00330187,-4.06462716,,,
imu,148.561236,-0.3511156936,-9.748694334400001,1.6903798128,-2.01118132,1.56964109,-4.3936112,,,
imu,148.569604,-0.3606861384,-9.7474980288,1.677818604,-1.77939711,1.33785688,-4.28893446,,,
imu,148.577972,-0.3547046104000001,-9.739722042400002,1.67482784,-1.36069015,1.23318014,-4.124442439999999,,,
imu,148.58634,-0.3738455000000001,-9.7325442088,1.6766222984,-1.0242292,1.13598031,-3.93751969,,,
imu,148.594708,-0.3882011672000001,-9.7427128064,1.683800132,-0.58309151,1.02382666,-3.85527368,,,
imu,148.603076,-0.3911919312,-9.752283251200002,1.6766222984,-0.21672292,0.9939190199999999,-3.66835093,,,
imu,148.611445,-0.3941826952,-9.758862932000001,1.6736315344,0.03749201999999999,1.06121121,-3.69825857,,,
imu,148.619813,-0.4085383624000001,-9.798341016800002,1.683800132,0.23936859,1.10607267,-3.76555076,,,
imu,148.628181,-0.4240903352000001,-9.7953502528,1.6832019792,0.19450713,1.17336486,-3.89265823,,,
imu,148.636549,-0.4133235848,-9.8234634344,1.701744716,0.11973803,1.33785688,-3.66835093,,,
imu,148.644834,-0.3965753064,-9.8617452136,1.6993521048,0.08235347999999998,1.3528107,-3.7206893,,,
imu,148.653202,-0.4091365152000001,-9.867128588800002,1.6826038264,-0.06718472,1.33037997,-4.146873169999999,,,
imu,148.661571,-0.4115291264,-9.840809865600002,1.671837076,-0.127,1.4275798,-4.52071867,,,
imu,148.669939,-0.4103328208,-9.815687448000002,1.67482784,-0.33635348,1.29299542,-4.55810322,,,
imu,148.678307,-0.4103328208,-9.794153947200002,1.662864784,-0.32139966,1.13598031,-4.59548777,,,
imu,148.686675,-0.415716196,-9.772022293600001,1.6335552968,-0.17186146,1.1285034,-4.6179185,,,
imu,148.695043,-0.4049494456000001,-9.730749750400001,1.6197977824,0.0001074699999999984,1.10607267,-4.65530305,,,
imu,148.703411,-0.4025568344,-9.702636568800001,1.6054421152,0.53096808,1.1285034,-4.80484125,,,
imu,148.71178,-0.3959771536000001,-9.685290137600001,1.5928809064,1.16650543,0.8817653699999997,-5.25345585,,,
imu,148.720148,-0.430670016,-9.70502918,1.591086448,1.94410407,0.6873657099999999,-5.896470109999999,,,
imu,148.728516,-0.4767277816000001,-9.710412555200001,1.5934790592,2.33290339,0.5976427899999996,-6.382469260000001,,,
imu,148.736884,-0.505439116,-9.737927584000001,1.5767307808,2.72170271,0.3434278499999999,-6.61425347,,,
imu,148.745252,-0.5048409632,-9.769031529600001,1.5725437112,3.19274804,0.5378275100000001,-6.43480763,,,
imu,148.753729,-0.5072335744,-9.7714241408,1.5755344752,3.26751714,0.70231953,-6.21797724,,,
imu,148.762205,-0.505439116,-9.789368724800001,1.5857030728,3.37967079,0.8892422799999999,-6.10582359,,,
imu,148.770681,-0.517402172,-9.8043225448,1.5653658776,3.57407045,0.9116730099999999,-5.8889932,,,
imu,148.779157,-0.5251781584,-9.824659740000001,1.5593843496,3.64136264,0.94905756,-5.8142241,,,
imu,148.787634,-0.5257763112000001,-9.834828337600001,1.5719455584,3.55911663,0.9939190199999999,-5.522624609999999,,,
imu,148.79611,-0.5257763112000001,-9.852174768800001,1.5976661288,3.39462461,1.00887284,-5.17868675,,,
imu,148.804586,-0.5138132552000001,-9.8581562968,1.5845067672,3.18527113,0.98644211,-4.96933327,,,
imu,148.813062,-0.4988594352000001,-9.857558144000002,1.5749363224,3.08059439,0.9640113799999996,-4.453426479999999,,,
imu,148.821539,-0.4940742128000001,-9.853371074400002,1.5892919896,2.97591765,0.8593346399999997,-4.124442439999999,,,
imu,148.830015,-0.4946723656000001,-9.838417254400001,1.5839086144,2.49739541,0.6574580699999997,-4.057150249999999,,,
imu,148.838491,-0.4976631296000001,-9.8479876992,1.5785252392,2.27308811,0.4032431299999999,-4.00481188,,,
imu,148.846967,-0.5048409632,-9.8144911424,1.5773289336,2.21327283,0.33595094,-3.63096638,,,
imu,148.855444,-0.5096261856000001,-9.803126239200001,1.5803196976,2.09364227,0.02192071999999978,-3.28702852,,,
imu,148.86392,-0.5006538936,-9.803126239200001,1.5946753648,2.13102682,-0.17247894,-3.06272122,,,
imu,148.872396,-0.5221873944000001,-9.807313308800001,1.5892919896,2.17588828,-0.4266938800000002,-2.91318302,,,
imu,148.880872,-0.5413282840000001,-9.821668976000002,1.6042458096,2.01139626,-0.5313706200000001,-2.85336774,,,
imu,148.889349,-0.565254396,-9.817481906400001,1.6084328792,1.95158098,-0.6435242699999999,-2.80850628,,,
imu,148.897825,-0.56824516,-9.824061587200001,1.6245830048,1.77213514,-0.5014629800000003,-2.41970696,,,
imu,148.906301,-0.5784137576,-9.828846809600002,1.6437238944,1.40576655,-0.5014629800000003,-2.53933752,,,
imu,148.914777,-0.6077232448000001,-9.838417254400001,1.6473128112,1.27865908,-0.1799558500000003,-2.65149117,,,
imu,148.923254,-0.6095177032000001,-9.8467913936,1.6574814088,1.2188438,0.1864127399999997,-2.38979932,,,
imu,148.93173,-0.5999472584000001,-9.844398782400003,1.6461165056,1.09921324,0.5303505999999998,-2.25521494,,,
imu,148.940206,-0.6005454112,-9.825856045600002,1.6377423664,0.9571519499999999,1.10607267,-2.15801511,,,
imu,148.948683,-0.5915731192000001,-9.801929933600002,1.62996638,0.85995212,1.59207182,-2.27016876,,,
imu,148.957141,-0.5897786608000001,-9.761853696000001,1.6245830048,0.8524752099999999,2.05564024,-2.30755331,,,
imu,148.965599,-0.5718340768000001,-9.748096181600001,1.6114236432,0.76275229,2.48182411,-2.32998404,,,
imu,148.974058,-0.5371412144000001,-9.743909112,1.6066384208,0.97210577,3.03511545,-2.27764567,,,
imu,148.982516,-0.5508987288,-9.735534972800002,1.6054421152,1.2188438,3.49120696,-2.24773803,,,
imu,148.990975,-0.5090280328000001,-9.752881404000002,1.606040268,1.35342818,3.86505246,-2.18792275,,,
imu,148.999433,-0.4964668240000001,-9.776807516000002,1.6162088656,1.57025857,4.15665195,-2.21035348,,,
imu,149.007892,-0.4874945320000001,-9.792957641600001,1.603049504,1.57025857,4.33609779,-2.18792275,,,
imu,149.01635,-0.4581850448000001,-9.775611210400001,1.5976661288,1.37585891,4.58283582,-2.36736859,,,
imu,149.024809,-0.4420349192,-9.76484446,1.6006568928,1.46558183,4.91181986,-2.32998404,,,
imu,149.033267,-0.4228940296000001,-9.7504887928,1.5743381696,1.48801256,4.90434295,-2.41223005,,,
imu,149.041726,-0.3971734592000001,-9.752283251200002,1.5743381696,1.48053565,4.94920441,-2.3000764,,,
imu,147.620344,,,,,,,84.09539,-24.87220040000002,123.3720816
imu,147.721845,,,,,,,83.8024172,-25.09193,122.8349648
imu,147.82356,,,,,,,85.8410196,-25.67787560000001,120.5155968
imu,147.925092,,,,,,,83.48503000000001,-24.75012840000002,123.1767664
imu,148.026533,,,,,,,85.4625964,-25.44593880000001,120.8818128
imu,148.128095,,,,,,,82.85025560000001,-24.99427240000001,123.5307752
imu,148.229688,,,,,,,82.6671476,-25.15296600000001,122.8593792
imu,148.331983,,,,,,,82.77701239999999,-24.46936280000001,123.33546
imu,149.050184,-0.3666676664,-9.745105417600001,1.5749363224,1.64502767,5.136127159999999,-2.18044584,,,
imu,149.058642,-0.340947096,-9.776807516000002,1.6036476568,1.73475059,4.96415823,-2.19539966,,,
imu,149.067101,-0.305057928,-9.838417254400001,1.6281719216,1.80951969,4.65760492,-2.26269185,,,
imu,149.075559,-0.2966837888,-9.911391896000003,1.6383405192,1.49548947,4.36600543,-2.49447606,,,
imu,149.084018,-0.2715613712,-9.931729091200001,1.6245830048,1.17398234,4.01459066,-2.80850628,,,
imu,149.092476,-0.2763465936,-9.904214062400001,1.62996638,0.8973366700000001,3.46877623,-2.98795212,,,
imu,149.100935,-0.2643835376,-9.867726741600002,1.6126199488,0.57582954,2.90800798,-3.09262886,,,
imu,149.109393,-0.272159524,-9.824061587200001,1.6012550456,0.47862971,2.40705501,-3.09262886,,,
imu,149.117852,-0.2643835376,-9.802528086400002,1.5755344752,0.45619898,1.83880985,-3.1225365,,,
imu,149.12631,-0.2769447464000001,-9.788770572,1.5677584888,0.3889067899999999,1.40514907,-3.24216706,,,
imu,149.134769,-0.296085636,-9.776209363200001,1.5569917384,0.63564482,1.03130357,-3.26459779,,,
imu,149.143227,-0.3218062064,-9.740918348000001,1.549215752,0.80013684,0.66493498,-3.36927453,,,
imu,149.151685,-0.3373581792000001,-9.7193848472,1.5384490016,1.15902852,0.4107200399999997,-3.4216129,,,
imu,149.1605,-0.3654713608,-9.730749750400001,1.5330656264,1.63755076,0.27613566,-3.51133582,,,
imu,149.169314,-0.406743904,-9.739722042400002,1.5390471544,1.64502767,0.1191205499999999,-3.63844329,,,
imu,149.178128,-0.3977716120000001,-9.727758986400001,1.5157191952,1.92915025,0.2836125699999998,-3.67582784,,,
imu,149.186943,-0.4169125016,-9.720581152800001,1.5157191952,2.116073,0.5453044199999999,-3.74312003,,,
imu,149.195757,-0.442633072,-9.746301723200002,1.5205044176,2.62450288,0.8219500899999996,-3.62348947,,,
imu,149.204571,-0.4270810992000001,-9.767237071200002,1.5288785568,2.94601001,1.19579559,-3.41413599,,,
imu,149.213385,-0.430670016,-9.803126239200001,1.5264859456,3.00582529,1.61450255,-3.5711511,,,
imu,149.2222,-0.4199032656,-9.810304072800001,1.5181118064,3.00582529,2.01825569,-3.68330475,,,
imu,149.231014,-0.4151180432000001,-9.822267128800002,1.5390471544,2.93105619,2.30237827,-3.69078166,,,
imu,149.239828,-0.3965753064,-9.864137824800002,1.564169572,2.69179507,2.48930102,-3.80293531,,,
imu,149.248642,-0.3780325696000001,-9.886269478400003,1.5420379184,2.58711833,2.73603905,-3.85527368,,,
imu,149.257457,-0.3612842912,-9.9000269928,1.531271168,2.407672489999999,2.97530017,-3.87770441,,,
imu,149.266271,-0.3403489432000001,-9.895839923200002,1.5318693208,2.24318047,3.16222292,-3.90013514,,,
imu,149.275085,-0.3283858872000001,-9.8461932408,1.5205044176,1.78708896,3.21456129,-3.98238115,,,
imu,149.2839,-0.3158246784000001,-9.8198745176,1.5205044176,1.84690424,3.17717674,-4.04967334,,,
imu,149.292714,-0.3247969704000001,-9.802528086400002,1.5145228896,1.83195042,3.07997691,-4.22911918,,,
imu,149.301528,-0.3361618736,-9.8228652816,1.498372764,2.01139626,2.87062343,-4.28145755,,,
imu,149.310342,-0.3391526376000001,-9.852174768800001,1.5025598336,2.08616536,2.83323888,-4.21416536,,,
imu,149.319157,-0.3343674152,-9.841408018400001,1.5139247368,1.86933497,2.74351596,-4.32631901,,,
imu,149.327971,-0.3505175408000001,-9.821668976000002,1.5145228896,1.80204278,2.48930102,-4.58053395,,,
imu,149.336785,-0.3642750552,-9.827650504000003,1.5187099592,2.01139626,2.29490136,-4.53567249,,,
imu,149.345599,-0.3774344168000001,-9.8432024768,1.5175136536,1.77213514,2.07059406,-4.74502597,,,
imu,149.354414,-0.3911919312,-9.856959991200002,1.5175136536,1.48053565,1.91357895,-4.96185636,,,
imu,149.362895,-0.4025568344,-9.834230184800003,1.492391236,1.41324346,1.76404075,-4.96933327,,,
imu,149.371376,-0.4222958768,-9.803126239200001,1.4911949304,1.24127453,1.7266562,-4.991764,,,
imu,149.379858,-0.4312681688,-9.8234634344,1.522298876,1.16650543,1.577118,-4.8422258,,,
imu,149.388339,-0.4288755576000001,-9.8479876992,1.507345056,1.16650543,1.50982581,-4.647826139999999,,,
imu,149.39682,-0.4228940296000001,-9.815089295200002,1.4995690696,1.07678251,1.31542615,-4.887087259999999,,,
imu,149.405302,-0.4258847936,-9.797742864000002,1.5169155008,0.91229049,1.15093413,-5.32074804,,,
imu,149.413783,-0.4486146000000001,-9.801929933600002,1.5181118064,0.77770611,0.8294269999999999,-5.8142241,,,
imu,149.422264,-0.4731388648000001,-9.837819101600003,1.5031579864,0.8823828499999999,0.6350273399999997,-5.90394702,,,
imu,149.430746,-0.4779240872000001,-9.834828337600001,1.4947838472,0.76275229,0.50044296,-5.918900839999999,,,
imu,149.439227,-0.4922797544,-9.815089295200002,1.498372764,0.7552753799999999,0.41819695,-5.8142241,,,
imu,149.447708,-0.5126169496,-9.8061170032,1.5139247368,0.9048135799999999,0.4107200399999997,-5.56000916,,,
imu,149.45619,-0.5108224912,-9.834828337600001,1.5049524448,1.11416706,0.2611818399999999,-5.11887147,,,
imu,149.464671,-0.5443190480000001,-9.860548908000002,1.5085413616,1.18145925,0.4331507699999997,-4.68521069,,,
imu,149.473153,-0.5317578392000001,-9.8432024768,1.489400472,1.38333582,0.5079198699999998,-4.32631901,,,
imu,149.481634,-0.5197947832,-9.817481906400001,1.4876060136,1.24875144,0.5079198699999998,-4.20668845,,,
imu,149.490115,-0.5497024232000001,-9.809107767200002,1.498372764,1.32352054,0.6724118899999998,-4.169303899999999,,,
imu,149.498597,-0.550300576,-9.810902225600001,1.4977746112,1.49548947,0.6499811599999998,-3.97490424,,,
imu,149.507078,-0.5550857984,-9.801929933600002,1.48042818,1.52539711,0.84438082,-3.90013514,,,
imu,149.515559,-0.5598710208000001,-9.803126239200001,1.4840170968,1.42072037,0.9939190199999999,-3.93751969,,,
imu,149.524041,-0.5772174520000001,-9.797742864000002,1.4917930832,1.43567419,1.00139593,-3.91508896,,,
imu,149.532522,-0.5640580904000001,-9.7953502528,1.4846152496,1.5179202,1.32290306,-3.53376655,,,
imu,149.541003,-0.5550857984,-9.7911631832,1.4888023192,1.57773548,1.55468727,-3.42908981,,,
imu,149.549485,-0.5526931872,-9.794752100000002,1.4798300272,1.61512003,2.04068642,-3.13001341,,,
imu,149.557966,-0.5323559920000001,-9.794752100000002,1.4840170968,1.75718132,2.07059406,-3.03281358,,,
imu,149.566446,-0.5263744640000001,-9.803126239200001,1.4947838472,1.83195042,2.33228591,-2.86084465,,,
imu,149.574926,-0.5138132552000001,-9.794153947200002,1.462483596,1.87681188,2.61640849,-2.76364482,,,
imu,149.583406,-0.5150095608,-9.767237071200002,1.4630817488,2.09364227,2.70613141,-2.86084465,,,
imu,149.591886,-0.4964668240000001,-9.779798280000001,1.462483596,2.20579592,2.91548489,-2.86832156,,,
imu,149.600366,-0.4928779072000001,-9.7995373224,1.4696614296,2.32542648,3.10988455,-3.07019813,,,
imu,149.608846,-0.5018501992000001,-9.818080059200001,1.4606891376,2.4899185,3.16969983,-3.07019813,,,
imu,149.617326,-0.4892889904,-9.838417254400001,1.4606891376,2.36281103,3.28185348,-3.06272122,,,
imu,149.625807,-0.4892889904,-9.8330338792,1.4606891376,2.37776485,3.51363769,-2.95056757,,,
imu,149.634287,-0.4833074624000001,-9.8300431152,1.4678669712,2.28804193,3.66317589,-2.90570611,,,
imu,149.642767,-0.4629702672000001,-9.828846809600002,1.4816244856,2.01139626,3.69308353,-3.01038285,,,
imu,149.651247,-0.4683536424000001,-9.868923047200001,1.4732503464,1.92167334,3.88748319,-2.9729983,,,
imu,149.659727,-0.4605776560000001,-9.8683248944,1.4463334704,1.99644244,4.09683667,-2.92813684,,,
imu,149.668207,-0.4462219888000001,-9.845595088000001,1.453511304,1.92915025,4.29871324,-2.8234601,,,
imu,149.676687,-0.439642308,-9.842604324000002,1.4409500952,1.84690424,4.29871324,-2.83841392,,,
imu,149.685167,-0.4384460024000001,-9.835426490400001,1.4349685672,1.75718132,4.32862088,-2.86832156,,,
imu,149.693647,-0.4175106544000001,-9.8563618384,1.4427445536,1.6674584,4.37348234,-2.77112173,,,
imu,149.702127,-0.3947808480000001,-9.8527729216,1.4319778032,1.73475059,4.6426511,-2.61410662,,,
imu,149.710607,-0.3959771536000001,-9.819276364800002,1.4259962752,1.70484295,4.6426511,-2.71878336,,,
imu,149.719087,-0.3834159448,-9.8043225448,1.4403519424,1.60016621,4.6426511,-2.64401426,,,
imu,149.727567,-0.3696584304000001,-9.828248656800001,1.4511186928,1.56278166,4.99406587,-2.4496146,,,
imu,149.735979,-0.3355637208,-9.8563618384,1.4547076096,1.51044329,5.25575772,-2.42718387,,,
imu,149.744459,-0.3128339144,-9.8563618384,1.4582965264,1.21136689,5.45763429,-2.49447606,,,
imu,149.752939,-0.28412258,-9.8497821576,1.4792318744,0.9646288599999999,5.704372319999999,-2.3748455,,,
imu,149.761419,-0.2308869808,-9.8713156584,1.4911949304,0.79265993,5.71184923,-1.85893871,,,
imu,149.769859,-0.2045682576000001,-9.880886103200002,1.477437416,0.56087572,5.442680469999999,-1.65706214,,,
imu,149.778298,-0.2135405496,-9.880886103200002,1.4917930832,0.32909151,4.99406587,-2.04586146,,,
imu,149.786737,-0.2027737992,-9.858754449600001,1.5031579864,-0.07466163,4.44077453,-2.85336774,,,
imu,149.795177,-0.1938015072,-9.8198745176,1.5139247368,-0.5980453299999999,4.00711375,-3.45152054,,,
imu,149.803616,-0.1800439928,-9.832435726400002,1.5300748624,-0.77001426,3.55849915,-3.78050458,,,
imu,149.812056,-0.2009793408,-9.820472670400001,1.5228970288,-0.82982954,3.08745382,-4.034719519999999,,,
imu,149.820495,-0.2015774936,-9.803724392000001,1.4995690696,-1.04665993,2.51173175,-4.30388828,,,
imu,149.828934,-0.2201202304,-9.786976113600002,1.4852134024,-0.8672140899999999,1.95844041,-4.49828794,,,
imu,149.837374,-0.242251884,-9.743310959200002,1.4660725128,-0.59056842,1.6518871,-4.670256869999999,,,
imu,149.845813,-0.2536167872,-9.728955292000002,1.4720540408,-0.20924601,1.40514907,-4.83474889,,,
imu,149.854252,-0.2763465936,-9.7283571392,1.4582965264,0.3216146,0.9415806499999997,-4.8422258,,,
imu,149.862692,-0.3134320672,-9.701440263200002,1.4439408592,0.82256757,0.70231953,-5.021671639999999,,,
imu,148.432726,,,,,,,82.9845348,-24.16418280000001,123.3476672
imu,148.534319,,,,,,,82.36196760000001,-24.33508360000001,122.1513616
imu,148.63582,,,,,,,83.0455708,-24.5059844,122.4077128
imu,148.737352,,,,,,,82.5328684,-24.3717052,122.8593792
imu,148.838976,,,,,,,84.8400292,-25.25062360000001,119.8075792
imu,148.940599,,,,,,,82.88687720000001,-24.54260600000002,122.6152352
imu,149.04207,,,,,,,85.377146,-25.48256040000001,120.28366
imu,149.143785,,,,,,,82.4718324,-24.62805640000001,122.4687488
imu,149.871131,-0.34393786,-9.692467971200001,1.4421464008,1.24875144,0.47801223,-5.31327113,,,
imu,149.879571,-0.3947808480000001,-9.680504915200002,1.4224073584,1.86185806,0.3882893099999998,-5.05905619,,,
imu,149.88801,-0.4097346680000001,-9.6954587352,1.4170239832,2.2656112,0.4555814999999996,-4.87213344,,,
imu,149.896449,-0.4587831976000001,-9.699047652,1.3924997184,2.81890254,0.7322271699999998,-4.80484125,,,
imu,149.904889,-0.4707462536000001,-9.7337405144,1.3889108016,3.20022495,0.76213481,-4.909517989999999,,,
imu,149.913328,-0.4821111568000001,-9.752283251200002,1.3913034128,3.5366859,0.8892422799999999,-4.58053395,,,
imu,149.921768,-0.5018501992000001,-9.760059237600002,1.3871163432,3.90305449,1.31542615,-4.34874974,,,
imu,149.930207,-0.5066354216000001,-9.800135475200001,1.3775458984,4.15726943,1.53973345,-4.22911918,,,
imu,149.938646,-0.5197947832,-9.8162856008,1.3853218848,4.19465398,1.89862513,-3.9449966,,,
imu,149.947086,-0.5090280328000001,-9.8294449624,1.3679754536,4.089977240000001,2.21265535,-3.81788913,,,
imu,149.955525,-0.5120187968000001,-9.8593526024,1.3691717592,4.00773123,2.57154703,-3.76555076,,,
imu,149.963964,-0.5030465048,-9.889858395200001,1.3625920784,3.82080848,2.65379304,-3.7206893,,,
imu,149.972429,-0.4952705184000001,-9.916177118400002,1.3679754536,3.52920899,2.85566961,-3.60853565,,,
imu,149.980894,-0.4791203928000001,-9.915578965600002,1.3512271752,3.40957843,3.0725,-3.56367419,,,
imu,149.989359,-0.4683536424000001,-9.911990048800002,1.3470401056,3.25256332,3.26689966,-3.70573548,,,
imu,149.997824,-0.4575868920000001,-9.911391896000003,1.348834564,2.94601001,3.34914567,-3.83284295,,,
imu,150.006289,-0.4414367664,-9.9335235496,1.3326844384,2.81890254,3.53606842,-3.88518132,,,
imu,150.014753,-0.4348570856000001,-9.9550570504,1.3422548832,2.3403803,3.49120696,-3.78798149,,,
imu,150.023218,-0.4151180432000001,-9.9783850096,1.3494327168,1.80951969,3.43139168,-3.69078166,,,
imu,150.031683,-0.400762376,-10.0064981912,1.3625920784,1.42819728,3.31923803,-3.70573548,,,
imu,150.040148,-0.400762376,-9.995133288000002,1.3631902312,0.74779847,3.15474601,-3.81788913,,,
imu,150.048613,-0.3935845424,-10.013077872,1.3781440512,0.27675314,3.04259236,-3.81788913,,,
imu,150.057077,-0.3893974728000001,-9.9879554544,1.3715643704,-0.32887657,2.75099287,-3.86275059,,,
imu,150.065542,-0.3780325696000001,-9.975992398400003,1.3805366624,-0.8672140899999999,2.30985518,-4.146873169999999,,,
imu,150.074007,-0.3630787496,-9.960440425600002,1.3805366624,-1.01675229,1.94348659,-4.32631901,,,
imu,150.082472,-0.3756399584,-9.9401032304,1.3745551344,-1.27096723,1.51730272,-4.50576485,,,
imu,150.090937,-0.3876030144000001,-9.9401032304,1.3775458984,-1.54013599,1.02382666,-4.5431494,,,
imu,150.099401,-0.4115291264,-9.940701383200002,1.3871163432,-1.89902767,0.58268897,-4.49828794,,,
imu,150.107866,-0.4222958768,-9.922158646400002,1.39070526,-1.96631986,0.1191205499999999,-4.50576485,,,
imu,150.116331,-0.4653628784000001,-9.916177118400002,1.402668316,-2.11585806,-0.3070633200000001,-4.647826139999999,,,
imu,150.124796,-0.5018501992000001,-9.917373424,1.4319778032,-2.45231901,-0.6210935399999999,-4.55810322,,,
imu,150.133261,-0.5371412144000001,-9.941299536000002,1.4439408592,-2.61681103,-0.6958626400000001,-4.33379592,,,
imu,150.141726,-0.5754229936,-9.952066286400001,1.4553057624,-2.83364142,-0.6210935399999999,-4.25154991,,,
imu,150.15019,-0.6095177032000001,-9.931729091200001,1.4421464008,-3.22991765,-0.2995864100000003,-4.034719519999999,,,
imu,150.158655,-0.6166955368000001,-9.882680561600003,1.4463334704,-3.40936349,0.08921290999999965,-3.66835093,,,
imu,150.16712,-0.6382290376000002,-9.8749045752,1.4732503464,-3.68600916,0.58268897,-3.38422835,,,
imu,150.175942,-0.6382290376000002,-9.861147060800002,1.4571002208,-3.85797809,1.21074941,-3.13001341,,,
imu,150.184764,-0.6454068712000001,-9.808509614400002,1.4469316232,-3.97760865,2.00330187,-2.98047521,,,
imu,150.193587,-0.6238733704,-9.773816752000002,1.4469316232,-3.902839549999999,2.78837742,-2.8234601,,,
imu,149.245226,,,,,,,82.4718324,-24.9332364,122.1879832
imu,149.346819,,,,,,,82.935706,-24.83557880000003,122.8837936
imu,149.44832,,,,,,,82.4596252,-24.65247080000001,123.1645592
imu,149.549913,,,,,,,83.2286788,-24.94544360000002,122.8105504
imu,149.651445,,,,,,,82.4718324,-24.88440760000001,122.3955056
imu,149.753496,,,,,,,82.996742,-24.88440760000001,122.2246048
imu,149.85457,,,,,,,82.83804839999999,-24.76233560000001,122.7983432
imu,149.956133,,,,,,,85.438182,-25.95864120000002,120.5522184
imu,150.057877,,,,,,,82.71597639999999,-25.38490280000001,122.0903256
imu,150.159378,,,,,,,85.21845240000002,-25.34828120000001,119.97848
