Type,Timestamp,Data Accelerometer X,Data Accelerometer Y,Data Accelerometer Z,Data Gyroscope X,Data Gyroscope Y,Data Gyroscope Z,Data Magnetometer X,Data Magnetometer Y,Data Magnetometer Z
imu,68.445764,0.2727576768,-9.692467971200001,1.5031579864,0.19450713,2.1752708,-3.27955161,,,
imu,68.454038,0.2823281216,-9.704431027200002,1.5031579864,0.44872207,2.45191647,-3.01038285,,,
imu,68.462312,0.2805336632,-9.706225485600001,1.5145228896,0.50853735,2.51173175,-2.92813684,,,
imu,68.470586,0.2966837888,-9.7331423616,1.5288785568,0.76275229,2.74351596,-3.06272122,,,
imu,68.47886,0.3212080536,-9.7504887928,1.513326584,0.79265993,2.78090051,-3.23469015,,,
imu,68.487135,0.3236006648,-9.719983000000001,1.516317348,0.73284465,2.86314652,-3.33188998,,,
imu,68.495409,0.3194135952000001,-9.690673512800002,1.5049524448,0.76275229,2.80333124,-3.33936689,,,
imu,68.503683,0.3247969704000001,-9.6912716656,1.507345056,0.74779847,2.81828506,-3.33188998,,,
imu,68.511957,0.3684621248000001,-9.7056273328,1.4858115552,0.91229049,2.78090051,-3.46647436,,,
imu,68.520231,0.3786307224000001,-9.725366375200002,1.4959801528,0.97958268,2.64631613,-3.60105874,,,
imu,68.528505,0.3780325696000001,-9.744507264800001,1.5061487504,1.12912088,2.57154703,-3.90013514,,,
imu,68.536779,0.3893974728000001,-9.748096181600001,1.513326584,0.88985976,2.43696265,-4.00481188,,,
imu,68.545053,0.3887993200000001,-9.779200127200001,1.5115321256,0.9945364999999999,2.1752708,-4.06462716,,,
imu,68.553327,0.3654713608,-9.794752100000002,1.5306730152,1.00201341,1.97339423,-3.76555076,,,
imu,68.562063,0.3206099008000001,-9.793555794400001,1.498372764,0.8674290299999999,1.99582496,-3.54872037,,,
imu,68.570799,0.2978800944000001,-9.751685098400001,1.4971764584,0.3963837,1.86871749,-3.56367419,,,
imu,68.579535,0.305057928,-9.706225485600001,1.4965783056,0.31413769,1.82385603,-3.56367419,,,
imu,68.588271,0.2984782472,-9.719983000000001,1.4870078608,0.3216146,1.93600968,-3.69825857,,,
imu,68.597007,0.3080486920000001,-9.7815927384,1.4858115552,0.52349117,2.04068642,-3.84779677,,,
imu,68.605743,0.3074505392,-9.8043225448,1.4947838472,0.46367589,1.9509635,-4.19173463,,,
imu,68.614479,0.287113344,-9.817481906400001,1.5097376672,0.45619898,2.09302479,-4.42351884,,,
imu,68.623215,0.2889078024000001,-9.836024643200002,1.5187099592,0.3216146,2.16031698,-4.19173463,,,
imu,68.631951,0.2924967192,-9.822267128800002,1.5324674736,-0.14943073,2.33228591,-3.93751969,,,
imu,68.640687,0.2918985664000001,-9.8079114616,1.5025598336,-0.34383039,2.52668557,-3.87770441,,,
imu,68.649423,0.3002727056,-9.831239420800001,1.474446652,-0.47841477,2.74351596,-3.87770441,,,
imu,68.658159,0.3313766512,-9.8264541984,1.4822226384,-0.7999219,3.01268472,-3.72816621,,,
imu,68.666895,0.3355637208,-9.792957641600001,1.4846152496,-1.12890594,3.00520781,-3.6459202,,,
imu,68.675631,0.3594898328000001,-9.7510869456,1.4750448048,-1.24105959,2.9977309,-3.74312003,,,
imu,68.684367,0.35889168,-9.727160833600001,1.4606891376,-1.21115195,2.89305416,-3.78798149,,,
imu,68.693103,0.3606861384,-9.682897526400001,1.4606891376,-1.21115195,2.91548489,-3.6459202,,,
imu,68.701839,0.367863972,-9.663158484000002,1.4702595824,-1.16629049,2.8481927,-3.51881273,,,
imu,68.710575,0.3786307224000001,-9.66016772,1.4726521936,-0.89712173,2.73603905,-3.45899745,,,
imu,68.719311,0.3876030144000001,-9.658971414400002,1.501363528,-0.5756146,2.53416248,-3.59358183,,,
imu,68.728047,0.4199032656,-9.644615747200001,1.5031579864,-0.41112258,2.33976282,-3.72816621,,,
imu,68.736783,0.4085383624000001,-9.6643547896,1.504354292,-0.17933837,2.12293243,-3.58610492,,,
imu,68.745519,0.4001642232,-9.6733270816,1.5270840984,0.18703022,1.7266562,-3.65339711,,,
imu,68.754255,0.3840140976,-9.717590388800001,1.546224988,0.22441477,1.45748744,-3.78050458,,,
imu,68.762731,0.3636769024000001,-9.7576666264,1.55519728,0.2468455,1.3528107,-3.71321239,,,
imu,68.771207,0.3511156936,-9.746899876,1.5504120576,0.05244583999999999,1.31542615,-3.76555076,,,
imu,68.779684,0.3391526376000001,-9.736731278400002,1.5833104616,-0.127,1.31542615,-3.68330475,,,
imu,68.78816,0.323002512,-9.7510869456,1.591086448,-0.23915365,1.39019525,-3.75059694,,,
imu,68.796636,0.320011748,-9.7612555432,1.5737400168,-0.29149202,1.577118,-3.66087402,,,
imu,68.805112,0.3259932760000001,-9.748096181600001,1.582114156,-0.59056842,1.62197946,-3.86275059,,,
imu,68.813589,0.3152265256,-9.7331423616,1.6024513512,-0.53823005,1.8014253,-3.99733497,,,
imu,68.822065,0.2996745528,-9.709814402400001,1.588095684,-0.4260764,1.92105586,-3.89265823,,,
imu,68.830541,0.3014690112,-9.711608860800002,1.5904882952,-0.23915365,2.07059406,-3.90013514,,,
imu,68.839017,0.31403022,-9.719983000000001,1.6078347264,-0.08213854000000001,2.08554788,-4.23659609,,,
imu,68.847494,0.3146283728000001,-9.735534972800002,1.5982642816,-0.04475399000000001,2.05564024,-4.50576485,,,
imu,68.85597,0.3062542336,-9.716992236000001,1.603049504,0.007584380000000002,2.00330187,-4.63287232,,,
imu,68.864446,0.2895059552,-9.696655040800001,1.6215922408,0.23189168,1.96591732,-4.7674567,,,
imu,68.872923,0.2733558296,-9.701440263200002,1.6305645328,0.23936859,1.98087114,-4.887087259999999,,,
imu,68.881399,0.260196468,-9.7056273328,1.6281719216,0.46367589,2.08554788,-4.70016451,,,
imu,68.889875,0.2470371064,-9.682897526400001,1.6305645328,0.47862971,2.04816333,-4.31136519,,,
imu,68.898351,0.23926112,-9.662560331200002,1.6245830048,0.41133752,2.08554788,-4.00481188,,,
imu,68.906828,0.23926112,-9.690673512800002,1.623984852,0.7104139199999999,2.31733209,-3.42908981,,,
imu,68.915304,0.2464389536,-9.710412555200001,1.6162088656,0.9272443100000001,2.46687029,-3.22721324,,,
imu,68.92378,0.2416537312,-9.702636568800001,1.612021796,0.77770611,2.42948574,-3.17487487,,,
imu,68.932256,0.2524204816,-9.675719692800001,1.6048439624,0.91229049,2.6238854,-2.98795212,,,
imu,68.940733,0.2625890792,-9.6523917336,1.6072365736,1.05435178,2.68370068,-3.0477674,,,
imu,68.949209,0.2595983152,-9.637437913600001,1.6108254904,1.30108981,2.6238854,-3.15244414,,,
imu,68.957685,0.2649816904,-9.623680399200001,1.591086448,1.45810492,2.69117759,-3.18982869,,,
imu,68.966146,0.260196468,-9.636839760800001,1.5701511,1.7422275,2.73603905,-3.07767504,,,
imu,68.974607,0.305057928,-9.6817012208,1.5659640304,1.92167334,2.71360832,-3.13749032,,,
imu,68.983068,0.3373581792000001,-9.7217774584,1.546224988,2.04878081,2.64631613,-3.13749032,,,
imu,68.991529,0.34393786,-9.7301515976,1.528280404,1.93662716,2.57154703,-3.24216706,,,
imu,68.99999,0.3451341656,-9.7474980288,1.5270840984,2.00391935,2.39210119,-3.22721324,,,
imu,69.008451,0.3241988176,-9.789966877600001,1.5420379184,1.95905789,2.19022462,-3.10010577,,,
imu,69.016912,0.3206099008000001,-9.803126239200001,1.5217007232,1.86185806,1.99582496,-3.0477674,,,
imu,69.025373,0.2978800944000001,-9.7995373224,1.4989709168,1.72727368,1.75656384,-2.9729983,,,
imu,69.033834,0.3020671640000001,-9.743909112,1.5187099592,1.68988913,1.77151766,-2.92065993,,,
imu,69.042295,0.2984782472,-9.739123889600002,1.5151210424,1.65250458,2.01825569,-2.91318302,,,
imu,69.050756,0.2889078024000001,-9.798341016800002,1.5228970288,1.69736604,2.11545552,-2.93561375,,,
imu,69.059217,0.2727576768,-9.803126239200001,1.5217007232,1.57025857,2.1752708,-2.95804448,,,
imu,69.067678,0.2542149400000001,-9.811500378400002,1.522298876,1.50296638,2.53416248,-2.84589083,,,
imu,69.076139,0.2733558296,-9.8234634344,1.5187099592,1.30108981,2.90053107,-2.88327538,,,
imu,69.0846,0.3026653168,-9.831837573600001,1.5121302784,1.11416706,3.19960747,-3.0477674,,,
imu,69.093061,0.3044597752,-9.8210708232,1.5097376672,0.7552753799999999,3.33419185,-3.26459779,,,
imu,69.101522,0.3236006648,-9.800733628000001,1.5175136536,0.71789083,3.64074516,-3.27955161,,,
imu,69.109983,0.3361618736,-9.772022293600001,1.5079432088,0.47862971,3.76785263,-3.47395127,,,
imu,69.118444,0.3457323184,-9.761853696000001,1.5037561392,0.3889067899999999,3.80523718,-3.69078166,,,
imu,69.126905,0.3511156936,-9.7361331256,1.4947838472,0.35899915,3.78280645,-3.72816621,,,
imu,69.135366,0.3684621248000001,-9.715795930400002,1.5205044176,0.22441477,3.90991392,-3.88518132,,,
imu,69.143827,0.3696584304000001,-9.706823638400001,1.5300748624,0.30666078,3.8949601,-4.0197657,,,
imu,69.152288,0.3684621248000001,-9.708019944000002,1.519308112,0.41133752,3.71551426,-4.124442439999999,,,
imu,69.160749,0.35889168,-9.710412555200001,1.5199062648,0.47862971,3.54354533,-4.16182699,,,
imu,69.169218,0.3570972216000001,-9.7086180968,1.5211025704,0.43376825,3.47625314,-4.19921154,,,
imu,69.177686,0.3505175408000001,-9.720581152800001,1.5300748624,0.3963837,3.26689966,-4.25154991,,,
imu,69.186155,0.3481249296000001,-9.7265626808,1.5258877928,0.38142988,2.98277708,-4.22164227,,,
imu,69.194624,0.3600879856,-9.710412555200001,1.5360563904,0.44872207,2.83323888,-4.04219643,,,
imu,69.203092,0.3660695136000001,-9.703234721600001,1.531271168,0.42629134,2.65379304,-3.90761205,,,
imu,69.211561,0.3523119992,-9.725366375200002,1.5205044176,0.58330645,2.40705501,-3.84779677,,,
imu,69.220029,0.3487230824000001,-9.754675862400001,1.5276822512,0.45619898,2.22760917,-3.76555076,,,
imu,69.228498,0.3218062064,-9.748096181600001,1.5348600848,0.27675314,2.19770153,-3.66835093,,,
imu,69.236967,0.3146283728000001,-9.739123889600002,1.5414397656,0.34404533,1.92105586,-3.7206893,,,
imu,69.245435,0.3008708584000001,-9.710412555200001,1.5228970288,0.17955331,1.9509635,-3.88518132,,,
imu,69.253904,0.2781410520000001,-9.718786694400002,1.5318693208,0.14216876,1.92105586,-3.95995042,,,
imu,69.262373,0.2847207328,-9.745105417600001,1.5587861968,0.41133752,2.13788625,-3.73564312,,,
imu,69.270841,0.3020671640000001,-9.754675862400001,1.5599825024,0.53844499,2.30985518,-3.67582784,,,
imu,69.27931,0.275150288,-9.776209363200001,1.5504120576,0.3216146,2.324809,-3.68330475,,,
imu,69.287778,0.275150288,-9.8013317808,1.5587861968,0.25432241,2.39210119,-3.63096638,,,
imu,69.296247,0.2817299688000001,-9.803126239200001,1.579123392,0.14964567,2.52668557,-3.60105874,,,
imu,69.304716,0.2889078024000001,-9.7989391696,1.5707492528,-0.06718472,2.58650085,-3.60853565,,,
imu,69.313184,0.2942911776,-9.746899876,1.5695529472,-0.38869185,2.64631613,-3.42908981,,,
imu,69.321653,0.2889078024000001,-9.7128051664,1.5743381696,-0.5008455,2.7734236,-3.36927453,,,
imu,69.330122,0.2984782472,-9.685888290400001,1.5635714192,-0.32887657,2.79585433,-3.24216706,,,
imu,69.33859,0.3038616224,-9.6703363176,1.5719455584,-0.2765382,2.70613141,-3.26459779,,,
imu,69.347059,0.3116376088,-9.6643547896,1.5755344752,-0.03727708,2.72856214,-3.43656672,,,
imu,69.355527,0.3056560808,-9.697851346400002,1.582114156,0.14964567,2.66126995,-3.69825857,,,
imu,69.363996,0.2889078024000001,-9.748694334400001,1.6084328792,0.1720764,2.53416248,-3.67582784,,,
imu,69.372455,0.2739539824000001,-9.769629682400002,1.6197977824,0.3889067899999999,2.48930102,-3.66087402,,,
imu,69.380913,0.2308869808,-9.748096181600001,1.6323589912,0.18703022,2.57902394,-3.45152054,,,
imu,69.389372,0.2027737992,-9.738525736800002,1.6263774632,0.10478421,2.81080815,-2.99542903,,,
imu,69.39783,0.1872218264,-9.7331423616,1.6174051712,0.12721494,3.31176112,-2.6739219,,,
imu,69.406288,0.2009793408,-9.7301515976,1.5994605872,0.16459949,3.61083752,-2.60662971,,,
imu,69.414747,0.2326814392,-9.697851346400002,1.5839086144,0.17955331,4.00711375,-2.56176825,,,
imu,69.423205,0.2775428992,-9.659569567200002,1.5773289336,0.29170696,4.08188285,-2.71130645,,,
imu,69.431664,0.311039456,-9.6637566368,1.5755344752,0.76275229,4.23142105,-2.92813684,,,
imu,68.441701,,,,,,,82.78921960000001,-38.75178680000002,130.6719872
imu,68.543446,,,,,,,82.83804839999999,-38.15363400000003,130.8062664
imu,68.644826,,,,,,,82.48403959999999,-38.45881400000002,130.6964016
imu,68.746449,,,,,,,82.2154812,-38.36115640000002,131.392212
imu,68.847951,,,,,,,82.7648052,-38.38557080000002,131.6607704
imu,69.440027,0.3008708584000001,-9.684093832000002,1.5773289336,0.94967504,4.18655959,-3.29450543,,,
imu,69.448485,0.2817299688000001,-9.688879054400001,1.567160336,1.07678251,4.05945212,-3.54872037,,,
imu,69.456944,0.2948893304,-9.6912716656,1.5659640304,1.15155161,4.20151341,-3.496382,,,
imu,69.465402,0.3134320672,-9.703234721600001,1.5587861968,1.19641307,4.17908268,-3.43656672,,,
imu,69.473861,0.3128339144,-9.7122070136,1.5569917384,1.27865908,4.2688056,-3.33188998,,,
imu,69.482319,0.320011748,-9.718786694400002,1.561178808,1.33099745,4.25385178,-3.17487487,,,
imu,69.490778,0.3247969704000001,-9.714001472000001,1.5474212936,1.30856672,4.0444983,-3.14496723,,,
imu,69.499236,0.3373581792000001,-9.7265626808,1.5390471544,1.40576655,3.86505246,-2.95056757,,,
imu,69.507695,0.3469286240000001,-9.748694334400001,1.5450286824,1.33847436,3.84262173,-2.80850628,,,
imu,69.516153,0.3295821928000001,-9.728955292000002,1.546224988,1.34595127,3.56597606,-2.74121409,,,
imu,69.524611,0.323002512,-9.722973764,1.5498139048,1.30108981,3.40896095,-2.69635263,,,
imu,69.53307,0.3361618736,-9.718786694400002,1.5360563904,1.1440747,3.39400713,-2.5991528,,,
imu,69.541528,0.3606861384,-9.745105417600001,1.5396453072,1.30856672,3.39400713,-2.73373718,,,
imu,69.549987,0.3732473472,-9.760059237600002,1.5438323768,1.21136689,3.19960747,-2.89075229,,,
imu,69.558445,0.3798270280000001,-9.7540777096,1.5516083632,1.12164397,3.02016163,-3.08515195,,,
imu,69.566904,0.3774344168000001,-9.7492924872,1.5545991272,1.01696723,2.75846978,-3.14496723,,,
imu,69.57573,0.3750418056000001,-9.7750130576,1.5534028216,0.91229049,2.61640849,-3.08515195,,,
imu,69.584556,0.3660695136000001,-9.7911631832,1.5408416128,0.8524752099999999,2.57154703,-2.92065993,,,
imu,69.593382,0.3475267768,-9.769031529600001,1.5480194464,1.00201341,2.56407012,-2.62158353,,,
imu,69.602209,0.3391526376000001,-9.739123889600002,1.5366545432,0.8674290299999999,2.48930102,-2.54681443,,,
imu,69.611035,0.3397507904000001,-9.6912716656,1.5504120576,0.80013684,2.49677793,-2.55429134,,,
imu,69.619861,0.340947096,-9.716992236000001,1.5617769608,0.9347212199999999,2.5491163,-2.40475314,,,
imu,69.628687,0.3313766512,-9.7780038216,1.561178808,0.9870595899999999,2.61640849,-2.53933752,,,
imu,69.637513,0.3259932760000001,-9.7815927384,1.5563935856,0.9347212199999999,2.75099287,-2.81598319,,,
imu,69.64634,0.3283858872000001,-9.746899876,1.5683566416,0.65807555,2.89305416,-2.86084465,,,
imu,69.655166,0.3218062064,-9.709814402400001,1.5540009744,0.71789083,3.17717674,-2.65896808,,,
imu,69.663992,0.3182172896000001,-9.735534972800002,1.5504120576,0.51601426,3.36409949,-2.51690679,,,
imu,69.672818,0.3277877344,-9.785779808000001,1.5420379184,0.620691,3.64822207,-2.5243837,,,
imu,69.681645,0.3612842912,-9.800135475200001,1.54024346,0.53096808,3.93234465,-2.57672207,,,
imu,69.690471,0.3941826952,-9.793555794400001,1.5450286824,0.41881443,4.08935976,-2.65896808,,,
imu,69.699297,0.3834159448,-9.794752100000002,1.5474212936,0.30666078,4.27628251,-2.98047521,,,
imu,69.708123,0.3846122504,-9.762451848800001,1.537252696,0.23189168,4.26132869,-3.14496723,,,
imu,69.716949,0.3929863896,-9.737329431200001,1.5426360712,0.0001074699999999984,4.22394414,-3.35432071,,,
imu,69.725776,0.3870048616000001,-9.7504887928,1.549215752,-0.007369440000000005,4.171605769999999,-3.45899745,,,
imu,69.734602,0.3786307224000001,-9.800135475200001,1.5545991272,-0.09709236,4.07440594,-3.60853565,,,
imu,69.743428,0.370854736,-9.852174768800001,1.5498139048,-0.31392275,4.0444983,-3.73564312,,,
imu,69.752254,0.3582935272000001,-9.836024643200002,1.528280404,-0.55318387,4.149175039999999,-3.9449966,,,
imu,69.76108,0.3343674152,-9.7750130576,1.5324674736,-1.07656757,4.13422122,-4.102011709999999,,,
imu,69.769907,0.3457323184,-9.7576666264,1.5426360712,-1.39059779,4.171605769999999,-3.86275059,,,
imu,69.778377,0.3325729568,-9.767237071200002,1.5300748624,-1.56256672,4.40338998,-3.66087402,,,
imu,69.786846,0.3182172896000001,-9.7510869456,1.534261932,-1.65228964,4.66508183,-3.51133582,,,
imu,69.795316,0.3086468448,-9.728955292000002,1.5414397656,-1.71958183,4.694989469999999,-3.40665908,,,
imu,69.803786,0.3182172896000001,-9.745105417600001,1.5659640304,-1.80182784,4.82957385,-3.24216706,,,
imu,69.812256,0.3122357616,-9.776807516000002,1.5695529472,-1.83921239,4.9417275,-3.10758268,,,
imu,69.820726,0.2996745528,-9.785181655200002,1.5701511,-1.80182784,5.27071154,-2.96552139,,,
imu,69.829196,0.266177996,-9.7845835024,1.5898901424,-2.10090424,5.48006502,-2.85336774,,,
imu,69.837666,0.221316536,-9.7989391696,1.594077212,-2.26539626,5.82400288,-2.88327538,,,
imu,69.846136,0.1297991576,-9.786976113600002,1.5863012256,-2.51213429,6.38477113,-2.79355246,,,
imu,69.854606,0.07177833600000001,-9.7540777096,1.5868993784,-2.57942648,7.44649235,-2.71878336,,,
imu,69.863076,0.1172379488,-9.743310959200002,1.6072365736,-2.72896468,8.69513632,-2.89075229,,,
imu,69.871545,0.1543234224,-9.7193848472,1.6156107128,-2.75139541,9.913872649999998,-3.0477674,,,
imu,69.880015,0.1471455888,-9.6775141512,1.6162088656,-2.77382614,10.90830168,-3.42908981,,,
imu,69.888485,0.1453511304,-9.659569567200002,1.6203959352,-2.51213429,11.8952538,-3.74312003,,,
imu,69.896955,0.1698753952,-9.688879054400001,1.6293682272,-2.2953039,12.95697502,-3.89265823,,,
imu,69.905425,0.2105497856,-9.751685098400001,1.6580795616,-2.39998064,13.7644813,-4.13939626,,,
imu,69.913895,0.2470371064,-9.7989391696,1.6670518536,-2.60933412,14.33272646,-4.5431494,,,
imu,69.922365,0.2607946208,-9.7959484056,1.6634629368,-2.72148777,14.91592544,-4.87213344,,,
imu,69.930835,0.2835244272,-9.788770572,1.6437238944,-3.21496383,15.36454004,-5.22354821,,,
imu,69.939305,0.3564990688,-9.7911631832,1.6317608384,-3.55142478,15.66361644,-5.761885729999999,,,
imu,69.947775,0.4234921824,-9.7750130576,1.6317608384,-3.91779337,15.56641661,-6.419853809999999,,,
imu,69.956244,0.46356842,-9.709216249600003,1.6341534496,-4.254254319999999,15.4094015,-7.04043734,,,
imu,69.964714,0.4833074624000001,-9.647606511200001,1.635947908,-4.157054489999999,15.17761729,-7.10772953,,,
imu,69.973184,0.5120187968000001,-9.606932120800002,1.6281719216,-4.0897623,14.72152578,-7.13763717,,,
imu,69.981648,0.5293652280000001,-9.578220786400001,1.6514998808,-3.62619388,14.34020337,-6.943237509999999,,,
imu,69.990111,0.5622636320000001,-9.583006008800002,1.662864784,-3.01308726,13.81681967,-6.71893021,,,
imu,69.998575,0.5790119104,-9.578220786400001,1.6634629368,-2.66167249,13.11399013,-6.554438189999999,,,
imu,70.007038,0.5808063688,-9.568052188800001,1.6730333816,-2.20558098,12.40368368,-6.397423079999999,,,
imu,70.015502,0.6041343280000001,-9.533359326400001,1.701744716,-1.7719202,11.50645448,-6.25536179,,,
imu,70.023965,0.6154992312,-9.503451686400002,1.7232782168,-1.24105959,10.48959472,-6.135731229999999,,,
imu,70.032429,0.6244715232,-9.516611048000001,1.7412228008,-0.45598404,9.34562749,-6.14320814,,,
imu,70.040893,0.6107140088,-9.547116840800001,1.7812990384,0.15712258,8.2315679,-6.10582359,,,
imu,70.049356,0.5849934384000001,-9.577024480800002,1.7944584,0.80013684,7.409107799999999,-6.00114685,,,
imu,70.05782,0.55329134,-9.624278552000002,1.8046269976,1.28613599,6.34738658,-5.71702427,,,
imu,70.066283,0.5437208952000001,-9.693664276800002,1.8435069296,1.65250458,5.48006502,-5.38056332,,,
imu,70.074747,0.5251781584,-9.7265626808,1.8327401792,1.63755076,4.53797436,-5.20111748,,,
imu,70.08321,0.4898871432,-9.683495679200002,1.7908694832,1.71231986,3.80523718,-4.77493361,,,
imu,70.091674,0.4539979752000001,-9.633848996800001,1.7950565528,1.8169966,3.26689966,-4.23659609,,,
imu,70.100137,0.4402404608,-9.630858232800001,1.7962528584,1.84690424,2.9229618,-3.84779677,,,
imu,70.108601,0.4324644744,-9.661364025600001,1.7932620944,1.99644244,2.53416248,-3.30198234,,,
imu,70.117064,0.4175106544000001,-9.667943706400001,1.7777101216,2.116073,2.16779389,-2.9729983,,,
imu,70.125528,0.4121272792,-9.6799067624,1.7807008856,2.15345755,1.83133294,-2.9729983,,,
imu,70.133992,0.4103328208,-9.718188541600002,1.7896731776,2.16841137,1.52477963,-3.15244414,,,
imu,70.142455,0.4109309736,-9.7325442088,1.7579710792,2.20579592,1.37524143,-3.25712088,,,
imu,70.150919,0.3911919312,-9.730749750400001,1.6790149096,2.13850373,1.14345722,-3.51133582,,,
imu,70.159382,0.3259932760000001,-9.659569567200002,1.7035391744,2.07868845,1.18084177,-3.60853565,,,
imu,70.167846,0.2793373576,-9.5842023144,1.7370357312,2.0413039,1.36776452,-3.60853565,,,
imu,70.176309,0.2853188856,-9.6494009696,1.7412228008,2.1908421,1.51730272,-3.90013514,,,
imu,70.184772,0.266177996,-9.7606573904,1.7412228008,2.51982614,1.75656384,-4.19173463,,,
imu,70.193234,0.2219146888,-9.834828337600001,1.746606176,2.38524176,2.05564024,-4.49828794,,,
imu,70.201696,0.2129423968,-9.859950755200002,1.7262689808,1.85438115,2.51920866,-4.9169949,,,
imu,70.210158,0.1800439928,-9.8294449624,1.7161003832,1.62259694,3.03511545,-4.8422258,,,
imu,70.218621,0.1938015072,-9.8079114616,1.7023428688,1.35342818,3.58840679,-4.715118329999999,,,
imu,70.227083,0.203371952,-9.809107767200002,1.6580795616,1.24875144,4.16412886,-4.66277996,,,
imu,70.235545,0.2398592728,-9.843800629600002,1.623984852,1.26370526,4.61274346,-4.83474889,,,
imu,70.244007,0.2775428992,-9.810902225600001,1.5845067672,1.01696723,4.96415823,-5.17868675,,,
imu,70.25247,0.2667761488000001,-9.718786694400002,1.5994605872,0.58330645,5.10621952,-5.896470109999999,,,
imu,68.949446,,,,,,,82.1178236,-38.75178680000002,130.7086088
imu,69.051009,,,,,,,82.56949,-38.23908440000001,129.7686544
imu,69.152541,,,,,,,82.06899480000001,-38.43439960000001,130.9283384
imu,69.254164,,,,,,,84.30291240000001,-39.34993960000001,128.3770336
imu,69.355696,,,,,,,81.9957516,-37.81183240000001,130.9527528
imu,69.457228,,,,,,,84.4127772,-39.34993960000001,128.0596464
imu,69.558821,,,,,,,82.386382,-38.7762012,130.598744
imu,69.660384,,,,,,,82.2154812,-38.3123276,129.8785192
imu,70.260932,0.236270356,-9.685290137600001,1.5928809064,0.65059864,5.352957549999999,-6.135731229999999,,,
imu,70.269394,0.1979885768,-9.735534972800002,1.5833104616,0.70293701,5.79409524,-6.203023419999999,,,
imu,70.277856,0.1812402984,-9.752881404000002,1.573141864,0.6954601,6.23523293,-6.33013089,,,
imu,70.286319,0.1949978128,-9.727758986400001,1.5587861968,0.6281679099999999,6.78104736,-6.24040797,,,
imu,70.294781,0.2141387024,-9.70502918,1.5773289336,0.41133752,7.222185049999999,-6.337607799999999,,,
imu,70.303243,0.2643835376,-9.709216249600003,1.558188044,0.49358353,7.6334151,-6.337607799999999,,,
imu,70.311706,0.2889078024000001,-9.720581152800001,1.552206516,0.60573718,7.70070729,-6.45723836,,,
imu,70.320168,0.2907022608000001,-9.716992236000001,1.546224988,0.59078336,7.82033785,-6.689022570000001,,,
imu,70.32863,0.2918985664000001,-9.713403319200001,1.5599825024,0.68050628,7.693230379999999,-6.84603768,,,
imu,70.337092,0.3170209840000001,-9.7283571392,1.5737400168,0.80013684,7.409107799999999,-6.883422229999999,,,
imu,70.345555,0.3194135952000001,-9.7474980288,1.582114156,0.8749059399999999,7.02030848,-6.89089914,,,
imu,70.354017,0.3355637208,-9.749890640000002,1.58510492,0.77770611,6.810955,-6.84603768,,,
imu,70.362479,0.3493212352000001,-9.7504887928,1.5976661288,0.5982602699999999,6.2875713,-6.711453300000001,,,
imu,70.370941,0.3385544848000001,-9.775611210400001,1.6084328792,0.44124516,5.88381816,-6.38994617,,,
imu,70.379404,0.3493212352000001,-9.800135475200001,1.6102273376,0.29170696,5.33800373,-5.93385466,,,
imu,70.38787,0.3253951232,-9.766040765600001,1.6257793104,0.01506129,4.82209694,-5.567486069999999,,,
imu,70.396336,0.2984782472,-9.7337405144,1.6443220472,-0.17186146,4.30619015,-5.021671639999999,,,
imu,70.404802,0.3218062064,-9.743909112,1.6323589912,-0.23915365,3.78280645,-4.408565019999999,,,
imu,70.413268,0.3385544848000001,-9.746899876,1.6323589912,-0.10456927,3.43139168,-3.78050458,,,
imu,70.421734,0.3564990688,-9.7492924872,1.6335552968,0.05244583999999999,3.05006927,-3.38422835,,,
imu,70.4302,0.3762381112000001,-9.722973764,1.6443220472,0.05992275,2.51173175,-3.31693616,,,
imu,70.438666,0.3750418056000001,-9.7163940832,1.6580795616,0.12721494,2.1005017,-3.02533667,,,
imu,70.447132,0.3780325696000001,-9.7504887928,1.6562851032,0.19450713,1.56964109,-2.86832156,,,
imu,70.455598,0.3810233336,-9.767237071200002,1.6712389232,0.36647606,0.9191499199999997,-3.10758268,,,
imu,70.464065,0.3385544848000001,-9.755274015200001,1.692772424,0.32909151,0.3733354899999997,-3.08515195,,,
imu,70.472531,0.3074505392,-9.7403201952,1.6796130624,0.16459949,-0.0603252900000002,-2.90570611,,,
imu,70.480997,0.2739539824000001,-9.7427128064,1.6712389232,0.10478421,-0.2173404000000003,-2.79355246,,,
imu,70.489463,0.233279592,-9.745703570400002,1.710717008,0.08235347999999998,-0.39678624,-2.47204533,,,
imu,70.497929,0.263187232,-9.7361331256,1.6784167568,0.12721494,-0.45660152,-2.31503022,,,
imu,70.506395,0.287113344,-9.7492924872,1.6712389232,0.04496892999999999,-0.6210935399999999,-2.51690679,,,
imu,70.514861,0.3032634696000001,-9.728955292000002,1.6969594936,0.16459949,-0.7332471900000002,-2.60662971,,,
imu,70.523327,0.2805336632,-9.6703363176,1.6951650352,0.04496892999999999,-0.9276468500000004,-2.76364482,,,
imu,70.531676,0.296085636,-9.659569567200002,1.6802112152,0.40386061,-1.00989286,-2.98047521,,,
imu,70.540142,0.2637853848,-9.6817012208,1.6760241456,0.71789083,-1.02484668,-2.98047521,,,
imu,70.548608,0.2488315648,-9.66016772,1.6933705768,0.7702292,-1.06223123,-2.89075229,,,
imu,70.557074,0.2607946208,-9.627867468800002,1.695763188,0.76275229,-1.0398005,-2.72626027,,,
imu,70.565541,0.266177996,-9.658373261600001,1.7059317856,0.8674290299999999,-0.9650314,-2.50195297,,,
imu,70.574007,0.2458408008,-9.714001472000001,1.7238763696,0.9945364999999999,-0.9276468500000004,-2.27764567,,,
imu,70.582473,0.2380648144,-9.727758986400001,1.7268671336,0.9048135799999999,-0.76315483,-1.97856927,,,
imu,70.591288,0.2243073,-9.692467971200001,1.7083243968,0.68050628,-0.6360473600000001,-1.90380017,,,
imu,70.600104,0.2326814392,-9.6703363176,1.7041373272,0.5459219,-0.5014629800000003,-1.91127708,,,
imu,70.60892,0.2404574256,-9.6709344704,1.70473548,0.620691,-0.3369709599999999,-2.05333837,,,
imu,70.617735,0.2278962168,-9.7056273328,1.70473548,0.80761375,0.05182836000000002,-2.02343073,,,
imu,70.626551,0.2057645632,-9.7283571392,1.698753952,0.81509066,0.29856639,-2.13558438,,,
imu,70.635366,0.2278962168,-9.7474980288,1.7053336328,0.97958268,0.6873657099999999,-2.32998404,,,
imu,70.644182,0.2338777448,-9.786377960800001,1.7214837584,1.07678251,1.11354958,-2.60662971,,,
imu,70.652998,0.2261017584,-9.800135475200001,1.7071280912,0.7253677399999999,1.3528107,-2.92813684,,,
imu,70.661813,0.2051664104,-9.786976113600002,1.7029410216,0.67302937,1.79394839,-2.98047521,,,
imu,70.670629,0.2165313136,-9.766638918400002,1.7029410216,0.46367589,2.12293243,-3.21225942,,,
imu,70.679444,0.2314851336,-9.783387196800001,1.7101188552,0.33656842,2.33228591,-3.33188998,,,
imu,70.68826,0.2518223288000001,-9.7780038216,1.7041373272,0.2468455,2.6238854,-3.32441307,,,
imu,70.697076,0.2667761488000001,-9.727160833600001,1.68978166,0.02253820000000001,2.68370068,-3.16739796,,,
imu,70.705891,0.2703650656,-9.688879054400001,1.68978166,0.09730729999999999,2.76594669,-3.23469015,,,
imu,70.714707,0.275150288,-9.7128051664,1.6772204512,0.41133752,2.98277708,-3.18235178,,,
imu,70.723522,0.2727576768,-9.743310959200002,1.6921742712,0.59078336,2.96034635,-3.26459779,,,
imu,70.732338,0.2996745528,-9.727758986400001,1.68978166,0.7104139199999999,2.99025399,-3.22721324,,,
imu,70.741154,0.3044597752,-9.685888290400001,1.6993521048,0.66555246,2.93791562,-3.35432071,,,
imu,70.749969,0.3122357616,-9.682299373600001,1.7119133136,0.7702292,2.83323888,-3.38422835,,,
imu,70.758785,0.3337692624,-9.706225485600001,1.7035391744,0.80013684,2.70613141,-3.27955161,,,
imu,70.7676,0.3385544848000001,-9.711608860800002,1.698753952,0.80013684,2.324809,-3.46647436,,,
imu,70.776416,0.367863972,-9.7295534448,1.70473548,0.79265993,1.98834805,-3.45899745,,,
imu,70.785232,0.370854736,-9.746899876,1.683800132,0.8749059399999999,1.74908693,-3.50385891,,,
imu,70.793738,0.3564990688,-9.741516500800001,1.668846312,0.8375213899999999,1.44253362,-3.45152054,,,
imu,70.802245,0.3385544848000001,-9.7193848472,1.677818604,0.71789083,1.10607267,-3.496382,,,
imu,70.810752,0.3283858872000001,-9.7337405144,1.6730333816,0.67302937,0.7696117199999999,-3.54124346,,,
imu,70.819259,0.2978800944000001,-9.7576666264,1.650901728,0.58330645,0.62007352,-3.77302767,,,
imu,70.827765,0.2757484408,-9.749890640000002,1.6586777144,0.56087572,0.56025824,-3.85527368,,,
imu,70.836272,0.2542149400000001,-9.7301515976,1.6915761184,0.42629134,0.5976427899999996,-3.75059694,,,
imu,70.844779,0.2380648144,-9.722375611200002,1.656883256,0.35899915,0.7546578999999998,-3.71321239,,,
imu,70.853286,0.2374666616,-9.711608860800002,1.6670518536,0.35899915,0.9341037399999998,-3.86275059,,,
imu,70.861793,0.2428500368,-9.702636568800001,1.6670518536,0.51601426,1.27056469,-3.84779677,,,
imu,70.870299,0.2488315648,-9.739123889600002,1.6760241456,0.3739529699999999,1.41262598,-3.9449966,,,
imu,70.878806,0.2613927736,-9.737329431200001,1.6814075208,0.33656842,1.58459491,-3.98985806,,,
imu,70.887313,0.2865151912,-9.713403319200001,1.671837076,0.41881443,1.56964109,-4.28145755,,,
imu,70.89582,0.2883096496000001,-9.742114653600002,1.6760241456,0.31413769,1.70422547,-4.42351884,,,
imu,70.904326,0.3176191368,-9.783985349600002,1.6700426176,0.13469185,1.73413311,-4.37865738,,,
imu,70.912833,0.3690602776000001,-9.780396432800002,1.6915761184,-0.06718472,1.77151766,-4.49081103,,,
imu,70.92134,0.3905937784,-9.76484446,1.6790149096,-0.20924601,1.62945637,-4.51324176,,,
imu,70.929847,0.3822196392,-9.745703570400002,1.6796130624,-0.36626112,1.37524143,-4.58801086,,,
imu,70.938353,0.3816214864,-9.755274015200001,1.6879872016,-0.38121494,1.0537343,-4.4683803,,,
imu,70.94686,0.3834159448,-9.801929933600002,1.725670828,-0.41859949,0.70231953,-4.61044159,,,
imu,70.955367,0.4210995712,-9.8013317808,1.6963613408,-0.55318387,0.4929660499999997,-4.737549059999999,,,
imu,70.963874,0.3612842912,-9.7193848472,1.7298578976,-0.77749117,0.09668981999999993,-4.66277996,,,
imu,70.972381,0.3487230824000001,-9.6918698184,1.773523052,-0.91955246,-0.04537147000000008,-4.55810322,,,
imu,70.980887,0.2775428992,-9.6745233872,1.740624648,-0.77001426,-0.1575251200000003,-4.25154991,,,
imu,70.989394,0.281131816,-9.703234721600001,1.7125114664,-0.91955246,-0.4266938800000002,-4.29641137,,,
imu,70.997839,0.3158246784000001,-9.617100718400001,1.7310542032,-0.89712173,-0.4117400600000001,-4.30388828,,,
imu,71.006283,0.266177996,-9.599754287200001,1.7442135648,-0.7401066199999999,-0.5313706200000001,-4.59548777,,,
imu,71.014728,0.2518223288000001,-9.656578803200002,1.7370357312,-0.46346095,-0.6734319100000001,-4.954379449999999,,,
imu,71.023172,0.2667761488000001,-9.740918348000001,1.7460080232,-0.4260764,-0.82297011,-4.92447181,,,
imu,71.031616,0.2578038568000001,-9.7714241408,1.767541524,-0.20924601,-0.7332471900000002,-4.78241052,,,
imu,71.040061,0.2255036056,-9.768433376800001,1.7753175104,-0.18681528,-0.8304470200000003,-4.759979789999999,,,
imu,71.048505,0.173464312,-9.752881404000002,1.7980473168,-0.25410747,-0.7781086500000001,-4.6179185,,,
imu,71.05695,0.1896144376,-9.7163940832,1.740624648,-0.35878421,-0.39678624,-4.28893446,,,
imu,71.065394,0.1997830352,-9.641026830400001,1.7196893,-0.32139966,-0.2696787700000001,-4.012288789999999,,,
imu,71.073839,0.2458408008,-9.6505972752,1.7292597448,0.06739966,0.05182836000000002,-3.78798149,,,
imu,69.762068,,,,,,,81.80043640000001,-38.21467000000001,131.209104
imu,69.863539,,,,,,,81.776022,-38.20246280000001,130.7086088
imu,69.965071,,,,,,,81.4830492,-37.787418,130.5743296
imu,70.066664,,,,,,,80.5675092,-37.29913000000003,129.927348
imu,70.168166,,,,,,,80.7262028,-37.25030120000001,128.584556
imu,70.269728,,,,,,,80.4698516,-37.32354440000001,128.9141504
imu,70.371291,,,,,,,82.7403908,-38.47102120000001,126.6558184
imu,70.472853,,,,,,,79.8106628,-37.25030120000001,129.3047808
imu,71.082283,0.2398592728,-9.685888290400001,1.7388301896,0.28423005,0.05182836000000002,-3.68330475,,,
imu,71.090728,0.20935348,-9.7122070136,1.7155022304,0.34404533,0.1265974599999997,-3.7206893,,,
imu,71.099172,0.2470371064,-9.6709344704,1.7244745224,0.43376825,0.2088434699999997,-3.81788913,,,
imu,71.107617,0.3008708584000001,-9.675121540000001,1.7478024816,0.5010604399999999,-0.08275602000000015,-3.60105874,,,
imu,71.116061,0.2464389536,-9.7074217912,1.7274652864,0.64312173,-0.2846325900000002,-3.13749032,,,
imu,71.124506,0.2087553272,-9.746899876,1.7298578976,0.42629134,-0.4491246100000001,-3.13749032,,,
imu,71.13295,0.1932033544,-9.738525736800002,1.7280634392,0.29918387,-0.5164168,-3.05524431,,,
imu,71.141395,0.28412258,-9.767835224,1.7478024816,0.16459949,-0.6285704500000002,-3.13749032,,,
imu,71.149839,0.2649816904,-9.748096181600001,1.728661592,-0.10456927,-0.80053938,-3.18982869,,,
imu,71.158284,0.2691687600000001,-9.724170069600001,1.7196893,-0.38869185,-0.94260067,-3.30198234,,,
imu,71.166728,0.188418132,-9.6918698184,1.7196893,-0.33635348,-0.82297011,-3.21225942,,,
imu,71.175172,0.1710717008,-9.7151977776,1.7507932456,-0.39616876,-0.8753084800000002,-3.2720747,,,
imu,71.183617,0.185427368,-9.715795930400002,1.7741212048,-0.32887657,-0.86035466,-3.23469015,,,
imu,71.192061,0.173464312,-9.739123889600002,1.7992436224,-0.32139966,-0.7332471900000002,-2.99542903,,,
imu,71.200516,0.1597067976,-9.7636481544,1.8046269976,-0.44850713,-0.39678624,-3.00290594,,,
imu,71.208971,0.08912476720000001,-9.718188541600002,1.7902713304,-0.70272207,-0.007986920000000008,-3.21973633,,,
imu,71.217425,0.0681894192,-9.669738164800002,1.8076177616,-0.77001426,0.3509047599999997,-3.30945925,,,
imu,71.22588,0.09510629520000001,-9.675719692800001,1.8118048312,-0.65786061,0.7172733499999997,-3.38422835,,,
imu,71.234335,0.08972292000000001,-9.709814402400001,1.8118048312,-0.41859949,1.22570323,-3.44404363,,,
imu,71.242789,0.06460050240000001,-9.700243957600001,1.7956547056,-0.37373803,1.56964109,-3.66835093,,,
imu,71.251244,0.0532355992,-9.651195428000001,1.8010380808,-0.29896893,2.06311715,-3.75059694,,,
imu,71.259699,0.08194693360000001,-9.637437913600001,1.8201789704,-0.11952309,2.51173175,-3.53376655,,,
imu,71.268153,0.1250139352,-9.683495679200002,1.8207771232,0.41133752,3.01268472,-3.33936689,,,
imu,71.276608,0.1806421456,-9.727758986400001,1.7878787192,0.46367589,3.31176112,-3.52628964,,,
imu,71.285062,0.2111479384,-9.716992236000001,1.7956547056,0.35152224,3.25942275,-3.65339711,,,
imu,71.293517,0.1902125904,-9.635643455200002,1.7789064272,0.3963837,3.20708438,-3.70573548,,,
imu,71.301972,0.206362716,-9.630858232800001,1.7848879552,0.56087572,3.16222292,-3.496382,,,
imu,71.310426,0.242251884,-9.718188541600002,1.8118048312,0.9646288599999999,3.28933039,-2.86084465,,,
imu,71.318881,0.2697669128,-9.797144711200001,1.7992436224,1.1440747,3.20708438,-2.50195297,,,
imu,71.327336,0.296085636,-9.773218599200002,1.7651489128,1.01696723,3.09493073,-2.6739219,,,
imu,71.33579,0.3313766512,-9.699645804800001,1.7633544544,0.70293701,2.84071579,-2.98047521,,,
imu,71.344245,0.3236006648,-9.617100718400001,1.7621581488,0.7552753799999999,2.6986545,-3.20478251,,,
imu,71.3527,0.3128339144,-9.6499991224,1.7741212048,1.18145925,2.41453192,-3.35432071,,,
imu,71.361154,0.2488315648,-9.6817012208,1.7597655376,1.46558183,2.29490136,-3.67582784,,,
imu,71.369609,0.2440463424,-9.694860582400002,1.76455076,1.65250458,2.13788625,-3.9449966,,,
imu,71.378063,0.2428500368,-9.682897526400001,1.7830934968,1.56278166,2.07059406,-4.0197657,,,
imu,71.386518,0.2195220776,-9.6984494992,1.7777101216,1.50296638,2.10797861,-3.98985806,,,
imu,71.394973,0.2081571744,-9.684093832000002,1.7711304408,1.41324346,2.1752708,-3.85527368,,,
imu,71.403744,0.2440463424,-9.693066124000001,1.7759156632,1.2936129,2.08554788,-3.84779677,,,
imu,71.412515,0.2590001624000001,-9.703234721600001,1.7382320368,1.16650543,1.98834805,-3.81788913,,,
imu,71.421287,0.2255036056,-9.6984494992,1.7484006344,1.16650543,1.93600968,-3.86275059,,,
imu,71.430058,0.212344244,-9.693664276800002,1.737633884,1.09173633,1.71170238,-3.99733497,,,
imu,71.438829,0.212344244,-9.706225485600001,1.7501950928,1.18893616,1.70422547,-3.73564312,,,
imu,71.4476,0.2237091472,-9.731347903200001,1.7531858568,1.24875144,1.68927165,-3.45899745,,,
imu,71.456372,0.2201202304,-9.766638918400002,1.7454098704,1.21136689,1.63693328,-3.36179762,,,
imu,71.465143,0.1788476872,-9.788172419200002,1.7531858568,1.22632071,1.89862513,-3.07767504,,,
imu,71.473914,0.1848292152,-9.767835224,1.76455076,1.05435178,2.16031698,-2.77112173,,,
imu,71.482685,0.1997830352,-9.7295534448,1.758569232,0.94219813,2.33976282,-2.61410662,,,
imu,71.491457,0.1896144376,-9.702038416,1.752587704,0.9870595899999999,2.48182411,-2.68139881,,,
imu,71.500228,0.2069608688,-9.7086180968,1.7603636904,1.01696723,2.63136231,-2.87579847,,,
imu,71.508999,0.2757484408,-9.7128051664,1.7609618432,0.8823828499999999,2.74351596,-3.15244414,,,
imu,71.51777,0.2823281216,-9.676915998400002,1.7543821624,1.05435178,2.87062343,-3.39170526,,,
imu,71.526542,0.2667761488000001,-9.633250844,1.7513913984,1.02444414,2.94539253,-3.75059694,,,
imu,71.535313,0.263187232,-9.6039413568,1.7484006344,1.30108981,3.06502309,-3.84031986,,,
imu,71.544084,0.2488315648,-9.648802816800002,1.7830934968,1.62259694,3.05754618,-3.44404363,,,
imu,71.552855,0.2895059552,-9.716992236000001,1.773523052,1.80204278,3.06502309,-3.36927453,,,
imu,71.561627,0.2930948720000001,-9.746899876,1.77950458,1.99644244,3.06502309,-3.53376655,,,
imu,71.570398,0.2954874832,-9.731347903200001,1.7639526072,1.71231986,2.90053107,-3.496382,,,
imu,71.579169,0.3499193880000001,-9.689477207200001,1.7627563016,1.45062801,2.5491163,-3.56367419,,,
imu,71.58794,0.3463304712,-9.636839760800001,1.7543821624,1.5926893,2.27247063,-3.62348947,,,
imu,71.596712,0.3080486920000001,-9.638634219200002,1.7693359824,1.83942733,1.89862513,-3.62348947,,,
imu,71.605483,0.3236006648,-9.7427128064,1.7573729264,1.98896553,1.3528107,-3.66087402,,,
imu,71.614084,0.3032634696000001,-9.748694334400001,1.7519895512,1.86933497,0.9191499199999997,-3.44404363,,,
imu,71.622684,0.263187232,-9.7128051664,1.76455076,1.75718132,0.7172733499999997,-3.26459779,,,
imu,71.631465,0.242251884,-9.686486443200002,1.7753175104,1.56278166,0.5677351499999999,-3.23469015,,,
imu,71.640066,0.2488315648,-9.711608860800002,1.7753175104,1.67493531,0.4854891399999999,-2.84589083,,,
imu,71.648666,0.2099516328,-9.7492924872,1.7759156632,1.75718132,0.3060432999999998,-2.62158353,,,
imu,71.657267,0.1836329096,-9.7510869456,1.7717285936,1.60016621,0.4630584099999999,-2.56924516,,,
imu,71.665868,0.1728661592,-9.744507264800001,1.7621581488,1.45062801,0.8144731799999998,-2.48699915,,,
imu,71.674468,0.1746606176,-9.7295534448,1.7430172592,1.34595127,1.06868812,-2.36736859,,,
imu,71.683069,0.1842310624,-9.708019944000002,1.7418209536,1.37585891,1.3528107,-2.24773803,,,
imu,71.69167,0.1955959656,-9.655980650400002,1.7424191064,1.40576655,1.68927165,-2.2253073,,,
imu,71.70027,0.2171294664,-9.661962178400001,1.7489987872,1.83195042,2.01825569,-2.26269185,,,
imu,71.708871,0.2584020096,-9.701440263200002,1.7310542032,1.95158098,2.10797861,-2.36736859,,,
imu,71.717472,0.2805336632,-9.728955292000002,1.7143059248,1.9665348,2.28742445,-2.44213769,,,
imu,71.726072,0.3098431504,-9.727758986400001,1.7184929944,2.03382699,2.34723973,-2.64401426,,,
imu,71.734673,0.3325729568,-9.7217774584,1.7202874528,2.07868845,2.35471664,-2.99542903,,,
imu,71.743274,0.352910152,-9.718188541600002,1.7023428688,2.04878081,2.24256299,-3.24964397,,,
imu,71.751874,0.3559009160000001,-9.7534795568,1.7083243968,2.09364227,2.05564024,-3.30945925,,,
imu,71.760475,0.3977716120000001,-9.759461084800002,1.7071280912,1.95158098,1.74908693,-3.38422835,,,
imu,71.769076,0.3672658192000001,-9.706823638400001,1.6820056736,1.76465823,1.47991817,-3.30945925,,,
imu,71.777676,0.3170209840000001,-9.703832874400002,1.6933705768,1.79456587,1.19579559,-3.24964397,,,
imu,71.786277,0.3493212352000001,-9.7151977776,1.695763188,1.79456587,0.9640113799999996,-3.40665908,,,
imu,71.794877,0.3594898328000001,-9.7534795568,1.7125114664,1.68241222,0.4705353199999998,-3.25712088,,,
imu,71.803478,0.3176191368,-9.803126239200001,1.6969594936,1.65998149,0.27613566,-3.18235178,,,
imu,71.812097,0.2883096496000001,-9.779200127200001,1.6826038264,1.33847436,0.07425908999999997,-3.20478251,,,
imu,71.820715,0.2679724544000001,-9.706225485600001,1.6730333816,1.13659779,-0.07527911000000032,-3.01785976,,,
imu,71.829334,0.2847207328,-9.6428212888,1.6604721728,0.9571519499999999,-0.1575251200000003,-2.8234601,,,
imu,71.837953,0.2506260232,-9.6667474008,1.7005484104,1.18145925,-0.23229422,-2.49447606,,,
imu,71.846571,0.230288828,-9.718188541600002,1.7143059248,1.53287402,-0.09770984000000027,-2.11315365,,,
imu,71.85519,0.2356722032,-9.7534795568,1.6903798128,1.48053565,-0.0005100100000001717,-1.91127708,,,
imu,71.863809,0.2195220776,-9.783985349600002,1.698753952,1.58521239,0.07425908999999997,-1.73183124,,,
imu,71.872428,0.2117460912,-9.8162856008,1.7196893,1.45062801,0.1265974599999997,-1.82903107,,,
imu,71.881046,0.2171294664,-9.830641268,1.7214837584,1.19641307,0.4854891399999999,-1.76921579,,,
imu,71.889665,0.2284943696,-9.786377960800001,1.7202874528,1.15155161,0.78456554,-1.83650798,,,
imu,71.898284,0.2207183832,-9.766040765600001,1.6820056736,1.09173633,0.7995193599999997,-1.97109236,,,
imu,70.574617,,,,,,,82.25210279999999,-38.00714760000001,126.631404
imu,70.676149,,,,,,,79.6763836,-36.99395000000001,129.4512672
imu,70.777742,,,,,,,79.79845560000001,-37.29913000000003,128.462484
imu,70.879335,,,,,,,80.15246439999999,-37.4944452,129.4634744
imu,70.981233,,,,,,,80.0425996,-36.90849960000002,129.683204
imu,71.08249,,,,,,,80.09142840000001,-37.25030120000001,129.5123032
imu,71.184114,,,,,,,80.77503159999999,-36.96953560000003,128.5723488
imu,71.285646,,,,,,,80.5675092,-37.03057160000001,130.0250056
imu,71.906902,0.2625890792,-9.780396432800002,1.6790149096,1.08425942,0.9415806499999997,-2.14306129,,,
imu,71.915521,0.3092449976000001,-9.765442612800001,1.680809368,0.8375213899999999,0.9565344699999998,-2.62158353,,,
imu,71.92414,0.2895059552,-9.7510869456,1.6503035752,0.71789083,0.84438082,-3.24964397,,,
imu,71.932758,0.2135405496,-9.745105417600001,1.6413312832,0.8749059399999999,0.58268897,-3.83284295,,,
imu,71.941377,0.215335008,-9.685290137600001,1.6413312832,0.8674290299999999,0.6125966099999998,-4.04219643,,,
imu,71.949996,0.2284943696,-9.630858232800001,1.6383405192,0.8375213899999999,0.6125966099999998,-4.15435008,,,
imu,71.958614,0.2045682576000001,-9.645213900000002,1.6449202,0.9646288599999999,0.5752120599999997,-4.04967334,,,
imu,71.967233,0.1722680064,-9.702636568800001,1.6503035752,1.2188438,0.70231953,-3.78050458,,,
imu,71.975852,0.16449202,-9.7815927384,1.65987402,1.21136689,0.8817653699999997,-3.45152054,,,
imu,71.98447,0.1830347568,-9.797742864000002,1.6544906448,1.09921324,1.09111885,-3.10758268,,,
imu,71.993089,0.1842310624,-9.730749750400001,1.6443220472,0.8375213899999999,1.18084177,-2.93561375,,,
imu,72.001708,0.1955959656,-9.676317845600002,1.6634629368,0.7702292,1.22570323,-2.68887572,,,
imu,72.010326,0.2225128416,-9.716992236000001,1.6676500064,0.76275229,1.36776452,-2.34493786,,,
imu,72.018556,0.221316536,-9.749890640000002,1.6497054224,0.68050628,1.47244126,-2.14306129,,,
imu,72.026785,0.1902125904,-9.7295534448,1.668846312,0.70293701,1.8014253,-1.88884635,,,
imu,72.035015,0.1609031032,-9.709814402400001,1.695763188,0.56087572,1.89862513,-1.76173888,,,
imu,72.043245,0.1985867296,-9.724768222400002,1.6915761184,0.56087572,2.19770153,-1.90380017,,,
imu,72.051474,0.2488315648,-9.731946056000002,1.6921742712,0.7403215599999999,2.44443956,-2.11315365,,,
imu,72.059704,0.2613927736,-9.752881404000002,1.7023428688,0.64312173,2.66126995,-2.18044584,,,
imu,72.067933,0.2685706072,-9.769031529600001,1.6903798128,0.66555246,2.79585433,-2.34493786,,,
imu,72.076163,0.272159524,-9.758862932000001,1.7029410216,0.53844499,2.87062343,-2.41223005,,,
imu,72.084392,0.3206099008000001,-9.745703570400002,1.7161003832,0.43376825,2.81828506,-2.53933752,,,
imu,72.092622,0.3289840400000001,-9.7750130576,1.6981557992,0.44872207,2.94539253,-2.6739219,,,
imu,72.100852,0.3122357616,-9.797742864000002,1.7059317856,0.38142988,2.97530017,-2.56176825,,,
imu,72.109081,0.340947096,-9.798341016800002,1.7274652864,0.05244583999999999,3.09493073,-2.5991528,,,
imu,72.117311,0.3840140976,-9.786976113600002,1.7424191064,-0.25410747,2.90053107,-2.60662971,,,
imu,72.12554,0.4151180432000001,-9.792957641600001,1.7519895512,-0.5756146,2.63883922,-2.92065993,,,
imu,72.13377,0.415716196,-9.770825988000002,1.7489987872,-0.82235263,2.49677793,-3.21973633,,,
imu,72.141999,0.3953790008,-9.711010708000002,1.7890750248,-0.91207555,2.26499372,-3.37675144,,,
imu,72.150229,0.334965568,-9.741516500800001,1.7932620944,-1.12142903,2.07807097,-3.48890509,,,
imu,72.158459,0.3277877344,-9.7821908912,1.7872805664,-1.22610577,2.16031698,-3.39918217,,,
imu,72.166688,0.323002512,-9.724170069600001,1.788476872,-1.45041307,2.19022462,-3.36927453,,,
imu,72.174918,0.3032634696000001,-9.634447149600001,1.8046269976,-1.59995127,2.07807097,-3.74312003,,,
imu,72.183147,0.3014690112,-9.627269316000001,1.7932620944,-1.31582869,2.08554788,-4.04219643,,,
imu,72.191377,0.3002727056,-9.6846919848,1.7729248992,-1.12890594,2.06311715,-4.124442439999999,,,
imu,72.199606,0.3283858872000001,-9.654784344800001,1.7860842608,-0.8821679099999999,2.09302479,-4.124442439999999,,,
imu,72.207836,0.340947096,-9.5740337168,1.77950458,-0.6279529699999999,2.01825569,-4.23659609,,,
imu,72.216348,0.3672658192000001,-9.571042952800001,1.7920657888,-0.21672292,1.73413311,-4.430995749999999,,,
imu,72.22486,0.3798270280000001,-9.648802816800002,1.7908694832,0.11226112,1.41262598,-4.49828794,,,
imu,72.233372,0.3265914288,-9.7074217912,1.782495344,0.36647606,1.3528107,-4.408565019999999,,,
imu,72.241884,0.2895059552,-9.702636568800001,1.7723267464,0.20946095,1.06121121,-4.4683803,,,
imu,72.250396,0.323002512,-9.6523917336,1.7597655376,0.05244583999999999,0.8294269999999999,-4.41604193,,,
imu,72.258908,0.3212080536,-9.625474857600002,1.773523052,0.18703022,0.8593346399999997,-4.10948862,,,
imu,72.26742,0.2936930248,-9.635045302400002,1.7699341352,0.30666078,0.8518577299999999,-3.75059694,,,
imu,72.275932,0.2416537312,-9.675121540000001,1.7699341352,0.68050628,0.70231953,-3.37675144,,,
imu,72.284444,0.2817299688000001,-9.672728928800002,1.7579710792,0.71789083,0.70231953,-3.25712088,,,
imu,72.292956,0.2476352592,-9.631456385600002,1.7830934968,0.9272443100000001,0.7770886299999997,-3.18982869,,,
imu,72.301468,0.2087553272,-9.6667474008,1.7980473168,1.32352054,0.7546578999999998,-3.1225365,,,
imu,72.30998,0.2428500368,-9.7056273328,1.773523052,1.37585891,0.8817653699999997,-3.27955161,,,
imu,72.318492,0.2709632184,-9.6703363176,1.7687378296,1.42072037,1.18084177,-3.46647436,,,
imu,72.327004,0.2290925224000001,-9.6470083584,1.7896731776,1.60016621,1.30794924,-3.39918217,,,
imu,72.335515,0.2308869808,-9.672130776000001,1.7723267464,1.68241222,1.46496435,-3.25712088,,,
imu,72.344027,0.2835244272,-9.7217774584,1.7657470656,1.67493531,1.44253362,-3.30198234,,,
imu,72.352539,0.3062542336,-9.746899876,1.7591673848,1.80204278,1.65936401,-3.18235178,,,
imu,72.361051,0.281131816,-9.7301515976,1.755578468,1.76465823,1.85376367,-3.04029049,,,
imu,72.369563,0.28412258,-9.727758986400001,1.7507932456,1.75718132,1.90610204,-2.93561375,,,
imu,72.378075,0.3008708584000001,-9.688280901600002,1.7310542032,1.87681188,1.86124058,-2.95804448,,,
imu,72.386587,0.3624805968,-9.641026830400001,1.7113151608,1.90671952,1.8014253,-3.15244414,,,
imu,72.395099,0.391790084,-9.655980650400002,1.7172966888,2.13102682,1.5023489,-3.21973633,,,
imu,72.403611,0.3493212352000001,-9.6912716656,1.701744716,2.22822665,1.17336486,-3.496382,,,
imu,72.412123,0.3038616224,-9.731946056000002,1.6951650352,2.42262631,1.11354958,-3.61601256,,,
imu,72.420635,0.31403022,-9.7301515976,1.7041373272,2.407672489999999,0.9714882899999999,-3.41413599,,,
imu,72.429389,0.3271895816000001,-9.676915998400002,1.716698536,2.2656112,0.76213481,-3.35432071,,,
imu,72.438144,0.3241988176,-9.6703363176,1.7089225496,2.54973378,0.9714882899999999,-3.38422835,,,
imu,72.446898,0.3253951232,-9.719983000000001,1.6981557992,2.66936434,0.9191499199999997,-3.32441307,,,
imu,72.455653,0.2966837888,-9.7510869456,1.7005484104,2.57216451,0.84438082,-3.15244414,,,
imu,72.464407,0.2685706072,-9.783387196800001,1.710717008,2.37028794,1.0537343,-3.10758268,,,
imu,72.473161,0.2578038568000001,-9.788172419200002,1.7041373272,2.31047266,1.18831868,-3.16739796,,,
imu,72.481916,0.287113344,-9.801929933600002,1.6843982848,1.83942733,1.23318014,-3.46647436,,,
imu,72.49067,0.3194135952000001,-9.773816752000002,1.695763188,1.45810492,1.30047233,-3.66087402,,,
imu,72.499425,0.3188154424,-9.7283571392,1.692772424,1.47305874,1.62945637,-3.69078166,,,
imu,72.508179,0.3247969704000001,-9.724768222400002,1.6879872016,1.54782784,1.68927165,-3.95247351,,,
imu,72.516933,0.2990764,-9.741516500800001,1.6909779656,1.57773548,1.76404075,-4.04219643,,,
imu,72.525688,0.2918985664000001,-9.748694334400001,1.6861927432,1.40576655,1.8761944,-4.13939626,,,
imu,72.534442,0.2799355104,-9.7427128064,1.6891835072,1.368382,1.92853277,-4.02724261,,,
imu,72.543196,0.2865151912,-9.744507264800001,1.7131096192,1.07678251,1.92105586,-4.20668845,,,
imu,72.551951,0.311039456,-9.751685098400001,1.7184929944,1.0693056,1.98087114,-4.37118047,,,
imu,72.560705,0.305057928,-9.737927584000001,1.7190911472,0.94219813,2.06311715,-4.46090339,,,
imu,72.56946,0.2769447464000001,-9.6954587352,1.7250726752,0.94219813,1.97339423,-4.37118047,,,
imu,72.578214,0.2763465936,-9.703832874400002,1.7238763696,1.00201341,1.71170238,-4.44594957,,,
imu,72.586968,0.281131816,-9.721179305600002,1.7053336328,0.88985976,1.80890221,-4.453426479999999,,,
imu,72.595723,0.2733558296,-9.722973764,1.7161003832,0.76275229,1.76404075,-4.51324176,,,
imu,72.604477,0.2775428992,-9.6912716656,1.7334468144,0.74779847,1.53973345,-4.66277996,,,
imu,72.613232,0.2667761488000001,-9.706225485600001,1.7280634392,0.94219813,1.44253362,-4.715118329999999,,,
imu,72.621728,0.260196468,-9.727758986400001,1.7125114664,1.00949032,1.55468727,-4.55810322,,,
imu,72.630225,0.251224176,-9.704431027200002,1.7059317856,1.07678251,1.5023489,-4.318842099999999,,,
imu,72.638721,0.2189239248,-9.682299373600001,1.68978166,1.16650543,1.52477963,-4.22164227,,,
imu,72.647218,0.2141387024,-9.688280901600002,1.6939687296,1.22632071,1.62945637,-3.98985806,,,
imu,72.655715,0.2356722032,-9.702038416,1.68978166,1.39828964,1.77151766,-3.80293531,,,
imu,72.664211,0.2679724544000001,-9.6942624296,1.6885853544,1.42819728,1.78647148,-3.88518132,,,
imu,72.672708,0.2847207328,-9.7074217912,1.6879872016,1.41324346,1.6518871,-4.04219643,,,
imu,72.681204,0.2829262744000001,-9.738525736800002,1.7202874528,1.41324346,1.47244126,-4.22164227,,,
imu,72.689701,0.2320832864,-9.785181655200002,1.7131096192,1.55530475,1.42010289,-4.22911918,,,
imu,72.698198,0.203371952,-9.803126239200001,1.7101188552,1.2936129,1.70422547,-3.96742733,,,
imu,72.706694,0.2021756464,-9.763050001600002,1.7041373272,1.09921324,1.83133294,-3.66087402,,,
imu,72.715191,0.2147368552,-9.716992236000001,1.6814075208,1.11416706,1.98834805,-3.51133582,,,
imu,71.387147,,,,,,,82.6183188,-37.99494040000002,127.2295568
imu,71.48874,,,,,,,80.1646716,-37.31133720000002,129.7076184
imu,71.590242,,,,,,,82.752598,-38.22687720000002,126.936584
imu,71.691804,,,,,,,80.6529596,-37.25030120000001,129.2925736
imu,71.793336,,,,,,,80.3355724,-37.53106680000003,128.6089704
imu,71.894899,,,,,,,80.8238604,-37.28692280000001,129.5245104
imu,71.996492,,,,,,,81.08021160000001,-37.34795880000001,129.8541048
imu,72.098085,,,,,,,80.6285452,-37.25030120000001,129.5733392
imu,72.723653,0.245242648,-9.710412555200001,1.6724352288,1.18145925,2.21265535,-3.65339711,,,
imu,72.732149,0.2697669128,-9.715795930400002,1.6520980336,1.24875144,2.22013226,-3.8702275,,,
imu,72.740646,0.2775428992,-9.6799067624,1.6634629368,1.4431511,2.26499372,-4.012288789999999,,,
imu,72.749143,0.2643835376,-9.667345553600002,1.6455183528,1.65998149,2.22013226,-3.93751969,,,
imu,72.757639,0.236270356,-9.635643455200002,1.6395368248,1.80951969,2.1752708,-3.84031986,,,
imu,72.766136,0.236270356,-9.638634219200002,1.6425275888,2.13850373,2.33228591,-3.90013514,,,
imu,72.774632,0.2440463424,-9.7008421104,1.6562851032,2.31047266,2.324809,-3.80293531,,,
imu,72.783129,0.2697669128,-9.706823638400001,1.650901728,2.43010322,2.324809,-3.60853565,,,
imu,72.791626,0.2954874832,-9.685888290400001,1.6676500064,2.22822665,2.324809,-3.71321239,,,
imu,72.800122,0.2978800944000001,-9.676317845600002,1.6455183528,2.33290339,2.3995781,-3.73564312,,,
imu,72.808619,0.2978800944000001,-9.7474980288,1.6305645328,2.32542648,2.11545552,-3.80293531,,,
imu,72.817115,0.3337692624,-9.805518850400002,1.6347516024,2.28056502,1.99582496,-4.034719519999999,,,
imu,72.82557,0.3433397072,-9.802528086400002,1.6497054224,2.01887317,1.92853277,-4.11696553,,,
imu,72.834025,0.3188154424,-9.7786019744,1.6473128112,1.65998149,1.83133294,-4.23659609,,,
imu,72.842479,0.2978800944000001,-9.728955292000002,1.6461165056,1.58521239,1.70422547,-4.17678081,,,
imu,72.850934,0.2948893304,-9.7403201952,1.638938672,1.51044329,1.56216418,-4.07210407,,,
imu,72.859389,0.3056560808,-9.7714241408,1.6473128112,1.60764312,1.52477963,-4.04967334,,,
imu,72.867843,0.2883096496000001,-9.760059237600002,1.6652573952,1.27118217,1.31542615,-4.29641137,,,
imu,72.876298,0.2673743016,-9.7606573904,1.6730333816,1.18893616,1.18831868,-4.29641137,,,
imu,72.884752,0.2476352592,-9.772620446400001,1.6610703256,1.18893616,1.15841104,-4.13191935,,,
imu,72.893207,0.2428500368,-9.758264779200001,1.6802112152,0.8749059399999999,1.12102649,-4.146873169999999,,,
imu,72.901662,0.2428500368,-9.7295534448,1.6790149096,0.91229049,1.26308778,-4.102011709999999,,,
imu,72.910116,0.2350740504,-9.723571916800001,1.6843982848,1.0693056,1.25561087,-3.96742733,,,
imu,72.918571,0.2296906752000001,-9.703832874400002,1.6664537008,1.09173633,1.31542615,-3.90013514,,,
imu,72.927026,0.2386629672,-9.711010708000002,1.6694444648,1.07678251,1.42010289,-3.99733497,,,
imu,72.93548,0.233279592,-9.762451848800001,1.6694444648,1.18893616,1.44253362,-4.06462716,,,
imu,72.943935,0.2249054528,-9.773218599200002,1.6784167568,1.04687487,1.32290306,-4.124442439999999,,,
imu,72.95239,0.2237091472,-9.720581152800001,1.6766222984,1.00201341,1.48739508,-4.04219643,,,
imu,72.960844,0.191408896,-9.694860582400002,1.6796130624,0.97958268,1.61450255,-3.77302767,,,
imu,72.969299,0.1782495344,-9.7056273328,1.686790896,1.21136689,1.88367131,-3.48890509,,,
imu,72.977754,0.200381188,-9.731347903200001,1.6814075208,1.24875144,2.1752708,-3.21225942,,,
imu,72.986208,0.2374666616,-9.728955292000002,1.6604721728,1.368382,2.30237827,-3.13749032,,,
imu,72.994663,0.2530186344000001,-9.7074217912,1.6676500064,1.2188438,2.51173175,-3.42908981,,,
imu,73.003117,0.2691687600000001,-9.690673512800002,1.671837076,1.12912088,2.51173175,-3.55619728,,,
imu,73.011572,0.2649816904,-9.668541859200001,1.6580795616,1.32352054,2.61640849,-3.67582784,,,
imu,73.020027,0.2542149400000001,-9.651195428000001,1.653892492,1.48801256,2.51920866,-3.95247351,,,
imu,73.028492,0.2607946208,-9.667943706400001,1.6503035752,1.60016621,2.31733209,-4.169303899999999,,,
imu,73.036956,0.2500278704,-9.678112304,1.6395368248,1.68988913,2.31733209,-4.31136519,,,
imu,73.045421,0.2506260232,-9.708019944000002,1.6455183528,1.84690424,2.324809,-4.10948862,,,
imu,73.053886,0.2464389536,-9.731347903200001,1.6383405192,1.88428879,2.22760917,-3.92256587,,,
imu,73.062351,0.260196468,-9.722973764,1.632957144,1.90671952,2.25751681,-3.80293531,,,
imu,73.070816,0.2314851336,-9.7361331256,1.641929436,1.86185806,2.16031698,-3.78798149,,,
imu,73.07928,0.2165313136,-9.752881404000002,1.6203959352,1.76465823,2.04068642,-3.84031986,,,
imu,73.087745,0.2440463424,-9.773816752000002,1.6006568928,1.63007385,2.01077878,-3.84031986,,,
imu,73.09621,0.2356722032,-9.779798280000001,1.6102273376,1.8169966,2.09302479,-3.93004278,,,
imu,73.104675,0.2350740504,-9.7845835024,1.6012550456,1.5926893,2.01825569,-3.98238115,,,
imu,73.11314,0.2225128416,-9.7702278352,1.6006568928,1.41324346,1.95844041,-4.0197657,,,
imu,73.121604,0.2171294664,-9.769629682400002,1.6084328792,1.33847436,2.06311715,-3.98238115,,,
imu,73.130069,0.2129423968,-9.7714241408,1.5958716704,1.25622835,2.04816333,-3.93751969,,,
imu,73.138534,0.2111479384,-9.772022293600001,1.5928809064,1.27118217,1.96591732,-3.97490424,,,
imu,73.146999,0.2105497856,-9.768433376800001,1.5934790592,1.25622835,2.10797861,-3.84779677,,,
imu,73.155464,0.182436604,-9.752881404000002,1.6006568928,1.26370526,2.12293243,-3.96742733,,,
imu,73.163929,0.1800439928,-9.7492924872,1.6018531984,1.17398234,2.1752708,-4.04219643,,,
imu,73.172393,0.176455076,-9.752881404000002,1.618003324,0.9945364999999999,2.12293243,-4.02724261,,,
imu,73.180858,0.16449202,-9.7702278352,1.6174051712,0.9272443100000001,2.12293243,-3.84031986,,,
imu,73.189323,0.158510492,-9.785181655200002,1.6096291848,0.8973366700000001,2.21265535,-3.68330475,,,
imu,73.197788,0.1453511304,-9.776209363200001,1.6138162544,0.8823828499999999,2.36219355,-3.55619728,,,
imu,73.206253,0.1411640608,-9.737927584000001,1.6018531984,0.6954601,2.6986545,-3.32441307,,,
imu,73.214717,0.1453511304,-9.721179305600002,1.6018531984,0.60573718,2.90053107,-3.14496723,,,
imu,73.223182,0.1698753952,-9.711010708000002,1.6048439624,0.65807555,3.13231528,-2.98795212,,,
imu,73.231652,0.1842310624,-9.716992236000001,1.5886938368,0.67302937,3.18465365,-3.02533667,,,
imu,73.240122,0.2075590216,-9.7128051664,1.597067976,0.71789083,3.40148404,-3.07767504,,,
imu,73.248592,0.2284943696,-9.720581152800001,1.6084328792,0.9347212199999999,3.5211146,-3.16739796,,,
imu,73.257062,0.2440463424,-9.711010708000002,1.6072365736,0.8823828499999999,3.49120696,-3.17487487,,,
imu,73.265532,0.257205704,-9.7074217912,1.597067976,1.00949032,3.43886859,-3.31693616,,,
imu,73.274002,0.2655798432,-9.7193848472,1.5964698232,1.0693056,3.26689966,-3.496382,,,
imu,73.282472,0.2853188856,-9.746899876,1.6215922408,1.0693056,3.26689966,-3.54124346,,,
imu,73.290941,0.3032634696000001,-9.7714241408,1.6257793104,1.12164397,3.02763854,-3.41413599,,,
imu,73.299411,0.2936930248,-9.783387196800001,1.6323589912,1.05435178,2.76594669,-3.30945925,,,
imu,73.307881,0.2930948720000001,-9.769031529600001,1.6156107128,0.88985976,2.51173175,-3.27955161,,,
imu,73.316351,0.2793373576,-9.737329431200001,1.6156107128,0.77770611,2.27247063,-3.26459779,,,
imu,73.324821,0.266177996,-9.714599624800002,1.6168070184,0.70293701,2.13788625,-3.25712088,,,
imu,73.333291,0.2566075512,-9.735534972800002,1.618003324,0.83004448,2.0257326,-3.15992105,,,
imu,73.341761,0.2380648144,-9.736731278400002,1.6275737688,0.81509066,1.90610204,-3.13001341,,,
imu,73.350231,0.2141387024,-9.722973764,1.6108254904,0.74779847,1.85376367,-3.09262886,,,
imu,73.358701,0.200381188,-9.7295534448,1.623984852,0.8823828499999999,2.04068642,-3.01038285,,,
imu,73.367171,0.1782495344,-9.745703570400002,1.632957144,0.82256757,2.22013226,-3.01038285,,,
imu,73.37564,0.1842310624,-9.760059237600002,1.6497054224,0.64312173,2.42200883,-3.03281358,,,
imu,73.38411,0.1926052016,-9.768433376800001,1.6526961864,0.57582954,2.63883922,-3.00290594,,,
imu,73.39258,0.2177276192,-9.764246307200002,1.6544906448,0.34404533,2.7734236,-2.99542903,,,
imu,73.40105,0.2380648144,-9.755872168000002,1.6467146584,-0.03727708,2.82576197,-3.13001341,,,
imu,73.40952,0.2494297176,-9.737927584000001,1.6401349776,-0.17186146,2.70613141,-3.2720747,,,
imu,73.41799,0.2619909264,-9.7217774584,1.6341534496,-0.2017691,2.63883922,-3.27955161,,,
imu,73.42646,0.266177996,-9.690673512800002,1.6156107128,0.007584380000000002,2.67622377,-3.27955161,,,
imu,73.435271,0.2643835376,-9.6912716656,1.6251811576,0.16459949,2.83323888,-3.15992105,,,
imu,72.199726,,,,,,,80.6651668,-36.76201320000001,129.6465824
imu,72.301136,,,,,,,81.1168332,-37.14043640000002,128.8531144
imu,72.41048,,,,,,,81.14124760000001,-37.10381480000002,130.0738344
imu,72.504291,,,,,,,83.06998519999999,-37.67755320000001,127.852124
imu,72.605793,,,,,,,80.8971036,-37.27471560000002,129.8785192
imu,72.707355,,,,,,,83.19205720000001,-37.76300360000002,127.3760432
imu,72.809131,,,,,,,80.83606759999999,-37.53106680000003,129.5977536
imu,72.91048,,,,,,,80.9459324,-37.3967876,128.5479344
imu,73.012012,,,,,,,80.8971036,-37.47003080000002,130.3057712
imu,73.121448,,,,,,,81.37318440000001,-37.42120200000001,129.7320328
imu,73.215168,,,,,,,81.1290404,-37.55548120000001,129.7808616
imu,73.316761,,,,,,,80.9947612,-37.43340920000002,129.8174832
imu,73.418445,,,,,,,80.67737399999999,-37.57989560000001,129.1582944
