Type,Timestamp,Data Accelerometer X,Data Accelerometer Y,Data Accelerometer Z,Data Gyroscope X,Data Gyroscope Y,Data Gyroscope Z,Data Magnetometer X,Data Magnetometer Y,Data Magnetometer Z
imu,122.349726,-0.6980443176000002,-9.725366375200002,2.0193638528,1.32352054,2.61640849,-3.4216129,,,
imu,122.358551,-0.6926609424000001,-9.675719692800001,2.0205601584,1.00201341,2.85566961,-3.38422835,,,
imu,122.367376,-0.6789034280000001,-9.641624983200002,2.015774936,0.97958268,2.86314652,-3.31693616,,,
imu,122.376201,-0.6729219000000001,-9.627867468800002,2.000821116,0.9272443100000001,2.88557725,-3.08515195,,,
imu,122.385026,-0.6633514552,-9.620689635200002,1.991848824,0.94967504,2.90800798,-3.10758268,,,
imu,122.39385,-0.646005024,-9.626671163200001,1.9822783792,0.82256757,2.78837742,-3.14496723,,,
imu,122.402675,-0.6328456624000001,-9.6117173432,1.9816802264,0.77770611,2.8481927,-3.1225365,,,
imu,122.4115,-0.6268641344,-9.610521037600002,1.9786894624,0.8749059399999999,2.69117759,-3.21973633,,,
imu,122.420325,-0.6029380224,-9.587193078400002,1.9751005456,1.05435178,2.60145467,-3.24216706,,,
imu,122.42915,-0.5885823552,-9.565061424800001,1.9745023928,1.18893616,2.45939338,-3.24964397,,,
imu,122.437975,-0.571235924,-9.587193078400002,1.991848824,1.1440747,2.2500399,-3.45152054,,,
imu,122.4468,-0.5616654792000001,-9.656578803200002,1.9882599072,1.38333582,2.07807097,-3.83284295,,,
imu,122.455625,-0.5592728680000001,-9.681103068,1.985867296,1.40576655,1.88367131,-4.17678081,,,
imu,122.464449,-0.565254396,-9.6643547896,1.9846709904,1.25622835,1.52477963,-4.64034923,,,
imu,122.472917,-0.5820026744000001,-9.640428677600001,1.9786894624,1.18145925,1.24813396,-4.93942563,,,
imu,122.481384,-0.6029380224,-9.627269316000001,1.9697171704,1.13659779,0.86681155,-5.17120984,,,
imu,122.489852,-0.6226770648,-9.633848996800001,1.9481836696,1.34595127,0.7471809899999999,-5.216071299999999,,,
imu,122.498319,-0.6495939408000001,-9.6535880392,1.9428002944,1.32352054,0.8369039099999998,-5.02914855,,,
imu,122.506786,-0.6525847048000001,-9.648204664000001,1.9308372384,1.58521239,0.72475026,-4.602964679999999,,,
imu,122.515254,-0.6747163584000001,-9.654186192000001,1.923061252,1.86185806,0.6798887999999996,-4.244073,,,
imu,122.523721,-0.6789034280000001,-9.665551095200001,1.9099018904,2.05625772,0.76213481,-3.95995042,,,
imu,122.532188,-0.6783052752000002,-9.678112304,1.8973406816,2.37028794,0.8593346399999997,-3.63096638,,,
imu,122.540656,-0.681894192,-9.683495679200002,1.8823868616,2.53477996,0.92662683,-3.51133582,,,
imu,122.549123,-0.6729219000000001,-9.701440263200002,1.8787979448,2.65441052,0.8892422799999999,-3.36927453,,,
imu,122.55759,-0.6729219000000001,-9.7163940832,1.8746108752,2.82637945,1.23318014,-3.00290594,,,
imu,122.566058,-0.6687348304,-9.755274015200001,1.8710219584,2.76656417,1.63693328,-2.72626027,,,
imu,122.574525,-0.6531828576,-9.789966877600001,1.875209028,2.64693361,1.68927165,-2.66644499,,,
imu,122.582992,-0.6352382736000001,-9.803724392000001,1.8764053336,2.48244159,1.77899457,-2.59167589,,,
imu,122.59146,-0.6232752176,-9.8234634344,1.8764053336,2.1908421,1.98834805,-2.55429134,,,
imu,122.599927,-0.6089195504,-9.832435726400002,1.8787979448,1.68241222,2.11545552,-2.60662971,,,
imu,122.608395,-0.5951620360000001,-9.850380310400002,1.8955462232,1.00949032,2.20517844,-2.71878336,,,
imu,122.616773,-0.5694414656000001,-9.8593526024,1.9134908072,0.53844499,2.24256299,-2.76364482,,,
imu,122.62524,-0.5568802568000001,-9.831837573600001,1.9122945016,-0.14195382,2.30237827,-3.06272122,,,
imu,122.633708,-0.5616654792000001,-9.824061587200001,1.9128926544,-0.77749117,2.34723973,-3.29450543,,,
imu,122.642175,-0.5479079648000001,-9.802528086400002,1.923061252,-1.09152139,2.21265535,-3.39918217,,,
imu,122.650642,-0.5413282840000001,-9.755872168000002,1.9398095304,-1.48032071,2.20517844,-3.66835093,,,
imu,122.65911,-0.5419264368000001,-9.727758986400001,1.9451929056,-1.75696638,2.07807097,-3.81788913,,,
imu,122.667577,-0.5473098120000001,-9.706823638400001,1.9571559616,-1.98875059,1.95844041,-4.0197657,,,
imu,122.676038,-0.55329134,-9.673925234400002,1.9565578088,-2.13081188,1.76404075,-4.19921154,,,
imu,122.684499,-0.5610673264,-9.6523917336,1.97390424,-2.11585806,1.58459491,-4.15435008,,,
imu,122.69296,-0.5676470072,-9.6326526912,1.9661282536,-2.00370441,1.41262598,-4.0945348,,,
imu,122.701421,-0.5610673264,-9.6458120528,1.9864654488,-1.9214584,1.18831868,-4.19921154,,,
imu,122.709882,-0.5730303824,-9.6523917336,2.004410032800001,-1.77939711,1.1285034,-4.06462716,,,
imu,122.718343,-0.5885823552,-9.651793580800001,2.0121860192,-1.74201256,0.8742884599999998,-3.95247351,,,
imu,122.726804,-0.6005454112,-9.6494009696,2.021756464,-1.5476129,0.6275504299999999,-3.88518132,,,
imu,122.735265,-0.6166955368000001,-9.644017594400001,2.0259435336,-1.51022835,0.5303505999999998,-4.02724261,,,
imu,122.743726,-0.6250696760000001,-9.635045302400002,2.030728756,-1.56256672,0.3957662200000001,-4.06462716,,,
imu,122.752187,-0.6358364264000002,-9.641624983200002,2.0462807288,-1.45041307,0.4107200399999997,-3.90013514,,,
imu,122.760648,-0.6495939408000001,-9.6494009696,2.0648234656,-1.40555161,0.2462280199999998,-4.04967334,,,
imu,122.769109,-0.6525847048000001,-9.6535880392,2.069608688,-1.30087487,0.52287369,-4.16182699,,,
imu,122.77757,-0.6633514552,-9.646410205600002,2.0803754384,-1.18124431,0.4854891399999999,-4.23659609,,,
imu,122.786031,-0.6753145112000001,-9.6434194416,2.0941329528,-1.18872122,0.5453044199999999,-4.21416536,,,
imu,122.794492,-0.6741182056000001,-9.633250844,2.099516328,-0.93450628,0.6275504299999999,-4.19921154,,,
imu,122.802953,-0.6872775672000001,-9.6260730104,2.112675689600001,-0.74758353,0.94905756,-4.318842099999999,,,
imu,122.811414,-0.6872775672000001,-9.609922884800001,2.1198535232,-0.47841477,1.07616503,-4.43847266,,,
imu,122.819875,-0.6926609424000001,-9.599754287200001,2.1013107864,-0.32139966,1.06121121,-4.52071867,,,
imu,122.828336,-0.6896701784000001,-9.5842023144,2.1013107864,0.02253820000000001,1.14345722,-4.30388828,,,
imu,122.836797,-0.6908664840000001,-9.567454036,2.1013107864,0.44872207,1.21822632,-4.244073,,,
imu,122.845258,-0.6950535536000001,-9.568052188800001,2.0827680496,0.9197674,1.49487199,-4.04967334,,,
imu,122.853719,-0.6914646368,-9.5632669664,2.072001299200001,1.46558183,1.65936401,-3.78050458,,,
imu,122.86218,-0.6914646368,-9.559678049600002,2.057645632,1.85438115,1.75656384,-3.42908981,,,
imu,122.870641,-0.6860812616,-9.580613397600002,2.0600382432,2.07868845,1.74161002,-3.4216129,,,
imu,122.879122,-0.681894192,-9.6159044128,2.0528604096,2.46001086,1.78647148,-3.30198234,,,
imu,122.887604,-0.6627533024,-9.648204664000001,2.048673340000001,2.74413344,1.89114822,-3.09262886,,,
imu,122.896085,-0.6388271904000001,-9.667943706400001,2.0564493264,2.84133327,1.99582496,-3.03281358,,,
imu,122.904566,-0.6316493568000001,-9.676317845600002,2.054654868000001,2.60954906,1.98834805,-3.10758268,,,
imu,122.913048,-0.6178918424000002,-9.703832874400002,2.0540567152,2.51234923,1.97339423,-2.93561375,,,
imu,122.921529,-0.6035361752000001,-9.737329431200001,2.0408973536,2.15345755,1.90610204,-3.01785976,,,
imu,122.930011,-0.5981528,-9.744507264800001,2.0408973536,1.8169966,1.89114822,-3.24964397,,,
imu,122.938492,-0.5903768136,-9.731347903200001,2.0558511736,1.57773548,1.75656384,-3.59358183,,,
imu,122.946973,-0.5843952856000001,-9.740918348000001,2.051664104,1.35342818,1.46496435,-3.98238115,,,
imu,122.955455,-0.5796100632000001,-9.7504887928,2.0343176728,1.19641307,1.36776452,-4.28893446,,,
imu,122.963936,-0.5772174520000001,-9.706823638400001,2.0115878664,0.7104139199999999,0.92662683,-4.670256869999999,,,
imu,122.972417,-0.6089195504,-9.6224840936,1.9972321992,0.3889067899999999,0.6051196999999999,-4.56558013,,,
imu,122.980899,-0.6286585928,-9.544126076800001,1.95895042,0.6132140899999999,0.52287369,-3.98985806,,,
imu,122.98938,-0.6519865520000001,-9.4555994624,1.9128926544,0.8823828499999999,0.4107200399999997,-3.43656672,,,
imu,122.997861,-0.6483976352,-9.374250681600001,1.8805924032,0.8449983,0.35838167,-3.07767504,,,
imu,123.006343,-0.6364345792000001,-9.329389221600001,1.8626478192,1.05435178,0.4107200399999997,-2.53186061,,,
imu,123.014824,-0.6196863008000001,-9.3592968616,1.8548718328,1.30856672,0.6574580699999997,-1.88884635,,,
imu,123.023305,-0.5915731192000001,-9.461580990400002,1.887172084,1.54035093,0.8892422799999999,-1.3280781,,,
imu,123.031787,-0.5784137576,-9.624278552000002,1.9182760296,1.60016621,1.11354958,-0.91684805,,,
imu,123.040268,-0.5377393672000002,-9.7403201952,1.9278464744,1.35342818,1.30047233,-1.16358608,,,
imu,123.048749,-0.5162058664000001,-9.7911631832,1.9457910584,0.91229049,1.47991817,-1.67949287,,,
imu,123.057231,-0.4880926848000001,-9.797742864000002,1.9703153232,0.68798319,1.50982581,-2.3748455,,,
imu,123.065712,-0.4791203928000001,-9.8013317808,1.9786894624,0.4711528,1.51730272,-3.27955161,,,
imu,123.074193,-0.4599795032,-9.7786019744,1.98885806,0.34404533,1.45001053,-3.97490424,,,
imu,123.082642,-0.4599795032,-9.805518850400002,2.03371952,0.15712258,1.25561087,-4.73007215,,,
imu,123.09109,-0.4749333232000001,-9.8982325344,2.0373084368,0.20198404,1.03130357,-5.56000916,,,
imu,123.099538,-0.4946723656000001,-9.946084758400001,2.051664104,0.44872207,0.76213481,-5.97871612,,,
imu,123.107986,-0.5036446576000001,-9.952664439200001,2.062430854400001,0.68050628,0.5752120599999997,-6.27779252,,,
imu,123.116435,-0.5114206440000001,-9.967618259200002,2.0791791328,0.82256757,0.1714589200000001,-6.61425347,,,
imu,123.124883,-0.5275707696,-9.985562843200002,2.0761883688,1.06182869,-0.31454023,-6.816130039999999,,,
imu,123.133331,-0.5556839512000001,-10.0154704832,2.0731976048,1.42072037,-0.76315483,-6.84603768,,,
imu,123.14178,-0.5784137576,-9.996329593600002,2.084562508,1.70484295,-1.32392308,-6.883422229999999,,,
imu,123.150228,-0.6166955368000001,-9.952066286400001,2.0863569664,1.76465823,-1.9370297,-6.65163802,,,
imu,123.158676,-0.6693329832000001,-9.863539672000002,2.06362716,1.39828964,-2.27349065,-6.292746339999999,,,
imu,123.167124,-0.7189796656000002,-9.759461084800002,2.0564493264,1.00201341,-2.69219761,-5.75440882,,,
imu,123.175573,-0.7560651392000002,-9.644615747200001,2.045682576,0.67302937,-2.99875092,-4.96933327,,,
imu,123.184021,-0.7901598488000001,-9.555490980000002,2.0271398392,0.3963837,-3.1333353,-4.13939626,,,
imu,123.192469,-0.8104970440000001,-9.492086783200001,2.0175693944,0.23936859,-3.14081221,-3.29450543,,,
imu,123.200918,-0.8392083784000002,-9.441841948000002,2.013980477600001,-0.08213854000000001,-3.27539659,-2.39727623,,,
imu,123.209366,-0.8481806704000001,-9.464571754400001,2.0091952552,0.03749201999999999,-3.12585839,-1.7019236,,,
imu,123.217814,-0.8302360864000001,-9.52558334,2.0253453808,0.32909151,-3.18567367,-1.0290017,,,
imu,123.226262,-0.8194693360000002,-9.530368562400001,2.009793408,0.5459219,-2.96136637,-0.3635567099999999,,,
imu,123.234711,-0.8057118216000001,-9.502255380800001,2.036710284,0.7104139199999999,-2.84173581,0.04019642999999995,,,
imu,123.243159,-0.7722152648000001,-9.517807353600002,2.045682576,0.88985976,-2.86416654,0.2121653600000002,,,
imu,123.251607,-0.7118018320000001,-9.551303910400001,2.0432899648,1.27865908,-2.73705907,0.5934877699999999,,,
imu,123.260056,-0.6561736216000001,-9.5865949256,2.0325232144,1.57025857,-2.7594898,0.87013344,,,
imu,123.268504,-0.6232752176,-9.591978300800001,2.0283361448,1.71231986,-2.97632019,0.8252719800000001,,,
imu,123.276952,-0.5885823552,-9.6218859408,2.0349158256,2.18336519,-3.22305822,0.7729336099999999,,,
imu,123.285785,-0.5544876456000001,-9.644017594400001,2.024747228,2.68431816,-3.32773496,1.09444074,,,
imu,123.294618,-0.5299633808,-9.648204664000001,2.012784172,2.78151799,-3.70905737,0.9299487200000001,,,
imu,123.303451,-0.5132151024,-9.631456385600002,1.9894562128,3.0880713,-3.94084158,0.66825687,,,
imu,123.312284,-0.5090280328000001,-9.6009505928,1.9894562128,3.55163972,-4.2548718,0.3392728300000001,,,
imu,123.321116,-0.5120187968000001,-9.61530626,1.95895042,3.64136264,-4.65114803,-0.02709575999999991,,,
imu,123.329949,-0.5156077136000001,-9.61530626,1.9451929056,3.94043904,-4.965178249999999,-0.2738337899999999,,,
imu,123.338782,-0.5347486032000001,-9.627867468800002,1.9206686408,4.33671527,-5.159577909999999,-0.4532796299999999,,,
imu,123.347615,-0.5287670752,-9.635643455200002,1.9236594048,4.45634583,-5.316593019999999,-0.7299252999999999,,,
imu,123.356448,-0.5365430616000001,-9.634447149600001,1.9122945016,4.70308386,-5.41379285,-0.8121713099999999,,,
imu,123.365281,-0.5526931872,-9.6505972752,1.9188741824,4.822714420000001,-5.58576178,-0.99909406,,,
imu,123.374113,-0.5784137576,-9.673925234400002,1.9027240568,4.80028369,-5.6754847,-1.11124771,,,
imu,123.382946,-0.5909749664,-9.6817012208,1.8925554592,4.65074549,-5.690438520000001,-1.32060119,,,
imu,123.391779,-0.601143564,-9.701440263200002,1.8823868616,4.56849948,-5.757730710000001,-1.58229304,,,
imu,123.400612,-0.6537810104000001,-9.7331423616,1.8835831672,4.44139201,-5.63062324,-1.63463141,,,
imu,123.409445,-0.6747163584000001,-9.745703570400002,1.8805924032,4.38905364,-5.35397757,-1.64210832,,,
imu,123.418278,-0.6980443176000002,-9.7510869456,1.8728164168,4.25446926,-4.9277937,-1.74678506,,,
imu,123.427111,-0.7273538048000001,-9.745703570400002,1.8656385832,4.089977240000001,-4.29225635,-1.73930815,,,
imu,123.435943,-0.7614485144,-9.740918348000001,1.8686293472,3.99277741,-3.66419591,-1.71687742,,,
imu,123.444776,-0.7787949456000002,-9.7492924872,1.8417124712,3.9105314,-2.86416654,-1.69444669,,,
imu,123.453609,-0.7877672376000001,-9.756470320800002,1.8315438736,3.82828539,-1.96693734,-1.6271545,,,
imu,123.462442,-0.8021229048,-9.767835224,1.8237678872,3.97034668,-0.9799852200000005,-1.73930815,,,
imu,123.471275,-0.8051136688,-9.7809945856,1.8255623456,4.07502342,0.1565051,-1.74678506,,,
imu,123.480108,-0.7847764736,-9.803126239200001,1.8291512624,3.925485220000001,1.29299542,-1.91875399,,,
imu,123.488567,-0.7674300424000001,-9.818678212000002,1.8375254016,3.89557758,2.25751681,-2.18792275,,,
imu,123.497027,-0.7369242496000001,-9.838417254400001,1.83931986,3.85819303,3.40148404,-2.45709151,,,
imu,123.505487,-0.708811068,-9.828248656800001,1.8387217072,3.47687062,4.30619015,-2.84589083,,,
imu,123.513947,-0.6657440664000001,-9.8162856008,1.8369272488,3.29742478,5.33800373,-2.99542903,,,
imu,123.522406,-0.6346401208000001,-9.8049206976,1.8279549568,2.83385636,6.063264,-3.15244414,,,
imu,123.530866,-0.6143029256000001,-9.798341016800002,1.8201789704,2.49739541,6.68384753,-3.39918217,,,
imu,123.539326,-0.6125084672000001,-9.759461084800002,1.8201789704,2.10859609,7.1848005,-3.65339711,,,
imu,123.547785,-0.580208216,-9.740918348000001,1.821375276,1.80951969,7.58855364,-3.68330475,,,
imu,123.556245,-0.5538894928000001,-9.7295534448,1.803430692,1.57773548,8.01473751,-3.77302767,,,
imu,123.564705,-0.5377393672000002,-9.706225485600001,1.8010380808,1.33099745,8.119414249999998,-3.86275059,,,
imu,123.573165,-0.5180003248000001,-9.676915998400002,1.7992436224,1.23379762,8.0820297,-3.88518132,,,
imu,123.581624,-0.5150095608,-9.672728928800002,1.7962528584,1.57773548,8.22409099,-3.81041222,,,
imu,123.590084,-0.5084298800000001,-9.696655040800001,1.7986454696,1.57773548,8.23904481,-3.72816621,,,
imu,123.598544,-0.4892889904,-9.708019944000002,1.7980473168,1.7422275,8.26147554,-3.72816621,,,
imu,123.607004,-0.502448352,-9.7122070136,1.8052251504,1.76465823,8.141844979999998,-3.63844329,,,
imu,123.615463,-0.5287670752,-9.731946056000002,1.8088140672,1.95905789,7.91753768,-3.73564312,,,
imu,123.623923,-0.5658525488000001,-9.7474980288,1.8165900536,2.07121154,7.954922229999999,-3.6459202,,,
imu,123.632383,-0.5784137576,-9.767835224,1.818384512,2.00391935,8.08950661,-3.58610492,,,
imu,123.640842,-0.5939657304000001,-9.766638918400002,1.821375276,1.92167334,8.396059919999999,-3.73564312,,,
imu,123.649302,-0.6023398696000001,-9.7534795568,1.8309457208,1.84690424,8.687659409999998,-3.88518132,,,
imu,123.657762,-0.6160973840000001,-9.746899876,1.8351327904,1.6674584,8.964305079999999,-3.89265823,,,
imu,123.666222,-0.663949608,-9.7504887928,1.863245972,1.56278166,9.46525805,-3.95995042,,,
imu,123.674681,-0.7363260968000002,-9.752881404000002,1.851282916,1.30108981,9.98864175,-4.21416536,,,
imu,123.683141,-0.7841783208,-9.715795930400002,1.8644422776,1.01696723,10.82605567,-4.386134289999999,,,
imu,123.691607,-0.8613400320000001,-9.688280901600002,1.8865739312,0.9272443100000001,12.01488436,-4.49828794,,,
imu,123.700073,-0.9474740352000001,-9.693664276800002,1.8793960976,0.7702292,13.24857451,-4.65530305,,,
imu,123.708494,-0.9791761336000001,-9.693664276800002,1.8758071808,0.45619898,14.95330999,-5.08896383,,,
imu,123.71696,-0.9552500216000002,-9.668541859200001,1.872218264,0.3216146,16.84496822,-5.72450118,,,
imu,123.725426,-0.9115848672000001,-9.661962178400001,1.8955462232,0.41133752,18.53474988,-6.33013089,,,
imu,123.733893,-0.8266471696000001,-9.682897526400001,1.89913514,0.47862971,20.12733171,-6.82360695,,,
imu,123.742359,-0.7309427216000001,-9.711608860800002,1.8913591536,0.70293701,21.04699164,-7.34699065,,,
imu,123.750825,-0.6400234960000001,-9.689477207200001,1.8853776256,0.8674290299999999,21.63766753,-7.556344129999999,,,
imu,123.759291,-0.5473098120000001,-9.66016772,1.8865739312,0.9870595899999999,21.74982118,-7.586251770000001,,,
imu,123.767757,-0.451605364,-9.630858232800001,1.8746108752,1.43567419,21.71243663,-6.86846841,,,
imu,123.776223,-0.3553027632,-9.6326526912,1.8650404304,1.77213514,21.32363731,-6.031054489999999,,,
imu,123.784689,-0.2667761488000001,-9.661364025600001,1.8638441248,2.22822665,20.54603867,-5.10391765,,,
imu,123.793155,-0.2021756464,-9.660765872800003,1.8548718328,2.67684125,19.36468689,-4.22164227,,,
imu,122.378436,,,,,,,19.87331080000001,-25.69008280000002,48.4320808
imu,122.479968,,,,,,,20.1540764,-25.97084840000001,48.2367656
imu,122.581561,,,,,,,20.00759,-25.7877404,48.20014399999999
imu,122.683123,,,,,,,19.9709684,-25.49476760000002,48.2855944
imu,122.784686,,,,,,,20.30056280000001,-25.26283080000002,48.29780159999999
imu,122.886248,,,,,,,20.2273196,-24.89661480000001,48.20014399999999
imu,122.987811,,,,,,,22.4612372,-25.82436200000002,47.7973064
imu,123.843952,-0.04605776560000001,-9.625474857600002,1.8112066784,4.98720644,9.300766029999998,-1.69444669,,,
imu,123.852418,-0.06101158560000001,-9.618895176800002,1.8010380808,5.08440627,7.76052257,-1.73930815,,,
imu,123.860884,-0.10467674,-9.616502565600001,1.7962528584,5.30123666,6.19784838,-1.80660034,,,
imu,123.86935,-0.1471455888,-9.6224840936,1.7890750248,5.26385211,4.85200458,-1.96361545,,,
imu,123.877816,-0.1961941184,-9.660765872800003,1.7836916496,5.30123666,3.6706528,-2.26269185,,,
imu,123.886282,-0.2440463424,-9.697851346400002,1.7872805664,5.20403683,2.61640849,-2.53186061,,,
imu,123.894748,-0.3056560808,-9.727758986400001,1.7866824136,5.13674464,1.88367131,-2.80102937,,,
imu,123.903214,-0.3600879856,-9.7492924872,1.785486108,4.92739116,1.38271834,-2.93561375,,,
imu,123.91168,-0.3929863896,-9.767835224,1.7938602472,4.84514515,1.21074941,-2.98795212,,,
imu,123.920146,-0.4025568344,-9.779200127200001,1.7896731776,4.68813004,0.94905756,-3.14496723,,,
imu,123.928612,-0.4145198904,-9.803724392000001,1.7789064272,4.55354566,0.8967191899999998,-3.31693616,,,
imu,123.937079,-0.4031549872,-9.8049206976,1.7783082744,4.33671527,0.7322271699999998,-3.33188998,,,
imu,123.945545,-0.385808556,-9.798341016800002,1.7579710792,4.27689999,0.6798887999999996,-3.21973633,,,
imu,123.954011,-0.3911919312,-9.768433376800001,1.7669433712,4.36662291,0.5527813299999997,-3.0477674,,,
imu,123.962477,-0.3786307224000001,-9.766638918400002,1.7567747736,4.38157673,0.2537049300000001,-2.95056757,,,
imu,123.970943,-0.3690602776000001,-9.785779808000001,1.7531858568,4.50120729,0.07425908999999997,-2.9729983,,,
imu,123.979409,-0.3523119992,-9.76484446,1.7143059248,4.49373038,-0.2771556799999999,-2.8234601,,,
imu,123.987875,-0.3600879856,-9.739722042400002,1.7202874528,4.52363802,-0.5238937100000003,-2.59167589,,,
imu,123.996341,-0.3564990688,-9.718786694400002,1.7083243968,4.55354566,-0.9276468500000004,-2.45709151,,,
imu,124.004807,-0.3624805968,-9.7008421104,1.680809368,4.93486807,-1.25663089,-2.29259949,,,
imu,124.013273,-0.3923882368,-9.6709344704,1.6556869504,5.0320679,-1.51832274,-2.17296893,,,
imu,124.021739,-0.3947808480000001,-9.647606511200001,1.6485091168,5.37600576,-1.64543021,-1.91875399,,,
imu,124.030205,-0.4049494456000001,-9.661364025600001,1.62996638,5.72742053,-1.73515313,-1.57481613,,,
imu,124.038672,-0.4013605288,-9.6775141512,1.609031032,6.03397384,-1.712722400000001,-1.45518557,,,
imu,124.047138,-0.3714528888,-9.696056888000001,1.6042458096,6.28818878,-1.712722400000001,-1.28321664,,,
imu,124.055604,-0.3660695136000001,-9.6918698184,1.5892919896,6.26575805,-1.9370297,-1.42527793,,,
imu,124.06407,-0.3475267768,-9.682897526400001,1.5677584888,6.31809642,-2.12395245,-1.7019236,,,
imu,124.072536,-0.3487230824000001,-9.699645804800001,1.573141864,6.19846586,-2.34078284,-1.79912343,,,
imu,124.081002,-0.3325729568,-9.7122070136,1.5617769608,6.05640457,-2.58752087,-1.91127708,,,
imu,124.089468,-0.340947096,-9.738525736800002,1.552206516,5.98163547,-2.86416654,-2.12063056,,,
imu,124.097932,-0.3493212352000001,-9.752881404000002,1.5420379184,5.84705109,-3.15576603,-2.29259949,,,
imu,124.106395,-0.3642750552,-9.7702278352,1.5396453072,5.82462036,-3.2828735,-2.29259949,,,
imu,124.114859,-0.3690602776000001,-9.788770572,1.537252696,5.69751289,-3.45484243,-2.3000764,,,
imu,124.123322,-0.3882011672000001,-9.8013317808,1.528280404,5.37600576,-3.61185754,-2.45709151,,,
imu,124.131786,-0.3929863896,-9.819276364800002,1.5151210424,5.27132902,-3.69410355,-2.56924516,,,
imu,124.140249,-0.3965753064,-9.834230184800003,1.5234951816,5.08440627,-3.70158046,-2.42718387,,,
imu,124.148713,-0.4019586816,-9.8294449624,1.52528964,5.0320679,-3.69410355,-2.41970696,,,
imu,124.157176,-0.4013605288,-9.8198745176,1.5109339728,4.97225262,-3.71653428,-2.62158353,,,
imu,124.16564,-0.4121272792,-9.8264541984,1.507345056,4.71803768,-3.63428827,-2.65896808,,,
imu,124.174103,-0.4193051128000001,-9.843800629600002,1.498372764,4.79280678,-3.36511951,-2.5991528,,,
imu,124.182567,-0.415716196,-9.825856045600002,1.5001672224,4.59840712,-3.22305822,-2.59167589,,,
imu,124.191031,-0.4193051128000001,-9.818678212000002,1.501363528,4.44139201,-3.05108929,-2.78607555,,,
imu,124.199494,-0.4234921824,-9.8168837536,1.4840170968,4.33671527,-2.8342589,-2.86084465,,,
imu,124.207958,-0.4115291264,-9.820472670400001,1.4882041664,4.29185381,-2.75201289,-2.90570611,,,
imu,124.216421,-0.4234921824,-9.800733628000001,1.4732503464,4.11240797,-2.39312121,-2.89075229,,,
imu,124.224885,-0.4216977240000001,-9.766638918400002,1.4678669712,3.89557758,-2.04170644,-3.00290594,,,
imu,124.233348,-0.4366515440000001,-9.749890640000002,1.4529131512,3.99277741,-1.85478369,-3.08515195,,,
imu,124.241812,-0.4330626272,-9.739123889600002,1.4499223872,4.05259269,-1.47346128,-3.06272122,,,
imu,124.250275,-0.4318663216,-9.727160833600001,1.4391556368,4.08250033,-1.1893387,-3.08515195,,,
imu,124.258739,-0.4366515440000001,-9.727160833600001,1.4247999696,4.19465398,-1.12204651,-3.28702852,,,
imu,124.267202,-0.4258847936,-9.7283571392,1.4253981224,4.17222325,-0.80053938,-3.25712088,,,
imu,124.275666,-0.4222958768,-9.7427128064,1.4242018168,4.33671527,-0.6210935399999999,-3.30198234,,,
imu,124.28413,-0.4169125016,-9.746301723200002,1.4122387608,4.26194617,-0.5014629800000003,-3.496382,,,
imu,124.292593,-0.4205014184,-9.756470320800002,1.426594428,4.20213089,-0.2696787700000001,-3.66087402,,,
imu,124.301417,-0.3983697648000001,-9.772022293600001,1.417622136,4.41148437,-0.0603252900000002,-3.74312003,,,
imu,124.31024,-0.3989679176000001,-9.8013317808,1.40565908,4.1348387,-0.0005100100000001717,-3.72816621,,,
imu,124.319064,-0.4001642232,-9.802528086400002,1.4194165944,3.89557758,-0.05284837999999992,-3.87770441,,,
imu,124.327887,-0.4055475984,-9.802528086400002,1.4104443024,3.87314685,0.11164364,-3.99733497,,,
imu,124.336711,-0.4049494456000001,-9.805518850400002,1.4032664688,3.70865483,0.11164364,-3.9449966,,,
imu,124.345534,-0.3977716120000001,-9.818678212000002,1.4068553856,3.56659354,0.06678217999999969,-3.90761205,,,
imu,124.354358,-0.4019586816,-9.8270523512,1.4158276776,3.45443989,0.1415512799999998,-3.9449966,,,
imu,124.363182,-0.4013605288,-9.834828337600001,1.4134350664,3.32733242,0.19388965,-4.04967334,,,
imu,124.372005,-0.3959771536000001,-9.836024643200002,1.4038646216,3.06564057,0.2387511099999999,-3.95995042,,,
imu,124.380829,-0.4031549872,-9.8234634344,1.4032664688,2.72917962,0.2537049300000001,-3.95995042,,,
imu,124.389652,-0.4025568344,-9.8043225448,1.4074535384,2.61702597,0.2088434699999997,-4.012288789999999,,,
imu,124.398476,-0.4276792520000001,-9.803126239200001,1.4014720104,2.61702597,0.2088434699999997,-4.04967334,,,
imu,124.407299,-0.4270810992000001,-9.802528086400002,1.387714496,2.45253395,0.21632038,-4.16182699,,,
imu,124.416123,-0.4330626272,-9.7845835024,1.3954904824,2.60207215,0.3509047599999997,-4.02724261,,,
imu,124.424946,-0.4252866408000001,-9.7474980288,1.387714496,2.69927198,0.3509047599999997,-4.15435008,,,
imu,124.43377,-0.4480164472000001,-9.725964528,1.3913034128,2.67684125,0.5079198699999998,-4.17678081,,,
imu,124.442594,-0.4366515440000001,-9.722973764,1.3919015656,2.66936434,0.58268897,-3.88518132,,,
imu,124.451417,-0.43366078,-9.724170069600001,1.3781440512,2.85628709,0.7546578999999998,-3.68330475,,,
imu,124.460241,-0.4366515440000001,-9.688879054400001,1.3835274264,3.06564057,0.9939190199999999,-3.69078166,,,
imu,124.469064,-0.4414367664,-9.6703363176,1.3895089544,3.05816366,1.04625739,-3.77302767,,,
imu,124.477888,-0.4205014184,-9.718188541600002,1.3661809952,3.18527113,1.00887284,-3.82536604,,,
imu,124.486711,-0.4031549872,-9.763050001600002,1.3267029104,3.54416281,0.94905756,-4.102011709999999,,,
imu,124.495535,-0.4091365152000001,-9.7750130576,1.3255066048,3.86566994,0.98644211,-4.23659609,,,
imu,124.504018,-0.3905937784,-9.773816752000002,1.324908452,3.96286977,0.9565344699999998,-4.29641137,,,
imu,124.5125,-0.391790084,-9.7911631832,1.3201232296,4.0600696,0.9341037399999998,-4.21416536,,,
imu,124.520983,-0.4091365152000001,-9.789368724800001,1.297991576,4.14979252,0.6574580699999997,-4.244073,,,
imu,124.529465,-0.4103328208,-9.766040765600001,1.292010048,4.232038530000001,0.6873657099999999,-4.04219643,,,
imu,124.537948,-0.4073420568000001,-9.7845835024,1.295000812,4.18717707,0.58268897,-3.83284295,,,
imu,124.546431,-0.4037531400000001,-9.827650504000003,1.2824396032,4.27689999,0.5527813299999997,-3.7206893,,,
imu,124.554913,-0.4228940296000001,-9.837819101600003,1.2788506864,4.34419218,0.4555814999999996,-3.496382,,,
imu,124.563396,-0.4342589328000001,-9.8168837536,1.280046992,4.089977240000001,0.3284740299999998,-3.45152054,,,
imu,124.571879,-0.4528016696000001,-9.803126239200001,1.2794488392,4.03763887,0.33595094,-3.30198234,,,
imu,124.580361,-0.4629702672000001,-9.7995373224,1.2794488392,3.9105314,0.4107200399999997,-3.16739796,,,
imu,124.588844,-0.4779240872000001,-9.7989391696,1.2615042552,3.79837775,0.5976427899999996,-3.35432071,,,
imu,124.597326,-0.4839056152000001,-9.797742864000002,1.2609061024,3.67874719,0.8593346399999997,-3.50385891,,,
imu,124.605809,-0.4755314760000001,-9.7923594888,1.2393726016,3.45443989,1.18831868,-3.60853565,,,
imu,124.614292,-0.4659610312,-9.785181655200002,1.2405689072,3.37967079,1.47991817,-3.51133582,,,
imu,124.622774,-0.4617739616000001,-9.8013317808,1.2477467408,3.09554821,1.67431783,-3.59358183,,,
imu,124.631257,-0.4539979752000001,-9.818080059200001,1.2429615184,2.998348379999999,2.01077878,-3.70573548,,,
imu,124.639739,-0.442633072,-9.837220948800002,1.2357836848,2.75161035,1.99582496,-3.75059694,,,
imu,124.648222,-0.4193051128000001,-9.849184004800001,1.2190354064,2.55721069,2.28742445,-3.7206893,,,
imu,124.656705,-0.4079402096,-9.8581562968,1.2405689072,2.27308811,2.27247063,-3.88518132,,,
imu,123.089373,,,,,,,20.26394120000001,-25.3238668,48.22455839999999
imu,123.190936,,,,,,,22.76641720000001,-26.6422444,46.2103704
imu,123.292498,,,,,,,20.6057428,-25.79994760000002,49.2255488
imu,123.394061,,,,,,,21.0818236,-26.25161400000002,46.60100079999999
imu,123.495593,,,,,,,21.35038200000001,-25.61683960000001,49.17672
imu,123.597217,,,,,,,21.54569720000001,-25.51918200000001,48.67622479999999
imu,123.698748,,,,,,,20.8132652,-25.48256040000001,49.50631439999999
imu,123.800311,,,,,,,19.5681308,-25.92201960000002,48.45649519999999
imu,124.665187,-0.4001642232,-9.8719138112,1.229204004,1.93662716,2.39210119,-3.95995042,,,
imu,124.67367,-0.3852104032000001,-9.896438076,1.2393726016,1.69736604,2.29490136,-4.00481188,,,
imu,124.682153,-0.3684621248000001,-9.875502728,1.2208298648,1.27865908,2.25751681,-3.95995042,,,
imu,124.690635,-0.3660695136000001,-9.831239420800001,1.217240948,1.07678251,2.03320951,-4.034719519999999,,,
imu,124.699118,-0.3636769024000001,-9.794153947200002,1.2268113928,0.67302937,1.89114822,-4.11696553,,,
imu,124.707572,-0.3816214864,-9.800135475200001,1.2256150872,0.56835263,1.74908693,-4.04219643,,,
imu,124.716027,-0.3780325696000001,-9.797742864000002,1.199296364,0.34404533,1.71917929,-4.169303899999999,,,
imu,124.724482,-0.3852104032000001,-9.7570684736,1.1927166832,0.09730729999999999,1.56216418,-4.23659609,,,
imu,124.732936,-0.3780325696000001,-9.7265626808,1.1885296136,0.03749201999999999,1.40514907,-4.057150249999999,,,
imu,124.741391,-0.3905937784,-9.725964528,1.169388724,0.16459949,1.44253362,-3.98985806,,,
imu,124.749846,-0.3947808480000001,-9.739722042400002,1.1646035016,0.11973803,1.32290306,-3.95247351,,,
imu,124.7583,-0.4025568344,-9.803126239200001,1.1777628632,0.29918387,1.55468727,-3.81041222,,,
imu,124.766755,-0.3947808480000001,-9.849184004800001,1.1891277664,0.21693786,1.64441019,-4.057150249999999,,,
imu,124.775209,-0.3870048616000001,-9.895839923200002,1.2184372536,0.0001074699999999984,1.55468727,-4.3936112,,,
imu,124.783664,-0.3953790008,-9.9167752712,1.2483448936,-0.52327623,1.34533379,-4.82727198,,,
imu,124.792119,-0.3887993200000001,-9.931729091200001,1.2692802416,-0.85973718,1.36776452,-5.2908404,,,
imu,124.800527,-0.4115291264,-9.942495841600001,1.3027767984,-1.31582869,1.33037997,-5.5151477,,,
imu,124.808982,-0.4121272792,-9.9484773696,1.3320862856,-1.70462801,1.15841104,-5.829177919999999,,,
imu,124.817437,-0.4199032656,-9.914382660000001,1.3506290224,-2.28782699,1.00139593,-6.21050033,,,
imu,124.825891,-0.4414367664,-9.835426490400001,1.372760676,-2.61681103,0.84438082,-6.374992349999999,,,
imu,124.834346,-0.4677554896000001,-9.801929933600002,1.3942941768,-2.47474974,0.78456554,-6.30022325,,,
imu,124.8428,-0.4862982264000001,-9.783985349600002,1.3739569816,-2.21305789,0.6125966099999998,-5.97871612,,,
imu,124.851255,-0.4958686712000001,-9.748096181600001,1.3530216336,-1.59995127,0.5752120599999997,-5.64973208,,,
imu,124.85971,-0.5126169496,-9.703832874400002,1.3470401056,-0.65786061,0.5153967799999997,-5.16373293,,,
imu,124.868164,-0.5263744640000001,-9.6775141512,1.3165343128,0.4861066199999999,0.5752120599999997,-4.453426479999999,,,
imu,124.876619,-0.5347486032000001,-9.6434194416,1.2914118952,1.65998149,0.78456554,-3.87770441,,,
imu,124.885074,-0.5233837000000001,-9.620689635200002,1.3123472432,2.73665653,0.9714882899999999,-3.38422835,,,
imu,124.893528,-0.5012520464000001,-9.619493329600001,1.3093564792,3.52920899,1.1285034,-2.83841392,,,
imu,124.901983,-0.4749333232000001,-9.631456385600002,1.3003841872,4.00773123,1.27056469,-2.47204533,,,
imu,124.91044,-0.4731388648000001,-9.631456385600002,1.2973934232,4.14231561,1.24813396,-2.51690679,,,
imu,124.918897,-0.4743351704000001,-9.6637566368,1.31593616,4.16474634,1.40514907,-2.41223005,,,
imu,124.927354,-0.454596128,-9.678710456800001,1.3320862856,3.94043904,1.38271834,-2.34493786,,,
imu,124.935812,-0.4474182944000001,-9.7295534448,1.3290955216,3.65631646,1.51730272,-2.30755331,,,
imu,124.944269,-0.4330626272,-9.760059237600002,1.3362733552,3.10302512,1.46496435,-2.47952224,,,
imu,124.952726,-0.4420349192,-9.748096181600001,1.3512271752,2.60207215,1.56216418,-2.60662971,,,
imu,124.961183,-0.4492127528000001,-9.742114653600002,1.3500308696,2.07121154,1.28551851,-2.89075229,,,
imu,124.96964,-0.4294737104000001,-9.745703570400002,1.3446474944,1.6674584,1.29299542,-2.93561375,,,
imu,124.978098,-0.43366078,-9.718188541600002,1.3201232296,1.57025857,1.33037997,-2.78607555,,,
imu,124.986555,-0.4510072112,-9.676317845600002,1.3021786456,1.43567419,1.26308778,-2.77112173,,,
imu,124.995012,-0.4414367664,-9.642223136000002,1.2848322144,1.50296638,1.26308778,-2.68139881,,,
imu,125.003469,-0.4240903352000001,-9.637437913600001,1.2549245744,1.75718132,1.14345722,-2.43466078,,,
imu,125.011926,-0.424688488,-9.651793580800001,1.2298021568,1.9665348,1.00887284,-2.47204533,,,
imu,125.020383,-0.4187069600000001,-9.693664276800002,1.1837443912,2.37028794,1.14345722,-2.46456842,,,
imu,125.028841,-0.4025568344,-9.805518850400002,1.148453376,3.04320984,1.07616503,-2.47952224,,,
imu,125.037298,-0.4013605288,-9.979581315200003,1.124527264,3.90305449,0.9714882899999999,-2.79355246,,,
imu,125.045755,-0.3887993200000001,-10.2296091856,1.1747720992,4.42643819,0.94905756,-3.22721324,,,
imu,125.054212,-0.3941826952,-10.4628887776,1.2244187816,4.22456162,0.9415806499999997,-3.90013514,,,
imu,125.062669,-0.3989679176000001,-10.5908934768,1.289019284,3.67127028,0.6574580699999997,-4.85717962,,,
imu,125.071127,-0.4019586816,-10.5765378096,1.3386659664,2.47496468,0.3733354899999997,-6.27779252,,,
imu,125.079584,-0.4348570856000001,-10.4264014568,1.3793403568,0.85995212,-0.09023292999999999,-7.89280508,,,
imu,125.088041,-0.4677554896000001,-10.2050849208,1.3709662176,-0.91207555,-0.6734319100000001,-9.246125789999999,,,
imu,125.096498,-0.5162058664000001,-9.960440425600002,1.3201232296,-2.31773463,-1.09213887,-10.09849353,,,
imu,125.104955,-0.5855915912,-9.765442612800001,1.2848322144,-3.17757928,-1.67533785,-10.74150779,,,
imu,125.113416,-0.6495939408000001,-9.621287788000002,1.2537282688,-3.36450203,-2.019275710000001,-10.40504684,,,
imu,125.121877,-0.7106055264000001,-9.509433214400001,1.1945111416,-2.90093361,-2.303398290000001,-9.56763292,,,
imu,125.130338,-0.7710189592000001,-9.456197615200002,1.175370252,-1.81678166,-2.36321357,-8.3563735,,,
imu,125.138799,-0.7692245008,-9.3766432928,1.112564208,-0.45598404,-2.28844447,-6.7862224,,,
imu,125.14726,-0.8218619472,-9.3419504304,1.0688990536,1.30856672,-1.98189116,-4.999240909999999,,,
imu,125.155721,-0.7823838624,-9.266583177600001,1.0216449824,3.34976315,-1.413646,-3.13749032,,,
imu,125.164182,-0.7668318896,-9.178654716,0.9881484256000002,5.4059134,-0.9725083100000003,-1.19349372,,,
imu,125.172643,-0.7082129152000001,-9.118241283200001,0.9791761336000001,7.06578742,-0.3818324200000003,0.75050288,,,
imu,125.181104,-0.6525847048000001,-9.087735490400002,0.9558481744000001,8.389200489999999,0.2237972899999998,2.49262291,,,
imu,125.189565,-0.5670488544000001,-9.108072685600002,0.9654186192,9.27147587,0.76213481,4.18988148,,,
imu,125.198026,-0.4880926848000001,-9.205571592000002,0.9923354952000002,9.652798279999999,1.21822632,5.28898725,,,
imu,125.206487,-0.4013605288,-9.3862137376,0.9953262592000002,9.936920859999999,1.44253362,5.849755500000001,,,
imu,125.214948,-0.34393786,-9.599156134400001,1.0174579128,9.899536309999998,1.51730272,6.0740628,,,
imu,125.223409,-0.2715613712,-9.806715156000001,1.0581323032,9.22661441,1.44253362,6.29089319,,,
imu,125.23187,-0.1991848824,-9.974197940000002,1.0952177768,8.20227774,1.45748744,6.4479083,,,
imu,125.240331,-0.1549215752,-10.0794728328,1.1376866256,6.76671102,1.47991817,6.388093019999999,,,
imu,125.248792,-0.1297991576,-10.1374936544,1.1819499328,5.16665228,1.18831868,6.081539709999999,,,
imu,125.257253,-0.1094619624,-10.2206368936,1.2016889752,3.34228624,0.8144731799999998,5.453479270000001,,,
imu,125.265714,-0.09091922560000001,-10.3259117864,1.2363818376,1.7422275,0.52287369,4.78055737,,,
imu,125.274175,-0.0753672528,-10.398886428,1.2632987136,0.03001510999999998,0.2387511099999999,3.69640542,,,
imu,125.282636,-0.09390998960000001,-10.4335792904,1.2955989648,-1.3980747,-0.2771556799999999,2.55243819,,,
imu,125.291097,-0.1172379488,-10.42281254,1.3117490904,-2.65419558,-0.7108164600000002,1.62530135,,,
imu,125.299558,-0.1537252696,-10.3169394944,1.3123472432,-3.58133242,-0.90521612,0.87013344,,,
imu,125.308019,-0.158510492,-10.1339047376,1.297991576,-4.34397724,-0.9874621299999999,0.4140419300000002,,,
imu,125.316844,-0.1932033544,-9.959244120000001,1.28602852,-4.54585381,-1.07718505,0.03271952000000011,,,
imu,125.325669,-0.221316536,-9.880287950400001,1.2662894776,-4.299115779999999,-1.01736977,-0.07195722000000004,,,
imu,125.334494,-0.2380648144,-9.825856045600002,1.2160446424,-3.4168404,-1.02484668,0.1673038999999998,,,
imu,125.343319,-0.23926112,-9.730749750400001,1.1735757936,-2.56447266,-0.80053938,0.1149655300000001,,,
imu,125.352144,-0.2290925224000001,-9.6159044128,1.1556312096,-1.34573633,-0.35192478,0.1897346300000002,,,
imu,125.360969,-0.2159331608,-9.533359326400001,1.1257235696,0.14216876,-0.05284837999999992,0.2794575500000001,,,
imu,125.369794,-0.203371952,-9.5154147424,1.1017974576,1.6674584,0.2910894799999997,0.2944113700000002,,,
imu,125.378618,-0.1938015072,-9.520798117600002,1.0952177768,2.91610237,0.47801223,-0.04204958000000003,,,
imu,125.387443,-0.188418132,-9.537546396000002,1.0868436376,3.91800831,0.58268897,-0.5579563699999999,,,
imu,125.396268,-0.1782495344,-9.580613397600002,1.1017974576,4.77785296,0.5527813299999997,-1.13367844,,,
imu,125.405093,-0.1567160336,-9.603343204000002,1.0952177768,5.43582104,0.72475026,-1.76921579,,,
imu,125.413918,-0.176455076,-9.6296619272,1.0898344016,5.69003598,0.6574580699999997,-2.53933752,,,
imu,125.422743,-0.1818384512,-9.682897526400001,1.094619624,5.6302207,0.4854891399999999,-3.14496723,,,
imu,125.431568,-0.2015774936,-9.7780038216,1.0868436376,5.32366739,0.47801223,-3.58610492,,,
imu,125.440393,-0.2249054528,-9.8479876992,1.0940214712,4.86757588,0.3434278499999999,-3.98985806,,,
imu,125.449218,-0.251224176,-9.903615909600001,1.1071808328,3.91800831,0.5079198699999998,-4.35622665,,,
imu,125.458042,-0.2356722032,-9.914980812800001,1.1077789856,2.73665653,0.56025824,-4.53567249,,,
imu,125.466867,-0.2542149400000001,-9.957449661600002,1.1071808328,1.63007385,0.5752120599999997,-4.42351884,,,
imu,125.475692,-0.2859170384,-10.0124797192,1.0802639568,0.53096808,0.5901658799999998,-4.49828794,,,
imu,123.901822,,,,,,,19.2873652,-25.56801080000002,47.58978399999999
imu,124.003384,,,,,,,19.11646440000001,-25.62904680000002,47.5653696
imu,124.104947,,,,,,,21.6799764,-26.67886600000002,47.74847759999999
imu,124.206509,,,,,,,18.9943924,-26.39810040000001,48.0658648
imu,124.308102,,,,,,,22.10722840000001,-27.61882040000001,45.92960479999999
imu,124.409634,,,,,,,19.763446,-26.33706440000001,48.3344232
imu,124.511197,,,,,,,20.6301572,-27.83855000000002,46.17374879999999
imu,124.612759,,,,,,,20.06862600000001,-26.739902,48.29780159999999
imu,125.484517,-0.2805336632,-10.0417892064,1.0431784832,-0.37373803,0.6798887999999996,-4.66277996,,,
imu,125.493342,-0.2619909264,-10.0196575528,1.0013077872,-1.06161375,0.72475026,-4.976810179999999,,,
imu,125.502167,-0.2799355104,-9.986759148800001,0.9725964528000002,-1.41302852,0.6051196999999999,-5.328224949999999,,,
imu,125.510992,-0.2781410520000001,-9.957449661600002,0.9474740352000001,-1.42798234,0.4854891399999999,-5.26840967,,,
imu,125.519464,-0.2913004136,-9.9365143136,0.9349128264000002,-1.3233056,0.3434278499999999,-5.17120984,,,
imu,125.527937,-0.3098431504,-9.9167752712,0.9217534648000001,-0.95693701,0.1041667299999998,-4.931948719999999,,,
imu,125.536409,-0.3301803456000001,-9.939505077600002,0.8978273528000001,-0.47841477,0.02192071999999978,-4.692687599999999,,,
imu,125.544881,-0.3361618736,-9.944290300000002,0.8643307960000001,-0.03727708,-0.0603252900000002,-4.43847266,,,
imu,125.553354,-0.3517138464,-9.9753942456,0.8936402832000001,0.56835263,-0.007986920000000008,-3.91508896,,,
imu,125.561826,-0.3636769024000001,-10.0962211112,0.9199590064000001,0.97210577,0.04435144999999974,-3.48142818,,,
imu,125.570299,-0.3636769024000001,-10.2146553656,0.8930421304000001,1.38333582,0.1565051,-3.0477674,,,
imu,125.578771,-0.3702565832000001,-10.192523712,0.9073977976000001,1.26370526,0.2910894799999997,-2.83841392,,,
imu,125.587244,-0.3654713608,-10.0854543608,0.9229497704,0.3739529699999999,0.3957662200000001,-2.748691,,,
imu,125.595716,-0.3505175408000001,-9.9879554544,0.9127811728000002,-0.38869185,0.52287369,-2.36736859,,,
imu,125.604189,-0.3463304712,-9.926345716,0.8858642968000001,-1.24105959,0.5901658799999998,-2.2253073,,,
imu,125.612661,-0.3188154424,-9.9000269928,0.8535640456000001,-2.28035008,0.8294269999999999,-1.84398489,,,
imu,125.621133,-0.2793373576,-9.866530436000001,0.7877672376000001,-3.43927113,1.09111885,-1.48509321,,,
imu,125.629606,-0.2207183832,-9.821668976000002,0.7375224024000001,-4.65053055,1.23318014,-1.17106299,,,
imu,125.638078,-0.155519728,-9.796546558400001,0.6932590952000001,-5.95151289,1.2780416,-0.88694041,,,
imu,125.646551,-0.113649032,-9.788770572,0.6824923448,-6.96089574,1.24813396,-0.54300255,,,
imu,125.655023,-0.0735727944,-9.8043225448,0.6753145112000001,-8.276831900000001,1.14345722,-0.2813106999999999,,,
imu,125.663496,-0.0197390424,-9.8210708232,0.6747163584000001,-9.67501407,1.02382666,-0.2813106999999999,,,
imu,125.671968,0.0017944584,-9.817481906400001,0.7165870544000001,-10.93861186,0.8967191899999998,-0.2140185099999998,,,
imu,125.680441,0.03887993200000001,-9.850380310400002,0.7680281952000001,-12.33679403,0.66493498,-0.4158950799999999,,,
imu,125.688913,0.0562263632,-9.993936982400001,0.8427972952,-13.83217603,0.4256738599999998,-0.6102947399999998,,,
imu,125.697385,0.07118018320000001,-10.1243342928,0.9115848672000001,-15.16306601,0.1490281899999997,-0.99161715,,,
imu,125.705858,0.06699311360000001,-10.195514476,1.0102800792,-16.51638672,-0.1201405700000002,-1.45518557,,,
imu,125.71433,0.0562263632,-10.2469556168,1.13649032,-17.95195344,-0.3893093300000001,-2.10567674,,,
imu,125.722795,0.0293094872,-10.2876300072,1.2309984624,-19.2678896,-0.6734319100000001,-2.80850628,,,
imu,125.73126,0.0,-10.324117328,1.3392641192,-20.72588705,-0.88278539,-3.48890509,,,
imu,125.739725,-0.03887993200000001,-10.2858355488,1.4379593312,-21.93714647,-0.8154932000000001,-4.07210407,,,
imu,125.74819,-0.0747691,-10.204486768,1.5217007232,-23.07363679,-0.8304470200000003,-4.625395409999999,,,
imu,125.756654,-0.1220231712,-10.1231379872,1.609031032,-23.72412796,-0.7332471900000002,-5.10391765,,,
imu,125.765119,-0.140565908,-10.007096344,1.6574814088,-24.1278811,-0.4865091600000002,-5.60487062,,,
imu,125.773584,-0.188418132,-9.911391896000003,1.7143059248,-23.94843526,-0.2771556799999999,-5.85908556,,,
imu,125.782049,-0.212344244,-9.8294449624,1.7812990384,-23.61945122,-0.04537147000000008,-5.90394702,,,
imu,125.790514,-0.233279592,-9.773816752000002,1.8524792216,-22.99139078,0.29856639,-5.68711663,,,
imu,125.798978,-0.221316536,-9.7325442088,1.9463892112,-22.10163849,0.5901658799999998,-5.500193879999999,,,
imu,125.807443,-0.227298064,-9.7128051664,2.0187657,-21.00253272,0.8967191899999998,-5.34317877,,,
imu,125.815908,-0.185427368,-9.714599624800002,2.1186572176,-19.91090386,0.98644211,-5.05157928,,,
imu,125.824373,-0.1531271168,-9.692467971200001,2.1964170816,-18.90899792,1.24065705,-4.83474889,,,
imu,125.832838,-0.116639796,-9.6643547896,2.3154494888,-17.92952271,1.18831868,-4.70016451,,,
imu,125.841303,-0.0693857248,-9.588389384000001,2.4362763544,-16.94257059,1.03130357,-4.20668845,,,
imu,125.849767,-0.08733030880000002,-9.395784182400002,2.5074565376,-15.81355718,0.7322271699999998,-3.89265823,,,
imu,125.858232,-0.09151737840000002,-9.204973439200002,2.578636720800001,-14.17611389,0.2312741999999997,-3.95995042,,,
imu,125.866697,-0.1028822816,-9.072183517600001,2.646227987200001,-11.9405178,-0.2622018600000002,-4.034719519999999,,,
imu,125.875162,-0.116639796,-9.027322057600001,2.6958746696,-9.40584531,-0.7930624700000002,-4.012288789999999,,,
imu,125.883627,-0.1423603664,-8.998610723200002,2.667761488,-6.74406535,-1.40616909,-4.244073,,,
imu,125.89201,-0.1818384512,-8.913673025600001,2.6791263912,-4.02994702,-1.97441425,-4.34874974,,,
imu,125.900475,-0.2326814392,-8.816174119200001,2.652807668,-1.63733582,-2.4604134,-4.26650373,,,
imu,125.90894,-0.2823281216,-8.754564380800002,2.6193111112,0.68798319,-2.58004396,-3.98985806,,,
imu,125.917404,-0.3134320672,-8.7527699224,2.5654773592,3.07311748,-2.62490542,-4.11696553,,,
imu,125.925874,-0.3511156936,-8.784472020800001,2.5110454544,5.06945245,-2.78192053,-4.15435008,,,
imu,125.934344,-0.3660695136000001,-8.840100231200001,2.4440523408,6.72932647,-2.67724379,-4.13191935,,,
imu,125.942814,-0.3606861384,-8.9352065264,2.3609091016,8.15741628,-2.46789031,-4.33379592,,,
imu,125.951284,-0.3481249296000001,-8.981264292,2.290327071200001,9.31633733,-2.47536722,-4.61044159,,,
imu,125.959754,-0.3624805968,-9.020742376800001,2.237091472,9.854674849999999,-2.58004396,-4.81979507,,,
imu,125.968224,-0.3684621248000001,-9.075772434400001,2.1808651088,9.966828499999998,-2.43050576,-4.7674567,,,
imu,125.976694,-0.3810233336,-9.181047327200002,2.1222461344,9.652798279999999,-2.34825975,-4.44594957,,,
imu,125.985164,-0.3810233336,-9.2994815816,2.0773846744,9.18175295,-2.13142936,-4.13191935,,,
imu,125.993633,-0.3660695136000001,-9.395784182400002,2.0540567152,8.26956993,-1.92955279,-3.95995042,,,
imu,126.002103,-0.3523119992,-9.46576806,2.0402992008,7.10317197,-1.712722400000001,-3.91508896,,,
imu,126.010573,-0.352910152,-9.540537160000001,2.0050081856,5.854528,-1.60804566,-3.76555076,,,
imu,126.019043,-0.3493212352000001,-9.606333968000001,1.9607448784,4.77037605,-1.30896926,-3.54124346,,,
imu,126.027513,-0.361882444,-9.668541859200001,1.9326316968,3.89557758,-1.03232359,-3.58610492,,,
imu,126.035983,-0.3463304712,-9.7163940832,1.8973406816,3.08059439,-0.7407241,-3.66835093,,,
imu,126.044453,-0.3415452488,-9.758862932000001,1.872218264,2.68431816,-0.4416477000000003,-3.83284295,,,
imu,126.052923,-0.340947096,-9.802528086400002,1.860255208,2.60954906,-0.04537147000000008,-3.75807385,,,
imu,126.061393,-0.3247969704000001,-9.844996935200001,1.8417124712,2.77404108,0.4630584099999999,-3.76555076,,,
imu,126.069863,-0.3032634696000001,-9.8982325344,1.8267586512,2.94601001,0.9640113799999996,-3.87770441,,,
imu,126.078332,-0.2835244272,-9.900625145600001,1.8058233032,3.11797894,1.47991817,-3.97490424,,,
imu,126.086802,-0.2607946208,-9.908401132000002,1.7896731776,3.45443989,1.96591732,-3.98985806,,,
imu,126.095272,-0.218325772,-9.911391896000003,1.7699341352,3.96286977,2.41453192,-4.0197657,,,
imu,126.103742,-0.1806421456,-9.925747563200002,1.7202874528,4.38905364,2.72108523,-4.27398064,,,
imu,126.112212,-0.161501256,-9.9401032304,1.6975576464,4.85262206,3.06502309,-4.453426479999999,,,
imu,126.120682,-0.137575144,-9.918569729600001,1.6772204512,5.33862121,3.34914567,-4.52071867,,,
imu,126.129495,-0.1082656568,-9.886269478400003,1.6443220472,5.86200491,3.34166876,-4.59548777,,,
imu,126.138308,-0.0980970592,-9.875502728,1.6197977824,6.16108131,3.43886859,-4.83474889,,,
imu,126.147121,-0.1040785872,-9.865932283200001,1.5982642816,6.34052715,3.32671494,-4.991764,,,
imu,126.155934,-0.1202287128,-9.8653341304,1.5701511,6.46015771,3.21456129,-4.999240909999999,,,
imu,126.164747,-0.1130508792,-9.883876867200001,1.5815160032,6.40781934,3.04259236,-5.021671639999999,,,
imu,126.17356,-0.1154434904,-9.9239531048,1.5701511,6.16108131,2.91548489,-5.193640569999999,,,
imu,126.182373,-0.1268083936,-9.9724034816,1.5928809064,5.62274379,2.70613141,-5.350655679999999,,,
imu,126.191186,-0.1417622136,-10.0035074272,1.6126199488,4.67317622,2.30237827,-5.38804023,,,
imu,126.199998,-0.1573141864,-10.0118815664,1.6580795616,3.589024269999999,2.14536316,-5.500193879999999,,,
imu,126.208811,-0.1758569232,-10.0166667888,1.7113151608,2.25065738,1.84628676,-5.62730135,,,
imu,126.217624,-0.2045682576000001,-10.0178630944,1.7519895512,0.64312173,1.6518871,-6.00114685,,,
imu,126.226437,-0.2243073,-9.963431189600001,1.776513816,-0.94198319,1.37524143,-6.203023419999999,,,
imu,126.23525,-0.2446444952,-9.876100880800003,1.8112066784,-2.54951884,1.13598031,-6.554438189999999,,,
imu,126.244063,-0.2883096496000001,-9.7815927384,1.8165900536,-3.9402241,0.94905756,-6.87594532,,,
imu,126.252876,-0.3241988176,-9.7056273328,1.8207771232,-4.747730379999999,0.78456554,-6.793699309999999,,,
imu,126.261689,-0.3606861384,-9.6290637744,1.833338332,-5.24120644,0.8518577299999999,-6.621730379999999,,,
imu,126.270502,-0.3756399584,-9.5842023144,1.8357309432,-5.24120644,0.78456554,-6.509576729999999,,,
imu,126.279315,-0.3965753064,-9.550705757600001,1.8464976936,-5.02437605,0.7920424499999998,-6.352561619999999,,,
imu,126.288128,-0.4097346680000001,-9.507638756,1.8387217072,-4.45613089,1.00887284,-5.97123921,,,
imu,126.296941,-0.4210995712,-9.489096019200002,1.8458995408,-3.72339371,0.9789651999999998,-5.72450118,,,
imu,124.714322,,,,,,,20.3493916,-26.9718388,48.7128464
imu,124.815884,,,,,,,19.8611036,-27.05728920000001,48.8471256
imu,124.917416,,,,,,,20.4836708,-27.4601268,48.8471256
imu,125.019009,,,,,,,20.3371844,-27.17936120000002,48.3344232
imu,125.120572,,,,,,,22.2903364,-28.1559372,47.83392799999999
imu,125.222134,,,,,,,20.36159880000001,-28.04607240000001,49.05464799999999
imu,125.323697,,,,,,,22.876282,-27.96062200000002,46.1615416
imu,125.433102,,,,,,,21.1550668,-27.94841480000001,48.7738824
imu,126.305754,-0.4097346680000001,-9.481320032800001,1.8590589024,-2.69158013,1.23318014,-5.283363489999999,,,
imu,126.314567,-0.4049494456000001,-9.522592576000001,1.8608533608,-1.57752054,1.37524143,-4.991764,,,
imu,126.32338,-0.4001642232,-9.588987536800001,1.875209028,-0.55318387,1.50982581,-4.67773378,,,
imu,126.331855,-0.3953790008,-9.661364025600001,1.8805924032,0.06739966,1.59207182,-4.625395409999999,,,
imu,126.34033,-0.4013605288,-9.722375611200002,1.9218649464,0.57582954,1.70422547,-4.4683803,,,
imu,126.348805,-0.3941826952,-9.783985349600002,1.9416039888,0.82256757,1.85376367,-4.5431494,,,
imu,126.35728,-0.391790084,-9.803126239200001,1.9565578088,1.02444414,2.01825569,-4.53567249,,,
imu,126.365755,-0.4037531400000001,-9.803126239200001,1.976895004,0.9646288599999999,2.19770153,-4.55062631,,,
imu,126.37423,-0.4055475984,-9.796546558400001,1.9852691432,0.7702292,2.30985518,-4.64034923,,,
imu,126.382705,-0.4115291264,-9.7809945856,1.9804839208,0.46367589,2.30985518,-4.715118329999999,,,
imu,126.39118,-0.4360533912000001,-9.770825988000002,1.9840728376,0.42629134,2.36967046,-4.737549059999999,,,
imu,126.399655,-0.4575868920000001,-9.761853696000001,1.9762968512,0.35899915,2.65379304,-4.954379449999999,,,
imu,126.40813,-0.4671573368000001,-9.7151977776,1.98885806,0.44872207,2.76594669,-5.00671782,,,
imu,126.416605,-0.4605776560000001,-9.675121540000001,1.9846709904,0.32909151,3.02016163,-4.81231816,,,
imu,126.42508,-0.4575868920000001,-9.647606511200001,1.9900543656,0.59078336,3.33419185,-4.58053395,,,
imu,126.433555,-0.439642308,-9.6009505928,1.9721097816,0.5010604399999999,3.40148404,-4.49081103,,,
imu,126.44203,-0.4240903352000001,-9.5489112992,1.9804839208,0.55339881,3.61083752,-4.33379592,,,
imu,126.450505,-0.4234921824,-9.523190728800001,1.9697171704,0.7403215599999999,3.7454219,-4.04967334,,,
imu,126.458979,-0.4037531400000001,-9.528574104,1.9733060872,0.8449983,3.83514482,-3.88518132,,,
imu,126.467454,-0.3876030144000001,-9.516611048000001,1.9697171704,1.09173633,4.07440594,-3.68330475,,,
imu,126.475929,-0.391790084,-9.4944793944,1.9673245592,1.25622835,4.171605769999999,-3.48142818,,,
imu,126.484404,-0.3666676664,-9.4699551296,1.9601467256,1.57773548,4.36600543,-3.52628964,,,
imu,126.492879,-0.3636769024000001,-9.4346641144,1.964931948,1.86185806,4.455728349999999,-3.48142818,,,
imu,126.501354,-0.3541064576,-9.4113361552,1.9942414352,2.16093446,4.44077453,-3.54872037,,,
imu,126.509829,-0.3475267768,-9.4173176832,2.004410032800001,2.58711833,4.523020539999999,-3.6459202,,,
imu,126.518304,-0.3600879856,-9.440645642400002,1.9756986984,2.83385636,4.530497449999999,-3.81041222,,,
imu,126.526779,-0.3600879856,-9.402962016000002,1.946987364,3.30490169,4.75480475,-4.07210407,,,
imu,126.535245,-0.3702565832000001,-9.307257568,1.9517725864,3.72360865,5.091265699999999,-4.31136519,,,
imu,126.543712,-0.3594898328000001,-9.2486385936,1.9565578088,3.89557758,5.24828081,-4.56558013,,,
imu,126.552178,-0.3433397072,-9.277948080800002,1.9368187664,4.35166909,5.4651112,-4.64034923,,,
imu,126.560644,-0.331974804,-9.408345391200001,1.9433984472,4.98720644,5.64455704,-4.430995749999999,,,
imu,126.56911,-0.3128339144,-9.593772759200002,1.9368187664,5.4059134,5.64455704,-4.37865738,,,
imu,126.577576,-0.2655798432,-9.739722042400002,1.9236594048,5.74985126,5.75671069,-4.30388828,,,
imu,126.586042,-0.2470371064,-9.7953502528,1.9176778768,5.74985126,5.79409524,-4.13939626,,,
imu,126.594508,-0.245242648,-9.8778953392,1.9703153232,5.89938946,5.62960322,-4.0197657,,,
imu,126.602974,-0.2410555784,-10.025040928,1.9422021416,6.21341968,5.53240339,-3.93751969,,,
imu,126.61144,-0.2386629672,-9.9969277464,1.8955462232,6.11621985,5.32304991,-4.11696553,,,
imu,126.619906,-0.2374666616,-9.977786856800002,1.9553615032,6.1536044,5.21837317,-4.386134289999999,,,
imu,126.628372,-0.248233412,-10.0148723304,1.9015277512,6.46763462,5.0164966,-4.70764142,,,
imu,126.636838,-0.2494297176,-10.0627245544,1.88418132,6.91624922,4.92677368,-4.83474889,,,
imu,126.645305,-0.2727576768,-10.0633227072,1.83931986,7.46206365,4.77723548,-4.93942563,,,
imu,126.653771,-0.2918985664000001,-10.0017129688,1.8159919008,7.96301662,4.46320526,-5.238502029999999,,,
imu,126.662237,-0.296085636,-9.922756799200002,1.8106085256,8.37424667,4.15665195,-5.1413022,,,
imu,126.670703,-0.3038616224,-9.918569729600001,1.7699341352,9.084553119999999,3.79028336,-5.20111748,,,
imu,126.679169,-0.2805336632,-9.8946436176,1.6915761184,9.84719794,3.32671494,-5.12634838,,,
imu,126.687635,-0.2685706072,-9.787574266400002,1.6413312832,10.03412069,2.61640849,-4.98428709,,,
imu,126.696101,-0.272159524,-9.617100718400001,1.5839086144,10.19861271,2.13040934,-4.55062631,,,
imu,126.704567,-0.2942911776,-9.5040498392,1.5336637792,10.59488894,1.55468727,-3.61601256,,,
imu,126.713033,-0.2643835376,-9.448421628800002,1.4840170968,10.78181169,0.6574580699999997,-2.47204533,,,
imu,126.721499,-0.2075590216,-9.489096019200002,1.4517168456,10.87153461,-0.02294074000000013,-1.253309,,,
imu,126.729965,-0.06998387760000001,-9.5423316184,1.438557484,10.8640577,-0.8753084800000002,-0.04952648999999987,,,
imu,126.738432,0.1202287128,-9.6703363176,1.4391556368,10.60236585,-2.02675262,1.2140713,,,
imu,126.746898,0.3535083048,-9.7995373224,1.4050609272,10.10141288,-3.9557954,2.61973038,,,
imu,126.755364,0.5443190480000001,-9.825856045600002,1.363788384,9.129414579999999,-6.886744119999999,3.56182104,,,
imu,126.76383,0.5550857984,-9.792957641600001,1.3763495928,8.164893189999999,-10.43079946,4.69831136,,,
imu,126.772296,0.535346756,-9.802528086400002,1.4008738576,7.26018708,-14.00476244,6.14135499,,,
imu,126.780762,0.4791203928000001,-9.863539672000002,1.4152295248,6.43025007,-17.4890025,7.375045140000001,,,
imu,126.789228,0.3648732080000001,-9.896438076,1.3823311208,5.54797469,-20.63678161,7.771321370000001,,,
imu,126.797694,0.2488315648,-9.9167752712,1.369769912,4.74794532,-23.21631556,7.62178317,,,
imu,126.80616,0.0933118368,-9.9012232984,1.4020701632,4.05259269,-25.35471182,7.330183680000001,,,
imu,126.814626,-0.09690075360000001,-9.897634381600001,1.4277907336,3.55163972,-26.73794017,6.634831050000001,,,
imu,126.823092,-0.2990764,-9.8713156584,1.4433427064,3.26751714,-27.16412404,5.50581764,,,
imu,126.831558,-0.4785222400000001,-9.864137824800002,1.462483596,3.26004023,-26.88747837,3.84594362,,,
imu,126.840025,-0.5933675776,-9.867128588800002,1.4469316232,3.43200916,-25.51920384,2.42533072,,,
imu,126.848491,-0.708811068,-9.832435726400002,1.4379593312,3.54416281,-23.59763797,0.83274889,,,
imu,126.856957,-0.7931506128000001,-9.7995373224,1.426594428,3.72360865,-21.33213424,-0.6551562,,,
imu,126.865423,-0.86732156,-9.777405668800002,1.429585192,4.06754651,-18.66287737,-2.24026112,,,
imu,126.873889,-0.8918458248000001,-9.746301723200002,1.411640608,4.62083785,-15.60482118,-3.5711511,,,
imu,126.882355,-0.9420906600000001,-9.715795930400002,1.402668316,5.12179082,-12.50938044,-4.56558013,,,
imu,126.890821,-0.9684093832000001,-9.699047652,1.393696024,5.66012834,-9.37655515,-5.38056332,,,
imu,126.899287,-0.9492684936000001,-9.6912716656,1.3733588288,6.17603513,-6.019422560000001,-5.851608649999999,,,
imu,126.907753,-0.8972292000000002,-9.6709344704,1.3410585776,6.59474209,-2.87912036,-6.270315609999999,,,
imu,126.916219,-0.8511714344000001,-9.655382497600002,1.3374696608,6.87886467,-0.1350943900000003,-6.382469260000001,,,
imu,126.924685,-0.7949450712000001,-9.6954587352,1.3344788968,7.06578742,2.28742445,-6.442284539999999,,,
imu,126.933151,-0.7333353328000001,-9.7612555432,1.3147398544,7.28261781,4.30619015,-6.442284539999999,,,
imu,126.941612,-0.6537810104000001,-9.810304072800001,1.3015804928,7.32000236,6.2128022,-6.225454149999999,,,
imu,126.950073,-0.5658525488000001,-9.813892989600001,1.2973934232,6.9760645,7.84276858,-6.10582359,,,
imu,126.958534,-0.4910834488,-9.822267128800002,1.2908137424,6.66951119,9.06150491,-5.634778259999999,,,
imu,126.966995,-0.4193051128000001,-9.8713156584,1.280046992,6.25828114,9.913872649999998,-5.03662546,,,
imu,126.975456,-0.3481249296000001,-9.9305327856,1.2824396032,5.97415856,10.63913292,-4.22164227,,,
imu,126.983908,-0.3038616224,-10.0501633456,1.327899216,5.34609812,11.08774752,-3.45152054,,,
imu,126.992369,-0.1932033544,-10.0184612472,1.2537282688,4.60588403,11.42420847,-2.94309066,,,
imu,127.00083,-0.1387714496,-9.998722204800002,1.3057675624,3.63388573,11.56626976,-2.41970696,,,
imu,127.009291,-0.0693857248,-9.983170232,1.3003841872,2.96844074,11.36439319,-2.06829219,,,
imu,127.017752,-0.0305057928,-9.9999185104,1.2866266728,2.25813429,10.90830168,-2.06829219,,,
imu,127.026213,0.0113649032,-9.946084758400001,1.2884211312,1.46558183,10.51950236,-2.25521494,,,
imu,127.034674,0.0233279592,-9.88447502,1.2961971176,0.73284465,9.86153428,-2.80102937,,,
imu,127.043135,0.011963056,-9.836622796,1.28602852,0.25432241,9.255904569999998,-3.18982869,,,
imu,127.051596,0.0011963056,-9.80970592,1.2722710056,0.03749201999999999,8.65775177,-3.78050458,,,
imu,127.060057,-0.0161501256,-9.7995373224,1.289019284,-0.13447691,8.18670644,-4.33379592,,,
imu,127.068518,-0.06400234960000001,-9.773218599200002,1.2776543808,-0.18681528,7.790430209999999,-4.89456417,,,
imu,127.076979,-0.09151737840000002,-9.7331423616,1.2818414504,-0.14943073,7.558646,-5.39551714,,,
imu,127.08544,-0.1387714496,-9.724768222400002,1.2806451448,0.05992275,7.37172325,-5.64225517,,,
imu,127.093901,-0.2111479384,-9.722375611200002,1.2788506864,0.28423005,7.222185049999999,-6.1880696,,,
imu,127.102362,-0.2649816904,-9.711608860800002,1.2758599224,0.5982602699999999,7.409107799999999,-6.53948437,,,
imu,127.110823,-0.3176191368,-9.722973764,1.2836359088,1.03939796,7.745568749999999,-6.59182274,,,
imu,125.534615,,,,,,,22.09502120000001,-28.41228840000001,46.3324424
imu,125.636177,,,,,,,20.91092280000001,-27.58219880000001,48.9081616
imu,125.73774,,,,,,,21.045202,-25.9830556,48.7006392
imu,125.839333,,,,,,,20.8132652,-24.10314680000001,48.0658648
imu,125.940895,,,,,,,21.72880520000001,-22.9922916,48.4076664
imu,126.042427,,,,,,,21.54569720000001,-23.40733640000001,48.5785672
imu,126.14399,,,,,,,21.9119132,-23.43175080000002,48.1757296
imu,126.245552,,,,,,,23.95051560000001,-24.11535400000002,48.56636
imu,127.119284,-0.3511156936,-9.739123889600002,1.30098234,1.30856672,8.022214420000001,-6.681545659999999,,,
imu,127.127745,-0.3684621248000001,-9.7821908912,1.2782525336,1.68988913,8.530644299999999,-6.793699309999999,,,
imu,127.136206,-0.4025568344,-9.8593526024,1.2662894776,2.04878081,9.15122783,-6.711453300000001,,,
imu,127.145023,-0.3774344168000001,-9.867726741600002,1.2884211312,2.05625772,9.81667282,-6.80117622,,,
imu,127.15384,-0.3523119992,-9.990348065600001,1.3440493416,1.85438115,10.4746409,-6.62920729,,,
imu,127.162657,-0.3582935272000001,-9.8210708232,1.2184372536,1.40576655,10.89334786,-6.24040797,,,
imu,127.171474,-0.3224043592,-9.8144911424,1.3625920784,1.0693056,11.18494735,-6.098346680000001,,,
imu,127.180291,-0.3391526376000001,-9.8982325344,1.3536197864,0.94219813,11.49897757,-5.8889932,,,
imu,127.189108,-0.3289840400000001,-9.934121702400002,1.2932063536,0.57582954,11.66346959,-5.522624609999999,,,
imu,127.197925,-0.3283858872000001,-9.898830687200002,1.3027767984,-0.03727708,11.91020762,-5.53010152,,,
imu,127.206741,-0.3397507904000001,-9.831837573600001,1.3350770496,-0.5307531400000001,12.20928402,-5.328224949999999,,,
imu,127.215558,-0.3481249296000001,-9.834828337600001,1.3302918272,-0.92702937,12.30648385,-5.00671782,,,
imu,127.224375,-0.3594898328000001,-9.825257892800002,1.3177306184,-1.48779762,12.55322188,-4.86465653,,,
imu,127.233192,-0.3804251808,-9.800733628000001,1.318926924,-1.98127368,12.94949811,-4.80484125,,,
imu,127.242009,-0.3684621248000001,-9.745703570400002,1.3255066048,-2.39998064,13.41306653,-5.05905619,,,
imu,127.250826,-0.370854736,-9.720581152800001,1.3326844384,-2.49718047,13.93645023,-5.15625602,,,
imu,127.259643,-0.3684621248000001,-9.724170069600001,1.3111509376,-2.49718047,14.13084989,-5.193640569999999,,,
imu,127.26846,-0.3415452488,-9.713403319200001,1.3326844384,-2.2953039,14.72152578,-5.328224949999999,,,
imu,127.277277,-0.3152265256,-9.703234721600001,1.3302918272,-2.21305789,14.99069454,-5.6646859,,,
imu,127.286094,-0.2990764,-9.6876827488,1.3314881328,-1.96631986,15.22247875,-5.74693191,,,
imu,127.294911,-0.2895059552,-9.6876827488,1.3494327168,-1.48779762,15.52155515,-5.85908556,,,
imu,127.303728,-0.2727576768,-9.688280901600002,1.3530216336,-1.21115195,15.58137043,-6.068439039999999,,,
imu,127.312545,-0.2775428992,-9.812098531200002,1.3745551344,-0.7999219,15.55146279,-6.180592689999999,,,
imu,127.321362,-0.2464389536,-9.739123889600002,1.31593616,-0.6279529699999999,15.56641661,-6.270315609999999,,,
imu,127.330178,-0.248233412,-9.688280901600002,1.3775458984,-0.41112258,15.82810846,-6.44976145,,,
imu,127.338995,-0.227298064,-9.731946056000002,1.3811348152,0.08983038999999998,15.74586245,-6.65163802,,,
imu,126.347145,,,,,,,21.21610280000001,-23.83458840000001,48.322216
imu,126.448677,,,,,,,23.36457,-24.83557880000003,46.1493344
imu,126.55027,,,,,,,20.91092280000001,-23.98107480000002,48.627396
imu,126.651833,,,,,,,22.77862440000001,-25.04310120000002,45.89298319999999
imu,126.753395,,,,,,,20.434842,-25.07972280000001,48.1513152
imu,126.854927,,,,,,,21.06961640000001,-25.66566840000002,48.63960319999999
imu,126.95652,,,,,,,23.15704760000001,-26.37368600000001,49.7504584
imu,127.058052,,,,,,,22.7420028,-26.1173348,50.11667439999999
imu,127.159517,,,,,,,22.2781292,-26.26382120000002,49.43307119999999
imu,127.26108,,,,,,,21.6067332,-26.12954200000001,49.11568399999999
