Type,Timestamp,Data Accelerometer X,Data Accelerometer Y,Data Accelerometer Z,Data Gyroscope X,Data Gyroscope Y,Data Gyroscope Z,Data Magnetometer X,Data Magnetometer Y,Data Magnetometer Z
imu,113.277643,-0.4940742128000001,-9.230694009600002,3.0768980032,1.57773548,3.99215993,-3.78798149,,,
imu,113.286106,-0.4821111568000001,-9.316229860000002,3.0936462816,1.82447351,4.46320526,-3.93751969,,,
imu,113.29457,-0.439642308,-9.575230022400001,3.1026185736,1.92167334,4.84452767,-3.91508896,,,
imu,113.303033,-0.3953790008,-9.4908904776,3.0547663496,1.42819728,5.27818845,-3.54872037,,,
imu,113.311497,-0.3331711096,-9.3688673064,3.128937296800001,1.00949032,5.45015738,-3.29450543,,,
imu,113.320315,-0.2966837888,-9.379035904000002,3.149274492,0.91229049,5.3903421,-3.1973056,,,
imu,113.329133,-0.2715613712,-9.460384684800001,3.1205631576,0.83004448,5.18098862,-2.95804448,,,
imu,113.337952,-0.2296906752000001,-9.535153784800002,3.105609337600001,0.65059864,4.77723548,-2.53933752,,,
imu,113.34677,-0.2159331608,-9.574631869600001,3.1157779352,0.42629134,4.4183438,-2.31503022,,,
imu,113.355588,-0.2416537312,-9.526181492800001,3.0912536704,0.03749201999999999,4.0444983,-2.34493786,,,
imu,113.364406,-0.2494297176,-9.503451686400002,3.0876647536,-0.5008455,3.39400713,-2.4496146,,,
imu,113.373225,-0.2476352592,-9.5501076048,3.1414985056,-1.06909066,3.01268472,-2.53933752,,,
imu,113.382043,-0.2536167872,-9.6428212888,3.189350729600001,-1.45788998,2.85566961,-2.64401426,,,
imu,113.390861,-0.3056560808,-9.6458120528,3.2282306616,-2.19062716,2.78837742,-2.94309066,,,
imu,113.399679,-0.3307784984000001,-9.594370912,3.2437826344,-2.93831816,2.57154703,-3.13001341,,,
imu,113.408498,-0.3427415544,-9.603343204000002,3.241988176,-3.46170186,2.70613141,-3.13749032,,,
imu,113.417316,-0.3929863896,-9.663158484000002,3.238399259200001,-4.09723921,2.82576197,-2.94309066,,,
imu,113.426134,-0.3995660704000001,-9.513620284000002,3.2204546752,-4.97951459,3.04259236,-3.0477674,,,
imu,113.434952,-0.3822196392,-9.2277032456,3.236006648,-5.89169761,3.33419185,-3.39918217,,,
imu,113.443771,-0.3893974728000001,-9.074576128800002,3.20011748,-5.75711323,3.65569898,-3.48142818,,,
imu,113.452589,-0.3576953744,-9.082950268000001,3.1414985056,-4.79259184,3.87252937,-3.50385891,,,
imu,113.461407,-0.3355637208,-9.138578478400001,3.119366852000001,-3.68600916,3.94729847,-3.71321239,,,
imu,113.470225,-0.3463304712,-9.1511396872,3.1319280608,-2.80373378,4.13422122,-3.76555076,,,
imu,113.479044,-0.3517138464,-9.1302043392,3.1486763392,-2.21305789,4.11179049,-3.82536604,,,
imu,113.487862,-0.3265914288,-9.0925207128,3.154657867200001,-1.622382,4.14169813,-3.81041222,,,
imu,113.49668,-0.3122357616,-9.103885616000001,3.179182132,-0.83730645,4.20899032,-3.57862801,,,
imu,113.505498,-0.3194135952000001,-9.137980325600001,3.179182132,-0.11204618,4.246374869999999,-3.18235178,,,
imu,113.514317,-0.3385544848000001,-9.197795605600001,3.1726024512,0.32909151,4.15665195,-3.11505959,,,
imu,113.522794,-0.3630787496,-9.225908787200002,3.15525602,0.80761375,3.95477538,-3.21973633,,,
imu,113.531272,-0.3421434016,-9.273761011200001,3.1271428384,1.43567419,4.126744309999999,-3.15992105,,,
imu,113.539749,-0.311039456,-9.328192916,3.1020204208,1.65998149,4.11179049,-3.07767504,,,
imu,113.548227,-0.3092449976000001,-9.292303748000002,3.1199650048,1.77961205,4.00711375,-2.92813684,,,
imu,113.556704,-0.3128339144,-9.295294512000002,3.152265256000001,2.05625772,3.82766791,-2.84589083,,,
imu,113.565176,-0.3218062064,-9.3838211264,3.1630320064,2.3403803,3.64074516,-2.86084465,,,
imu,113.573654,-0.3170209840000001,-9.5172092008,3.173200604000001,2.24318047,3.58092988,-2.79355246,,,
imu,113.582131,-0.3469286240000001,-9.585398620000001,3.1809765904,1.95905789,3.36409949,-2.6739219,,,
imu,113.590609,-0.3445360128,-9.591380148,3.1809765904,1.4431511,3.20708438,-2.86832156,,,
imu,113.599086,-0.361882444,-9.510031367200002,3.172004298400001,0.53844499,3.15474601,-2.94309066,,,
imu,113.607564,-0.3642750552,-9.462777296000002,3.1367132832,0.14964567,3.20708438,-2.94309066,,,
imu,113.616041,-0.3798270280000001,-9.488497866400001,3.1271428384,-0.02980017,3.21456129,-2.8982292,,,
imu,113.624519,-0.4019586816,-9.4974701584,3.1091982544,-0.21672292,3.33419185,-3.14496723,,,
imu,113.632996,-0.4199032656,-9.4753385048,3.0882629064,-0.66533752,3.46129932,-3.28702852,,,
imu,113.641474,-0.4079402096,-9.496872005600002,3.1241520744,-0.73262971,3.65569898,-3.30945925,,,
imu,113.649951,-0.4013605288,-9.491488630400001,3.143292964,-0.91207555,3.77532954,-3.24964397,,,
imu,113.658429,-0.4121272792,-9.414326919200002,3.1528634088,-1.52518217,3.82766791,-3.45899745,,,
imu,113.666906,-0.4127254320000001,-9.3975786408,3.1570504784,-1.42798234,3.93234465,-3.6459202,,,
imu,113.675384,-0.3720510416,-9.436458572800001,3.1600412424,-1.55508981,4.01459066,-3.60853565,,,
imu,113.683861,-0.3582935272000001,-9.446627170400001,3.154059714400001,-1.89902767,3.99963684,-3.51881273,,,
imu,113.692339,-0.3780325696000001,-9.4107380024,3.1349188248,-2.25791935,4.171605769999999,-3.32441307,,,
imu,113.700817,-0.4151180432000001,-9.3592968616,3.1187686992,-2.68410322,4.29871324,-3.06272122,,,
imu,113.709294,-0.3923882368,-9.351520875200002,3.119366852000001,-2.95327198,4.20899032,-2.80102937,,,
imu,113.717772,-0.3523119992,-9.340754124800002,3.1414985056,-2.87102597,4.33609779,-2.73373718,,,
imu,113.726239,-0.3457323184,-9.328791068800001,3.173200604000001,-2.61681103,4.35852852,-2.75616791,,,
imu,113.734706,-0.3218062064,-9.335370749600001,3.1600412424,-2.50465738,4.246374869999999,-2.69635263,,,
imu,113.743174,-0.3289840400000001,-9.3377633608,3.1414985056,-2.23548862,3.97720611,-2.63653735,,,
imu,113.751641,-0.3176191368,-9.316229860000002,3.133124366400001,-2.08595042,3.81271409,-2.56176825,,,
imu,113.760108,-0.2990764,-9.2994815816,3.136115130400001,-1.98875059,3.69308353,-2.56924516,,,
imu,113.768576,-0.2972819416,-9.309052026400002,3.1684153816,-1.79435093,3.41643786,-2.47204533,,,
imu,113.777043,-0.2930948720000001,-9.24146076,3.167219076,-1.52518217,3.24446893,-2.33746095,,,
imu,113.78551,-0.311039456,-9.254021968800002,3.159443089600001,-0.94198319,3.15474601,-2.21035348,,,
imu,113.793978,-0.2835244272,-9.393391571200002,3.12534838,-0.38869185,2.87062343,-2.21783039,,,
imu,113.802445,-0.2883096496000001,-9.450814240000001,3.1648264648,-0.36626112,2.74351596,-2.16549202,,,
imu,113.810913,-0.3218062064,-9.340155972000002,3.2294269672,-0.58309151,2.63883922,-2.28512258,,,
imu,113.81938,-0.3481249296000001,-9.305463109600002,3.195332257600001,-0.62047606,2.4743472,-2.31503022,,,
imu,113.827847,-0.3475267768,-9.414326919200002,3.184565507200001,-0.49336859,2.55659321,-2.21783039,,,
imu,113.836315,-0.3564990688,-9.5291722568,3.2013137856,-0.82982954,2.61640849,-2.44213769,,,
imu,113.844782,-0.3965753064,-9.447823476,3.2204546752,-1.45041307,2.8481927,-2.53186061,,,
imu,113.853249,-0.382817792,-9.3718580704,3.1516671032,-1.56256672,3.1472691,-2.65896808,,,
imu,113.861717,-0.3481249296000001,-9.401765710400001,3.1486763392,-1.95136604,3.52859151,-2.93561375,,,
imu,113.870184,-0.3032634696000001,-9.440047489600001,3.212080536000001,-1.98875059,3.80523718,-2.88327538,,,
imu,113.878651,-0.3128339144,-9.3754469872,3.2072953136,-2.03361205,3.82766791,-2.93561375,,,
imu,113.887119,-0.3038616224,-9.302472345600002,3.1630320064,-2.23548862,3.81271409,-3.30945925,,,
imu,113.895586,-0.281131816,-9.307257568,3.154059714400001,-1.94388913,3.87252937,-3.48142818,,,
imu,113.904053,-0.2727576768,-9.309650179200002,3.1444892696,-1.63733582,3.79028336,-3.39918217,,,
imu,113.912521,-0.2847207328,-9.330585527200002,3.1809765904,-1.49527453,3.73046808,-3.50385891,,,
imu,113.920988,-0.2895059552,-9.330585527200002,3.1923414936,-1.31582869,3.73046808,-3.70573548,,,
imu,113.929445,-0.28412258,-9.328192916,3.1726024512,-1.15133667,3.67812971,-3.70573548,,,
imu,113.937903,-0.2715613712,-9.2958926648,3.188154424,-1.05413684,3.55102224,-3.5711511,,,
imu,113.94636,-0.2763465936,-9.351520875200002,3.182172896,-1.0989983,3.46129932,-3.5711511,,,
imu,113.954817,-0.2859170384,-9.3545116392,3.149274492,-0.91207555,3.31176112,-3.5711511,,,
imu,113.963274,-0.2990764,-9.33118368,3.12534838,-1.01675229,2.93043871,-3.59358183,,,
imu,113.971731,-0.2996745528,-9.332379985600001,3.134320672,-1.08404448,2.8481927,-3.58610492,,,
imu,113.980188,-0.320011748,-9.352717180800001,3.1779858264,-0.89712173,2.86314652,-3.58610492,,,
imu,113.988646,-0.3271895816000001,-9.370063612000001,3.212080536000001,-0.92702937,2.85566961,-3.66835093,,,
imu,113.997103,-0.3218062064,-9.350324569600001,3.172004298400001,-1.00179847,2.71360832,-3.68330475,,,
imu,114.00556,-0.3116376088,-9.363483931200001,3.149872644800001,-0.95693701,2.57154703,-3.70573548,,,
imu,114.014017,-0.320011748,-9.370661764800001,3.1839673544,-0.92702937,2.56407012,-3.65339711,,,
imu,114.022474,-0.3445360128,-9.3688673064,3.188154424,-0.6279529699999999,2.42948574,-3.55619728,,,
imu,114.030932,-0.3391526376000001,-9.363483931200001,3.161237548,-0.58309151,2.44443956,-3.56367419,,,
imu,114.039389,-0.3463304712,-9.409541696800002,3.173200604000001,-0.66533752,2.26499372,-3.73564312,,,
imu,114.047846,-0.376836264,-9.441841948000002,3.198323021600001,-0.47841477,2.36967046,-3.68330475,,,
imu,114.056303,-0.3965753064,-9.448421628800002,3.2461752456,-0.77001426,2.45191647,-3.67582784,,,
imu,114.06476,-0.4085383624000001,-9.501657228000001,3.268905052,-1.28592105,2.43696265,-3.81041222,,,
imu,114.073217,-0.442633072,-9.5040498392,3.2437826344,-1.6971511,2.48182411,-3.98238115,,,
imu,114.081675,-0.4456238360000001,-9.4250936696,3.2276325088,-2.11585806,2.59397776,-3.90013514,,,
imu,114.090132,-0.4366515440000001,-9.364680236800002,3.2581383016,-2.36259609,2.80333124,-3.83284295,,,
imu,114.098589,-0.4498109056,-9.351520875200002,3.275484732800001,-2.34016536,3.02016163,-3.68330475,,,
imu,113.303645,,,,,,,-88.3801388,185.78745,110.5179
imu,113.405208,,,,,,,-88.6242828,185.4700628,110.0662336
imu,114.107046,-0.4528016696000001,-9.357502403200002,3.271895816,-2.48970356,3.13231528,-3.496382,,,
imu,114.115503,-0.3977716120000001,-9.3898026544,3.270699510400001,-2.65419558,3.24446893,-3.41413599,,,
imu,114.123961,-0.3834159448,-9.3694654592,3.2635216768,-2.76634923,3.48373005,-3.21225942,,,
imu,114.132422,-0.3756399584,-9.28632222,3.224043592000001,-2.72148777,3.49868387,-2.91318302,,,
imu,114.140883,-0.3911919312,-9.204375286400001,3.2431844816,-2.60933412,3.34166876,-3.01038285,,,
imu,114.149344,-0.3965753064,-9.2091605088,3.2437826344,-2.25044244,3.25942275,-3.13749032,,,
imu,114.157805,-0.3660695136000001,-9.265386872,3.2635216768,-2.01865823,3.28933039,-3.15244414,,,
imu,114.166266,-0.3511156936,-9.332379985600001,3.2551475376,-1.76444329,3.16222292,-3.03281358,,,
imu,114.174727,-0.3642750552,-9.222918023200002,3.1887525768,-1.51022835,3.12483837,-3.0477674,,,
imu,114.183188,-0.4091365152000001,-9.060220461600002,3.191145188000001,-1.22610577,3.03511545,-3.30945925,,,
imu,114.191649,-0.4139217376000001,-9.131400644800001,3.1767895208,-0.44850713,2.95286944,-3.4216129,,,
imu,114.20011,-0.3947808480000001,-9.340754124800002,3.2366048008,0.45619898,2.98277708,-3.53376655,,,
imu,114.208571,-0.3786307224000001,-9.4244955168,3.2401937176,0.76275229,3.05006927,-3.30198234,,,
imu,114.217032,-0.3648732080000001,-9.393391571200002,3.1995193272,0.52349117,3.07997691,-3.24964397,,,
imu,114.225493,-0.385808556,-9.3174261656,3.2132768416,0.44872207,2.9977309,-3.15992105,,,
imu,114.233954,-0.3834159448,-9.306659415200002,3.2617272184,0.25432241,2.83323888,-3.14496723,,,
imu,114.242415,-0.3666676664,-9.377839598400001,3.2898404,0.23936859,2.87062343,-3.09262886,,,
imu,114.250876,-0.3487230824000001,-9.426888128000002,3.260530912800001,0.43376825,2.66874686,-2.86084465,,,
imu,114.259337,-0.3517138464,-9.430477044800002,3.2527549264,-0.02232326000000001,2.50425484,-2.76364482,,,
imu,114.267798,-0.3421434016,-9.4382530312,3.258736454400001,-0.32887657,2.34723973,-2.53186061,,,
imu,114.276259,-0.3343674152,-9.4316733504,3.3024016088,-0.54570696,2.26499372,-2.12063056,,,
imu,114.28472,-0.3241988176,-9.432869656000001,3.279671802400001,-0.69524516,2.06311715,-1.93370781,,,
imu,114.293181,-0.3774344168000001,-9.431075197600002,3.2515586208,-0.9644139199999999,1.78647148,-1.89632326,,,
imu,114.301642,-0.4043512928,-9.396980488,3.256343843200001,-1.2485365,1.64441019,-1.88136944,,,
imu,114.310103,-0.3929863896,-9.3108464848,3.2671105936,-1.51022835,1.66684092,-2.10567674,,,
imu,114.318564,-0.3989679176000001,-9.219329106400002,3.2264362032,-1.42050543,1.62945637,-2.27016876,,,
imu,114.327025,-0.4420349192,-9.1792528688,3.20011748,-1.16629049,1.62945637,-2.21783039,,,
imu,114.335845,-0.4486146000000001,-9.2486385936,3.2114823832,-0.94198319,1.71170238,-2.39727623,,,
imu,114.344666,-0.4288755576000001,-9.2755554696,3.1977248688,-0.26906129,2.00330187,-2.34493786,,,
imu,114.353487,-0.4228940296000001,-9.229497704000002,3.1367132832,-0.13447691,2.33228591,-1.88136944,,,
imu,114.362308,-0.4785222400000001,-9.1654953544,3.1271428384,0.19450713,2.63136231,-1.59724686,,,
imu,114.371129,-0.4892889904,-9.134391408800001,3.149872644800001,1.00949032,2.99025399,-1.67949287,,,
imu,114.37995,-0.4480164472000001,-9.208562356000002,3.1438911168,1.94410407,3.34914567,-1.79912343,,,
imu,114.388771,-0.4276792520000001,-9.334174444000002,3.1779858264,2.4899185,3.77532954,-1.8514618,,,
imu,114.397592,-0.4462219888000001,-9.429280739200001,3.175593215200001,2.4899185,4.15665195,-2.05333837,,,
imu,114.406413,-0.4414367664,-9.448421628800002,3.207893466400001,2.32542648,4.26132869,-2.41223005,,,
imu,114.415234,-0.4025568344,-9.474740352000001,3.225838050400001,2.07121154,4.410866889999999,-2.92813684,,,
imu,114.424054,-0.3840140976,-9.478927421600002,3.212080536000001,1.74970441,4.59031273,-3.06272122,,,
imu,114.432875,-0.3780325696000001,-9.447823476,3.167219076,1.368382,4.75480475,-3.39170526,,,
imu,114.441696,-0.3911919312,-9.451412392800002,3.1528634088,1.17398234,4.784712389999999,-3.46647436,,,
imu,114.450517,-0.3726491944000001,-9.444832712,3.175593215200001,0.9272443100000001,4.784712389999999,-3.60853565,,,
imu,114.459338,-0.3331711096,-9.412532460800001,3.1857618128,0.6132140899999999,4.74732784,-3.81788913,,,
imu,114.468159,-0.3277877344,-9.423897364000002,3.2096879248,0.49358353,4.74732784,-3.75059694,,,
imu,114.47698,-0.331974804,-9.461580990400002,3.210286077600001,0.53096808,4.59778964,-3.51881273,,,
imu,114.485801,-0.31403022,-9.612315496,3.2114823832,0.35152224,4.39591307,-3.33936689,,,
imu,114.494622,-0.2913004136,-9.7193848472,3.195332257600001,-0.32887657,4.171605769999999,-3.17487487,,,
imu,114.503443,-0.31403022,-9.471151435200001,3.180378437600001,-1.46536689,4.0444983,-2.85336774,,,
imu,114.512264,-0.3134320672,-9.1918140776,3.1648264648,-2.20558098,3.9697292,-2.61410662,,,
imu,114.521084,-0.2907022608000001,-9.1290080336,3.1534615616,-2.03361205,3.73794499,-2.5243837,,,
imu,114.529905,-0.2578038568000001,-9.250433052000002,3.1480781864,-1.08404448,3.46877623,-2.50195297,,,
imu,114.538388,-0.248233412,-9.3694654592,3.149274492,-0.60552224,3.23699202,-2.55429134,,,
imu,114.546871,-0.2769447464000001,-9.377241445600001,3.1570504784,-0.45598404,3.18465365,-2.39727623,,,
imu,114.555353,-0.3092449976000001,-9.349726416800001,3.154657867200001,-0.77001426,2.91548489,-2.21783039,,,
imu,114.563836,-0.3511156936,-9.228301398400001,3.1259465328,-1.15881358,2.7734236,-2.30755331,,,
imu,114.572318,-0.3337692624,-9.262994260800001,3.1570504784,-0.69524516,2.82576197,-2.53933752,,,
imu,114.580801,-0.3427415544,-9.292303748000002,3.1181705464,-0.14195382,2.88557725,-2.91318302,,,
imu,114.589284,-0.352910152,-9.319220624000002,3.091851823200001,-0.13447691,3.05006927,-3.26459779,,,
imu,114.597766,-0.3570972216000001,-9.516611048000001,3.0703183224,0.10478421,3.22951511,-3.51133582,,,
imu,114.606249,-0.2954874832,-9.718786694400002,3.088861059200001,-0.0522309,3.39400713,-3.69078166,,,
imu,114.614732,-0.3182172896000001,-9.584800467200001,3.1630320064,-0.90459864,3.54354533,-3.63096638,,,
imu,114.623214,-0.3499193880000001,-9.156523062400002,3.2790736496,-1.46536689,3.65569898,-3.81041222,,,
imu,114.631697,-0.3152265256,-8.930421304000001,3.31974804,-1.27096723,3.62579134,-4.21416536,,,
imu,114.640179,-0.2793373576,-9.405354627200001,3.310177595200001,-0.03727708,3.55102224,-4.102011709999999,,,
imu,114.648662,-0.275150288,-9.820472670400001,3.2461752456,0.23936859,3.54354533,-3.54124346,,,
imu,114.657087,-0.2936930248,-9.693664276800002,3.2437826344,-1.06161375,3.55849915,-3.36179762,,,
imu,114.66557,-0.248233412,-9.3204169296,3.2431844816,-2.2953039,3.46129932,-3.45899745,,,
imu,114.674052,-0.2518223288000001,-9.100894852000001,3.247969704,-2.11585806,3.15474601,-3.32441307,,,
imu,114.682535,-0.2745521352,-9.041079572000001,3.197126716,-1.15133667,2.69117759,-3.27955161,,,
imu,114.691018,-0.2954874832,-9.162504590400001,3.1558541728,0.03001510999999998,2.37714737,-3.41413599,,,
imu,114.6995,-0.251224176,-9.273162858400001,3.1606393952,0.6954601,2.11545552,-3.72816621,,,
imu,114.707983,-0.2338777448,-9.172673188000001,3.126544685600001,1.00949032,1.8014253,-3.6459202,,,
imu,114.716465,-0.3493212352000001,-9.145158159200001,3.1337225192,1.34595127,1.50982581,-3.10010577,,,
imu,114.724948,-0.3726491944000001,-9.326398457600002,3.238399259200001,2.01887317,1.21074941,-2.99542903,,,
imu,114.733431,-0.3295821928000001,-9.530368562400001,3.224043592000001,2.13850373,1.1285034,-3.17487487,,,
imu,114.741885,-0.3905937784,-9.584800467200001,3.225838050400001,1.43567419,1.21074941,-2.86084465,,,
imu,114.75034,-0.3959771536000001,-9.5447242296,3.198323021600001,0.6281679099999999,1.21074941,-2.48699915,,,
imu,114.758795,-0.4151180432000001,-9.5219944232,3.1827710488,-0.11952309,1.07616503,-2.39727623,,,
imu,114.767249,-0.4456238360000001,-9.456795768000001,3.179182132,-0.91955246,1.18084177,-2.56924516,,,
imu,114.775704,-0.4402404608,-9.4071490856,3.161237548,-1.30835178,1.27056469,-2.62158353,,,
imu,114.784158,-0.4378478496000001,-9.452010545600002,3.1630320064,-1.59995127,1.27056469,-2.73373718,,,
imu,114.792613,-0.4689517952000001,-9.543527924000001,3.1749950624,-1.97379677,1.36776452,-2.80850628,,,
imu,114.801068,-0.5060372688000001,-9.549509452,3.1857618128,-2.82616451,1.34533379,-3.02533667,,,
imu,114.809522,-0.499457588,-9.456795768000001,3.228828814400001,-3.37945585,1.80890221,-3.04029049,,,
imu,114.817977,-0.490485296,-9.408943544000001,3.239595564800001,-3.57385551,2.11545552,-3.04029049,,,
imu,114.826432,-0.4916816016,-9.402363863200002,3.1648264648,-3.52899405,2.31733209,-2.95804448,,,
imu,114.834886,-0.490485296,-9.3204169296,3.1420966584,-3.34954821,2.52668557,-2.84589083,,,
imu,114.843341,-0.5102243384,-9.160710132,3.1779858264,-3.028041079999999,2.68370068,-2.99542903,,,
imu,114.851796,-0.5144114080000001,-9.076370587200001,3.2282306616,-2.2205348,3.01268472,-3.38422835,,,
imu,114.86025,-0.4988594352000001,-9.205571592000002,3.279671802400001,-1.27844414,3.20708438,-3.7206893,,,
imu,114.868705,-0.4845037680000001,-9.4137287664,3.2952237752,-0.6503837,3.35662258,-3.56367419,,,
imu,114.87716,-0.4605776560000001,-9.475936657600002,3.2533530792,-0.37373803,3.53606842,-3.48142818,,,
imu,114.885614,-0.4533998224,-9.350922722400002,3.2066971608,-0.77001426,3.69308353,-3.71321239,,,
imu,114.894069,-0.4641665728000001,-9.2133475784,3.180378437600001,-0.81487572,3.93234465,-3.78798149,,,
imu,114.902523,-0.4874945320000001,-9.195402994400002,3.175593215200001,-0.32139966,4.07440594,-3.68330475,,,
imu,114.910978,-0.4563905864000001,-9.264788719200002,3.1570504784,0.04496892999999999,4.13422122,-3.84779677,,,
imu,114.919433,-0.4318663216,-9.289312984,3.1654246176,0.29918387,4.126744309999999,-3.83284295,,,
imu,113.506661,,,,,,,-88.45338199999999,185.7630356,110.6155576
imu,113.608224,,,,,,,-88.7341476,185.8118644,110.0540264
imu,113.709786,,,,,,,-88.2458596,185.6775852,111.0183952
imu,113.811349,,,,,,,-88.46558920000001,185.7386212,110.2859632
imu,113.912881,,,,,,,-87.69653559999999,185.7630356,109.9197472
imu,114.014627,,,,,,,-88.52662520000001,185.6775852,111.3235752
imu,114.116036,,,,,,,-86.2194644,184.7376308,108.7600632
imu,114.217599,,,,,,,-89.0393276,185.8851076,110.7376296
imu,114.927887,-0.4551942808000001,-9.2917055952,3.159443089600001,0.56087572,4.33609779,-3.72816621,,,
imu,114.936342,-0.4779240872000001,-9.252227510400001,3.1474800336,0.620691,4.4931129,-3.78050458,,,
imu,114.944808,-0.4988594352000001,-9.291107442400001,3.1630320064,0.67302937,4.65012801,-3.86275059,,,
imu,114.953274,-0.4839056152000001,-9.3832229736,3.180378437600001,0.9272443100000001,4.85948149,-3.81788913,,,
imu,114.96174,-0.4432312248,-9.472347740800002,3.159443089600001,0.80013684,5.18846553,-3.75059694,,,
imu,114.970206,-0.4330626272,-9.5327611736,3.181574743200001,0.45619898,5.65203395,-3.66835093,,,
imu,114.978672,-0.4492127528000001,-9.528574104,3.2114823832,-0.19429219,6.04083327,-3.76555076,,,
imu,114.987139,-0.4707462536000001,-9.4801237272,3.197126716,-0.60552224,6.272617479999999,-3.9449966,,,
imu,114.995605,-0.4737370176,-9.419710294400002,3.1726024512,-1.01675229,6.64646298,-4.363703559999999,,,
imu,115.004071,-0.4653628784000001,-9.444234559200002,3.158246784000001,-1.30087487,7.16236977,-4.73007215,,,
imu,115.012537,-0.4456238360000001,-9.486703408,3.1480781864,-1.35321324,7.56612291,-4.94690254,,,
imu,115.021003,-0.4091365152000001,-9.4873015608,3.167219076,-1.6971511,7.96239914,-5.283363489999999,,,
imu,115.029469,-0.3816214864,-9.4490197816,3.1606393952,-1.83173548,8.25399863,-5.46280933,,,
imu,115.037935,-0.3690602776000001,-9.385017432000001,3.1474800336,-1.77939711,8.35867537,-5.41794787,,,
imu,115.046401,-0.3194135952000001,-9.309052026400002,3.1510689504,-1.85416621,8.306337,-5.589916799999999,,,
imu,115.054867,-0.2715613712,-9.2929019008,3.1839673544,-1.45041307,8.17175262,-5.70207045,,,
imu,115.063333,-0.2428500368,-9.325202152000001,3.1474800336,-0.95693701,7.98482987,-5.477763149999999,,,
imu,115.071799,-0.2045682576000001,-9.361689472800002,3.149872644800001,-0.71767589,7.70070729,-5.021671639999999,,,
imu,115.080265,-0.2243073,-9.3694654592,3.1899488824,-0.73262971,7.21470814,-4.5431494,,,
imu,115.088732,-0.2691687600000001,-9.395186029600001,3.2401937176,-0.93450628,6.818431909999999,-3.97490424,,,
imu,115.097198,-0.281131816,-9.405952780000002,3.2348103424,-1.0989983,6.36981731,-3.54124346,,,
imu,115.105664,-0.2578038568000001,-9.356904250400001,3.2150713,-1.48779762,5.853910519999999,-3.37675144,,,
imu,115.11413,-0.2536167872,-9.3652783896,3.237801106400001,-1.78687402,5.420249739999999,-3.30198234,,,
imu,115.122596,-0.2506260232,-9.405354627200001,3.2306232728,-2.04856587,4.79966621,-3.2720747,,,
imu,115.131062,-0.2416537312,-9.434065961600002,3.238399259200001,-2.60933412,4.20151341,-3.59358183,,,
imu,115.139528,-0.2715613712,-9.4753385048,3.2712976632,-3.00561035,3.42391477,-3.73564312,,,
imu,115.147992,-0.3313766512,-9.348530111200002,3.214473147200001,-3.28973293,2.81080815,-3.61601256,,,
imu,115.156455,-0.352910152,-9.2157401896,3.1995193272,-3.40936349,2.58650085,-3.30198234,,,
imu,115.164919,-0.3780325696000001,-9.212151272800002,3.1648264648,-2.95327198,2.48182411,-3.10758268,,,
imu,115.173382,-0.4348570856000001,-9.2785462336,3.163630159200001,-2.25044244,2.16031698,-3.01785976,,,
imu,115.181846,-0.4647647256,-9.3210150824,3.184565507200001,-1.65976655,2.13788625,-2.74121409,,,
imu,115.190309,-0.4755314760000001,-9.280938844800001,3.1857618128,-1.57004363,2.39210119,-2.88327538,,,
imu,115.198773,-0.4647647256,-9.2169364952,3.2072953136,-1.35321324,2.63883922,-2.83841392,,,
imu,115.207236,-0.4599795032,-9.1965993,3.18516366,-0.8672140899999999,2.78090051,-2.86084465,,,
imu,115.2157,-0.4886908376000001,-9.2617979552,3.2013137856,-0.55318387,2.87062343,-3.01038285,,,
imu,115.224163,-0.4857000736000001,-9.3419504304,3.198323021600001,0.06739966,3.04259236,-3.18982869,,,
imu,115.232627,-0.4557924336,-9.395186029600001,3.1749950624,0.25432241,3.2220382,-3.18982869,,,
imu,115.241091,-0.4438293776000001,-9.3802322096,3.177387673600001,0.19450713,3.34914567,-3.21973633,,,
imu,115.249554,-0.4372496968000001,-9.343146736000001,3.1887525768,0.19450713,3.43886859,-3.30945925,,,
imu,115.258018,-0.4390441552000001,-9.332379985600001,3.20011748,0.06739966,3.35662258,-3.39918217,,,
imu,115.266481,-0.4127254320000001,-9.382624820800002,3.2066971608,-0.11952309,3.37905331,-3.42908981,,,
imu,115.274945,-0.3840140976,-9.408345391200001,3.2114823832,-0.16438455,3.23699202,-3.37675144,,,
imu,115.283408,-0.3947808480000001,-9.399971252000002,3.210286077600001,-0.47093786,3.05006927,-3.41413599,,,
imu,115.291872,-0.391790084,-9.401167557600001,3.2366048008,-0.80739881,2.76594669,-3.54872037,,,
imu,115.300335,-0.3971734592000001,-9.414925072,3.2276325088,-0.7999219,2.63136231,-3.39918217,,,
imu,115.308799,-0.4049494456000001,-9.435860420000001,3.2401937176,-1.05413684,2.48930102,-3.28702852,,,
imu,115.317262,-0.4049494456000001,-9.423897364000002,3.2246417448,-1.07656757,2.33976282,-2.95804448,,,
imu,115.325726,-0.4348570856000001,-9.373652528800001,3.2222491336,-1.41302852,2.36967046,-2.87579847,,,
imu,115.334189,-0.4611758088,-9.363483931200001,3.242586328800001,-1.51022835,2.30985518,-2.78607555,,,
imu,115.342653,-0.451605364,-9.3868118904,3.2503623152,-1.65976655,2.40705501,-2.72626027,,,
imu,115.351475,-0.4539979752000001,-9.382026668000002,3.2467733984,-1.76444329,2.55659321,-2.51690679,,,
imu,115.360298,-0.4599795032,-9.326398457600002,3.2437826344,-1.622382,2.68370068,-2.41223005,,,
imu,115.36912,-0.4647647256,-9.283331456,3.260530912800001,-1.89155076,2.88557725,-2.5243837,,,
imu,115.377942,-0.4581850448000001,-9.2641905664,3.2575401488,-1.74948947,3.18465365,-2.56176825,,,
imu,115.386764,-0.4593813504000001,-9.272564705600002,3.260530912800001,-1.65228964,3.28185348,-2.60662971,,,
imu,115.395586,-0.4390441552000001,-9.294098206400001,3.252156773600001,-1.4728438,3.48373005,-2.81598319,,,
imu,115.404409,-0.4205014184,-9.288714831200002,3.2695032048,-1.31582869,3.5211146,-3.24964397,,,
imu,115.413231,-0.3989679176000001,-9.286920372800001,3.2653161352,-1.28592105,3.5211146,-3.47395127,,,
imu,115.422053,-0.3971734592000001,-9.286920372800001,3.268306899200001,-1.11395212,3.49868387,-3.42908981,,,
imu,115.430875,-0.3941826952,-9.301874192800001,3.2712976632,-0.65786061,3.38653022,-3.25712088,,,
imu,115.439698,-0.3971734592000001,-9.291107442400001,3.2611290656,-0.58309151,3.20708438,-3.04029049,,,
imu,115.44852,-0.3959771536000001,-9.2797425392,3.2593346072,-0.50832241,3.09493073,-2.84589083,,,
imu,115.457342,-0.4091365152000001,-9.239666301600002,3.2551475376,-0.10456927,3.1472691,-2.36736859,,,
imu,115.466164,-0.3995660704000001,-9.2641905664,3.2557456904,0.3889067899999999,3.23699202,-1.82903107,,,
imu,115.474987,-0.3816214864,-9.294696359200001,3.2431844816,0.6281679099999999,3.1472691,-1.79164652,,,
imu,115.483809,-0.3774344168000001,-9.315631707200001,3.242586328800001,0.9272443100000001,3.09493073,-1.88884635,,,
imu,115.492631,-0.3780325696000001,-9.325800304800001,3.233015884,1.37585891,2.9977309,-1.80660034,,,
imu,115.501453,-0.3702565832000001,-9.2851259144,3.2186602168,1.60016621,2.90800798,-1.98604618,,,
imu,115.510275,-0.3762381112000001,-9.2785462336,3.216267605600001,1.6674584,2.85566961,-2.32998404,,,
imu,115.519098,-0.3935845424,-9.3126409432,3.225838050400001,1.92915025,2.82576197,-2.39727623,,,
imu,115.52792,-0.3822196392,-9.3622876256,3.212678688800001,1.98896553,2.72108523,-2.62906044,,,
imu,115.536742,-0.3887993200000001,-9.401167557600001,3.209089772,1.95905789,2.69117759,-2.94309066,,,
imu,115.545564,-0.3822196392,-9.4346641144,3.2324177312,1.75718132,2.65379304,-3.21225942,,,
imu,115.554036,-0.3762381112000001,-9.434065961600002,3.2186602168,1.53287402,2.60893158,-3.36927453,,,
imu,115.562507,-0.3690602776000001,-9.4244955168,3.216267605600001,1.00949032,2.44443956,-3.66087402,,,
imu,115.570978,-0.3660695136000001,-9.422102905600001,3.217463911200001,0.73284465,2.34723973,-3.86275059,,,
imu,115.579449,-0.3744436528,-9.422701058400001,3.206099008,0.81509066,2.324809,-3.81788913,,,
imu,115.58792,-0.3864067088000001,-9.430477044800002,3.216267605600001,0.5982602699999999,2.20517844,-3.95247351,,,
imu,115.596391,-0.4091365152000001,-9.438851184,3.200715632800001,0.11973803,2.04068642,-4.0197657,,,
imu,115.604863,-0.4175106544000001,-9.4286825864,3.216267605600001,-0.11204618,1.97339423,-3.91508896,,,
imu,115.613334,-0.4288755576000001,-9.409541696800002,3.212678688800001,-0.31392275,1.98834805,-3.74312003,,,
imu,115.621805,-0.4408386136,-9.399971252000002,3.2013137856,-0.5756146,2.0257326,-3.65339711,,,
imu,115.630276,-0.4492127528000001,-9.3898026544,3.2150713,-0.79244499,2.07059406,-3.67582784,,,
imu,115.638747,-0.4240903352000001,-9.437056725600002,3.2108842304,-0.9494601,2.15284007,-3.71321239,,,
imu,115.647218,-0.4228940296000001,-9.4555994624,3.1977248688,-1.04665993,2.2500399,-3.47395127,,,
imu,115.65569,-0.4695499480000001,-9.458590226400002,3.198921174400001,-1.3233056,2.07059406,-3.30198234,,,
imu,115.664161,-0.4695499480000001,-9.436458572800001,3.1917433408,-1.51770526,2.10797861,-3.30945925,,,
imu,115.672632,-0.4707462536000001,-9.4215047528,3.1875562712,-1.6971511,2.01077878,-3.39170526,,,
imu,115.681103,-0.4713444064,-9.414326919200002,3.1767895208,-1.80930475,1.98834805,-3.39918217,,,
imu,115.689574,-0.4761296288000001,-9.392195265600002,3.172004298400001,-1.83173548,2.06311715,-3.36179762,,,
imu,115.698045,-0.490485296,-9.356904250400001,3.1714061456,-1.80182784,2.22760917,-3.24216706,,,
imu,115.706517,-0.4880926848000001,-9.340155972000002,3.173200604000001,-1.62985891,2.19770153,-2.91318302,,,
imu,115.714988,-0.5084298800000001,-9.321613235200001,3.1600412424,-1.53265908,2.34723973,-2.66644499,,,
imu,115.723459,-0.5245800056000001,-9.3138372488,3.152265256000001,-1.30835178,2.45939338,-2.5243837,,,
imu,115.73193,-0.5215892416000001,-9.332978138400001,3.1444892696,-1.45041307,2.71360832,-2.50942988,,,
imu,115.740401,-0.5215892416000001,-9.328791068800001,3.1307317552,-1.55508981,2.78837742,-2.48699915,,,
imu,114.319161,,,,,,,-86.18284279999999,185.1648828,108.1252888
imu,114.420724,,,,,,,-88.58766120000001,185.9217292,110.2249272
imu,114.522256,,,,,,,-89.2346428,185.8362788,110.6888008
imu,114.623879,,,,,,,-88.94166999999999,185.9827652,111.2625392
imu,114.725411,,,,,,,-88.7341476,185.970558,110.8963232
imu,114.827004,,,,,,,-88.5998684,185.7996572,111.0916384
imu,114.928536,,,,,,,-88.8073908,185.8240716,110.8474944
imu,115.030374,,,,,,,-86.47581559999999,185.3235764,111.1404672
imu,115.748778,-0.4952705184000001,-9.322211388000001,3.1229557688,-1.56256672,2.9977309,-2.3748455,,,
imu,115.757412,-0.4862982264000001,-9.313239096000002,3.0996278096,-1.70462801,3.23699202,-2.2253073,,,
imu,115.766046,-0.4988594352000001,-9.324005846400002,3.091851823200001,-1.71210492,3.5958837,-1.94118472,,,
imu,115.77468,-0.5419264368000001,-9.4735440464,3.115179782400001,-1.75696638,3.83514482,-1.8514618,,,
imu,115.783313,-0.5150095608,-9.447823476,3.1420966584,-2.26539626,4.17908268,-1.88136944,,,
imu,115.791947,-0.4372496968000001,-9.426289975200001,3.146881880800001,-2.6691494,4.33609779,-1.98604618,,,
imu,115.800581,-0.4037531400000001,-9.472347740800002,3.167817228800001,-2.6691494,4.51554363,-2.09072292,,,
imu,115.809215,-0.3983697648000001,-9.433467808800001,3.197126716,-3.09533327,4.57535891,-2.27016876,,,
imu,115.817849,-0.4205014184,-9.547116840800001,3.247371551200001,-3.11028709,4.58283582,-2.56924516,,,
imu,115.826483,-0.3965753064,-9.803126239200001,3.3329074016,-3.33459439,4.672558739999999,-2.83093701,,,
imu,115.835117,-0.3846122504,-9.9466829112,3.377768861600001,-4.41126943,4.388436159999999,-2.90570611,,,
imu,115.843751,-0.3463304712,-9.911990048800002,3.373581792,-6.13843564,4.13422122,-3.26459779,,,
imu,115.852385,-0.3343674152,-9.7911631832,3.3341037072,-7.14781849,3.92486774,-3.77302767,,,
imu,115.861019,-0.3553027632,-9.660765872800003,3.328720332000001,-7.850648029999999,3.60336061,-4.08705789,,,
imu,115.869653,-0.352910152,-9.5237888816,3.289242247200001,-8.433847010000001,3.37905331,-4.0945348,,,
imu,115.878287,-0.3822196392,-9.382624820800002,3.239595564800001,-8.80769251,3.15474601,-3.89265823,,,
imu,115.886921,-0.3971734592000001,-9.194206688800001,3.2228472864,-8.92732307,3.04259236,-3.58610492,,,
imu,115.895555,-0.3941826952,-9.093118865600001,3.2138749944,-8.41889319,2.90053107,-3.46647436,,,
imu,115.904189,-0.3714528888,-9.111661602400002,3.241988176,-7.708586739999999,2.78837742,-3.66087402,,,
imu,115.912822,-0.400762376,-9.1266154224,3.2904385528,-7.24501832,2.52668557,-4.10948862,,,
imu,115.921456,-0.454596128,-9.114652366400001,3.363413194400001,-6.58705024,2.33228591,-4.244073,,,
imu,115.93009,-0.4821111568000001,-9.142765548000002,3.372385486400001,-6.190774009999999,2.15284007,-4.408565019999999,,,
imu,115.938724,-0.4857000736000001,-9.184038091200001,3.3909282232,-5.77206705,2.33976282,-4.408565019999999,,,
imu,115.947358,-0.4946723656000001,-9.2061697448,3.3831522368,-5.66739031,2.5491163,-4.37865738,,,
imu,115.955992,-0.5778156048000002,-9.1619064376,3.37956332,-5.555236659999999,2.76594669,-4.37865738,,,
imu,115.964284,-0.58319898,-9.2935000536,3.2772791912,-5.458036829999999,3.16222292,-4.15435008,,,
imu,115.972576,-0.5640580904000001,-9.376045140000002,3.343674152,-5.54028284,3.797760269999999,-4.02724261,,,
imu,115.980868,-0.5162058664000001,-9.311444637600001,3.442369364000001,-5.839359239999999,4.54545127,-3.73564312,,,
imu,115.98916,-0.5018501992000001,-9.171476882400002,3.472277004,-6.101051089999999,5.136127159999999,-3.60105874,,,
imu,115.997452,-0.4707462536000001,-9.059024156000001,3.330514790400001,-6.452465859999999,5.113696429999999,-3.48890509,,,
imu,116.005743,-0.4504090584,-8.788659090400001,3.4250229328,-6.407604399999999,4.96415823,-3.60853565,,,
imu,116.014035,-0.4169125016,-8.716282601600001,3.5069698664,-5.42812919,4.82209694,-3.84779677,,,
imu,116.022327,-0.3983697648000001,-8.828735328,3.5404664232,-3.65610152,4.500589809999999,-3.98238115,,,
imu,116.030619,-0.3840140976,-9.041079572000001,3.550635020800001,-2.07847351,3.88000628,-3.96742733,,,
imu,116.038911,-0.4073420568000001,-9.274359164000002,3.576953744000001,-1.12142903,3.34166876,-3.7206893,,,
imu,116.047203,-0.400762376,-9.3838211264,3.5578128544,-0.9943215599999999,2.75099287,-3.56367419,,,
imu,116.055495,-0.4127254320000001,-9.4669643656,3.5267089088,-0.9793677399999999,2.34723973,-3.41413599,,,
imu,116.063787,-0.3983697648000001,-9.4460290176,3.5177366168,-1.49527453,1.89114822,-3.01038285,,,
imu,116.072078,-0.4085383624000001,-9.327594763200002,3.532092284,-1.87659694,1.53225654,-2.30755331,,,
imu,116.08037,-0.3582935272000001,-9.239068148800001,3.5524294792,-1.85416621,1.24065705,-1.59724686,,,
imu,116.088662,-0.3864067088000001,-9.2546201216,3.496203116000001,-1.95884295,1.15841104,-0.7000176599999999,,,
imu,116.096954,-0.4964668240000001,-9.219329106400002,3.496203116000001,-1.68967419,1.30047233,0.6159185000000003,,,
imu,116.105246,-0.517402172,-9.281536997600002,3.5512331736,-1.68219728,1.26308778,1.49819388,,,
imu,116.113538,-0.5281689224000001,-9.327594763200002,3.514147700000001,-1.59247436,1.39767216,1.737455,,,
imu,116.12183,-0.5359449088000001,-9.301276040000001,3.4776603792,-1.6971511,1.61450255,1.46080933,,,
imu,116.130122,-0.5688433128,-9.222918023200002,3.4292100024,-2.01865823,1.8761944,0.7804105200000002,,,
imu,116.138413,-0.5646562432000001,-9.218132800800001,3.490819740800001,-1.83173548,1.98834805,0.1224424399999999,,,
imu,116.146705,-0.4791203928000001,-9.2659850248,3.5267089088,-1.57004363,2.30985518,-0.90937114,,,
imu,116.154997,-0.4839056152000001,-9.3204169296,3.517138464,-1.30835178,2.60145467,-2.0757691,,,
imu,116.163465,-0.5574784096000001,-9.3317818328,3.5033809496,-1.49527453,2.78090051,-2.92813684,,,
imu,116.171932,-0.5556839512000001,-9.309052026400002,3.4710806984,-1.74201256,3.17717674,-3.36927453,,,
imu,116.180399,-0.5437208952000001,-9.193608536000001,3.470482545600001,-1.74201256,3.56597606,-3.85527368,,,
imu,116.188867,-0.4851019208000001,-9.136185867200002,3.456126878400001,-1.52518217,4.01459066,-4.169303899999999,,,
imu,116.197334,-0.4671573368000001,-9.1272135752,3.456126878400001,-1.06161375,4.58283582,-4.37118047,,,
imu,116.205801,-0.4420349192,-9.120633894400001,3.4322007664,-0.49336859,4.94920441,-4.18425772,,,
imu,116.214269,-0.415716196,-8.987245820000002,3.4489490448,0.18703022,5.06135806,-4.21416536,,,
imu,116.222736,-0.376836264,-8.961525249600001,3.504577255200001,1.10669015,5.25575772,-4.034719519999999,,,
imu,116.231203,-0.3397507904000001,-9.094315171200002,3.5524294792,1.80951969,5.308096089999999,-3.72816621,,,
imu,116.239671,-0.3241988176,-9.222319870400002,3.5805426608,2.28056502,5.113696429999999,-3.18982869,,,
imu,116.248138,-0.3086468448,-9.414326919200002,3.6194225928,2.28804193,4.72489711,-2.98795212,,,
imu,116.256606,-0.2769447464000001,-9.3766432928,3.579346355200001,1.42072037,4.44077453,-2.91318302,,,
imu,116.265073,-0.2643835376,-9.3269966104,3.52910152,0.55339881,3.83514482,-2.90570611,,,
imu,116.27354,-0.3379563320000001,-9.334174444000002,3.426219238400001,0.21693786,3.43886859,-3.07767504,,,
imu,116.282008,-0.361882444,-9.1224283528,3.412461724000001,0.03001510999999998,2.86314652,-3.52628964,,,
imu,116.290475,-0.4019586816,-9.029116516000002,3.4387804472,0.65807555,2.55659321,-4.10948862,,,
imu,116.298942,-0.3887993200000001,-9.18164548,3.509960630400001,1.78708896,2.35471664,-4.4683803,,,
imu,116.30741,-0.3965753064,-9.3419504304,3.46928624,2.29551884,2.42200883,-4.169303899999999,,,
imu,116.315877,-0.3899956256000001,-9.4663662128,3.460912100800001,2.58711833,2.35471664,-3.95995042,,,
imu,116.324344,-0.3989679176000001,-9.505844297600001,3.4860345184,2.30299575,2.13040934,-3.7954584,,,
imu,116.332812,-0.3684621248000001,-9.380830362400001,3.5177366168,1.68241222,1.92105586,-2.98795212,,,
imu,116.341279,-0.3732473472,-9.426888128000002,3.4806511432,1.34595127,1.90610204,-2.41970696,,,
imu,116.349746,-0.4420349192,-9.382624820800002,3.451939808800001,0.6954601,1.58459491,-2.05333837,,,
imu,116.358214,-0.4222958768,-9.340754124800002,3.3909282232,0.7253677399999999,1.53225654,-1.7019236,,,
imu,116.367096,-0.385808556,-9.246844135200002,3.3687965696,0.8524752099999999,1.56216418,-1.46266248,,,
imu,116.375978,-0.4133235848,-9.2271050928,3.3646095,1.04687487,1.15841104,-1.22340136,,,
imu,116.38486,-0.406743904,-9.215142036800001,3.353842749600001,1.38333582,1.00887284,-1.02152479,,,
imu,116.393742,-0.4103328208,-9.2127494256,3.3771707088,1.93662716,0.84438082,-1.26826282,,,
imu,116.402624,-0.4378478496000001,-9.138578478400001,3.386143000800001,2.32542648,0.56025824,-1.30564737,,,
imu,116.411505,-0.4575868920000001,-9.1672898128,3.313766512,2.58711833,0.6051196999999999,-1.33555501,,,
imu,116.420387,-0.490485296,-9.178654716,3.326327720800001,3.11797894,0.6125966099999998,-1.4028472,,,
imu,115.131578,,,,,,,-86.84203159999998,184.932946,107.8689376
imu,115.233232,,,,,,,-89.41775080000001,185.8118644,110.9085304
imu,115.334642,,,,,,,-89.1491924,185.6531708,108.0886672
imu,115.436448,,,,,,,-89.5276156,185.9461436,111.12826
imu,115.537828,,,,,,,-89.21022840000002,185.7508284,110.5423144
imu,115.63936,,,,,,,-89.2346428,185.5799276,111.43344
imu,115.740922,,,,,,,-89.28347160000001,185.4456484,111.2625392
imu,115.842454,,,,,,,-88.9660844,185.4334412,110.1883056
imu,116.429269,-0.5066354216000001,-9.284527761600001,3.318551734400001,3.27499405,0.56025824,-1.99352309,,,
imu,116.438151,-0.5126169496,-9.450814240000001,3.2898404,3.0880713,0.6275504299999999,-2.53933752,,,
imu,116.447033,-0.5401319784,-9.559678049600002,3.2671105936,2.32542648,1.00139593,-2.71130645,,,
imu,116.455915,-0.5269726168000001,-9.423897364000002,3.2551475376,1.42819728,1.40514907,-2.95056757,,,
imu,116.464797,-0.5568802568000001,-9.443636406400001,3.262923524000001,0.6281679099999999,1.92853277,-3.40665908,,,
imu,116.473679,-0.6059287864000001,-9.5459205352,3.2431844816,-0.14943073,2.34723973,-3.78798149,,,
imu,116.482561,-0.5987509528,-9.535153784800002,3.238997412,-0.61299915,2.9229618,-3.91508896,,,
imu,116.491443,-0.5754229936,-9.533359326400001,3.265914288000001,-1.38312088,3.62579134,-3.95247351,,,
imu,116.500325,-0.5664507016000001,-9.495675700000001,3.271895816,-1.80182784,4.36600543,-3.87770441,,,
imu,116.509207,-0.5658525488000001,-9.3838211264,3.280868108,-2.36259609,4.93425059,-3.55619728,,,
imu,116.518089,-0.49347606,-9.2001882168,3.2832607192,-2.54204193,5.659510859999999,-2.84589083,,,
imu,116.526971,-0.4557924336,-9.065005684,3.236006648,-1.81678166,6.17541765,-2.20287657,,,
imu,116.535853,-0.4025568344,-9.0913244072,3.247371551200001,-0.7999219,6.48197096,-1.83650798,,,
imu,116.544735,-0.3744436528,-9.376045140000002,3.3245332624,0.3739529699999999,6.74366281,-1.6271545,,,
imu,116.553617,-0.3648732080000001,-9.484908949600001,3.3550390552,0.6132140899999999,6.810955,-1.22340136,,,
imu,116.562498,-0.3056560808,-9.373652528800001,3.373581792,0.05992275,6.751139719999999,-0.49066418,,,
imu,116.570993,-0.2111479384,-9.280340692000001,3.368198416800001,-0.18681528,6.49692478,-0.004665029999999959,,,
imu,116.579487,-0.2057645632,-9.198393758400002,3.3502538328,-0.06718472,6.2875713,0.32431901,,,
imu,116.587981,-0.2817299688000001,-9.184038091200001,3.3640113472,0.01506129,5.88381816,0.6906876,,,
imu,116.596475,-0.3122357616,-9.124820964000001,3.3251314152,0.21693786,5.57726485,1.0645331,,,
imu,116.604969,-0.3385544848000001,-9.031509127200001,3.2641198296,0.57582954,5.45763429,1.01967164,,,
imu,116.613463,-0.3774344168000001,-8.913673025600001,3.2455770928,1.19641307,5.352957549999999,0.2794575500000001,,,
imu,116.621957,-0.4372496968000001,-8.978871680800001,3.2276325088,2.60207215,5.352957549999999,-0.54300255,,,
imu,116.630451,-0.4492127528000001,-9.007583015200002,3.2168657584,3.67127028,5.442680469999999,-1.54490849,,,
imu,116.638945,-0.3989679176000001,-9.0165553072,3.2276325088,4.44139201,5.58474176,-2.90570611,,,
imu,116.647439,-0.3564990688,-9.047061100000002,3.256343843200001,4.98720644,5.67446468,-4.06462716,,,
imu,116.655933,-0.3517138464,-9.161308284800002,3.2922330112,5.56292851,5.57726485,-4.715118329999999,,,
imu,116.664427,-0.3463304712,-9.267779483200002,3.3203461928,5.81714345,5.38286519,-4.90204108,,,
imu,116.672921,-0.2877114968,-9.3694654592,3.343674152,5.48815941,5.136127159999999,-4.64034923,,,
imu,116.681415,-0.2338777448,-9.4412437952,3.352646444,4.97225262,4.84452767,-4.0945348,,,
imu,116.689909,-0.2356722032,-9.504647992000002,3.3837503896,4.01520814,4.38095925,-3.44404363,,,
imu,116.698403,-0.2763465936,-9.374250681600001,3.378965167200001,2.85628709,3.85757555,-2.56176825,,,
imu,116.706897,-0.28412258,-9.511227672800002,3.388535612000001,2.28804193,3.34914567,-2.1505382,,,
imu,116.715392,-0.2847207328,-9.560874355200001,3.3921245288,1.72727368,2.76594669,-1.50004703,,,
imu,116.723886,-0.2595983152,-9.4801237272,3.365207652800001,1.10669015,2.35471664,-0.71497148,,,
imu,116.73238,-0.2434481896,-9.4669643656,3.381955931200001,0.65059864,1.97339423,-0.7074945699999999,,,
imu,116.740874,-0.3236006648,-9.527975951200002,3.3837503896,0.40386061,1.39019525,-0.9018942299999999,,,
imu,116.749368,-0.3870048616000001,-9.590183842400002,3.3921245288,0.10478421,0.8892422799999999,-0.9018942299999999,,,
imu,116.757862,-0.4145198904,-9.552500216,3.407676501600001,-0.16438455,0.5453044199999999,-1.19349372,,,
imu,116.766356,-0.4348570856000001,-9.606333968000001,3.421434016000001,-0.67281443,0.4481045899999998,-1.73183124,,,
imu,116.774814,-0.4384460024000001,-9.547714993600001,3.3580298192,-0.98684465,0.5453044199999999,-2.3000764,,,
imu,116.783273,-0.5239818528000001,-9.440645642400002,3.3502538328,-1.12142903,0.9640113799999996,-2.57672207,,,
imu,116.791731,-0.5933675776,-9.401167557600001,3.325729568,-1.18124431,1.4275798,-2.53186061,,,
imu,116.80019,-0.5586747152,-9.3545116392,3.3155609704,-1.19619813,1.95844041,-2.64401426,,,
imu,116.808648,-0.5431227424,-9.288116678400002,3.3024016088,-1.21115195,2.71360832,-2.77112173,,,
imu,116.817107,-0.5287670752,-9.270172094400001,3.293429316800001,-1.06161375,3.5211146,-2.81598319,,,
imu,116.825565,-0.5676470072,-9.267181330400001,3.301803456,-0.71767589,4.23142105,-2.73373718,,,
imu,116.834024,-0.5485061176,-9.262994260800001,3.313766512,-0.77749117,5.068834969999999,-2.99542903,,,
imu,116.84235,-0.5233837000000001,-9.262396108,3.302999761600001,-0.68029134,5.659510859999999,-2.96552139,,,
imu,116.850808,-0.4749333232000001,-9.2378718432,3.2772791912,-0.77749117,6.444586409999999,-2.78607555,,,
imu,116.859267,-0.4617739616000001,-9.204973439200002,3.271895816,-0.6279529699999999,6.96797011,-2.50195297,,,
imu,116.867725,-0.4809148512,-9.216338342400002,3.2695032048,-0.53823005,7.28200033,-2.13558438,,,
imu,116.876184,-0.4420349192,-9.203178980800002,3.2874477888,-0.17186146,7.82781476,-2.3748455,,,
imu,116.884642,-0.400762376,-9.187627008000002,3.295821928000001,-0.19429219,8.1567988,-2.49447606,,,
imu,116.893101,-0.3600879856,-9.186430702400001,3.2862514832,-0.08961545,8.508213569999999,-2.1505382,,,
imu,116.901559,-0.3224043592,-9.152934145600002,3.2922330112,-0.02232326000000001,8.82224379,-1.99352309,,,
imu,116.910018,-0.3188154424,-9.135587714400002,3.3041960672,0.44124516,9.02412036,-1.72435433,,,
imu,116.918476,-0.2607946208,-9.2091605088,3.3245332624,0.71789083,9.04655109,-1.83650798,,,
imu,116.926935,-0.2428500368,-9.2964908176,3.3299166376,1.03939796,9.121320189999999,-2.001,,,
imu,116.935393,-0.233279592,-9.344941194400002,3.3424778464,1.10669015,9.02412036,-2.00847691,,,
imu,116.943851,-0.1728661592,-9.385017432000001,3.3598242776,0.97958268,8.72504396,-2.36736859,,,
imu,116.95231,-0.1656883256,-9.3664746952,3.3353000128,0.83004448,8.38858301,-2.50195297,,,
imu,116.960768,-0.155519728,-9.350922722400002,3.3412815408,0.8749059399999999,7.93996841,-2.62158353,,,
imu,116.969227,-0.1459492832,-9.385615584800002,3.3640113472,0.79265993,7.58855364,-2.85336774,,,
imu,116.977611,-0.131593616,-9.419710294400002,3.354440902400001,0.78518302,7.199754319999999,-3.04029049,,,
imu,116.985996,-0.1178361016,-9.4280844336,3.3269258736,0.79265993,6.728708989999999,-3.04029049,,,
imu,116.994381,-0.1142471848,-9.361091320000002,3.2994108448,0.73284465,6.13055619,-2.99542903,,,
imu,117.002766,-0.1507345056,-9.340754124800002,3.310177595200001,0.7702292,5.66698777,-3.01785976,,,
imu,117.01115,-0.1800439928,-9.378437751200002,3.310177595200001,1.01696723,5.2408039,-2.8982292,,,
imu,117.019535,-0.1949978128,-9.401167557600001,3.260530912800001,1.33099745,4.814620029999999,-2.78607555,,,
imu,117.02792,-0.1800439928,-9.3658765424,3.2551475376,1.48053565,4.530497449999999,-2.61410662,,,
imu,117.036304,-0.1860255208,-9.370063612000001,3.2497641624,1.49548947,4.1192674,-2.56924516,,,
imu,117.044689,-0.1938015072,-9.4244955168,3.258736454400001,1.71979677,3.78280645,-2.55429134,,,
imu,117.053074,-0.2326814392,-9.4173176832,3.2557456904,1.2936129,3.54354533,-2.41223005,,,
imu,117.061459,-0.2290925224000001,-9.403560168800002,3.2611290656,1.00949032,3.4463455,-2.38979932,,,
imu,117.069843,-0.2595983152,-9.371259917600002,3.2437826344,0.73284465,3.24446893,-2.41223005,,,
imu,117.078228,-0.2578038568000001,-9.367671000800001,3.242586328800001,0.56835263,3.20708438,-2.44213769,,,
imu,117.086613,-0.2727576768,-9.372456223200002,3.218062064,0.43376825,3.07997691,-2.50942988,,,
imu,117.094997,-0.2984782472,-9.313239096000002,3.167219076,0.34404533,2.9977309,-2.41970696,,,
imu,117.103382,-0.3134320672,-9.2486385936,3.146881880800001,0.29170696,2.98277708,-2.50195297,,,
imu,117.111767,-0.3325729568,-9.2366755376,3.161237548,0.5459219,3.13231528,-2.44213769,,,
imu,117.120151,-0.3421434016,-9.284527761600001,3.1510689504,0.80761375,3.15474601,-2.19539966,,,
imu,117.128536,-0.3469286240000001,-9.300079734400002,3.126544685600001,1.15155161,3.21456129,-2.0757691,,,
imu,117.136921,-0.3415452488,-9.2588071912,3.104413032,1.51044329,3.41643786,-1.95613854,,,
imu,117.145306,-0.3421434016,-9.2342829264,3.1026185736,1.73475059,3.67812971,-1.7019236,,,
imu,117.15369,-0.3582935272000001,-9.2617979552,3.112787171200001,2.28056502,3.93982156,-1.60472377,,,
imu,117.162075,-0.35889168,-9.288714831200002,3.108001948800001,3.04320984,4.15665195,-1.34303192,,,
imu,117.17046,-0.3935845424,-9.3413522776,3.1391058944,3.282470959999999,4.54545127,-1.21592445,,,
imu,117.179279,-0.4264829464000001,-9.2588071912,3.1450874224,3.21517877,5.07631188,-1.31312428,,,
imu,117.188099,-0.3846122504,-9.267779483200002,3.1247502272,3.57407045,5.5398803,-1.44770866,,,
imu,117.196918,-0.34393786,-9.405952780000002,3.0912536704,4.0600696,5.97354108,-1.53743158,,,
imu,117.205738,-0.3840140976,-9.4424401008,3.0631404888,4.24699235,6.564216969999999,-1.76921579,,,
imu,117.214558,-0.3750418056000001,-9.450216087200001,3.062542336,4.23951544,7.22966196,-2.27016876,,,
imu,117.223377,-0.4354552384000001,-9.478927421600002,3.1229557688,3.97782359,7.84276858,-2.75616791,,,
imu,117.232197,-0.4755314760000001,-9.483712644000002,3.1349188248,3.73856247,8.44839829,-3.15244414,,,
imu,117.241016,-0.4264829464000001,-9.482516338400002,3.0858702952,3.34228624,9.233473839999998,-3.88518132,,,
imu,115.944108,,,,,,,-89.429958,186.3611884,111.189296
imu,116.045579,,,,,,,-87.2570764,185.8240716,109.0652432
imu,116.147172,,,,,,,-89.1980212,186.2269092,110.4202424
imu,116.248704,,,,,,,-86.8298244,186.1292516,107.8201088
imu,116.350267,,,,,,,-89.307886,186.3245668,110.7254224
imu,116.454728,,,,,,,-89.124778,185.8362788,109.4070448
imu,116.553422,,,,,,,-89.429958,186.275738,110.9573592
imu,116.654954,,,,,,,-88.6120756,186.2024948,110.1028552
imu,117.249836,-0.4372496968000001,-9.481320032800001,3.0882629064,2.9385331,10.07088776,-4.56558013,,,
imu,117.258656,-0.4216977240000001,-9.463973601600001,3.1038148792,2.59459524,10.73633275,-4.98428709,,,
imu,117.267475,-0.3475267768,-9.437056725600002,3.112787171200001,2.22074974,11.36439319,-5.25345585,,,
imu,117.276295,-0.3559009160000001,-9.336567055200002,3.113983476800001,1.84690424,11.83543852,-5.15625602,,,
imu,117.285114,-0.334965568,-9.350324569600001,3.0900573648,2.01139626,12.09713037,-5.10391765,,,
imu,117.293934,-0.2290925224000001,-9.471151435200001,3.061346030400001,2.32542648,12.35882222,-4.92447181,,,
imu,117.302753,-0.110658268,-9.5219944232,3.0511774328,2.20579592,12.30648385,-4.41604193,,,
imu,117.311573,-0.0933118368,-9.545322382400002,3.070916475200001,1.88428879,12.08965346,-4.124442439999999,,,
imu,117.320393,-0.1160416432,-9.536350090400001,3.0757016976,1.41324346,11.51393139,-4.0945348,,,
imu,117.329212,-0.06460050240000001,-9.5237888816,3.074505392,0.9272443100000001,10.89334786,-4.034719519999999,,,
imu,117.338032,-0.04007623760000001,-9.4831144912,3.0762998504,0.3739529699999999,10.33257961,-3.88518132,,,
imu,117.346851,-0.07177833600000001,-9.532163020800002,3.0703183224,-0.09709236,9.644703889999999,-3.91508896,,,
imu,117.355671,-0.0741709472,-9.618895176800002,3.063738641600001,-0.45598404,8.964305079999999,-4.06462716,,,
imu,117.36449,-0.06160973840000001,-9.624278552000002,3.0673275584,-1.18872122,8.26147554,-4.244073,,,
imu,117.37331,-0.09929336480000002,-9.5632669664,3.070916475200001,-2.04856587,7.87267622,-4.11696553,,,
imu,117.381807,-0.1333880744,-9.490292324800002,3.082281378400001,-2.87102597,7.40163089,-4.08705789,,,
imu,117.390303,-0.1579123392,-9.481320032800001,3.084673989600001,-3.14767164,7.19227741,-4.06462716,,,
imu,117.3988,-0.1154434904,-9.456197615200002,3.0798887672,-3.45422495,6.87824719,-3.82536604,,,
imu,117.407296,-0.09450814240000002,-9.457992073600002,3.0852721424,-3.60376315,6.489447869999999,-3.47395127,,,
imu,117.415793,-0.1232194768,-9.4490197816,3.075103544800001,-3.83554736,6.08569473,-3.27955161,,,
imu,117.42429,-0.1507345056,-9.457393920800001,3.0972351984,-4.20191595,5.56231103,-3.39170526,,,
imu,117.432786,-0.206362716,-9.464571754400001,3.1038148792,-4.21686977,5.21089626,-3.41413599,,,
imu,117.441283,-0.2542149400000001,-9.416719530400002,3.1026185736,-4.351454149999999,5.15108098,-3.70573548,,,
imu,117.449779,-0.2781410520000001,-9.4107380024,3.1247502272,-4.3888387,5.32304991,-3.6459202,,,
imu,117.458276,-0.3002727056,-9.408943544000001,3.128937296800001,-4.64305364,5.637080129999999,-3.67582784,,,
imu,117.466773,-0.3301803456000001,-9.325202152000001,3.122357616,-4.613146,6.12307928,-3.50385891,,,
imu,117.475269,-0.3582935272000001,-9.225310634400001,3.112787171200001,-4.254254319999999,6.422155679999999,-3.496382,,,
imu,117.483766,-0.3122357616,-9.169084271200001,3.1259465328,-3.82807045,6.76609354,-3.74312003,,,
imu,117.492262,-0.2859170384,-9.145158159200001,3.1337225192,-3.1925331,7.25209269,-4.0197657,,,
imu,117.500759,-0.2883096496000001,-9.125419116800002,3.1528634088,-2.45231901,7.45396926,-4.124442439999999,,,
imu,117.509256,-0.2691687600000001,-9.127811728000001,3.1558541728,-1.70462801,7.67827656,-4.25902682,,,
imu,117.517752,-0.248233412,-9.1708787296,3.1558541728,-0.8672140899999999,7.887630039999999,-4.17678081,,,
imu,117.526249,-0.2440463424,-9.161308284800002,3.1588449368,-0.14943073,8.007260599999999,-4.16182699,,,
imu,117.534745,-0.2679724544000001,-9.128409880800001,3.1654246176,0.50853735,7.99230678,-4.00481188,,,
imu,117.543242,-0.2500278704,-9.0996985464,3.1654246176,1.2936129,7.89510695,-3.90013514,,,
imu,117.551739,-0.2326814392,-9.159513826400001,3.188154424,2.27308811,7.99230678,-4.08705789,,,
imu,117.560235,-0.2464389536,-9.257012732800002,3.2138749944,3.09554821,7.8577224,-4.057150249999999,,,
imu,117.568732,-0.2530186344000001,-9.3269966104,3.2342121896,3.82080848,7.8577224,-3.93751969,,,
imu,117.577228,-0.2518223288000001,-9.3652783896,3.2252398976,3.8357623,7.835291669999999,-3.81041222,,,
imu,117.585673,-0.2709632184,-9.381428515200001,3.1935377992,3.79090084,8.06707588,-3.66087402,,,
imu,117.594117,-0.266177996,-9.406550932800002,3.197126716,3.6862241,8.16427571,-3.75059694,,,
imu,117.602562,-0.245242648,-9.440047489600001,3.1875562712,3.67127028,8.28390627,-3.8702275,,,
imu,117.611006,-0.2709632184,-9.447225323200001,3.179182132,3.47687062,8.32876773,-3.9449966,,,
imu,117.619451,-0.2607946208,-9.430477044800002,3.167817228800001,3.282470959999999,8.31381391,-3.75807385,,,
imu,117.627895,-0.2237091472,-9.433467808800001,3.164228312,3.282470959999999,8.41101374,-3.72816621,,,
imu,117.63634,-0.2159331608,-9.481320032800001,3.1528634088,3.11050203,8.54559812,-3.63096638,,,
imu,117.644784,-0.215335008,-9.556089132800002,3.143292964,2.83385636,8.635321040000001,-3.43656672,,,
imu,117.653229,-0.227298064,-9.507638756,3.1247502272,2.407672489999999,8.6801825,-3.08515195,,,
imu,117.661673,-0.2278962168,-9.463973601600001,3.112189018400001,2.116073,8.8297207,-2.8982292,,,
imu,117.670118,-0.2099516328,-9.468758824,3.0996278096,1.92167334,8.88953598,-2.76364482,,,
imu,117.678562,-0.16449202,-9.483712644000002,3.098431504000001,1.56278166,8.78485924,-2.69635263,,,
imu,117.687007,-0.1417622136,-9.472347740800002,3.073309086400001,1.35342818,8.687659409999998,-2.53186061,,,
imu,117.695451,-0.1357806856,-9.4669643656,3.084673989600001,1.11416706,8.49325975,-2.43466078,,,
imu,117.703896,-0.1190324072,-9.4454308648,3.0721127808,0.8375213899999999,8.18670644,-2.64401426,,,
imu,117.71234,-0.1022841288,-9.435262267200002,3.0451959048,0.74779847,7.887630039999999,-2.64401426,,,
imu,117.720784,-0.068787572,-9.401167557600001,3.040410682400001,0.76275229,7.625938189999999,-2.53933752,,,
imu,117.729229,-0.08852661440000001,-9.388008196000001,3.0320365432,0.47862971,7.319384879999999,-2.50195297,,,
imu,117.737673,-0.09989151760000002,-9.402363863200002,3.0332328488,0.56835263,6.99040084,-2.34493786,,,
imu,117.746118,-0.08254508640000002,-9.3975786408,3.0260550152,0.67302937,6.74366281,-2.11315365,,,
imu,117.754562,-0.05383375200000001,-9.349726416800001,3.0111011952,0.59078336,6.467017139999999,-2.18792275,,,
imu,117.763007,-0.0550300576,-9.346137500000001,2.9985399864,0.66555246,6.17541765,-2.29259949,,,
imu,117.771451,-0.05084298800000001,-9.368269153600002,2.9955492224,0.8449983,5.704372319999999,-2.42718387,,,
imu,117.779896,-0.04127254320000001,-9.412532460800001,2.9901658472,1.00201341,5.420249739999999,-2.66644499,,,
imu,117.788358,-0.03947808480000001,-9.417915836,2.987773236,1.09921324,5.068834969999999,-2.83093701,,,
imu,117.79682,-0.03588916800000001,-9.3832229736,2.9740157216,1.27118217,4.62022037,-2.91318302,,,
imu,117.805283,-0.062806044,-9.373054376,2.9644452768,1.47305874,4.38095925,-3.03281358,,,
imu,117.813745,-0.07955432240000002,-9.4346641144,2.96085636,1.71979677,4.149175039999999,-3.23469015,,,
imu,117.822207,-0.07955432240000002,-9.478927421600002,2.9542766792,1.86933497,3.9697292,-3.28702852,,,
imu,117.830669,-0.05861897440000001,-9.4633754488,2.9417154704,1.63007385,3.8949601,-3.37675144,,,
imu,117.839132,-0.0406743904,-9.471749588000002,2.936930248,1.49548947,3.63326825,-3.40665908,,,
imu,117.847594,-0.03947808480000001,-9.471749588000002,2.924967192,1.28613599,3.38653022,-3.48142818,,,
imu,117.856056,-0.0161501256,-9.460982837600001,2.954874832000001,1.13659779,3.2220382,-3.60853565,,,
imu,117.864518,-0.0101685976,-9.511227672800002,2.949491456800001,1.04687487,2.96034635,-3.66835093,,,
imu,117.872981,-0.0221316536,-9.5172092008,2.9447062344,0.9272443100000001,2.53416248,-3.69078166,,,
imu,117.881443,0.0023926112,-9.499264616800001,2.9405191648,0.66555246,2.19770153,-3.62348947,,,
imu,117.889905,0.0131593616,-9.505246144800001,2.9506877624,0.33656842,1.83880985,-3.77302767,,,
imu,117.898368,-0.008972292000000002,-9.514218436800002,2.9405191648,-0.03727708,1.27056469,-3.73564312,,,
imu,117.90683,-0.0251224176,-9.4974701584,2.957267443200001,-0.5756146,0.8518577299999999,-3.78798149,,,
imu,117.915292,0.0305057928,-9.3862137376,2.972819416000001,-0.71019898,0.4032431299999999,-3.66835093,,,
imu,117.923754,-0.04246884880000001,-9.530966715200002,2.9506877624,-0.80739881,-0.06780220000000003,-3.63096638,,,
imu,117.932099,-0.05203929360000001,-9.611119190400002,2.9345376368,-1.03918302,-0.3369709599999999,-3.72816621,,,
imu,117.940561,-0.0346928624,-9.571042952800001,2.9297524144,-1.52518217,-0.6734319100000001,-3.90013514,,,
imu,117.949024,-0.04486146000000001,-9.406550932800002,2.962052665600001,-2.10090424,-0.9799852200000005,-3.88518132,,,
imu,117.957486,-0.0227298064,-9.4077472384,2.9740157216,-2.07847351,-1.33139999,-4.079580979999999,,,
imu,117.965948,-0.07716171120000001,-9.481320032800001,2.968632346400001,-2.10090424,-1.7874915,-4.19173463,,,
imu,117.97441,-0.107667504,-9.506442450400002,2.972819416000001,-2.40745755,-2.05666026,-4.52819558,,,
imu,117.982873,-0.09869521200000002,-9.487899713600001,2.979997249600001,-2.57942648,-2.2361061,-4.7674567,,,
imu,117.991338,-0.1238176296,-9.447225323200001,2.9973436808,-2.75887232,-2.303398290000001,-5.05905619,,,
imu,117.999802,-0.1752587704,-9.439449336800001,3.014690112,-3.01308726,-2.52770559,-5.3656095,,,
imu,118.008267,-0.203371952,-9.457393920800001,3.0230642512,-3.13271782,-2.70715143,-5.69459354,,,
imu,118.016732,-0.1997830352,-9.4831144912,3.0487848216,-3.20748692,-2.72210525,-5.896470109999999,,,
imu,118.025197,-0.2320832864,-9.4633754488,3.0398125296,-3.34954821,-2.86416654,-5.94880848,,,
imu,118.033662,-0.2823281216,-9.427486280800002,3.047588516000001,-3.476655679999999,-2.66976688,-5.90394702,,,
imu,118.042126,-0.2895059552,-9.4286825864,3.075103544800001,-3.48413259,-2.58004396,-5.8889932,,,
imu,118.050591,-0.3086468448,-9.4424401008,3.0757016976,-3.55890169,-2.46789031,-5.70207045,,,
imu,118.059056,-0.3463304712,-9.3754469872,3.0691220168,-3.760778259999999,-2.31835211,-5.53757843,,,
imu,116.756373,,,,,,,-88.8318052,185.970558,111.4456472
imu,116.857966,,,,,,,-88.23365240000001,186.5442964,111.3357824
imu,116.959498,,,,,,,-88.58766120000001,186.3856028,109.9563688
imu,117.061091,,,,,,,-88.94166999999999,186.2391164,110.639972
imu,117.162623,,,,,,,-86.71995960000001,185.4456484,107.2585776
imu,117.264216,,,,,,,-89.0881564,186.1780804,110.5301072
imu,117.365748,,,,,,,-87.06176119999999,185.2503332,108.5769552
imu,117.467341,,,,,,,-89.5642372,186.458846,110.334792
imu,118.067521,-0.3672658192000001,-9.335370749600001,3.0768980032,-3.6411477,-2.19124464,-5.38804023,,,
imu,118.075986,-0.3840140976,-9.3413522776,3.0936462816,-3.46170186,-1.98189116,-5.39551714,,,
imu,118.08445,-0.3744436528,-9.412532460800001,3.098431504000001,-3.33459439,-1.88469133,-5.4403786,,,
imu,118.092915,-0.3941826952,-9.422102905600001,3.109796407200001,-3.27477911,-1.73515313,-5.238502029999999,,,
imu,118.10138,-0.4378478496000001,-9.350324569600001,3.105609337600001,-3.35702512,-1.3388769,-5.08148692,,,
imu,118.109845,-0.4432312248,-9.329987374400002,3.1247502272,-3.22244074,-1.01736977,-4.77493361,,,
imu,118.11831,-0.4330626272,-9.3557079448,3.1157779352,-3.08785636,-0.7257702800000003,-4.56558013,,,
imu,118.126775,-0.4569887392,-9.3317818328,3.1205631576,-3.0429949,-0.4266938800000002,-4.28145755,,,
imu,118.135239,-0.4755314760000001,-9.307855720800001,3.107403796,-2.69158013,-0.08275602000000015,-4.16182699,,,
imu,118.143704,-0.4677554896000001,-9.315033554400001,3.115179782400001,-2.48970356,0.27613566,-4.07210407,,,
imu,118.152169,-0.4557924336,-9.3126409432,3.1008241152,-2.31773463,0.6275504299999999,-3.9449966,,,
imu,118.160634,-0.4282774048000001,-9.253423816000002,3.089459212,-2.04108896,0.8967191899999998,-3.90761205,,,
imu,118.169099,-0.424688488,-9.219927259200002,3.1032167264,-1.72705874,0.9341037399999998,-3.92256587,,,
imu,118.177563,-0.4222958768,-9.2552182744,3.104413032,-1.21115195,1.0537343,-3.99733497,,,
imu,118.186028,-0.4193051128000001,-9.319220624000002,3.098431504000001,-1.0242292,1.13598031,-4.07210407,,,
imu,118.194877,-0.400762376,-9.3413522776,3.0978333512,-0.81487572,1.23318014,-4.22911918,,,
imu,118.203726,-0.4025568344,-9.361689472800002,3.109796407200001,-0.55318387,1.45748744,-4.25154991,,,
imu,118.212575,-0.3864067088000001,-9.419112141600001,3.123553921600001,-0.47841477,1.45748744,-4.0197657,,,
imu,118.221423,-0.391790084,-9.425691822400001,3.1271428384,-0.51579932,1.49487199,-3.91508896,,,
imu,118.230272,-0.3995660704000001,-9.436458572800001,3.128339144,-0.68029134,1.6518871,-3.80293531,,,
imu,118.239121,-0.3564990688,-9.4938812416,3.1534615616,-0.92702937,1.6518871,-3.63844329,,,
imu,118.24797,-0.3714528888,-9.533957479200001,3.136115130400001,-1.35321324,1.60702564,-3.4216129,,,
imu,118.256818,-0.4085383624000001,-9.5172092008,3.119366852000001,-1.89902767,1.56216418,-3.28702852,,,
imu,118.265667,-0.4139217376000001,-9.4621791432,3.1032167264,-2.19810407,1.68179474,-3.01785976,,,
imu,117.568903,,,,,,,-89.71072360000001,186.0804228,110.395828
imu,117.670588,,,,,,,-90.1868044,185.909522,109.8098824
imu,117.771998,,,,,,,-89.6863092,185.7508284,110.762044
imu,117.873591,,,,,,,-89.8938316,185.9583508,109.9563688
imu,117.975123,,,,,,,-90.1257684,185.7752428,110.7132152
imu,118.076685,,,,,,,-87.75757159999999,185.7142068,109.480288
imu,118.178309,,,,,,,-87.4523916,185.1526756,108.5159192
