Type,Timestamp,Data Accelerometer X,Data Accelerometer Y,Data Accelerometer Z,Data Gyroscope X,Data Gyroscope Y,Data Gyroscope Z,Data Magnetometer X,Data Magnetometer Y,Data Magnetometer Z
imu,345.006484,-0.3600879856,-9.573435564,2.7999532568,-1.80930475,3.99215993,-3.14496723,,,
imu,345.014967,-0.3690602776000001,-9.5249851872,2.787392048000001,-2.16071952,3.81271409,-3.05524431,,,
imu,345.023449,-0.3780325696000001,-9.498666464000001,2.7975606456,-2.16819643,3.57345297,-3.1973056,,,
imu,345.031932,-0.3786307224000001,-9.5184055064,2.8029440208,-2.25791935,3.42391477,-3.24964397,,,
imu,345.040415,-0.3804251808,-9.536350090400001,2.7939717288,-2.28782699,3.22951511,-3.28702852,,,
imu,345.048897,-0.385808556,-9.517807353600002,2.7951680344,-2.5196112,3.11736146,-3.22721324,,,
imu,345.05738,-0.4031549872,-9.4801237272,2.793373576,-2.42241137,3.08745382,-3.03281358,,,
imu,345.065862,-0.4097346680000001,-9.439449336800001,2.7897846592,-2.35511918,3.09493073,-2.86832156,,,
imu,345.074345,-0.424688488,-9.423897364000002,2.7766252976,-2.0709966,3.03511545,-2.71130645,,,
imu,345.082828,-0.4216977240000001,-9.4071490856,2.7820086728,-1.88407385,2.93791562,-2.86832156,,,
imu,345.091284,-0.4312681688,-9.3796340568,2.7802142144,-1.62985891,3.03511545,-3.22721324,,,
imu,345.09974,-0.4205014184,-9.3658765424,2.7772234504,-1.33078251,2.98277708,-3.48890509,,,
imu,345.108195,-0.4073420568000001,-9.378437751200002,2.779616061600001,-1.07656757,2.88557725,-3.75807385,,,
imu,345.116651,-0.4175106544000001,-9.3862137376,2.7927754232,-0.64290679,2.85566961,-3.69078166,,,
imu,345.125107,-0.4330626272,-9.401765710400001,2.794569881600001,-0.38121494,2.90053107,-3.75807385,,,
imu,345.133563,-0.4360533912000001,-9.412532460800001,2.8077292432,-0.19429219,2.73603905,-3.77302767,,,
imu,345.142019,-0.442633072,-9.4215047528,2.8011495624,0.11973803,2.78090051,-3.59358183,,,
imu,345.150475,-0.4605776560000001,-9.435860420000001,2.8089255488,0.4861066199999999,2.90053107,-3.45152054,,,
imu,345.158931,-0.4522035168,-9.452010545600002,2.784401284,0.68798319,3.03511545,-3.18235178,,,
imu,345.167387,-0.4551942808000001,-9.474142199200001,2.798756951200001,0.85995212,3.02763854,-2.96552139,,,
imu,345.175843,-0.472540712,-9.498666464000001,2.8119163128,0.8749059399999999,3.05006927,-2.92813684,,,
imu,345.184299,-0.4701481008,-9.501657228000001,2.8149070768,0.7403215599999999,3.05006927,-2.98795212,,,
imu,345.192755,-0.4833074624000001,-9.523190728800001,2.8077292432,0.8375213899999999,3.28933039,-2.96552139,,,
imu,345.201104,-0.4928779072000001,-9.540537160000001,2.8167015352,0.7104139199999999,3.4463455,-2.98047521,,,
imu,345.20956,-0.49347606,-9.5566872856,2.7999532568,0.5459219,3.5211146,-3.02533667,,,
imu,345.218016,-0.4839056152000001,-9.5656595776,2.7927754232,0.50853735,3.69308353,-2.94309066,,,
imu,345.226472,-0.4779240872000001,-9.577024480800002,2.7927754232,0.26179932,3.91739083,-2.9729983,,,
imu,345.234928,-0.4779240872000001,-9.569248494400002,2.7897846592,0.05992275,4.104313579999999,-3.01785976,,,
imu,345.243384,-0.4641665728000001,-9.567454036,2.7909809648,0.03749201999999999,4.29123633,-2.95056757,,,
imu,345.25184,-0.4486146000000001,-9.564463272000001,2.772438228,-0.30644584,4.32114397,-2.98047521,,,
imu,345.260296,-0.4378478496000001,-9.5489112992,2.7467176576,-0.44103022,4.31366706,-2.91318302,,,
imu,345.268752,-0.4234921824,-9.533359326400001,2.7682511584,-0.76253735,4.410866889999999,-2.96552139,,,
imu,345.277208,-0.4240903352000001,-9.5327611736,2.7760271448,-0.84478336,4.40338998,-2.8982292,,,
imu,345.285664,-0.4199032656,-9.5381445488,2.7742326864,-1.06161375,4.2688056,-2.90570611,,,
imu,345.294136,-0.4055475984,-9.530368562400001,2.7532973384,-1.2485365,4.06692903,-3.02533667,,,
imu,345.302608,-0.385808556,-9.514218436800002,2.7550917968,-1.42050543,3.86505246,-3.06272122,,,
imu,345.311081,-0.3744436528,-9.459786532,2.7610733248,-1.30835178,3.8949601,-2.92065993,,,
imu,345.319553,-0.3929863896,-9.453805004000001,2.757484408000001,-1.1737674,3.67812971,-2.80102937,,,
imu,345.328026,-0.4001642232,-9.456197615200002,2.7497084216,-1.27844414,3.49868387,-2.62906044,,,
imu,345.336498,-0.3983697648000001,-9.462777296000002,2.7538954912,-1.06909066,3.30428421,-2.4496146,,,
imu,345.344971,-0.4025568344,-9.460982837600001,2.75150288,-0.7251528,3.25942275,-2.46456842,,,
imu,345.353443,-0.4085383624000001,-9.448421628800002,2.7491102688,-0.64290679,3.41643786,-2.62158353,,,
imu,345.361915,-0.4085383624000001,-9.439449336800001,2.748512116,-0.4260764,3.39400713,-2.62158353,,,
imu,345.370388,-0.4228940296000001,-9.4460290176,2.7568862552,-0.29149202,3.31176112,-2.6739219,,,
imu,345.37886,-0.4282774048000001,-9.453206851200001,2.7748308392,-0.14943073,3.19213056,-2.748691,,,
imu,345.387333,-0.4360533912000001,-9.4938812416,2.7802142144,0.03749201999999999,3.17717674,-2.77859864,,,
imu,345.395805,-0.439642308,-9.505844297600001,2.7778216032,0.19450713,3.31923803,-2.86832156,,,
imu,345.404278,-0.4539979752000001,-9.499264616800001,2.778419756,0.23936859,3.33419185,-2.90570611,,,
imu,345.41275,-0.4659610312,-9.4962738528,2.7855975896,0.1720764,3.5211146,-2.9729983,,,
imu,345.421223,-0.4474182944000001,-9.509433214400001,2.7676530056,-0.07466163,3.68560662,-3.00290594,,,
imu,345.429695,-0.4510072112,-9.514218436800002,2.784401284,-0.127,3.94729847,-3.06272122,,,
imu,345.438167,-0.4450256832000001,-9.499862769600002,2.775428992000001,-0.26158438,4.02206757,-3.08515195,,,
imu,345.44664,-0.4378478496000001,-9.495675700000001,2.779616061600001,-0.26906129,4.05197521,-2.98795212,,,
imu,345.455112,-0.4402404608,-9.495077547200001,2.78141052,-0.33635348,4.07440594,-3.09262886,,,
imu,345.463585,-0.4384460024000001,-9.502853533600002,2.784401284,-0.18681528,4.15665195,-3.06272122,,,
imu,345.472057,-0.4240903352000001,-9.498666464000001,2.7760271448,-0.0522309,4.36600543,-3.02533667,,,
imu,345.48053,-0.4127254320000001,-9.495077547200001,2.7951680344,-0.14943073,4.30619015,-3.14496723,,,
imu,345.489002,-0.4163143488000001,-9.492684936000002,2.7939717288,-0.24663056,4.20151341,-3.10758268,,,
imu,345.497457,-0.4109309736,-9.499264616800001,2.7861957424,-0.21672292,4.06692903,-3.01038285,,,
imu,345.505911,-0.4127254320000001,-9.5010590752,2.784401284,-0.28401511,4.09683667,-3.01038285,,,
imu,345.514366,-0.4193051128000001,-9.495675700000001,2.78141052,-0.14195382,4.08935976,-2.88327538,,,
imu,345.522821,-0.4216977240000001,-9.4735440464,2.7861957424,-0.127,4.0444983,-2.8234601,,,
imu,345.531275,-0.4133235848,-9.469356976800002,2.7802142144,-0.19429219,3.98468302,-2.84589083,,,
imu,345.53973,-0.4222958768,-9.472347740800002,2.7730363808,-0.14943073,3.9697292,-2.8982292,,,
imu,345.548185,-0.4264829464000001,-9.460982837600001,2.764064088800001,-0.02980017,3.90991392,-2.95804448,,,
imu,345.556639,-0.43366078,-9.456197615200002,2.763465936,0.14964567,3.93234465,-3.08515195,,,
imu,345.565094,-0.4234921824,-9.4753385048,2.7610733248,0.21693786,3.92486774,-3.23469015,,,
imu,345.573549,-0.4252866408000001,-9.4801237272,2.759877019200001,0.35152224,4.01459066,-3.37675144,,,
imu,345.582003,-0.4276792520000001,-9.482516338400002,2.7550917968,0.3739529699999999,4.00711375,-3.43656672,,,
imu,345.590458,-0.4181088072000001,-9.4944793944,2.757484408000001,0.58330645,4.08935976,-3.36927453,,,
imu,345.598912,-0.4049494456000001,-9.5082369088,2.7652603944,0.53844499,4.07440594,-3.59358183,,,
imu,345.607367,-0.4133235848,-9.5219944232,2.7562881024,0.60573718,4.05197521,-3.72816621,,,
imu,345.615822,-0.3995660704000001,-9.529770409600001,2.745521352,0.35152224,3.8949601,-3.80293531,,,
imu,345.624276,-0.4049494456000001,-9.530368562400001,2.7532973384,0.35899915,3.88000628,-3.72816621,,,
imu,345.632731,-0.4025568344,-9.5327611736,2.7526991856,0.3216146,3.81271409,-3.69078166,,,
imu,345.641186,-0.4079402096,-9.5393408544,2.7377453656,0.23936859,3.6706528,-3.78050458,,,
imu,345.64964,-0.4163143488000001,-9.533957479200001,2.7401379768,0.20198404,3.62579134,-3.73564312,,,
imu,345.658095,-0.4103328208,-9.531564868,2.731165684800001,-0.07466163,3.42391477,-3.60853565,,,
imu,345.66655,-0.4163143488000001,-9.516611048000001,2.7233896984,-0.08213854000000001,3.30428421,-3.54872037,,,
imu,345.675004,-0.4240903352000001,-9.528574104,2.7233896984,-0.22419983,3.17717674,-3.6459202,,,
imu,345.683459,-0.442633072,-9.522592576000001,2.7209970872,-0.26906129,3.01268472,-3.55619728,,,
imu,345.691913,-0.4504090584,-9.522592576000001,2.726978615200001,-0.22419983,3.02016163,-3.35432071,,,
imu,345.700752,-0.4641665728000001,-9.5213962704,2.7329601432,-0.40364567,3.04259236,-3.23469015,,,
imu,345.70959,-0.4629702672000001,-9.533957479200001,2.7419324352,-0.41112258,3.02016163,-3.17487487,,,
imu,345.718428,-0.4707462536000001,-9.541733465600002,2.7431287408,-0.50832241,2.9977309,-3.11505959,,,
imu,345.727266,-0.4749333232000001,-9.541733465600002,2.739539824,-0.82235263,3.0725,-3.09262886,,,
imu,345.736104,-0.481513004,-9.519601812000001,2.7413342824,-0.81487572,3.20708438,-2.95056757,,,
imu,345.744942,-0.481513004,-9.513620284000002,2.7449231992,-0.93450628,3.28185348,-2.71130645,,,
imu,345.753781,-0.4797185456,-9.5172092008,2.745521352,-0.9494601,3.3715764,-2.76364482,,,
imu,345.762619,-0.4910834488,-9.4843107968,2.746119504800001,-0.91955246,3.47625314,-2.80102937,,,
imu,345.771457,-0.499457588,-9.4753385048,2.7772234504,-1.10647521,3.61083752,-2.79355246,,,
imu,345.780295,-0.4946723656000001,-9.493283088800002,2.772438228,-1.10647521,3.63326825,-2.92813684,,,
imu,345.789133,-0.4928779072000001,-9.524387034400002,2.7670548528,-0.93450628,3.58840679,-3.10010577,,,
imu,345.797971,-0.4797185456,-9.534555632000002,2.7826068256,-0.94198319,3.78280645,-3.21973633,,,
imu,345.80681,-0.4767277816000001,-9.5219944232,2.7742326864,-1.16629049,3.93982156,-3.02533667,,,
imu,345.815648,-0.4880926848000001,-9.5184055064,2.7760271448,-1.0989983,3.95477538,-2.8982292,,,
imu,345.824486,-0.4821111568000001,-9.519003659200001,2.7664567,-1.01675229,4.0444983,-2.86832156,,,
imu,345.833324,-0.4791203928000001,-9.4974701584,2.760475172,-0.88964482,4.13422122,-2.748691,,,
imu,345.842162,-0.4683536424000001,-9.4699551296,2.743726893600001,-0.80739881,4.20899032,-2.84589083,,,
imu,345.851,-0.4486146000000001,-9.451412392800002,2.7401379768,-0.7550604399999999,4.05197521,-3.07019813,,,
imu,345.859838,-0.4366515440000001,-9.456795768000001,2.7401379768,-0.48589168,4.171605769999999,-3.20478251,,,
imu,345.868677,-0.4252866408000001,-9.455001309600002,2.738941671200001,-0.26906129,3.99215993,-3.15244414,,,
imu,345.877515,-0.4300718632,-9.4496179344,2.7347546016,-0.47841477,3.72299117,-3.11505959,,,
imu,345.886353,-0.4342589328000001,-9.458590226400002,2.7509047272,-0.36626112,3.57345297,-2.91318302,,,
imu,345.895191,-0.4354552384000001,-9.482516338400002,2.754493644000001,-0.31392275,3.50616078,-2.72626027,,,
imu,345.903652,-0.4438293776000001,-9.501657228000001,2.7491102688,-0.52327623,3.34166876,-2.62158353,,,
imu,345.912113,-0.4444275304,-9.484908949600001,2.7521010328,-0.50832241,3.2968073,-2.53933752,,,
imu,345.920574,-0.4456238360000001,-9.4962738528,2.7562881024,-0.51579932,3.24446893,-2.47952224,,,
imu,345.929035,-0.4533998224,-9.509433214400001,2.7610733248,-0.58309151,3.13231528,-2.33746095,,,
imu,345.937496,-0.4581850448000001,-9.527377798400002,2.7700456168,-0.58309151,3.10988455,-2.30755331,,,
imu,345.945957,-0.4671573368000001,-9.523190728800001,2.769447464,-0.59056842,3.05754618,-2.35989168,,,
imu,345.954418,-0.46356842,-9.513620284000002,2.78141052,-0.81487572,3.08745382,-2.56924516,,,
imu,345.962879,-0.4683536424000001,-9.520798117600002,2.7861957424,-0.7999219,3.07997691,-2.51690679,,,
imu,345.97134,-0.4785222400000001,-9.536948243200001,2.7915791176,-0.85973718,3.1472691,-2.64401426,,,
imu,345.979801,-0.4755314760000001,-9.5237888816,2.780812367200001,-1.00179847,3.19960747,-2.73373718,,,
imu,345.988262,-0.4707462536000001,-9.5154147424,2.7927754232,-1.18872122,3.31923803,-2.73373718,,,
imu,345.996723,-0.4737370176,-9.4974701584,2.7879902008,-1.11395212,3.5211146,-2.71130645,,,
imu,346.005184,-0.4707462536000001,-9.498666464000001,2.7861957424,-0.91207555,3.70056044,-2.71130645,,,
imu,346.013645,-0.4659610312,-9.487899713600001,2.7909809648,-0.90459864,3.76037572,-2.75616791,,,
imu,345.074737,,,,,,,-89.64968760000001,186.6297468,110.6277648
imu,345.176269,,,,,,,-89.5886516,186.519882,112.471052
imu,345.277801,,,,,,,-89.27126439999999,185.9583508,112.6175384
imu,346.022106,-0.4539979752000001,-9.477132963200003,2.7790179088,-0.97189083,3.820191,-2.80102937,,,
imu,346.030567,-0.4498109056,-9.467562518400001,2.783204978400001,-0.8522602699999999,3.78280645,-2.83841392,,,
imu,346.039028,-0.4444275304,-9.456795768000001,2.771241922400001,-0.82982954,3.99215993,-2.91318302,,,
imu,346.047489,-0.4456238360000001,-9.459786532,2.7879902008,-0.66533752,4.08188285,-2.86832156,,,
imu,346.05595,-0.4330626272,-9.4765348104,2.7939717288,-0.70272207,4.06692903,-3.08515195,,,
imu,346.064411,-0.4234921824,-9.489096019200002,2.780812367200001,-0.53823005,3.9697292,-3.28702852,,,
imu,346.072872,-0.4097346680000001,-9.496872005600002,2.7939717288,-0.38121494,3.94729847,-3.47395127,,,
imu,346.081333,-0.4193051128000001,-9.491488630400001,2.7915791176,-0.45598404,3.88000628,-3.40665908,,,
imu,346.089794,-0.4079402096,-9.478927421600002,2.7981587984,-0.48589168,3.8949601,-3.1225365,,,
imu,346.098255,-0.4240903352000001,-9.477731116000001,2.7772234504,-0.3513073,3.90243701,-2.83093701,,,
imu,346.106748,-0.4318663216,-9.4938812416,2.784401284,-0.40364567,3.85757555,-2.72626027,,,
imu,346.115241,-0.4390441552000001,-9.48072188,2.761671477600001,-0.35878421,3.80523718,-2.71878336,,,
imu,346.123733,-0.4342589328000001,-9.479525574400002,2.7658585472,-0.29149202,3.69308353,-2.81598319,,,
imu,346.132226,-0.4276792520000001,-9.477731116000001,2.7778216032,-0.20924601,3.63326825,-3.08515195,,,
imu,346.140719,-0.4270810992000001,-9.4938812416,2.775428992000001,-0.13447691,3.53606842,-3.38422835,,,
imu,346.149212,-0.439642308,-9.501657228000001,2.7706437696,-0.11204618,3.53606842,-3.44404363,,,
imu,346.157705,-0.4420349192,-9.513620284000002,2.759877019200001,-0.07466163,3.5211146,-3.41413599,,,
imu,346.166197,-0.4563905864000001,-9.507040603200002,2.7610733248,-0.16438455,3.5211146,-3.48890509,,,
imu,346.17469,-0.4575868920000001,-9.505246144800001,2.7706437696,-0.11204618,3.55849915,-3.50385891,,,
imu,346.183183,-0.4593813504000001,-9.51062952,2.7628677832,-0.15690764,3.63326825,-3.51881273,,,
imu,346.191676,-0.4605776560000001,-9.5213962704,2.759877019200001,-0.127,3.70803735,-3.52628964,,,
imu,346.200169,-0.4605776560000001,-9.508835061600001,2.7628677832,-0.14195382,3.72299117,-3.51133582,,,
imu,346.208661,-0.4432312248,-9.498666464000001,2.760475172,-0.2017691,3.6706528,-3.54124346,,,
imu,346.217154,-0.4438293776000001,-9.495675700000001,2.764064088800001,-0.18681528,3.52859151,-3.61601256,,,
imu,346.225647,-0.4587831976000001,-9.499264616800001,2.761671477600001,-0.14943073,3.54354533,-3.48142818,,,
imu,346.23414,-0.4551942808000001,-9.5004609224,2.7556899496,-0.23167674,3.46877623,-3.50385891,,,
imu,346.242632,-0.4659610312,-9.498666464000001,2.7742326864,-0.25410747,3.42391477,-3.53376655,,,
imu,346.251125,-0.4809148512,-9.507638756,2.7718400752,-0.29896893,3.31176112,-3.42908981,,,
imu,346.259618,-0.4809148512,-9.499264616800001,2.7706437696,-0.21672292,3.27437657,-3.23469015,,,
imu,346.268111,-0.490485296,-9.499264616800001,2.761671477600001,-0.19429219,3.1472691,-3.18235178,,,
imu,346.276604,-0.5000557408,-9.499862769600002,2.7682511584,-0.29896893,3.10988455,-3.18982869,,,
imu,346.285096,-0.5030465048,-9.4831144912,2.7592788664,-0.14943073,3.13979219,-3.08515195,,,
imu,346.293523,-0.520392936,-9.4801237272,2.7658585472,-0.31392275,3.13231528,-2.95804448,,,
imu,346.302015,-0.5395338256000001,-9.453206851200001,2.769447464,-0.29149202,3.2220382,-2.87579847,,,
imu,346.310493,-0.5449172008000001,-9.4244955168,2.772438228,-0.34383039,3.2220382,-2.73373718,,,
imu,346.318971,-0.5640580904000001,-9.417915836,2.7802142144,-0.32139966,3.31923803,-2.64401426,,,
imu,346.327448,-0.5754229936,-9.418513988800001,2.7838031312,-0.02980017,3.51363769,-2.50942988,,,
imu,346.335926,-0.5772174520000001,-9.4107380024,2.783204978400001,0.35899915,3.71551426,-2.19539966,,,
imu,346.344403,-0.5891805080000001,-9.406550932800002,2.7909809648,0.44872207,3.94729847,-2.00847691,,,
imu,346.352881,-0.5975546472000001,-9.408345391200001,2.8035421736,0.9272443100000001,4.14169813,-1.73930815,,,
imu,346.361358,-0.5820026744000001,-9.422701058400001,2.798756951200001,1.18893616,4.27628251,-1.60472377,,,
imu,346.369836,-0.5885823552,-9.4286825864,2.79636434,1.24875144,4.433297619999999,-1.56733922,,,
imu,346.378313,-0.5730303824,-9.444832712,2.7867938952,1.64502767,4.76975857,-1.53743158,,,
imu,346.386791,-0.5329541448,-9.456197615200002,2.790382812,1.79456587,4.89686604,-1.54490849,,,
imu,346.395268,-0.5162058664000001,-9.483712644000002,2.7820086728,1.94410407,5.023973509999999,-1.49257012,,,
imu,346.403746,-0.4946723656000001,-9.528574104,2.779616061600001,2.25813429,5.08378879,-1.68696978,,,
imu,346.412223,-0.4785222400000001,-9.562668813600002,2.778419756,2.116073,5.0164966,-1.97856927,,,
imu,346.420701,-0.4456238360000001,-9.591380148,2.7670548528,1.91419643,4.979112049999999,-2.19539966,,,
imu,346.429178,-0.4270810992000001,-9.616502565600001,2.7556899496,1.71979677,4.82209694,-2.47204533,,,
imu,346.437656,-0.424688488,-9.6284656216,2.7497084216,1.55530475,4.65760492,-2.58419898,,,
imu,346.446133,-0.4145198904,-9.635643455200002,2.742530588,1.00201341,4.410866889999999,-2.71130645,,,
imu,346.454611,-0.4013605288,-9.6326526912,2.731165684800001,0.41133752,4.32862088,-2.86084465,,,
imu,346.463089,-0.3977716120000001,-9.6224840936,2.72159524,0.14216876,4.13422122,-2.96552139,,,
imu,346.471566,-0.3929863896,-9.5949690648,2.704248808800001,-0.26158438,3.98468302,-2.95056757,,,
imu,346.480044,-0.3941826952,-9.578220786400001,2.697669128,-0.61299915,3.82766791,-2.92813684,,,
imu,346.488521,-0.4049494456000001,-9.5501076048,2.6833134608,-0.83730645,3.63326825,-2.748691,,,
imu,346.496999,-0.4079402096,-9.517807353600002,2.6743411688,-1.09152139,3.51363769,-2.73373718,,,
imu,346.505476,-0.4133235848,-9.4765348104,2.668957793600001,-1.0989983,3.46129932,-2.60662971,,,
imu,346.513891,-0.4169125016,-9.457992073600002,2.661779960000001,-0.77001426,3.35662258,-2.41223005,,,
imu,346.522307,-0.4222958768,-9.458590226400002,2.6605836544,-0.48589168,3.33419185,-2.35989168,,,
imu,346.530722,-0.4366515440000001,-9.457992073600002,2.6719485576,-0.48589168,3.18465365,-2.38232241,,,
imu,346.539137,-0.4557924336,-9.4621791432,2.6839116136,-0.23167674,3.09493073,-2.45709151,,,
imu,346.547552,-0.4623721144,-9.478927421600002,2.6970709752,-0.06718472,3.25194584,-2.55429134,,,
imu,346.555968,-0.4779240872000001,-9.486703408,2.7072395728,0.14964567,3.34166876,-2.47952224,,,
imu,346.564383,-0.499457588,-9.5040498392,2.712622948,0.01506129,3.50616078,-2.45709151,,,
imu,346.572798,-0.5060372688000001,-9.498666464000001,2.718604476,-0.15690764,3.58092988,-2.42718387,,,
imu,346.581213,-0.5072335744,-9.472347740800002,2.7150155592,0.08983038999999998,3.81271409,-2.2253073,,,
imu,346.589628,-0.5036446576000001,-9.453805004000001,2.703650656000001,0.15712258,4.11179049,-2.10567674,,,
imu,346.598044,-0.505439116,-9.4454308648,2.7239878512,0.1720764,4.410866889999999,-2.03090764,,,
imu,346.606459,-0.5048409632,-9.464571754400001,2.7329601432,0.3889067899999999,4.62769728,-1.9262309,,,
imu,346.614874,-0.5018501992000001,-9.501657228000001,2.7562881024,0.31413769,4.762281659999999,-1.83650798,,,
imu,346.623289,-0.4857000736000001,-9.5249851872,2.759877019200001,0.56087572,4.91181986,-1.9262309,,,
imu,346.631705,-0.4761296288000001,-9.533359326400001,2.7580825608,0.68798319,5.08378879,-1.86641562,,,
imu,346.64012,-0.4647647256,-9.533359326400001,2.7538954912,0.7702292,5.23332699,-1.63463141,,,
imu,346.648535,-0.4510072112,-9.545322382400002,2.7610733248,0.57582954,5.4651112,-1.51500085,,,
imu,346.65695,-0.4468201416000001,-9.5602762024,2.7473158104,0.5459219,5.55483412,-1.42527793,,,
imu,346.665365,-0.4330626272,-9.555490980000002,2.7317638376,0.41881443,5.659510859999999,-1.44770866,,,
imu,346.673781,-0.4181088072000001,-9.534555632000002,2.7239878512,0.27675314,5.6894185,-1.59724686,,,
imu,346.682196,-0.3882011672000001,-9.513022131200001,2.7138192536,0.17955331,5.67446468,-1.71687742,,,
imu,346.690611,-0.3732473472,-9.514218436800002,2.7084358784,0.11226112,5.592218669999999,-2.02343073,,,
imu,346.699026,-0.3672658192000001,-9.5237888816,2.6970709752,0.03749201999999999,5.51744957,-2.18792275,,,
imu,346.707442,-0.3648732080000001,-9.526779645600001,2.694678364,-0.07466163,5.442680469999999,-2.34493786,,,
imu,346.716261,-0.3690602776000001,-9.509433214400001,2.685706072000001,0.0001074699999999984,5.38286519,-2.47952224,,,
imu,346.725081,-0.3594898328000001,-9.4962738528,2.6940802112,-0.09709236,5.27071154,-2.65149117,,,
imu,346.7339,-0.3517138464,-9.467562518400001,2.727576768,0.21693786,5.046404239999999,-2.65896808,,,
imu,346.74272,-0.3630787496,-9.448421628800002,2.701856197600001,0.33656842,4.95668132,-2.77112173,,,
imu,346.751539,-0.352910152,-9.520798117600002,2.652807668,0.30666078,4.79966621,-2.86832156,,,
imu,346.760359,-0.3720510416,-9.551303910400001,2.6300778616,0.4861066199999999,4.57535891,-3.07019813,,,
imu,346.769179,-0.3517138464,-9.5184055064,2.6157221944,0.41881443,4.35852852,-3.55619728,,,
imu,346.777998,-0.3403489432000001,-9.4735440464,2.645629834400001,0.50853735,4.32114397,-3.84031986,,,
imu,346.786818,-0.3475267768,-9.443038253600001,2.680920849600001,0.8375213899999999,4.20151341,-3.88518132,,,
imu,346.795637,-0.3559009160000001,-9.475936657600002,2.6450316816,1.00949032,4.02954448,-4.012288789999999,,,
imu,346.804457,-0.3451341656,-9.534555632000002,2.634264931200001,1.1440747,3.78280645,-4.22911918,,,
imu,346.813276,-0.3499193880000001,-9.537546396000002,2.6653688768,1.31604363,3.63326825,-4.22164227,,,
imu,346.822096,-0.3870048616000001,-9.5184055064,2.6803226968,1.19641307,3.5211146,-4.341272829999999,,,
imu,346.830916,-0.3959771536000001,-9.5154147424,2.6623781128,1.0693056,3.43886859,-4.47585721,,,
imu,345.379363,,,,,,,-89.6008588,186.3123596,113.2401056
imu,345.481109,,,,,,,-89.45437240000001,186.7518188,112.7518176
imu,345.583098,,,,,,,-89.0271204,186.3123596,113.508664
imu,345.684051,,,,,,,-89.34450760000001,186.4344316,113.0325832
imu,345.785613,,,,,,,-87.01293240000001,185.5310988,110.5179
imu,345.887176,,,,,,,-90.1379756,186.4222244,112.7884392
imu,345.988738,,,,,,,-87.23266199999999,185.78745,110.1883056
imu,346.090301,,,,,,,-89.71072360000001,186.4344316,112.776232
imu,346.839735,-0.4031549872,-9.519601812000001,2.6605836544,0.9272443100000001,3.34914567,-4.58801086,,,
imu,346.848555,-0.4300718632,-9.529770409600001,2.649816904,1.04687487,3.17717674,-4.64034923,,,
imu,346.857374,-0.4731388648000001,-9.554294674400001,2.6534058208,0.9571519499999999,3.16969983,-4.9169949,,,
imu,346.866194,-0.4958686712000001,-9.5740337168,2.6773319328,0.8973366700000001,3.31176112,-5.31327113,,,
imu,346.875014,-0.535346756,-9.562668813600002,2.680920849600001,0.8823828499999999,3.52859151,-5.53010152,,,
imu,346.883833,-0.5706377712,-9.5566872856,2.67673378,0.6954601,3.86505246,-5.79927028,,,
imu,346.892653,-0.6083213976,-9.554892827200002,2.67673378,0.33656842,4.30619015,-6.32265398,,,
imu,346.901472,-0.6101158560000001,-9.5459205352,2.670752252,0.36647606,4.717420199999999,-6.636684199999999,,,
imu,346.910292,-0.5951620360000001,-9.5184055064,2.641442764800001,0.25432241,5.36791137,-6.965668239999999,,,
imu,346.918908,-0.5837971328000001,-9.483712644000002,2.6324704728,0.47862971,6.02587945,-6.87594532,,,
imu,346.927524,-0.5676470072,-9.486105255200002,2.6324704728,0.65807555,6.83338573,-6.487145999999999,,,
imu,346.93614,-0.5347486032000001,-9.502255380800001,2.6330686256,0.78518302,7.52126145,-6.031054489999999,,,
imu,346.944756,-0.5012520464000001,-9.52558334,2.6324704728,1.15155161,8.05959897,-5.47028624,,,
imu,346.953373,-0.4821111568000001,-9.565061424800001,2.6372556952,1.33847436,8.71756705,-4.85717962,,,
imu,346.961989,-0.4492127528000001,-9.596165370400001,2.655798432,1.37585891,9.21852002,-4.25902682,,,
imu,346.970605,-0.3846122504,-9.612315496,2.6534058208,1.17398234,9.44282732,-3.93751969,,,
imu,346.979221,-0.3176191368,-9.6117173432,2.649816904,1.10669015,9.39796586,-3.60853565,,,
imu,346.987837,-0.2655798432,-9.592576453600001,2.659387348800001,0.5982602699999999,9.3531044,-3.43656672,,,
imu,346.996453,-0.2266999112,-9.589585689600002,2.6629762656,0.32909151,8.91196671,-3.3468438,,,
imu,347.005069,-0.1872218264,-9.594370912,2.6635744184,0.03749201999999999,8.16427571,-3.21225942,,,
imu,347.013685,-0.1656883256,-9.573435564,2.6522095152,-0.41112258,7.28947724,-3.07019813,,,
imu,347.022302,-0.1638938672,-9.557285438400001,2.655798432,-0.62047606,6.317478939999999,-3.03281358,,,
imu,347.030918,-0.182436604,-9.568052188800001,2.649816904,-0.874691,5.29314227,-3.02533667,,,
imu,347.039534,-0.2201202304,-9.568650341600001,2.655798432,-1.21115195,4.31366706,-3.01785976,,,
imu,347.04815,-0.2195220776,-9.553696521600001,2.6360593896,-1.63733582,3.40896095,-2.92065993,,,
imu,347.056766,-0.2225128416,-9.5249851872,2.6330686256,-1.78687402,2.57154703,-2.96552139,,,
imu,347.065382,-0.2542149400000001,-9.5148165896,2.631872320000001,-1.78687402,1.84628676,-2.81598319,,,
imu,347.073998,-0.2954874832,-9.517807353600002,2.6300778616,-1.83173548,1.07616503,-2.56924516,,,
imu,347.082614,-0.331974804,-9.520199964800002,2.6396483064,-1.8466893,0.47801223,-2.29259949,,,
imu,347.091231,-0.3714528888,-9.527975951200002,2.649816904,-1.74201256,0.08173599999999981,-1.90380017,,,
imu,347.099847,-0.3887993200000001,-9.528574104,2.6492187512,-1.8466893,-0.3220171400000003,-1.60472377,,,
imu,347.108463,-0.424688488,-9.52558334,2.6354612368,-1.68967419,-0.4266938800000002,-1.23835518,,,
imu,347.117079,-0.4743351704000001,-9.5184055064,2.6360593896,-1.58499745,-0.6510011800000002,-1.20844754,,,
imu,347.125406,-0.5000557408,-9.52558334,2.6312741672,-1.3233056,-0.4865091600000002,-1.11124771,,,
imu,347.133734,-0.5359449088000001,-9.5172092008,2.637853848,-1.23358268,-0.25472495,-1.05143243,,,
imu,347.142061,-0.5508987288,-9.5154147424,2.6282834032,-1.04665993,-0.0005100100000001717,-1.18601681,,,
imu,347.150389,-0.5736285352000001,-9.519601812000001,2.6282834032,-0.79244499,0.3882893099999998,-1.26826282,,,
imu,347.158716,-0.5903768136,-9.517807353600002,2.624694486400001,-0.54570696,0.7995193599999997,-1.50004703,,,
imu,347.167044,-0.5975546472000001,-9.5154147424,2.6163203472,-0.65786061,1.15841104,-1.81407725,,,
imu,347.175371,-0.6059287864000001,-9.5213962704,2.6240963336,-0.5756146,1.7266562,-1.99352309,,,
imu,347.183699,-0.61310662,-9.535153784800002,2.6223018752,-0.56066078,2.16031698,-2.32998404,,,
imu,347.192026,-0.6095177032000001,-9.547116840800001,2.6187129584,-0.7550604399999999,2.6986545,-2.58419898,,,
imu,347.200354,-0.5897786608000001,-9.523190728800001,2.615124041600001,-0.61299915,3.27437657,-2.77859864,,,
imu,347.208681,-0.56824516,-9.5004609224,2.606749902400001,-0.7550604399999999,3.72299117,-2.89075229,,,
imu,347.217009,-0.5676470072,-9.502255380800001,2.6145258888,-0.37373803,4.06692903,-3.04029049,,,
imu,347.225336,-0.5568802568000001,-9.4974701584,2.613329583200001,-0.29149202,4.216467229999999,-3.1225365,,,
imu,347.233664,-0.5275707696,-9.5327611736,2.606749902400001,-0.45598404,4.36600543,-3.36179762,,,
imu,347.241991,-0.5162058664000001,-9.5357519376,2.6043572912,-0.5008455,4.32114397,-3.39170526,,,
imu,347.250319,-0.502448352,-9.5357519376,2.6169185,-0.41112258,4.29871324,-3.36927453,,,
imu,347.258646,-0.4689517952000001,-9.535153784800002,2.6330686256,-0.62047606,4.149175039999999,-3.52628964,,,
imu,347.266974,-0.4581850448000001,-9.5219944232,2.624694486400001,-0.6279529699999999,4.01459066,-3.54872037,,,
imu,347.275301,-0.4486146000000001,-9.5004609224,2.6264889448,-0.5008455,3.9697292,-3.44404363,,,
imu,347.283629,-0.4372496968000001,-9.5004609224,2.640844612,-0.5980453299999999,3.55102224,-3.46647436,,,
imu,347.291956,-0.4420349192,-9.5040498392,2.6360593896,-0.7550604399999999,3.35662258,-3.42908981,,,
imu,347.300284,-0.4593813504000001,-9.512423978400001,2.6396483064,-0.53823005,3.05754618,-3.35432071,,,
imu,347.308611,-0.4474182944000001,-9.51062952,2.6510132096,-0.51579932,2.78837742,-3.30198234,,,
imu,347.316939,-0.4611758088,-9.520199964800002,2.6641725712,-0.44103022,2.60893158,-3.21225942,,,
imu,347.3254,-0.4773259344000001,-9.539939007200001,2.667761488,-0.50832241,2.30985518,-3.30198234,,,
imu,347.333861,-0.4898871432,-9.551902063200002,2.671350404800001,-0.35878421,2.03320951,-3.33188998,,,
imu,347.342322,-0.4868963792000001,-9.539939007200001,2.686902377600001,-0.54570696,1.98834805,-3.40665908,,,
imu,347.350783,-0.5144114080000001,-9.541135312800002,2.6821171552,-0.5307531400000001,1.95844041,-3.23469015,,,
imu,347.359244,-0.4958686712000001,-9.550705757600001,2.6803226968,-0.62047606,1.79394839,-3.18982869,,,
imu,347.367705,-0.4982612824000001,-9.5237888816,2.6719485576,-0.7401066199999999,1.71917929,-3.20478251,,,
imu,347.376166,-0.5078317272000001,-9.512423978400001,2.6773319328,-0.88964482,1.62197946,-3.18982869,,,
imu,347.384664,-0.5335522976000001,-9.498666464000001,2.6683596408,-0.9494601,1.56964109,-3.13001341,,,
imu,347.393125,-0.5437208952000001,-9.5213962704,2.6635744184,-0.58309151,1.64441019,-2.94309066,,,
imu,347.401586,-0.5359449088000001,-9.526779645600001,2.661779960000001,-0.52327623,1.56216418,-2.86832156,,,
imu,347.410047,-0.5610673264,-9.5172092008,2.6719485576,-0.65786061,1.45748744,-2.8234601,,,
imu,347.418508,-0.5760211464000001,-9.520798117600002,2.6761356272,-0.68776825,1.53973345,-2.6739219,,,
imu,347.426969,-0.5748248408000001,-9.533359326400001,2.6880986832,-0.68776825,1.59207182,-2.50942988,,,
imu,347.43543,-0.5897786608000001,-9.558481744000002,2.6910894472,-0.77001426,1.81637912,-2.33746095,,,
imu,347.443891,-0.61310662,-9.5842023144,2.6988654336,-0.84478336,2.01077878,-2.18792275,,,
imu,347.452352,-0.6154992312,-9.594370912,2.696472822400001,-1.01675229,2.48930102,-2.12063056,,,
imu,347.460813,-0.6065269392000001,-9.6015487456,2.703650656000001,-1.22610577,2.96782326,-1.91875399,,,
imu,347.469274,-0.5885823552,-9.574631869600001,2.7120247952,-1.41302852,3.39400713,-1.8514618,,,
imu,347.477735,-0.5748248408000001,-9.553696521600001,2.718604476,-1.56256672,3.90243701,-1.64210832,,,
imu,347.486196,-0.5520950344000001,-9.519003659200001,2.6988654336,-1.65228964,4.39591307,-1.44023175,,,
imu,347.494657,-0.5168040192000001,-9.4591883792,2.6863042248,-1.90650458,4.82209694,-1.4028472,,,
imu,347.503118,-0.4946723656000001,-9.4107380024,2.704248808800001,-1.8466893,5.2408039,-1.41032411,,,
imu,347.511579,-0.4701481008,-9.401167557600001,2.6910894472,-1.61490509,5.442680469999999,-1.49257012,,,
imu,347.52004,-0.4533998224,-9.404756474400001,2.6773319328,-1.43545925,5.592218669999999,-1.87389253,,,
imu,347.528863,-0.4234921824,-9.414925072,2.6719485576,-1.2485365,5.62960322,-2.18792275,,,
imu,347.537687,-0.3870048616000001,-9.426289975200001,2.671350404800001,-0.69524516,5.49501884,-2.39727623,,,
imu,347.54651,-0.3864067088000001,-9.4382530312,2.6970709752,-0.43355331,5.330526819999999,-2.41223005,,,
imu,347.555334,-0.385808556,-9.4526086984,2.6982672808,-0.17933837,5.22585008,-2.5243837,,,
imu,347.564157,-0.3846122504,-9.5148165896,2.7030525032,0.26179932,5.09874261,-2.44213769,,,
imu,347.572981,-0.4013605288,-9.5447242296,2.704248808800001,0.32909151,4.98658896,-2.38979932,,,
imu,347.581804,-0.3929863896,-9.543527924000001,2.706043267200001,0.6132140899999999,4.88191222,-2.34493786,,,
imu,347.590628,-0.3798270280000001,-9.5327611736,2.704248808800001,0.23189168,4.99406587,-2.38232241,,,
imu,347.599452,-0.3606861384,-9.516012895200001,2.6934820584,0.35152224,5.046404239999999,-2.17296893,,,
imu,347.608275,-0.3445360128,-9.516012895200001,2.678528238400001,0.56087572,4.96415823,-2.27016876,,,
imu,347.617099,-0.3343674152,-9.490292324800002,2.6635744184,0.5982602699999999,4.63517419,-2.50195297,,,
imu,347.625922,-0.3206099008000001,-9.437056725600002,2.6300778616,0.5982602699999999,4.26132869,-2.73373718,,,
imu,347.634746,-0.2913004136,-9.405952780000002,2.6217037224,0.94967504,3.85757555,-2.83093701,,,
imu,347.643569,-0.311039456,-9.404756474400001,2.624694486400001,1.12164397,3.5211146,-2.87579847,,,
imu,347.652393,-0.3116376088,-9.446627170400001,2.6145258888,1.39828964,3.08745382,-2.88327538,,,
imu,346.191909,,,,,,,-89.796174,186.519882,112.4954664
imu,346.293441,,,,,,,-89.94266040000001,186.2635308,113.8016368
imu,346.395095,,,,,,,-89.51540840000001,186.09263,113.447628
imu,346.497481,,,,,,,-89.6863092,185.8240716,113.26452
imu,346.598159,,,,,,,-89.9060388,186.4710532,113.2278984
imu,346.699691,,,,,,,-87.0373468,186.4466388,113.0081688
imu,346.801375,,,,,,,-89.47878680000001,186.39781,112.6419528
imu,346.902816,,,,,,,-87.53784200000001,185.0794324,110.762044
imu,347.661217,-0.3194135952000001,-9.48072188,2.625890792,1.62259694,2.48182411,-2.90570611,,,
imu,347.67004,-0.340947096,-9.495077547200001,2.6264889448,1.60764312,1.98834805,-2.95804448,,,
imu,347.678864,-0.3648732080000001,-9.5213962704,2.6372556952,1.65998149,1.59207182,-2.90570611,,,
imu,347.687687,-0.3959771536000001,-9.557883591200001,2.645629834400001,1.48801256,1.2780416,-2.78607555,,,
imu,347.696511,-0.4342589328000001,-9.627867468800002,2.6492187512,1.27118217,1.26308778,-2.60662971,,,
imu,347.705334,-0.4773259344000001,-9.6817012208,2.6755374744,0.8375213899999999,1.14345722,-2.63653735,,,
imu,347.714158,-0.5126169496,-9.724170069600001,2.6749393216,0.2468455,1.31542615,-2.90570611,,,
imu,347.722981,-0.5126169496,-9.749890640000002,2.6892949888,-0.15690764,1.59207182,-3.07767504,,,
imu,347.731459,-0.5311596864,-9.7534795568,2.6719485576,-0.81487572,1.92105586,-3.11505959,,,
imu,347.739936,-0.5538894928000001,-9.7128051664,2.6815190024,-1.44293616,2.30985518,-3.25712088,,,
imu,347.748414,-0.5467116592000001,-9.6667474008,2.673144863200001,-2.11585806,2.65379304,-3.54124346,,,
imu,347.756892,-0.5485061176,-9.6494009696,2.6701540992,-2.53456502,3.02016163,-3.54124346,,,
imu,347.765369,-0.5568802568000001,-9.636241608,2.6605836544,-2.70653395,3.38653022,-3.51881273,,,
imu,347.773847,-0.5443190480000001,-9.597361676,2.6581910432,-2.69158013,3.90991392,-3.44404363,,,
imu,347.782324,-0.5209910888,-9.541733465600002,2.659387348800001,-3.08037945,4.29871324,-3.36179762,,,
imu,347.790802,-0.5185984776000001,-9.5154147424,2.6665651824,-3.03551799,4.672558739999999,-3.14496723,,,
imu,347.799279,-0.4910834488,-9.4873015608,2.67673378,-2.96074889,4.91181986,-3.3468438,,,
imu,347.807757,-0.4827093096,-9.468758824,2.661779960000001,-2.87102597,5.12117334,-3.43656672,,,
imu,347.816234,-0.4390441552000001,-9.447225323200001,2.673144863200001,-2.50465738,5.263234629999999,-3.1973056,,,
imu,347.824712,-0.4210995712,-9.4490197816,2.6839116136,-2.49718047,5.15108098,-3.10010577,,,
imu,347.833189,-0.4151180432000001,-9.435262267200002,2.6863042248,-2.45979592,5.091265699999999,-3.07019813,,,
imu,347.841667,-0.4169125016,-9.4041583216,2.6683596408,-2.39998064,4.94920441,-3.10758268,,,
imu,347.850144,-0.4151180432000001,-9.401167557600001,2.6851079192,-2.22801171,4.79966621,-3.07767504,,,
imu,347.858622,-0.3989679176000001,-9.405952780000002,2.685706072000001,-1.80182784,4.478159079999999,-3.10010577,,,
imu,347.867099,-0.3941826952,-9.4137287664,2.6845097664,-1.33078251,4.16412886,-3.23469015,,,
imu,347.875577,-0.3977716120000001,-9.4286825864,2.6803226968,-0.9644139199999999,3.88748319,-3.4216129,,,
imu,347.884054,-0.4127254320000001,-9.430477044800002,2.6815190024,-0.89712173,3.41643786,-3.71321239,,,
imu,347.892532,-0.4300718632,-9.4316733504,2.6892949888,-0.55318387,3.20708438,-3.89265823,,,
imu,347.90101,-0.4533998224,-9.444832712,2.6934820584,-0.3513073,2.94539253,-4.0197657,,,
imu,347.909487,-0.4683536424000001,-9.4669643656,2.7084358784,0.14964567,2.76594669,-3.90761205,,,
imu,347.917965,-0.5168040192000001,-9.502853533600002,2.7150155592,0.20946095,2.63136231,-3.97490424,,,
imu,347.926442,-0.5413282840000001,-9.522592576000001,2.7347546016,0.21693786,2.64631613,-4.0945348,,,
imu,347.934897,-0.5592728680000001,-9.536948243200001,2.733558296,0.26179932,2.87062343,-4.16182699,,,
imu,347.943351,-0.6208826064000001,-9.556089132800002,2.7401379768,0.25432241,3.16222292,-3.98238115,,,
imu,347.951806,-0.6705292888000001,-9.553098368800002,2.730567532,0.10478421,3.56597606,-4.17678081,,,
imu,347.960261,-0.6466031768,-9.547714993600001,2.725184156800001,0.08235347999999998,4.216467229999999,-4.3936112,,,
imu,347.968715,-0.6436124128,-9.555490980000002,2.731165684800001,-0.19429219,4.98658896,-4.50576485,,,
imu,347.97717,-0.6424161072,-9.553696521600001,2.7221933928,-0.29149202,5.59969558,-4.52071867,,,
imu,347.985625,-0.6519865520000001,-9.550705757600001,2.7150155592,-0.41859949,6.13055619,-4.58801086,,,
imu,347.994079,-0.6376308848000001,-9.52558334,2.7162118648,-0.38121494,6.69880135,-4.602964679999999,,,
imu,348.002534,-0.6149010784000001,-9.5148165896,2.7120247952,-0.31392275,7.267046509999999,-4.61044159,,,
imu,348.010989,-0.6059287864000001,-9.502255380800001,2.694678364,-0.25410747,7.71566111,-4.66277996,,,
imu,348.019443,-0.6029380224,-9.5184055064,2.704248808800001,-0.15690764,8.05959897,-4.715118329999999,,,
imu,348.027898,-0.6119103144000001,-9.514218436800002,2.7030525032,-0.2765382,8.44839829,-4.77493361,,,
imu,348.036352,-0.5915731192000001,-9.528574104,2.694678364,-0.41859949,8.84467452,-4.954379449999999,,,
imu,348.044807,-0.5963583416000001,-9.528574104,2.6928839056,-0.26158438,9.10636637,-4.87213344,,,
imu,348.053262,-0.6268641344,-9.527975951200002,2.6988654336,-0.47093786,9.39796586,-5.01419473,,,
imu,348.061716,-0.6956517064000001,-9.5357519376,2.701856197600001,-0.48589168,9.9512572,-5.05157928,,,
imu,348.070171,-0.7722152648000001,-9.558481744000002,2.7108284896,-0.65786061,10.84100949,-5.0665331,,,
imu,348.078626,-0.8368157672000002,-9.551902063200002,2.692285752800001,-0.92702937,11.86534616,-5.20111748,,,
imu,348.08708,-0.9169682424000002,-9.5154147424,2.6928839056,-1.09152139,13.25605142,-5.46280933,,,
imu,348.095535,-1.0102800792,-9.51062952,2.7012580448,-1.09152139,15.06546364,-5.83665483,,,
imu,348.10399,-1.0844510264,-9.536350090400001,2.6934820584,-1.05413684,17.39825956,-5.97871612,,,
imu,348.112444,-1.145462612,-9.549509452,2.7030525032,-1.0242292,20.29182373,-6.08339286,,,
imu,348.120899,-1.2190354064,-9.588987536800001,2.7048469616,-1.23358268,23.53680267,-5.97871612,,,
imu,348.129353,-1.2507375048,-9.645213900000002,2.7257823096,-1.36069015,26.56495122,-5.97123921,,,
imu,348.137877,-1.2848322144,-9.761853696000001,2.780812367200001,-1.80930475,29.84731471,-6.532007459999999,,,
imu,348.1464,-1.3500308696,-9.925747563200002,2.8693389816,-2.46727283,33.30912404,-7.24231391,,,
imu,348.154923,-1.4457353176,-10.1703920584,2.957865596,-4.11219303,36.81579482999999,-8.38628114,,,
imu,348.163447,-1.5276822512,-10.3982882752,2.9746138744,-6.878649729999999,40.53929600999999,-10.20317027,,,
imu,348.17197,-1.531271168,-10.4575054024,2.889676176800001,-10.5199049,44.60673505,-12.73784276,,,
imu,348.180493,-1.4307814976,-10.2918170768,2.7526991856,-14.11629861,48.78632774,-15.26503834,,,
imu,348.189017,-1.2692802416,-9.955655203200001,2.668957793600001,-17.20426244,52.63693639,-17.51558825,,,
imu,348.19754,-1.1388829312,-9.624278552000002,2.6330686256,-19.17068977,55.92677679,-19.23527755,,,
imu,348.206063,-1.0156634544,-9.4113361552,2.5744496512,-19.74641184,58.64837203,-20.71570573,,,
imu,348.214587,-0.9121830200000002,-9.259405344000001,2.545140164,-19.18564359,60.91387576,-21.54564274,,,
imu,348.22311,-0.8164785720000002,-9.160710132,2.5403549416,-17.80241524,62.65599579,-21.9643497,,,
imu,348.231633,-0.7129981376000001,-9.081155809600002,2.5678699704,-16.16497195,63.95697813,-21.98678043,,,
imu,348.240156,-0.6507902464,-9.027920210400001,2.592992388,-14.46023647,64.80934587,-22.06902644,,,
imu,348.24868,-0.5796100632000001,-9.0189479184,2.6450316816,-12.24707111,65.31777575,-21.85967296,,,
imu,348.257203,-0.502448352,-9.039285113600002,2.706043267200001,-10.4451358,65.3551603,-21.71761167,,,
imu,348.265726,-0.4432312248,-9.0614167672,2.7239878512,-8.845077060000001,65.07851463,-21.82228841,,,
imu,348.27425,-0.4055475984,-9.0572296976,2.7562881024,-7.31978742,64.6074693,-21.45591982,,,
imu,348.282773,-0.340947096,-9.050051864,2.8214867576,-6.09357418,63.84482448,-20.88767466,,,
imu,348.291296,-0.2685706072,-9.097904088000002,2.877114968,-4.78511493,62.99245673999999,-20.26709113,,,
imu,348.29982,-0.248233412,-9.160710132,2.9046299968,-3.74582444,61.89335096999999,-19.75866125,,,
imu,348.308343,-0.2320832864,-9.194206688800001,2.9159949,-2.90841052,60.57741480999999,-19.26518519,,,
imu,348.316866,-0.221316536,-9.216338342400002,2.96085636,-2.20558098,59.149325,-18.68946312,,,
imu,348.32539,-0.1896144376,-9.2312921624,2.987773236,-1.66724346,57.7287121,-18.18103324,,,
imu,348.333913,-0.1650901728,-9.282135150400002,3.0188771816,-1.35321324,56.11369954,-17.87447993,,,
imu,348.342319,-0.1746606176,-9.346137500000001,3.0134938064,-0.80739881,54.30428731999999,-17.52306516,,,
imu,348.350725,-0.16449202,-9.364680236800002,3.02067164,-0.34383039,52.69675167,-17.26137331,,,
imu,348.359132,-0.1620994088,-9.357502403200002,3.0284476264,-0.16438455,50.9994931,-16.95482,,,
imu,348.367538,-0.1393696024,-9.361689472800002,3.0320365432,0.18703022,49.46672655,-16.25199046,,,
imu,348.375944,-0.1232194768,-9.389204501600002,3.0481866688,0.49358353,47.59002213999999,-15.49682255,,,
imu,348.384351,-0.1190324072,-9.416121377600001,3.0469903632,0.82256757,45.75070228,-14.75660846,,,
imu,348.392757,-0.1130508792,-9.429280739200001,3.078094308800001,0.63564482,44.00110534,-13.82199471,,,
imu,348.401163,-0.1082656568,-9.471749588000002,3.134320672,0.3739529699999999,42.52815407,-12.44624327,,,
imu,348.40957,-0.09151737840000002,-9.5148165896,3.154059714400001,-0.2765382,40.81594167999999,-10.78636925,,,
imu,348.417976,-0.08254508640000002,-9.534555632000002,3.170209840000001,-0.71767589,39.02148328,-9.11154141,,,
imu,348.426382,-0.0723764888,-9.533957479200001,3.198323021600001,-1.50275144,37.28684016,-7.840466709999999,,,
imu,348.434789,-0.0370854736,-9.483712644000002,3.1743969096,-2.04856587,35.38770502,-6.644161110000001,,,
imu,348.443195,-0.0185427368,-9.4244955168,3.170209840000001,-2.37754991,33.24930876,-5.55253225,,,
imu,348.451601,-0.007177833600000002,-9.373054376,3.1576486312,-2.19062716,31.2604507,-4.670256869999999,,,
imu,348.460008,-0.0197390424,-9.325202152000001,3.1438911168,-2.06351969,29.08466989,-3.93751969,,,
imu,348.468414,-0.0107667504,-9.295294512000002,3.1307317552,-1.59247436,26.96122745,-3.25712088,,,
imu,347.004378,,,,,,,-90.16238999999999,186.2635308,113.2278984
imu,347.108352,,,,,,,-90.40653400000001,185.0794324,110.0174048
imu,347.207534,,,,,,,-90.10135400000001,185.7508284,113.203484
imu,347.309096,,,,,,,-90.1379756,186.1292516,112.5809168
imu,347.410628,,,,,,,-90.51639879999999,185.7142068,112.9837544
imu,347.512191,,,,,,,-90.27225480000001,185.7508284,112.471052
imu,347.613784,,,,,,,-90.27225480000001,185.8606932,112.9471328
imu,347.715346,,,,,,,-87.89185079999999,185.1404684,111.9705568
imu,348.476712,-0.004187069600000001,-9.280938844800001,3.119366852000001,-0.92702937,24.83778501,-2.91318302,,,
imu,348.485118,0.002990764,-9.2935000536,3.133124366400001,-0.38121494,22.8115424,-2.70382954,,,
imu,348.493524,0.0143556672,-9.337165208000002,3.1301336024,-0.07466163,20.66566923,-2.58419898,,,
imu,348.501931,0.0011963056,-9.3868118904,3.1068056432,0.26927623,18.58708825,-2.56924516,,,
imu,348.510337,-0.0275150288,-9.431075197600002,3.1169742408,0.44124516,16.53841491,-2.49447606,,,
imu,348.518743,-0.0430670016,-9.4555994624,3.104413032,0.26927623,14.63927977,-2.65149117,,,
imu,348.52715,-0.04964668240000001,-9.5004609224,3.0900573648,0.07487657,12.88220592,-2.77112173,,,
imu,348.535556,-0.05443190480000001,-9.519601812000001,3.086468448,-0.09709236,11.17747044,-2.65896808,,,
imu,348.544386,-0.0747691,-9.5040498392,3.092449976,-0.52327623,9.577411699999999,-2.71130645,,,
imu,348.553216,-0.08912476720000001,-9.4801237272,3.079290614400001,-0.97189083,8.2315679,-2.6739219,,,
imu,348.562047,-0.1130508792,-9.474142199200001,3.0547663496,-1.21862886,6.92310865,-2.46456842,,,
imu,348.570877,-0.1303973104,-9.4346641144,3.05057928,-1.12142903,5.704372319999999,-2.13558438,,,
imu,348.579707,-0.1740624648,-9.4454308648,3.073309086400001,-1.16629049,4.58283582,-1.6271545,,,
imu,348.588537,-0.206362716,-9.475936657600002,3.0828795312,-1.2485365,3.48373005,-1.35050883,,,
imu,348.597367,-0.212344244,-9.4962738528,3.0703183224,-1.25601341,2.57154703,-1.33555501,,,
imu,348.606197,-0.2189239248,-9.456197615200002,3.051775585600001,-1.55508981,1.73413311,-1.22340136,,,
imu,348.615028,-0.2488315648,-9.401765710400001,3.056560808,-1.6971511,1.02382666,-1.12620153,,,
imu,348.623858,-0.2554112456,-9.364680236800002,3.054168196800001,-1.63733582,0.5303505999999998,-0.9542325999999999,,,
imu,348.632688,-0.2667761488000001,-9.364082084000001,3.0631404888,-1.28592105,-0.09023292999999999,-0.8495558599999999,,,
imu,348.641518,-0.2560093984,-9.3688673064,3.061346030400001,-1.00927538,-0.5313706200000001,-0.8495558599999999,,,
imu,348.650348,-0.2566075512,-9.3802322096,3.0739072392,-0.54570696,-1.1145696,-0.7822636699999999,,,
imu,348.659179,-0.2308869808,-9.3718580704,3.080486920000001,-0.17186146,-1.65290712,-0.74487912,,,
imu,348.668009,-0.2201202304,-9.349726416800001,3.0828795312,-0.007369440000000005,-2.22115228,-0.7822636699999999,,,
imu,348.676839,-0.2105497856,-9.339557819200001,3.083477684,0.01506129,-2.91650491,-0.8944173199999998,,,
imu,348.685669,-0.1938015072,-9.344941194400002,3.0930481288,0.18703022,-3.5819499,-0.7897405799999999,,,
imu,348.694499,-0.1758569232,-9.3628857784,3.086468448,0.59078336,-4.37450236,-0.74487912,,,
imu,348.70333,-0.16449202,-9.3862137376,3.073309086400001,0.64312173,-5.152101,-0.55047946,,,
imu,348.71216,-0.1620994088,-9.393391571200002,3.074505392,0.65059864,-6.16148385,-0.3112183399999999,,,
imu,348.72099,-0.1513326584,-9.377241445600001,3.0703183224,0.9272443100000001,-6.998897769999999,-0.11681868,,,
imu,348.72982,-0.146547436,-9.3838211264,3.061944183200001,1.13659779,-7.79892714,0.1149655300000001,,,
imu,348.73865,-0.1220231712,-9.404756474400001,3.0679257112,1.15902852,-8.82326381,0.3766573800000002,,,
imu,348.747117,-0.1052748928,-9.4424401008,3.0661312528,1.38333582,-9.94480031,0.6233954100000001,,,
imu,348.755583,-0.0933118368,-9.4591883792,3.0583552664,1.4431511,-11.14858282,0.7953643399999999,,,
imu,348.764049,-0.0753672528,-9.468160671200001,3.0451959048,1.40576655,-12.35984224,0.97481018,,,
imu,348.772515,-0.0693857248,-9.48072188,3.0643367944,1.24127453,-13.66082458,1.33370186,,,
imu,348.780981,-0.03887993200000001,-9.5172092008,3.0691220168,0.8674290299999999,-15.19359113,1.5131477,,,
imu,348.789447,0.0,-9.535153784800002,3.053570044,0.68798319,-16.68149622,1.69259354,,,
imu,348.797913,0.023926112,-9.520798117600002,3.038616224000001,0.26179932,-18.29650878,1.93185466,,,
imu,348.806379,0.0191408896,-9.513022131200001,3.0410088352,0.08235347999999998,-20.06105954,2.37299235,,,
imu,348.814845,-0.0023926112,-9.524387034400002,3.0547663496,-0.56066078,-21.9003794,2.75431476,,,
imu,348.823311,0.007177833600000002,-9.507040603200002,3.0368217656,-0.7550604399999999,-23.62754561,3.03843734,,,
imu,348.831777,0.0370854736,-9.507040603200002,3.012895653600001,-1.0242292,-25.33228109,3.34499065,,,
imu,348.840243,0.0281131816,-9.499264616800001,3.008708584,-1.27844414,-27.23141623,3.6814516,,,
imu,348.84871,0.0005981528000000001,-9.499264616800001,3.0045215144,-1.35321324,-29.17541283,4.00295873,,,
imu,348.857176,0.0005981528000000001,-9.492684936000002,2.9853806248,-1.74948947,-31.13436325,4.01791255,,,
imu,348.865642,-0.007775986400000001,-9.462777296000002,2.9931566112,-1.70462801,-32.98116002,4.16745075,,,
imu,348.874108,-0.03887993200000001,-9.461580990400002,2.991960305600001,-1.98127368,-34.7606646,4.25717367,,,
imu,348.882574,-0.0813487808,-9.459786532,2.999736292,-1.96631986,-36.51773845,4.249696759999999,,,
imu,348.89104,-0.1178361016,-9.4831144912,2.9931566112,-2.22801171,-37.87105916,4.21231221,,,
imu,348.899506,-0.1650901728,-9.4944793944,2.9835861664,-2.42988828,-39.23933369,4.010435640000001,,,
imu,348.907972,-0.2266999112,-9.463973601600001,2.9811935552,-2.77382614,-40.51040839,3.9057589,,,
imu,348.916438,-0.2607946208,-9.434065961600002,2.9901658472,-2.98317962,-41.57960652,3.77865143,,,
imu,348.924904,-0.3295821928000001,-9.4244955168,2.9871750832,-3.31964057,-42.34972825,3.64406705,,,
imu,348.93337,-0.4384460024000001,-9.4137287664,2.9871750832,-3.1925331,-42.94040414,3.59920559,,,
imu,348.941836,-0.5329541448,-9.399971252000002,2.981791708,-3.20001001,-43.02265015,3.27769846,,,
imu,348.950297,-0.6101158560000001,-9.401167557600001,3.0069141256,-3.20001001,-42.84320431,2.79917622,,,
imu,348.958758,-0.6812960392000001,-9.414326919200002,3.011699348,-3.29720984,-42.3871128,1.98419303,,,
imu,348.967219,-0.7399150136000001,-9.420906600000002,3.0158864176,-3.42431731,-41.70671399,1.12434838,,,
imu,348.97568,-0.8039173632000001,-9.423299211200002,3.041606988,-3.4916095,-40.80200788,0.1074886200000003,,,
imu,348.984141,-0.8703123240000001,-9.4244955168,3.0493829744,-3.43179422,-39.74028666,-1.1037708,,,
imu,348.992602,-0.9283331456000001,-9.4173176832,3.0481866688,-3.48413259,-38.40191977,-2.35241477,,,
imu,349.001063,-0.9600352440000001,-9.388008196000001,3.061944183200001,-3.59628624,-36.90653777,-3.59358183,,,
imu,349.009524,-0.9857558144000002,-9.361689472800002,3.063738641600001,-3.6411477,-35.31395594,-4.7674567,,,
imu,349.017985,-1.0222431352,-9.335370749600001,3.080486920000001,-3.70096298,-33.42977462,-5.86656247,,,
imu,349.026446,-1.0270283576,-9.322809540800002,3.084673989600001,-3.35702512,-31.6203624,-6.816130039999999,,,
imu,349.034907,-1.0455710944,-9.307257568,3.1026185736,-3.23739456,-29.73618108,-7.623636319999999,,,
imu,349.043368,-1.055739692,-9.328192916,3.137311436000001,-2.90841052,-28.03892251,-8.22178912,,,
imu,349.051829,-1.0593286088,-9.3694654592,3.136115130400001,-2.71401086,-26.44634068,-8.42366569,,,
imu,349.06029,-1.0623193728,-9.398176793600001,3.159443089600001,-2.75887232,-24.86123576,-8.29655822,,,
imu,349.068751,-1.0772731928,-9.405354627200001,3.166022770400001,-2.51213429,-23.3209923,-7.6834516,,,
imu,349.077212,-1.0922270128,-9.404756474400001,3.1654246176,-2.60185721,-22.02748687,-6.816130039999999,,,
imu,349.085673,-1.10658268,-9.3927934184,3.1528634088,-2.61681103,-20.61435088,-5.73197809,,,
imu,349.094134,-1.1215365,-9.3802322096,3.1630320064,-2.24296553,-19.39561455,-4.50576485,,,
imu,349.102595,-1.1460607648,-9.376045140000002,3.1558541728,-2.16819643,-18.30398569,-3.47395127,,,
imu,349.111056,-1.1592201264,-9.370063612000001,3.149274492,-2.15324261,-17.30955666,-2.65149117,,,
imu,349.119517,-1.1652016544,-9.364680236800002,3.142694811200001,-1.93641222,-16.24783544,-1.7766927,,,
imu,349.127978,-1.1831462384,-9.355109792000002,3.1504707976,-1.96631986,-15.20854495,-1.16358608,,,
imu,349.136439,-1.214250184,-9.3658765424,3.154059714400001,-2.06351969,-14.21411592,-0.6402023799999998,,,
imu,349.1449,-1.2298021568,-9.399971252000002,3.143292964,-2.25791935,-13.27950217,-0.3560797999999998,,,
imu,349.153351,-1.235185532,-9.435262267200002,3.1534615616,-2.62428794,-12.26264241,-0.37103362,,,
imu,349.161802,-1.2315966152,-9.4496179344,3.142694811200001,-3.20001001,-11.0588599,-0.5654332799999999,,,
imu,349.170253,-1.2357836848,-9.4286825864,3.1379095888,-3.28225602,-9.92984649,-0.7897405799999999,,,
imu,349.178704,-1.2268113928,-9.402363863200002,3.142694811200001,-3.89536264,-8.86064836,-1.20844754,,,
imu,349.187155,-1.2268113928,-9.376045140000002,3.1450874224,-4.12714685,-7.88117315,-1.59724686,,,
imu,349.195606,-1.2268113928,-9.353913486400002,3.146283728,-4.10471612,-6.96899013,-1.94866163,,,
imu,349.204057,-1.2196335592,-9.328192916,3.164228312,-3.9402241,-5.94465346,-2.35241477,,,
imu,349.212508,-1.214250184,-9.2929019008,3.1618357008,-3.760778259999999,-5.054901170000001,-2.58419898,,,
imu,349.220959,-1.1945111416,-9.260601649600002,3.186958118400001,-3.45422495,-4.29225635,-3.03281358,,,
imu,349.22941,-1.2070723504,-9.2510312048,3.2013137856,-3.07290254,-3.56699608,-3.41413599,,,
imu,349.237861,-1.2076705032,-9.24146076,3.206099008,-2.72148777,-2.8342589,-3.6459202,,,
imu,349.246312,-1.199296364,-9.224712481600001,3.2168657584,-2.26539626,-2.04918335,-3.68330475,,,
imu,349.254762,-1.184342544,-9.214543884000001,3.238399259200001,-1.92893531,-1.46598437,-3.80293531,,,
imu,349.263213,-1.1867351552,-9.228301398400001,3.2557456904,-0.91207555,-0.7781086500000001,-3.57862801,,,
imu,349.271664,-1.18135178,-9.2169364952,3.2641198296,-0.53823005,-0.1575251200000003,-3.48142818,,,
imu,349.280115,-1.1580238208,-9.224712481600001,3.27488658,-0.15690764,0.33595094,-3.54124346,,,
imu,349.288566,-1.13649032,-9.2312921624,3.2790736496,0.13469185,0.8219500899999996,-3.51133582,,,
imu,347.816749,,,,,,,-90.45536279999999,185.78745,112.7274032
imu,347.918311,,,,,,,-88.1115804,184.993982,110.2249272
imu,348.019996,,,,,,,-90.4309484,185.5921348,112.226908
imu,348.121436,,,,,,,-90.5530204,186.0804228,111.0794312
imu,348.223029,,,,,,,-92.73810920000001,185.9339364,110.8719088
imu,348.324683,,,,,,,-94.8133332,185.9827652,108.6135768
imu,348.426734,,,,,,,-96.24157559999999,186.1048372,107.3928568
imu,348.527686,,,,,,,-96.97400760000001,186.336774,106.6482176
imu,349.297017,-1.139481084,-9.211553120000001,3.2647179824,0.49358353,1.34533379,-3.1973056,,,
imu,349.305468,-1.1478552232,-9.229497704000002,3.2826625664,0.9272443100000001,1.59207182,-2.87579847,,,
imu,349.313919,-1.1293124864,-9.2617979552,3.302999761600001,1.24875144,1.88367131,-2.87579847,,,
imu,349.32237,-1.127518028,-9.294098206400001,3.283858872000001,1.54035093,2.33228591,-2.77859864,,,
imu,349.330821,-1.094619624,-9.3246039992,3.2904385528,1.68988913,2.6238854,-2.6739219,,,
imu,349.339272,-1.0748805816,-9.352717180800001,3.2940274696,1.65250458,2.73603905,-2.58419898,,,
imu,349.347723,-1.073684276,-9.378437751200002,3.2946256224,1.5179202,3.02016163,-2.3000764,,,
imu,349.356174,-1.0742824288,-9.399971252000002,3.2802699552,1.45062801,3.12483837,-1.91875399,,,
imu,349.364623,-1.0521507752,-9.405354627200001,3.2784754968,1.25622835,3.48373005,-1.55986231,,,
imu,349.373073,-1.028822816,-9.419112141600001,3.2653161352,1.01696723,3.56597606,-1.36546265,,,
imu,349.381522,-1.0066911624,-9.418513988800001,3.268905052,0.65059864,3.73046808,-0.9766633299999998,,,
imu,349.389972,-0.9827650504000001,-9.4215047528,3.2581383016,0.3739529699999999,3.92486774,-0.57291019,,,
imu,349.398421,-0.9642223136000001,-9.435860420000001,3.2413900232,0.04496892999999999,3.90991392,-0.37851053,,,
imu,349.406871,-0.9432869656,-9.441841948000002,3.2366048008,-0.26158438,3.70803735,-0.3635567099999999,,,
imu,349.415321,-0.9319220624000001,-9.408943544000001,3.2264362032,-0.6503837,3.68560662,-0.3336490699999999,,,
imu,349.42377,-0.9217534648000001,-9.382026668000002,3.2186602168,-0.78496808,3.47625314,-0.3336490699999999,,,
imu,349.43222,-0.9151737840000002,-9.3832229736,3.210286077600001,-0.97189083,3.30428421,-0.37851053,,,
imu,349.440669,-0.9079959504000001,-9.372456223200002,3.2072953136,-0.91207555,2.99025399,-0.3934643499999999,,,
imu,349.449119,-0.8954347416000001,-9.356306097600001,3.194135952000001,-0.8821679099999999,2.71360832,-0.3112183399999999,,,
imu,349.457568,-0.885266144,-9.3455393472,3.1833692016,-0.91207555,2.56407012,-0.2214954199999999,,,
imu,349.466018,-0.8589474208000002,-9.328791068800001,3.1827710488,-0.85973718,2.51173175,-0.02709575999999991,,,
imu,349.474467,-0.8416009896000001,-9.3060612624,3.164228312,-0.68776825,2.19770153,0.0626271599999999,,,
imu,349.482917,-0.8332268504000001,-9.283331456,3.149274492,-0.71767589,1.82385603,0.2121653600000002,,,
imu,349.491366,-0.8260490168000001,-9.269573941600001,3.1420966584,-0.73262971,1.50982581,0.32431901,,,
imu,349.499816,-0.8122915024000001,-9.260601649600002,3.1211613104,-0.26158438,1.14345722,0.54862631,,,
imu,349.508266,-0.7931506128000001,-9.269573941600001,3.1247502272,0.25432241,0.84438082,0.81031816,,,
imu,349.516715,-0.7775986400000001,-9.266583177600001,3.121759463200001,0.64312173,0.4929660499999997,1.09444074,,,
imu,349.525165,-0.7674300424000001,-9.2755554696,3.12534838,1.04687487,0.2312741999999997,1.27388658,,,
imu,349.533614,-0.7614485144,-9.306659415200002,3.128339144,1.23379762,-0.4042631500000002,1.42342478,,,
imu,349.542064,-0.7602522088000001,-9.332978138400001,3.128937296800001,1.63755076,-0.88278539,1.5131477,,,
imu,349.550513,-0.7590559032000002,-9.3592968616,3.1456855752,1.9665348,-1.39121527,1.46828624,,,
imu,349.558963,-0.771617112,-9.380830362400001,3.1444892696,1.77213514,-1.85478369,1.40847096,,,
imu,349.567868,-0.7865709320000001,-9.406550932800002,3.1319280608,1.74970441,-2.37816739,1.18416366,,,
imu,349.576755,-0.7973376824000001,-9.4250936696,3.1229557688,1.68241222,-2.69967452,0.9673332700000001,,,
imu,349.585643,-0.8200674888,-9.425691822400001,3.122357616,1.368382,-2.88659727,0.6981645100000002,,,
imu,349.59453,-0.840404684,-9.4454308648,3.1259465328,1.09921324,-3.01370474,0.4738572100000003,,,
imu,349.603417,-0.8816772272000001,-9.451412392800002,3.1145816296,0.7403215599999999,-3.09595075,0.10001171,,,
imu,349.612304,-0.9044070336000001,-9.4555994624,3.09544074,0.620691,-3.09595075,-0.2065416,,,
imu,349.621192,-0.9044070336000001,-9.446627170400001,3.084673989600001,0.47862971,-2.77444362,-0.31869525,,,
imu,349.630079,-0.9187627008000002,-9.435860420000001,3.0852721424,0.40386061,-2.42302885,-0.5280487299999999,,,
imu,349.638966,-0.9474740352000001,-9.441841948000002,3.0816832256,0.2468455,-2.12395245,-0.51309491,,,
imu,349.647853,-0.9594370912000001,-9.4526086984,3.0876647536,0.14964567,-1.51084583,-0.5654332799999999,,,
imu,349.656741,-0.9702038416000002,-9.4591883792,3.0948425872,0.13469185,-0.9351237599999997,-0.73740221,,,
imu,349.665628,-0.9540537160000001,-9.474740352000001,3.1050111848,-0.06718472,-0.3668786000000002,-0.9318018699999999,,,
imu,349.674515,-0.9367072848000002,-9.483712644000002,3.1091982544,-0.14195382,0.2387511099999999,-1.01404788,,,
imu,349.683402,-0.9385017432000002,-9.464571754400001,3.109796407200001,-0.32139966,0.7770886299999997,-1.06638625,,,
imu,349.69229,-0.9271368400000001,-9.436458572800001,3.122357616,-0.70272207,1.4275798,-1.05143243,,,
imu,349.701177,-0.9067996448000001,-9.426289975200001,3.1301336024,-0.7999219,1.89114822,-1.21592445,,,
imu,349.710064,-0.8996218112000001,-9.402962016000002,3.1115908656,-1.04665993,2.35471664,-1.38041647,,,
imu,349.718951,-0.8930421304000001,-9.360493167200001,3.1157779352,-1.19619813,2.78837742,-1.41780102,,,
imu,349.727839,-0.8960328944000001,-9.329389221600001,3.1199650048,-1.31582869,3.13231528,-1.67201596,,,
imu,349.736726,-0.8918458248000001,-9.319220624000002,3.1277409912,-1.24105959,3.4463455,-1.97109236,,,
imu,349.745613,-0.8750975464000001,-9.315033554400001,3.133124366400001,-1.0242292,3.86505246,-2.03090764,,,
imu,349.7545,-0.8810790744000001,-9.2970889704,3.140302200000001,-0.68776825,4.20151341,-2.03090764,,,
imu,349.763388,-0.8733030880000001,-9.266583177600001,3.1414985056,-0.3513073,4.50806672,-1.97109236,,,
imu,349.771803,-0.8637326432000001,-9.232488468000001,3.1379095888,0.04496892999999999,4.8669584,-1.79912343,,,
imu,349.780218,-0.8589474208000002,-9.231890315200001,3.1438911168,0.53096808,5.03145042,-1.68696978,,,
imu,349.788633,-0.8433954480000001,-9.252227510400001,3.143292964,1.28613599,5.22585008,-1.67201596,,,
imu,349.797048,-0.8248527112,-9.2510312048,3.149274492,1.97401171,5.3903421,-1.61220068,,,
imu,349.805464,-0.8057118216000001,-9.254021968800002,3.1438911168,2.37776485,5.45015738,-1.88884635,,,
imu,349.813879,-0.7925524600000001,-9.2546201216,3.136115130400001,3.05816366,5.22585008,-2.05333837,,,
imu,349.822294,-0.7799912512000001,-9.294696359200001,3.1355169776,3.49182444,4.96415823,-2.38232241,,,
imu,349.830709,-0.7811875568000001,-9.330585527200002,3.12534838,3.74603938,4.762281659999999,-2.64401426,,,
imu,349.839125,-0.7728134176000001,-9.380830362400001,3.1319280608,3.88062376,4.70246638,-2.95056757,,,
imu,349.84754,-0.7758041816000001,-9.438851184,3.1181705464,3.79090084,4.59031273,-3.17487487,,,
imu,349.855955,-0.7841783208,-9.4753385048,3.1109927128,3.51425517,4.30619015,-3.43656672,,,
imu,349.86437,-0.7668318896,-9.507040603200002,3.1145816296,3.21517877,4.08188285,-3.69078166,,,
imu,349.872785,-0.7620466672,-9.5357519376,3.0996278096,2.87124091,3.87252937,-3.85527368,,,
imu,349.881201,-0.7775986400000001,-9.5566872856,3.096038892800001,2.47496468,3.58840679,-4.06462716,,,
imu,349.889616,-0.7853746264000001,-9.543527924000001,3.0936462816,1.86185806,3.47625314,-4.19921154,,,
imu,349.898031,-0.780589404,-9.546518688,3.0936462816,1.27865908,3.24446893,-4.4683803,,,
imu,349.906446,-0.7919543072000002,-9.550705757600001,3.0882629064,0.82256757,2.97530017,-4.453426479999999,,,
imu,349.914862,-0.804515516,-9.5381445488,3.068523864000001,0.20198404,2.86314652,-4.37118047,,,
imu,349.923277,-0.8158804192000001,-9.514218436800002,3.0679257112,-0.22419983,2.6238854,-4.19173463,,,
imu,349.931692,-0.8236564056000001,-9.479525574400002,3.054168196800001,-0.44103022,2.51920866,-3.91508896,,,
imu,349.940107,-0.8374139200000001,-9.444234559200002,3.0439995992,-0.7251528,2.46687029,-3.56367419,,,
imu,349.948522,-0.8445917536,-9.4250936696,3.0487848216,-0.95693701,2.39210119,-3.26459779,,,
imu,349.956938,-0.8493769760000001,-9.402363863200002,3.029045779200001,-0.94198319,2.42948574,-2.83093701,,,
imu,349.965353,-0.8739012408000001,-9.367072848000001,3.024260556800001,-0.88964482,2.40705501,-2.54681443,,,
imu,349.973813,-0.8828735328,-9.346137500000001,3.020073487200001,-1.04665993,2.324809,-2.25521494,,,
imu,349.982272,-0.8834716856000001,-9.330585527200002,3.0099048896,-0.92702937,2.42200883,-2.001,,,
imu,349.990732,-0.8876587552000001,-9.321613235200001,2.999736292,-0.5756146,2.60145467,-1.65706214,,,
imu,349.999192,-0.8996218112000001,-9.304864956800001,2.997941833600001,-0.28401511,2.67622377,-1.5523854,,,
imu,348.629249,,,,,,,-97.0472508,186.3733956,106.2942088
imu,348.731086,,,,,,,-96.76648519999999,186.4222244,106.24538
imu,348.832404,,,,,,,-94.0320724,185.3357836,104.3654712
imu,348.933936,,,,,,,-95.36265720000002,186.031594,108.8455136
imu,349.035529,,,,,,,-91.96905559999999,185.3113692,107.3806496
imu,349.137092,,,,,,,-93.6048204,185.8240716,110.9573592
imu,349.238807,,,,,,,-93.1653612,186.0193868,110.7986656
imu,349.348029,,,,,,,-92.90901000000001,185.48227,111.2381248
imu,349.44948,,,,,,,-93.0677036,185.9583508,111.2869536
imu,349.551043,,,,,,,-93.0799108,185.7996572,110.6765936
imu,349.652605,,,,,,,-92.6404516,185.909522,111.4456472
imu,349.754168,,,,,,,-91.73711879999999,185.8973148,111.006188
imu,349.855822,,,,,,,-92.481758,185.6897924,111.4578544
imu,349.957293,,,,,,,-89.97928200000001,184.627766,109.5047024
