Type,Timestamp,Data Accelerometer X,Data Accelerometer Y,Data Accelerometer Z,Data Gyroscope X,Data Gyroscope Y,Data Gyroscope Z,Data Magnetometer X,Data Magnetometer Y,Data Magnetometer Z
imu,236.96345,0.2990764,-9.351520875200002,3.433397072000001,3.17031731,1.39019525,-3.46647436,,,
imu,236.972228,0.3068523864000001,-9.3592968616,3.432798919200001,2.998348379999999,1.85376367,-3.62348947,,,
imu,236.981007,0.3307784984000001,-9.364082084000001,3.4316026136,2.67684125,2.48182411,-3.53376655,,,
imu,236.989785,0.3481249296000001,-9.3664746952,3.428611849600001,2.55721069,2.80333124,-3.54124346,,,
imu,236.998564,0.3714528888,-9.364082084000001,3.4106672656,2.60207215,3.25942275,-3.496382,,,
imu,237.007342,0.415716196,-9.347333805600002,3.4016949736,2.65441052,3.57345297,-3.5711511,,,
imu,237.01612,0.4390441552000001,-9.3210150824,3.3711891808,2.77404108,3.78280645,-3.5711511,,,
imu,237.024899,0.4605776560000001,-9.3317818328,3.3670021112,3.05816366,3.93234465,-3.60853565,,,
imu,237.033677,0.4809148512,-9.361689472800002,3.3933208344,3.1628404,3.85009864,-3.75807385,,,
imu,237.042456,0.4922797544,-9.385017432000001,3.4022931264,3.26751714,3.69308353,-3.7954584,,,
imu,237.051234,0.4982612824000001,-9.390998960000001,3.3987042096,3.20022495,3.58092988,-3.95995042,,,
imu,237.060013,0.5215892416000001,-9.404756474400001,3.400498668,3.07311748,3.2968073,-4.0945348,,,
imu,237.068791,0.5102243384,-9.4496179344,3.4130598768,2.92357928,3.05754618,-3.98238115,,,
imu,237.07757,0.5431227424,-9.403560168800002,3.4351915304,2.66936434,2.9229618,-3.55619728,,,
imu,237.086348,0.535346756,-9.399971252000002,3.4298081552,2.25065738,2.83323888,-3.13749032,,,
imu,237.095126,0.5221873944000001,-9.417915836,3.418443252,2.13102682,2.60893158,-3.18982869,,,
imu,237.103905,0.5317578392000001,-9.414925072,3.418443252,1.88428879,2.3995781,-3.26459779,,,
imu,237.112683,0.5227855472,-9.4077472384,3.403489432,1.55530475,2.30237827,-3.26459779,,,
imu,237.121462,0.5359449088000001,-9.372456223200002,3.4196395576,1.33847436,2.10797861,-3.28702852,,,
imu,237.13024,0.5126169496,-9.3718580704,3.4196395576,0.9571519499999999,1.68179474,-3.62348947,,,
imu,237.139019,0.4898871432,-9.3592968616,3.4220321688,0.67302937,1.59954873,-3.97490424,,,
imu,237.147797,0.4623721144,-9.3652783896,3.431004460800001,0.55339881,1.56964109,-4.22164227,,,
imu,237.156273,0.4402404608,-9.322211388000001,3.454332420000001,0.33656842,1.49487199,-4.34874974,,,
imu,237.16475,0.4551942808000001,-9.3269966104,3.4698843928,0.12721494,1.49487199,-4.5431494,,,
imu,237.173226,0.4258847936,-9.340155972000002,3.4800529904,-0.30644584,1.65936401,-4.57305704,,,
imu,237.181702,0.4097346680000001,-9.3269966104,3.5129513944,-0.66533752,1.8761944,-4.430995749999999,,,
imu,237.190178,0.3995660704000001,-9.367072848000001,3.506371713600001,-1.0242292,1.89862513,-4.625395409999999,,,
imu,237.198655,0.3810233336,-9.3347725968,3.5338867424,-1.33078251,2.19770153,-4.52819558,,,
imu,237.207131,0.3840140976,-9.3269966104,3.5386719648,-1.60742818,2.42200883,-4.48333412,,,
imu,237.215607,0.3995660704000001,-9.324005846400002,3.54405534,-1.71958183,2.68370068,-4.48333412,,,
imu,237.224083,0.3971734592000001,-9.323407693600002,3.535681200800001,-1.53265908,2.87810034,-4.27398064,,,
imu,237.23256,0.4031549872,-9.328791068800001,3.4968012688,-1.30835178,2.88557725,-4.35622665,,,
imu,237.241036,0.4300718632,-9.276751775200001,3.514147700000001,-0.9943215599999999,3.00520781,-4.10948862,,,
imu,237.249512,0.4593813504000001,-9.252227510400001,3.5129513944,-0.63542988,3.09493073,-4.08705789,,,
imu,237.257989,0.4719425592000001,-9.242058912800001,3.496203116000001,-0.21672292,3.09493073,-4.17678081,,,
imu,237.266465,0.4862982264000001,-9.228301398400001,3.478856684800001,0.30666078,3.03511545,-4.102011709999999,,,
imu,237.274941,0.4910834488,-9.2480404408,3.4860345184,0.97958268,3.15474601,-3.78798149,,,
imu,237.283417,0.5066354216000001,-9.226506940000002,3.488427129600001,1.30108981,3.02763854,-3.69825857,,,
imu,237.291894,0.5150095608,-9.250433052000002,3.4818474488,1.74970441,2.79585433,-3.66835093,,,
imu,237.30037,0.5156077136000001,-9.2617979552,3.467491781600001,2.19831901,2.60893158,-3.76555076,,,
imu,237.308846,0.5359449088000001,-9.2719665528,3.4387804472,2.45253395,2.38462428,-3.66835093,,,
imu,237.317322,0.5449172008000001,-9.2761536224,3.4298081552,2.73665653,2.20517844,-3.5711511,,,
imu,237.325799,0.5425245896,-9.2719665528,3.4160506408,3.11797894,1.98087114,-3.53376655,,,
imu,237.334275,0.5395338256000001,-9.285724067200002,3.400498668,3.50677826,1.68927165,-3.3468438,,,
imu,237.342751,0.5389356728,-9.301874192800001,3.3951152928,3.77594702,1.5023489,-3.32441307,,,
imu,237.351227,0.5245800056000001,-9.295294512000002,3.3717873336,3.88062376,1.17336486,-3.29450543,,,
imu,237.359691,0.5138132552000001,-9.2935000536,3.356833513600001,4.10493106,0.8518577299999999,-3.30945925,,,
imu,237.368154,0.5156077136000001,-9.2899111368,3.351450138400001,4.232038530000001,0.50044296,-3.23469015,,,
imu,237.376618,0.499457588,-9.2970889704,3.349655680000001,4.29933072,0.19388965,-3.29450543,,,
imu,237.385082,0.4827093096,-9.346137500000001,3.341879693600001,4.44886892,0.04435144999999974,-3.40665908,,,
imu,237.393545,0.4689517952000001,-9.363483931200001,3.3442723048,4.33671527,-0.17247894,-3.27955161,,,
imu,237.402009,0.4605776560000001,-9.374250681600001,3.3550390552,4.19465398,-0.23229422,-3.00290594,,,
imu,237.410472,0.4450256832000001,-9.393989724,3.352646444,4.1348387,-0.1425713000000002,-2.64401426,,,
imu,237.418936,0.4366515440000001,-9.3993730992,3.3442723048,3.80585466,-0.3294940500000001,-2.5991528,,,
imu,237.427399,0.4408386136,-9.3975786408,3.3329074016,3.86566994,-0.20986349,-2.44213769,,,
imu,237.435863,0.4330626272,-9.404756474400001,3.3388889296,3.58154736,-0.25472495,-2.68887572,,,
imu,237.444326,0.4450256832000001,-9.429878892000001,3.349655680000001,3.51425517,-0.2771556799999999,-2.85336774,,,
imu,237.45279,0.4300718632,-9.460384684800001,3.376572556000001,3.52173208,-0.31454023,-2.85336774,,,
imu,237.461253,0.3995660704000001,-9.4938812416,3.3993023624,3.15536349,-0.3294940500000001,-3.05524431,,,
imu,237.469717,0.4115291264,-9.524387034400002,3.399900515200001,2.63197979,-0.1350943900000003,-3.20478251,,,
imu,237.47818,0.3941826952,-9.519601812000001,3.4022931264,2.4151494,0.1864127399999997,-3.05524431,,,
imu,237.486644,0.3893974728000001,-9.4938812416,3.411863571200001,1.80204278,0.3808123999999999,-2.98795212,,,
imu,237.495108,0.4079402096,-9.457992073600002,3.396311598400001,1.40576655,0.7172733499999997,-2.75616791,,,
imu,237.503571,0.4073420568000001,-9.4382530312,3.3759744032,1.04687487,1.06121121,-2.84589083,,,
imu,237.512035,0.4145198904,-9.414925072,3.3664039584,0.81509066,1.34533379,-2.95804448,,,
imu,237.520498,0.4252866408000001,-9.3963823352,3.365207652800001,0.58330645,1.53225654,-3.10010577,,,
imu,237.528962,0.4348570856000001,-9.367072848000001,3.358627972000001,0.44124516,1.577118,-3.67582784,,,
imu,237.537425,0.4354552384000001,-9.361689472800002,3.347263068800001,0.47862971,1.68179474,-4.079580979999999,,,
imu,237.545889,0.4354552384000001,-9.335370749600001,3.338290776800001,0.53096808,1.89114822,-4.42351884,,,
imu,237.554352,0.4270810992000001,-9.323407693600002,3.335898165600001,0.57582954,2.0257326,-4.625395409999999,,,
imu,237.562829,0.4438293776000001,-9.335370749600001,3.33470186,0.65059864,2.07807097,-4.647826139999999,,,
imu,237.571305,0.4390441552000001,-9.328192916,3.3520482912,0.7403215599999999,2.324809,-4.55810322,,,
imu,237.579781,0.4551942808000001,-9.3317818328,3.361020583200001,0.70293701,2.33976282,-4.53567249,,,
imu,237.588257,0.4767277816000001,-9.298883428800002,3.349655680000001,0.68050628,2.44443956,-4.50576485,,,
imu,237.596734,0.4952705184000001,-9.2851259144,3.354440902400001,0.91229049,2.34723973,-4.15435008,,,
imu,237.60521,0.5060372688000001,-9.294098206400001,3.3580298192,1.0693056,2.22760917,-3.91508896,,,
imu,237.613686,0.5221873944000001,-9.285724067200002,3.337692624000001,1.11416706,1.98834805,-3.8702275,,,
imu,237.622162,0.5341504504000001,-9.2827333032,3.3412815408,1.46558183,1.74161002,-3.82536604,,,
imu,237.630639,0.5461135064000001,-9.277948080800002,3.3329074016,1.61512003,1.40514907,-3.69825857,,,
imu,237.639115,0.5514968816000001,-9.289312984,3.3394870824,1.95158098,1.18831868,-3.57862801,,,
imu,237.647591,0.5461135064000001,-9.2797425392,3.3370944712,2.31794957,0.7546578999999998,-3.60853565,,,
imu,237.656067,0.5491042704000001,-9.294098206400001,3.3478612216,2.59459524,0.35838167,-3.54872037,,,
imu,237.664544,0.5407301312,-9.3246039992,3.3299166376,3.02077911,-0.09023292999999999,-3.54124346,,,
imu,237.67302,0.5413282840000001,-9.336567055200002,3.323935109600001,3.4619168,-0.3070633200000001,-3.39918217,,,
imu,237.681496,0.5168040192000001,-9.338959666400001,3.333505554400001,3.64883955,-0.6958626400000001,-3.22721324,,,
imu,237.689972,0.5209910888,-9.377241445600001,3.3550390552,3.82828539,-1.04727741,-3.39170526,,,
imu,237.698441,0.4803166984,-9.406550932800002,3.3598242776,4.05259269,-1.428599820000001,-3.60853565,,,
imu,237.706917,0.4528016696000001,-9.417915836,3.355637208000001,4.12736179,-1.67533785,-3.83284295,,,
imu,237.715394,0.442633072,-9.425691822400001,3.3562353608,4.00025432,-1.86973751,-3.96742733,,,
imu,237.72387,0.4073420568000001,-9.439449336800001,3.3771707088,3.79837775,-1.92207588,-3.78050458,,,
imu,237.732346,0.370854736,-9.4412437952,3.3580298192,3.50677826,-1.67533785,-3.38422835,,,
imu,237.740822,0.3373581792000001,-9.456795768000001,3.3430759992,3.20770186,-1.55570729,-3.13001341,,,
imu,237.749299,0.3451341656,-9.469356976800002,3.3424778464,3.00582529,-1.39121527,-3.14496723,,,
imu,237.757775,0.323002512,-9.4621791432,3.3550390552,2.50487232,-1.06223123,-3.22721324,,,
imu,237.766718,0.331974804,-9.4454308648,3.347263068800001,2.09364227,-0.80053938,-3.24216706,,,
imu,237.775661,0.3134320672,-9.471749588000002,3.337692624000001,1.93662716,-0.5463244400000002,-3.26459779,,,
imu,237.784604,0.3026653168,-9.460384684800001,3.3251314152,1.63007385,-0.3070633200000001,-3.48142818,,,
imu,237.793547,0.287113344,-9.4412437952,3.3364963184,1.33099745,-0.007986920000000008,-3.6459202,,,
imu,237.80249,0.2865151912,-9.452010545600002,3.330514790400001,0.9870595899999999,0.3509047599999997,-3.70573548,,,
imu,237.811432,0.275150288,-9.4454308648,3.3299166376,0.66555246,0.8144731799999998,-3.53376655,,,
imu,237.820375,0.2829262744000001,-9.422102905600001,3.328720332000001,0.26927623,1.23318014,-3.44404363,,,
imu,237.829318,0.2907022608000001,-9.4203084472,3.340683388,-0.08213854000000001,1.49487199,-3.45152054,,,
imu,237.838261,0.3092449976000001,-9.402962016000002,3.331112943200001,-0.32887657,1.96591732,-3.24964397,,,
imu,237.847204,0.3289840400000001,-9.402363863200002,3.3329074016,-0.46346095,2.39210119,-3.11505959,,,
imu,237.856147,0.3259932760000001,-9.3862137376,3.331112943200001,-0.93450628,2.6238854,-3.02533667,,,
imu,237.86509,0.3391526376000001,-9.378437751200002,3.328122179200001,-1.12890594,2.87810034,-3.06272122,,,
imu,237.874033,0.3576953744,-9.363483931200001,3.335898165600001,-1.07656757,2.93043871,-3.08515195,,,
imu,237.882976,0.3606861384,-9.353913486400002,3.3394870824,-1.10647521,3.2220382,-2.90570611,,,
imu,237.891919,0.3702565832000001,-9.3479319584,3.338290776800001,-0.93450628,3.30428421,-2.79355246,,,
imu,237.900862,0.385808556,-9.325800304800001,3.351450138400001,-1.0989983,3.31923803,-2.86832156,,,
imu,237.909805,0.3989679176000001,-9.3168280128,3.3508519856,-0.90459864,3.25942275,-2.93561375,,,
imu,237.918747,0.4049494456000001,-9.309052026400002,3.3370944712,-0.5307531400000001,3.39400713,-2.88327538,,,
imu,237.92769,0.4294737104000001,-9.315033554400001,3.347263068800001,-0.31392275,3.41643786,-2.748691,,,
imu,237.936633,0.4276792520000001,-9.319818776800002,3.3394870824,0.03001510999999998,3.33419185,-2.71130645,,,
imu,237.945576,0.4384460024000001,-9.3108464848,3.346664916,0.18703022,3.19213056,-2.71878336,,,
imu,237.954519,0.4492127528000001,-9.3246039992,3.3520482912,0.44872207,3.20708438,-2.73373718,,,
imu,237.963462,0.4533998224,-9.326398457600002,3.353842749600001,0.7104139199999999,3.09493073,-2.83093701,,,
imu,237.972405,0.4563905864000001,-9.327594763200002,3.355637208000001,0.9048135799999999,2.94539253,-2.78607555,,,
imu,237.980702,0.4695499480000001,-9.318024318400001,3.3604224304,0.97210577,2.84071579,-2.8234601,,,
imu,237.988999,0.4623721144,-9.327594763200002,3.354440902400001,1.34595127,2.81828506,-2.71878336,,,
imu,237.997296,0.4659610312,-9.339557819200001,3.355637208000001,1.57025857,2.56407012,-2.77859864,,,
imu,238.005593,0.4653628784000001,-9.3455393472,3.3502538328,1.52539711,2.44443956,-2.80850628,,,
imu,238.01389,0.4605776560000001,-9.337165208000002,3.3598242776,1.6674584,2.3995781,-2.87579847,,,
imu,238.022187,0.4677554896000001,-9.355109792000002,3.354440902400001,1.82447351,2.27247063,-2.83841392,,,
imu,238.030484,0.4587831976000001,-9.3718580704,3.344870457600001,1.93662716,2.13788625,-2.83093701,,,
imu,238.038781,0.4623721144,-9.385615584800002,3.341879693600001,2.00391935,2.04816333,-2.98795212,,,
imu,238.047078,0.451605364,-9.377241445600001,3.354440902400001,1.90671952,1.89114822,-3.03281358,,,
imu,238.055375,0.4492127528000001,-9.3862137376,3.328720332000001,1.95905789,1.93600968,-2.92065993,,,
imu,238.063672,0.4498109056,-9.3796340568,3.3203461928,1.89924261,1.94348659,-2.78607555,,,
imu,238.071969,0.4444275304,-9.3652783896,3.3203461928,1.92915025,1.98087114,-2.6739219,,,
imu,238.080266,0.4390441552000001,-9.3557079448,3.3221406512,1.75718132,2.11545552,-2.62906044,,,
imu,238.088563,0.4360533912000001,-9.356904250400001,3.314962817600001,1.64502767,1.98087114,-2.71130645,,,
imu,238.09686,0.4330626272,-9.363483931200001,3.3035979144,1.68241222,2.01825569,-2.89075229,,,
imu,238.105156,0.430670016,-9.3688673064,3.307186831200001,1.62259694,2.04816333,-3.04029049,,,
imu,238.113453,0.4199032656,-9.395784182400002,3.343674152,1.32352054,2.26499372,-2.98047521,,,
imu,238.12175,0.3947808480000001,-9.420906600000002,3.3424778464,1.03192105,2.35471664,-3.13001341,,,
imu,238.130047,0.4187069600000001,-9.448421628800002,3.3233369568,0.8449983,2.50425484,-3.03281358,,,
imu,238.138344,0.4085383624000001,-9.4555994624,3.328720332000001,0.74779847,3.02016163,-2.96552139,,,
imu,238.146641,0.4079402096,-9.437654878400002,3.340085235200001,0.5982602699999999,3.40896095,-2.61410662,,,
imu,238.154938,0.4420349192,-9.430477044800002,3.337692624000001,0.5459219,3.70056044,-2.41223005,,,
imu,238.163235,0.4689517952000001,-9.420906600000002,3.3364963184,0.38142988,3.8949601,-2.49447606,,,
imu,238.171532,0.4833074624000001,-9.3963823352,3.31974804,0.33656842,3.93982156,-2.86832156,,,
imu,238.179995,0.4946723656000001,-9.402962016000002,3.2940274696,0.44872207,4.01459066,-3.0477674,,,
imu,238.188457,0.5257763112000001,-9.395186029600001,3.2922330112,0.50853735,4.02206757,-3.21225942,,,
imu,238.196919,0.5467116592000001,-9.373652528800001,3.3059905256,0.56087572,3.99963684,-3.28702852,,,
imu,238.205381,0.5479079648000001,-9.352119028,3.296420080800001,0.55339881,3.88748319,-3.496382,,,
imu,238.213844,0.5514968816000001,-9.346735652800001,3.2862514832,0.47862971,3.68560662,-3.54124346,,,
imu,238.222306,0.5760211464000001,-9.353315333600001,3.289242247200001,0.6954601,3.55102224,-3.43656672,,,
imu,238.230768,0.6023398696000001,-9.350324569600001,3.30479422,0.57582954,3.34166876,-3.46647436,,,
imu,238.23923,0.6065269392000001,-9.3317818328,3.298812692000001,0.49358353,3.08745382,-3.39918217,,,
imu,237.037865,,,,,,,83.5582732,-42.31628920000001,117.1219952
imu,237.139366,,,,,,,81.2511124,-41.44957800000002,118.0131208
imu,237.240898,,,,,,,83.5826876,-42.15759560000001,116.0599688
imu,237.342491,,,,,,,81.00696839999999,-41.26647000000001,118.7333456
imu,237.444084,,,,,,,81.01917560000001,-41.46178520000001,115.828032
imu,237.545616,,,,,,,81.4220132,-41.13219080000001,118.3427152
imu,237.647148,,,,,,,81.34877,-40.97349720000001,118.3183008
imu,238.247693,0.6184899952000001,-9.338959666400001,3.3035979144,0.70293701,2.84071579,-3.10758268,,,
imu,238.256155,0.6196863008000001,-9.3557079448,3.307186831200001,0.68050628,2.48182411,-3.07767504,,,
imu,238.264617,0.6214807592000001,-9.344941194400002,3.310775748,0.8749059399999999,2.22760917,-3.00290594,,,
imu,238.273079,0.6143029256000001,-9.3347725968,3.302999761600001,0.91229049,1.8761944,-3.08515195,,,
imu,238.281542,0.6065269392000001,-9.349128264,3.30479422,0.97958268,1.68927165,-3.13749032,,,
imu,238.290004,0.5945638832000001,-9.356306097600001,3.314364664800001,1.07678251,1.30794924,-3.18982869,,,
imu,238.298466,0.5790119104,-9.3694654592,3.322738804,1.25622835,1.15841104,-3.21225942,,,
imu,238.306929,0.5616654792000001,-9.382026668000002,3.3131683592,1.11416706,0.9041961000000001,-3.30945925,,,
imu,238.315391,0.5658525488000001,-9.388606348800002,3.310177595200001,0.9646288599999999,0.7995193599999997,-3.2720747,,,
imu,238.323853,0.5455153536,-9.377241445600001,3.295821928000001,1.00949032,0.78456554,-3.32441307,,,
imu,238.332315,0.5425245896,-9.374250681600001,3.328720332000001,1.03192105,0.8593346399999997,-3.29450543,,,
imu,238.340778,0.5407301312,-9.401765710400001,3.351450138400001,1.00949032,0.8369039099999998,-3.39918217,,,
imu,238.34924,0.5132151024,-9.440645642400002,3.353842749600001,0.94219813,0.72475026,-3.67582784,,,
imu,238.357702,0.4970649768000001,-9.4424401008,3.3490575272,0.6954601,0.7322271699999998,-3.96742733,,,
imu,238.366164,0.5144114080000001,-9.429878892000001,3.352646444,0.41881443,0.9415806499999997,-4.0945348,,,
imu,238.374627,0.4791203928000001,-9.416719530400002,3.355637208000001,0.3216146,1.10607267,-4.012288789999999,,,
imu,238.383092,0.4719425592000001,-9.402363863200002,3.3550390552,0.15712258,1.4275798,-3.63096638,,,
imu,238.391556,0.4868963792000001,-9.3904008072,3.349655680000001,0.15712258,1.66684092,-3.61601256,,,
imu,238.400021,0.4892889904,-9.3993730992,3.3353000128,-0.02232326000000001,1.93600968,-3.74312003,,,
imu,238.408486,0.49347606,-9.378437751200002,3.3370944712,-0.18681528,1.92853277,-3.93004278,,,
imu,238.416951,0.5162058664000001,-9.376045140000002,3.3299166376,-0.44850713,2.13040934,-4.0197657,,,
imu,238.425416,0.5150095608,-9.367671000800001,3.3299166376,-0.30644584,2.1752708,-4.28893446,,,
imu,238.43388,0.5066354216000001,-9.3545116392,3.337692624000001,-0.31392275,2.10797861,-4.52071867,,,
imu,238.442345,0.5030465048,-9.327594763200002,3.3412815408,-0.39616876,2.07807097,-4.49081103,,,
imu,238.45081,0.499457588,-9.328791068800001,3.332309248800001,-0.41859949,2.16779389,-4.58801086,,,
imu,238.459275,0.4970649768000001,-9.3335762912,3.332309248800001,-0.45598404,2.16779389,-4.55062631,,,
imu,238.46774,0.5006538936,-9.33118368,3.3364963184,-0.21672292,2.22013226,-4.33379592,,,
imu,238.476204,0.5096261856000001,-9.3317818328,3.3508519856,-0.17933837,2.24256299,-4.29641137,,,
imu,238.484669,0.5185984776000001,-9.3269966104,3.3388889296,-0.26158438,2.1005017,-4.18425772,,,
imu,238.493134,0.5120187968000001,-9.329987374400002,3.340085235200001,-0.16438455,2.03320951,-4.02724261,,,
imu,238.501599,0.5197947832,-9.338959666400001,3.340683388,0.09730729999999999,2.05564024,-3.92256587,,,
imu,238.510064,0.517402172,-9.334174444000002,3.347263068800001,0.2468455,1.85376367,-3.91508896,,,
imu,238.518529,0.5168040192000001,-9.337165208000002,3.3604224304,0.18703022,1.8014253,-3.89265823,,,
imu,238.526993,0.5299633808,-9.3413522776,3.3580298192,0.36647606,1.65936401,-3.76555076,,,
imu,238.535458,0.5293652280000001,-9.3455393472,3.358627972000001,0.41881443,1.5023489,-3.76555076,,,
imu,238.543923,0.5317578392000001,-9.360493167200001,3.361020583200001,0.44872207,1.39767216,-3.7206893,,,
imu,238.552388,0.5377393672000002,-9.374848834400002,3.37956332,0.44124516,1.18831868,-3.8702275,,,
imu,238.560853,0.5197947832,-9.373652528800001,3.3771707088,0.36647606,0.9789651999999998,-3.83284295,,,
imu,238.569317,0.4988594352000001,-9.395784182400002,3.382554084,0.23936859,0.8892422799999999,-3.81788913,,,
imu,238.577782,0.4653628784000001,-9.381428515200001,3.395713445600001,0.11973803,0.7172733499999997,-3.93751969,,,
imu,238.58625,0.4522035168,-9.342548583200001,3.402891279200001,0.07487657,0.5752120599999997,-4.169303899999999,,,
imu,238.594717,0.4456238360000001,-9.323407693600002,3.373581792,-0.02980017,0.5901658799999998,-4.52819558,,,
imu,238.603184,0.415716196,-9.323407693600002,3.354440902400001,0.03749201999999999,0.5677351499999999,-4.64034923,,,
imu,238.611652,0.3965753064,-9.330585527200002,3.330514790400001,0.05244583999999999,0.66493498,-4.75250288,,,
imu,238.620119,0.4031549872,-9.304864956800001,3.3478612216,0.32909151,0.8144731799999998,-4.79736434,,,
imu,238.628586,0.3852104032000001,-9.321613235200001,3.344870457600001,0.5459219,0.9789651999999998,-4.75250288,,,
imu,238.637054,0.3732473472,-9.329987374400002,3.335898165600001,0.9048135799999999,1.21822632,-4.63287232,,,
imu,238.645521,0.367863972,-9.329389221600001,3.3502538328,1.26370526,1.34533379,-4.58053395,,,
imu,238.653988,0.3606861384,-9.346735652800001,3.3622168888,1.33847436,1.56216418,-4.48333412,,,
imu,238.662456,0.3750418056000001,-9.3688673064,3.3831522368,1.48801256,1.83133294,-4.23659609,,,
imu,238.670923,0.385808556,-9.3927934184,3.3927226816,1.43567419,2.18274771,-4.124442439999999,,,
imu,238.679391,0.3977716120000001,-9.405952780000002,3.390330070400001,1.46558183,2.30985518,-3.93751969,,,
imu,238.687858,0.3989679176000001,-9.401765710400001,3.3831522368,1.28613599,2.52668557,-3.69078166,,,
imu,238.696325,0.4043512928,-9.3694654592,3.389133764800001,1.15902852,2.60145467,-3.51133582,,,
imu,238.704793,0.4193051128000001,-9.370063612000001,3.403489432,1.00201341,2.7734236,-3.40665908,,,
imu,238.71326,0.4420349192,-9.350324569600001,3.39451714,0.58330645,2.75099287,-3.60105874,,,
imu,238.721727,0.4474182944000001,-9.340155972000002,3.390330070400001,0.51601426,2.58650085,-3.77302767,,,
imu,238.730195,0.454596128,-9.343146736000001,3.3699928752,0.5982602699999999,2.48182411,-3.76555076,,,
imu,238.738662,0.46356842,-9.363483931200001,3.388535612000001,0.42629134,2.39210119,-3.70573548,,,
imu,238.747129,0.4300718632,-9.3838211264,3.3867411536,0.51601426,2.45939338,-3.5711511,,,
imu,238.755597,0.3923882368,-9.380830362400001,3.3879374592,0.43376825,2.44443956,-3.47395127,,,
imu,238.764064,0.4707462536000001,-9.388606348800002,3.370591028000001,0.47862971,2.58650085,-3.47395127,,,
imu,238.772531,0.4827093096,-9.382026668000002,3.3580298192,0.7702292,2.6986545,-3.03281358,,,
imu,238.780999,0.4677554896000001,-9.364082084000001,3.372385486400001,0.79265993,2.75846978,-2.748691,,,
imu,238.789915,0.520392936,-9.352119028,3.3424778464,0.82256757,2.63883922,-2.73373718,,,
imu,238.798729,0.5395338256000001,-9.332379985600001,3.3329074016,0.9870595899999999,2.54163939,-2.8982292,,,
imu,238.807543,0.5389356728,-9.3592968616,3.3329074016,1.13659779,2.13040934,-2.98047521,,,
imu,238.816358,0.5347486032000001,-9.364680236800002,3.330514790400001,1.42819728,1.89114822,-2.99542903,,,
imu,238.825172,0.5263744640000001,-9.361091320000002,3.333505554400001,1.45062801,1.64441019,-3.10758268,,,
imu,238.833986,0.5120187968000001,-9.367072848000001,3.337692624000001,1.37585891,1.43505671,-3.14496723,,,
imu,238.8428,0.4922797544,-9.3862137376,3.3370944712,1.30856672,1.25561087,-3.10010577,,,
imu,238.851615,0.4874945320000001,-9.382026668000002,3.338290776800001,1.15155161,1.07616503,-2.94309066,,,
imu,238.860429,0.4755314760000001,-9.3664746952,3.344870457600001,0.9945364999999999,1.11354958,-2.8982292,,,
imu,238.869243,0.4641665728000001,-9.361689472800002,3.343674152,0.9197674,0.9640113799999996,-2.87579847,,,
imu,238.878057,0.4779240872000001,-9.364680236800002,3.341879693600001,0.8524752099999999,0.9939190199999999,-2.68887572,,,
imu,238.886872,0.4629702672000001,-9.363483931200001,3.3353000128,0.6132140899999999,0.98644211,-2.54681443,,,
imu,238.895686,0.4707462536000001,-9.3586987088,3.349655680000001,0.59078336,1.09111885,-2.44213769,,,
imu,238.9045,0.4689517952000001,-9.348530111200002,3.355637208000001,0.63564482,1.0537343,-2.53186061,,,
imu,238.913314,0.4563905864000001,-9.359895014400001,3.341879693600001,0.4711528,0.9640113799999996,-2.69635263,,,
imu,238.922129,0.4420349192,-9.3664746952,3.3484593744,0.45619898,1.04625739,-2.80850628,,,
imu,238.930943,0.442633072,-9.368269153600002,3.3502538328,0.5010604399999999,1.03878048,-2.89075229,,,
imu,238.939757,0.451605364,-9.357502403200002,3.3478612216,0.6132140899999999,1.10607267,-3.03281358,,,
imu,238.948572,0.4557924336,-9.356904250400001,3.3484593744,0.6281679099999999,1.2032725,-3.09262886,,,
imu,238.957386,0.4569887392,-9.332978138400001,3.331112943200001,0.6954601,1.48739508,-3.07019813,,,
imu,238.9662,0.4551942808000001,-9.343744888800002,3.337692624000001,0.9945364999999999,1.40514907,-3.06272122,,,
imu,238.975014,0.4551942808000001,-9.377839598400001,3.3670021112,1.20388998,1.51730272,-3.10758268,,,
imu,238.983829,0.4486146000000001,-9.4113361552,3.361618736,1.09173633,1.4275798,-3.48142818,,,
imu,238.992311,0.4611758088,-9.4113361552,3.352646444,1.28613599,1.47991817,-3.51133582,,,
imu,239.000794,0.4695499480000001,-9.401765710400001,3.3580298192,1.27118217,1.56964109,-3.60105874,,,
imu,239.009277,0.4659610312,-9.3927934184,3.351450138400001,1.34595127,1.71170238,-3.5711511,,,
imu,239.017759,0.4695499480000001,-9.384419279200001,3.346664916,1.28613599,1.91357895,-3.31693616,,,
imu,239.026242,0.4677554896000001,-9.391597112800001,3.3550390552,1.45810492,2.13040934,-3.05524431,,,
imu,239.034724,0.4761296288000001,-9.4041583216,3.3478612216,1.28613599,2.26499372,-3.13749032,,,
imu,239.043207,0.4898871432,-9.4041583216,3.3508519856,1.05435178,2.51173175,-3.05524431,,,
imu,239.05169,0.5120187968000001,-9.3868118904,3.3293184848,0.9646288599999999,2.55659321,-3.10010577,,,
imu,239.060172,0.5257763112000001,-9.377839598400001,3.3388889296,0.620691,2.52668557,-3.4216129,,,
imu,237.748848,,,,,,,81.3609772,-40.58286680000001,119.0263184
imu,237.851449,,,,,,,81.4464276,-40.66831720000002,118.75776
imu,237.959939,,,,,,,82.02016599999999,-41.16881240000001,117.781184
imu,238.061348,,,,,,,81.6783644,-40.90025400000001,118.6845168
imu,238.162941,,,,,,,83.3507508,-41.73034360000001,116.8900584
imu,238.264565,,,,,,,80.9337252,-40.50962360000001,117.7323552
imu,238.366066,,,,,,,83.6925524,-41.75475800000002,115.9989328
imu,238.467598,,,,,,,81.1290404,-40.90025400000001,116.0233472
imu,239.068655,0.5377393672000002,-9.3927934184,3.3341037072,0.41133752,2.6238854,-3.58610492,,,
imu,239.077137,0.5395338256000001,-9.382624820800002,3.338290776800001,0.22441477,2.42948574,-3.84031986,,,
imu,239.08562,0.5389356728,-9.3796340568,3.3353000128,0.08235347999999998,2.40705501,-3.88518132,,,
imu,239.094103,0.5443190480000001,-9.3718580704,3.343674152,-0.14943073,2.34723973,-3.90761205,,,
imu,239.102585,0.5568802568000001,-9.377839598400001,3.3490575272,-0.38869185,2.36219355,-3.73564312,,,
imu,239.111068,0.5622636320000001,-9.384419279200001,3.358627972000001,-0.60552224,2.324809,-3.59358183,,,
imu,239.119551,0.5670488544000001,-9.364680236800002,3.3783670144,-0.77749117,2.23508608,-3.45152054,,,
imu,239.128033,0.5550857984,-9.350324569600001,3.399900515200001,-1.03170611,2.18274771,-3.2720747,,,
imu,239.136516,0.565254396,-9.368269153600002,3.361618736,-0.9943215599999999,2.07807097,-3.21973633,,,
imu,239.144998,0.5550857984,-9.385615584800002,3.349655680000001,-1.14385976,1.9509635,-3.14496723,,,
imu,239.153481,0.5461135064000001,-9.3622876256,3.361618736,-1.29339796,1.92105586,-3.05524431,,,
imu,239.161964,0.5162058664000001,-9.3126409432,3.376572556000001,-1.30835178,1.78647148,-3.07019813,,,
imu,239.170446,0.5215892416000001,-9.285724067200002,3.3807596256,-1.15881358,1.85376367,-3.02533667,,,
imu,239.178929,0.5072335744,-9.291107442400001,3.3550390552,-1.0242292,1.95844041,-3.00290594,,,
imu,239.187411,0.5108224912,-9.328192916,3.3424778464,-0.68029134,2.0257326,-3.01785976,,,
imu,239.19587,0.5084298800000001,-9.325800304800001,3.355637208000001,-0.58309151,2.18274771,-3.01038285,,,
imu,239.204328,0.5030465048,-9.306659415200002,3.3670021112,-0.38869185,2.25751681,-3.03281358,,,
imu,239.212787,0.5233837000000001,-9.311444637600001,3.384348542400001,-0.06718472,2.3995781,-3.1225365,,,
imu,239.221245,0.5191966304000001,-9.329987374400002,3.390330070400001,0.21693786,2.42948574,-3.0477674,,,
imu,239.229704,0.5197947832,-9.346735652800001,3.4022931264,0.40386061,2.53416248,-2.98795212,,,
imu,239.238162,0.5479079648000001,-9.3622876256,3.395713445600001,0.52349117,2.53416248,-3.21973633,,,
imu,239.246621,0.5461135064000001,-9.367072848000001,3.403489432,0.79265993,2.6238854,-3.18982869,,,
imu,239.255079,0.5562821040000001,-9.3592968616,3.3987042096,0.7253677399999999,2.45191647,-3.42908981,,,
imu,239.263538,0.5724322296000001,-9.3383615136,3.3927226816,0.80013684,2.29490136,-3.47395127,,,
imu,239.271996,0.5837971328000001,-9.327594763200002,3.385544848,1.07678251,2.324809,-3.496382,,,
imu,239.280454,0.5724322296000001,-9.326398457600002,3.381955931200001,1.13659779,1.98087114,-3.54124346,,,
imu,239.288913,0.5730303824,-9.3204169296,3.367600264,1.07678251,1.73413311,-3.71321239,,,
imu,239.297371,0.5688433128,-9.2994815816,3.373581792,1.07678251,1.53225654,-3.84779677,,,
imu,239.30583,0.5640580904000001,-9.307257568,3.3813577784,1.10669015,1.33785688,-3.98985806,,,
imu,239.314288,0.5443190480000001,-9.3126409432,3.3867411536,1.0693056,1.17336486,-3.97490424,,,
imu,239.322747,0.5455153536,-9.338959666400001,3.4070783488,0.80761375,0.9939190199999999,-4.23659609,,,
imu,239.331205,0.5329541448,-9.332978138400001,3.4058820432,0.51601426,0.9116730099999999,-4.22164227,,,
imu,239.339664,0.5359449088000001,-9.360493167200001,3.418443252,0.30666078,0.7995193599999997,-4.19921154,,,
imu,239.348122,0.5269726168000001,-9.381428515200001,3.416648793600001,-0.03727708,0.6724118899999998,-4.146873169999999,,,
imu,239.356581,0.5323559920000001,-9.390998960000001,3.428611849600001,-0.13447691,0.7097964399999999,-3.88518132,,,
imu,239.365039,0.5209910888,-9.430477044800002,3.449547197600001,-0.31392275,0.6724118899999998,-3.81788913,,,
imu,239.373497,0.5191966304000001,-9.471151435200001,3.4836419072,-0.67281443,0.56025824,-3.81041222,,,
imu,239.381956,0.5036446576000001,-9.507040603200002,3.467491781600001,-1.26349032,0.4854891399999999,-3.81041222,,,
imu,239.390414,0.4964668240000001,-9.5004609224,3.477062226400001,-1.63733582,0.3808123999999999,-3.81041222,,,
imu,239.398882,0.4970649768000001,-9.4621791432,3.463304712000001,-2.21305789,0.29856639,-3.81041222,,,
imu,239.407349,0.4886908376000001,-9.450216087200001,3.471678851200001,-2.83364142,0.29856639,-3.83284295,,,
imu,239.415816,0.4731388648000001,-9.4346641144,3.4806511432,-3.0429949,0.3434278499999999,-3.72816621,,,
imu,239.424284,0.4492127528000001,-9.4215047528,3.472277004,-3.29720984,0.41819695,-3.48890509,,,
imu,239.432751,0.4749333232000001,-9.370661764800001,3.4650991704,-3.73834753,0.41819695,-3.33936689,,,
imu,239.441219,0.4791203928000001,-9.3269966104,3.470482545600001,-3.89536264,0.4705353199999998,-3.25712088,,,
imu,239.449686,0.4653628784000001,-9.307855720800001,3.456126878400001,-3.63367079,0.5079198699999998,-3.18982869,,,
imu,239.458153,0.4689517952000001,-9.280938844800001,3.4525379616,-3.64862461,0.5303505999999998,-3.28702852,,,
imu,239.466621,0.4892889904,-9.2157401896,3.460313948,-3.35702512,0.47801223,-3.52628964,,,
imu,239.475088,0.439642308,-9.187627008000002,3.457323184,-3.09533327,0.5303505999999998,-3.70573548,,,
imu,239.483555,0.4366515440000001,-9.1924122304,3.4549305728,-2.53456502,0.6125966099999998,-3.8702275,,,
imu,239.492023,0.4456238360000001,-9.181047327200002,3.454332420000001,-2.01118132,0.70231953,-3.99733497,,,
imu,239.50049,0.4360533912000001,-9.172673188000001,3.481249296000001,-1.59247436,0.8742884599999998,-4.04967334,,,
imu,239.508957,0.4432312248,-9.170280576800002,3.478258532,-0.97189083,1.03878048,-4.034719519999999,,,
imu,239.517425,0.4420349192,-9.166691660000001,3.4680899344,-0.35878421,1.2780416,-4.057150249999999,,,
imu,239.525892,0.4551942808000001,-9.152934145600002,3.4806511432,0.11973803,1.41262598,-4.08705789,,,
imu,239.534359,0.4587831976000001,-9.145756312000001,3.491417893600001,0.52349117,1.3528107,-4.07210407,,,
imu,239.542827,0.4617739616000001,-9.1433637008,3.492614199200001,1.06182869,1.33785688,-4.07210407,,,
imu,239.551294,0.4629702672000001,-9.1708787296,3.4920160464,1.5926893,1.39767216,-4.04219643,,,
imu,239.559761,0.4623721144,-9.1894214664,3.4985957272,1.9665348,1.46496435,-4.102011709999999,,,
imu,239.568229,0.4623721144,-9.2103568144,3.511156936,2.17588828,1.58459491,-4.06462716,,,
imu,239.576696,0.4593813504000001,-9.234881079200001,3.5009883384,2.7142258,1.52477963,-3.8702275,,,
imu,239.585164,0.4659610312,-9.2576108856,3.511755088800001,2.90114855,1.56216418,-3.81788913,,,
imu,239.593631,0.4528016696000001,-9.2929019008,3.5069698664,3.20022495,1.58459491,-3.84779677,,,
imu,239.602088,0.4522035168,-9.316229860000002,3.4944086576,3.55163972,1.64441019,-3.75807385,,,
imu,239.610545,0.4557924336,-9.318024318400001,3.4776603792,3.67127028,1.76404075,-3.88518132,,,
imu,239.619002,0.4617739616000001,-9.329389221600001,3.467491781600001,3.75351629,1.83133294,-3.91508896,,,
imu,239.62746,0.4653628784000001,-9.343744888800002,3.490819740800001,3.96286977,1.76404075,-3.9449966,,,
imu,239.635917,0.4719425592000001,-9.3658765424,3.4830437544,4.07502342,1.74161002,-4.0197657,,,
imu,239.644374,0.4563905864000001,-9.373652528800001,3.465697323200001,3.89557758,1.68179474,-4.0945348,,,
imu,239.652831,0.4695499480000001,-9.378437751200002,3.4501453504,3.70865483,1.63693328,-4.13939626,,,
imu,239.661288,0.4785222400000001,-9.382026668000002,3.453734267200001,3.70117792,1.68927165,-4.08705789,,,
imu,239.669746,0.4575868920000001,-9.395784182400002,3.453734267200001,3.40957843,1.71170238,-3.82536604,,,
imu,239.678203,0.4557924336,-9.405354627200001,3.456126878400001,3.02077911,1.67431783,-3.496382,,,
imu,239.68666,0.4713444064,-9.419112141600001,3.435789683200001,2.7142258,1.6518871,-3.2720747,,,
imu,239.695117,0.4659610312,-9.4215047528,3.4322007664,2.44505704,1.63693328,-3.23469015,,,
imu,239.703574,0.4821111568000001,-9.435860420000001,3.433397072000001,2.24318047,1.68927165,-3.27955161,,,
imu,239.712031,0.4809148512,-9.437654878400002,3.4387804472,1.89924261,1.58459491,-3.18982869,,,
imu,239.720489,0.4749333232000001,-9.4382530312,3.444163822400001,1.42072037,1.51730272,-3.33936689,,,
imu,239.728946,0.4623721144,-9.4322715032,3.448350892000001,1.05435178,1.50982581,-3.31693616,,,
imu,239.737403,0.4539979752000001,-9.408943544000001,3.4405749056,0.65807555,1.42010289,-3.43656672,,,
imu,239.74586,0.451605364,-9.4005694048,3.423228474400001,0.1720764,1.56964109,-3.55619728,,,
imu,239.754317,0.4528016696000001,-9.376045140000002,3.4142561824,-0.14943073,1.53225654,-3.65339711,,,
imu,239.762775,0.4557924336,-9.3592968616,3.411863571200001,-0.44103022,1.59954873,-3.66835093,,,
imu,239.771232,0.451605364,-9.340754124800002,3.3987042096,-0.59056842,1.88367131,-3.61601256,,,
imu,239.779689,0.4522035168,-9.326398457600002,3.4058820432,-0.5756146,2.01825569,-3.61601256,,,
imu,239.788146,0.4653628784000001,-9.3269966104,3.4106672656,-0.65786061,2.00330187,-3.69825857,,,
imu,239.796603,0.4581850448000001,-9.334174444000002,3.412461724000001,-0.59056842,2.15284007,-3.71321239,,,
imu,239.80542,0.4695499480000001,-9.332379985600001,3.428611849600001,-0.5008455,2.25751681,-3.54872037,,,
imu,239.814237,0.4551942808000001,-9.3269966104,3.432798919200001,-0.43355331,2.46687029,-3.57862801,,,
imu,239.823054,0.4701481008,-9.332978138400001,3.4316026136,-0.41859949,2.66126995,-3.60105874,,,
imu,239.831871,0.4731388648000001,-9.328791068800001,3.4381822944,-0.22419983,2.76594669,-3.62348947,,,
imu,239.840688,0.4886908376000001,-9.315631707200001,3.435789683200001,-0.09709236,2.99025399,-3.5711511,,,
imu,239.849505,0.5066354216000001,-9.2929019008,3.448350892000001,0.06739966,3.09493073,-3.74312003,,,
imu,239.858322,0.5191966304000001,-9.283331456,3.4411730584,0.14964567,3.00520781,-3.93004278,,,
imu,239.867139,0.5371412144000001,-9.2755554696,3.431004460800001,0.40386061,3.02763854,-3.98238115,,,
imu,239.875956,0.535346756,-9.259405344000001,3.4393786,0.60573718,2.8481927,-4.04219643,,,
imu,238.569222,,,,,,,81.4586348,-41.19322680000002,118.1718144
imu,238.670754,,,,,,,81.2389052,-41.18101960000003,118.4037512
imu,238.772286,,,,,,,81.2511124,-40.68052440000001,118.1107784
imu,238.87391,,,,,,,81.104626,-40.87583960000001,118.4159584
imu,238.975441,,,,,,,81.31214840000001,-40.50962360000001,117.8178056
imu,239.077035,,,,,,,81.1900764,-40.93687560000001,118.4281656
imu,239.178719,,,,,,,83.2775076,-41.31529880000002,117.9520848
imu,239.280098,,,,,,,80.8238604,-40.90025400000001,118.1351928
imu,239.884635,0.5514968816000001,-9.267181330400001,3.4381822944,0.8749059399999999,2.65379304,-4.169303899999999,,,
imu,239.893452,0.5443190480000001,-9.2719665528,3.4435656696,1.00201341,2.45191647,-4.40108811,,,
imu,239.902269,0.5520950344000001,-9.2851259144,3.4549305728,1.32352054,2.27994754,-4.47585721,,,
imu,239.911086,0.5479079648000001,-9.279144386400002,3.456725031200001,1.63755076,2.08554788,-4.33379592,,,
imu,239.919903,0.5425245896,-9.283331456,3.4555287256,1.93662716,1.8761944,-4.25902682,,,
imu,239.92872,0.5120187968000001,-9.2899111368,3.4525379616,1.98148862,1.62945637,-4.386134289999999,,,
imu,239.937537,0.5114206440000001,-9.309650179200002,3.445360128,2.01139626,1.52477963,-4.26650373,,,
imu,239.946354,0.5156077136000001,-9.3036686512,3.4591176424,2.02635008,1.40514907,-4.15435008,,,
imu,239.955171,0.4797185456,-9.2917055952,3.463304712000001,2.23570356,1.34533379,-3.9449966,,,
imu,239.963988,0.4761296288000001,-9.308453873600001,3.460912100800001,2.32542648,1.17336486,-3.76555076,,,
imu,239.972805,0.46356842,-9.307257568,3.457921336800001,2.29551884,1.18831868,-3.78798149,,,
imu,239.981622,0.4587831976000001,-9.297687123200001,3.460313948,2.31047266,1.14345722,-3.70573548,,,
imu,239.990439,0.46356842,-9.298883428800002,3.4818474488,2.31794957,1.26308778,-3.71321239,,,
imu,239.999255,0.4462219888000001,-9.3335762912,3.4836419072,2.51234923,1.24065705,-3.62348947,,,
imu,240.007751,0.4348570856000001,-9.361091320000002,3.472277004,2.43758013,1.39767216,-3.67582784,,,
imu,240.016246,0.4528016696000001,-9.361689472800002,3.4650991704,2.16841137,1.63693328,-3.7206893,,,
imu,240.024741,0.4575868920000001,-9.3443430416,3.4698843928,2.07868845,1.71170238,-3.63844329,,,
imu,240.033237,0.4414367664,-9.338959666400001,3.457921336800001,1.98148862,1.80890221,-3.54872037,,,
imu,240.041732,0.4539979752000001,-9.315033554400001,3.4411730584,2.06373463,1.89114822,-3.70573548,,,
imu,240.050227,0.46356842,-9.3126409432,3.435789683200001,2.14598064,2.01825569,-3.97490424,,,
imu,240.058723,0.4528016696000001,-9.337165208000002,3.4549305728,1.92915025,1.81637912,-4.04967334,,,
imu,240.067218,0.4372496968000001,-9.3622876256,3.4597157952,1.98148862,1.66684092,-4.22911918,,,
imu,240.075713,0.424688488,-9.376045140000002,3.4615102536,1.92167334,1.75656384,-4.22911918,,,
imu,240.084209,0.4234921824,-9.377241445600001,3.451939808800001,1.76465823,1.71917929,-4.23659609,,,
imu,240.092704,0.4366515440000001,-9.3628857784,3.457323184,1.75718132,2.04068642,-4.06462716,,,
imu,240.101199,0.4324644744,-9.344941194400002,3.4507435032,1.71979677,2.13788625,-3.84779677,,,
imu,240.109695,0.4324644744,-9.344941194400002,3.448350892000001,1.61512003,2.33976282,-3.496382,,,
imu,240.11819,0.4450256832000001,-9.347333805600002,3.4322007664,1.6674584,2.48930102,-3.22721324,,,
imu,240.126685,0.4593813504000001,-9.340155972000002,3.4196395576,1.67493531,2.58650085,-3.29450543,,,
imu,240.135181,0.4821111568000001,-9.334174444000002,3.4130598768,1.85438115,2.58650085,-3.37675144,,,
imu,240.143676,0.4833074624000001,-9.322211388000001,3.395713445600001,2.0413039,2.42948574,-3.63844329,,,
imu,240.152171,0.4898871432,-9.325800304800001,3.386143000800001,2.28056502,2.31733209,-3.86275059,,,
imu,240.160667,0.4892889904,-9.343744888800002,3.373581792,2.47496468,2.07059406,-4.17678081,,,
imu,240.169162,0.481513004,-9.361689472800002,3.376572556000001,2.53477996,1.89862513,-4.26650373,,,
imu,240.177657,0.4737370176,-9.3658765424,3.376572556000001,2.68431816,1.98834805,-4.27398064,,,
imu,240.186153,0.4653628784000001,-9.373054376,3.3759744032,2.66188743,1.90610204,-4.11696553,,,
imu,240.194648,0.4671573368000001,-9.372456223200002,3.370591028000001,2.54225687,1.71170238,-4.19921154,,,
imu,240.203143,0.4641665728000001,-9.358100556000002,3.368198416800001,2.46748777,1.56216418,-4.17678081,,,
imu,240.211599,0.4432312248,-9.344941194400002,3.355637208000001,2.30299575,1.46496435,-4.20668845,,,
imu,240.220055,0.4193051128000001,-9.338959666400001,3.341879693600001,2.32542648,1.44253362,-4.146873169999999,,,
imu,240.228511,0.4061457512000001,-9.328192916,3.318551734400001,2.35533412,1.32290306,-4.06462716,,,
imu,240.236967,0.3870048616000001,-9.346137500000001,3.316757276000001,2.2656112,1.38271834,-4.169303899999999,,,
imu,240.245423,0.3804251808,-9.346137500000001,3.310775748,2.27308811,1.46496435,-4.079580979999999,,,
imu,240.253879,0.3864067088000001,-9.370661764800001,3.301803456,2.22074974,1.59207182,-3.95995042,,,
imu,240.262335,0.385808556,-9.3832229736,3.3119720536,2.2656112,1.88367131,-3.83284295,,,
imu,240.270791,0.391790084,-9.4107380024,3.3119720536,2.14598064,2.12293243,-3.75807385,,,
imu,240.279247,0.4037531400000001,-9.431075197600002,3.3173554288,2.22822665,2.30237827,-3.50385891,,,
imu,240.287703,0.424688488,-9.4591883792,3.3000089976,2.22074974,2.52668557,-3.43656672,,,
imu,240.296158,0.4372496968000001,-9.462777296000002,3.305392372800001,1.97401171,2.53416248,-3.53376655,,,
imu,240.304614,0.4528016696000001,-9.486105255200002,3.3394870824,1.86185806,2.49677793,-3.57862801,,,
imu,240.31307,0.4671573368000001,-9.4944793944,3.330514790400001,1.5926893,2.36219355,-3.59358183,,,
imu,240.321526,0.4528016696000001,-9.5082369088,3.346664916,1.26370526,2.27247063,-3.7954584,,,
imu,240.329982,0.4743351704000001,-9.4974701584,3.331711096,0.8674290299999999,1.97339423,-3.91508896,,,
imu,240.338438,0.4797185456,-9.481320032800001,3.349655680000001,0.41133752,1.91357895,-3.91508896,,,
imu,240.346894,0.4569887392,-9.464571754400001,3.3370944712,-0.2017691,1.83133294,-3.68330475,,,
imu,240.35535,0.454596128,-9.440645642400002,3.338290776800001,-0.62047606,1.85376367,-3.26459779,,,
imu,240.363806,0.4551942808000001,-9.425691822400001,3.326327720800001,-1.01675229,1.8014253,-3.13749032,,,
imu,240.372262,0.4557924336,-9.4077472384,3.318551734400001,-1.23358268,1.86871749,-3.07767504,,,
imu,240.380718,0.4611758088,-9.394587876800001,3.314962817600001,-1.36816706,1.89114822,-3.05524431,,,
imu,240.389173,0.4563905864000001,-9.398774946400001,3.320944345600001,-1.44293616,1.80890221,-3.08515195,,,
imu,240.397629,0.4414367664,-9.381428515200001,3.3179535816,-1.38312088,1.86124058,-3.17487487,,,
imu,240.406085,0.4390441552000001,-9.3622876256,3.31974804,-1.49527453,1.86124058,-3.41413599,,,
imu,240.414541,0.4187069600000001,-9.3658765424,3.3299166376,-1.39059779,1.88367131,-3.63844329,,,
imu,240.422997,0.4187069600000001,-9.367671000800001,3.3388889296,-1.2485365,2.13040934,-3.67582784,,,
imu,240.431453,0.4288755576000001,-9.370063612000001,3.351450138400001,-1.28592105,2.16779389,-3.70573548,,,
imu,240.439909,0.4205014184,-9.376045140000002,3.355637208000001,-1.21862886,2.36219355,-3.86275059,,,
imu,240.448365,0.4252866408000001,-9.377839598400001,3.3813577784,-1.25601341,2.3995781,-3.89265823,,,
imu,240.456821,0.430670016,-9.378437751200002,3.381955931200001,-1.33825942,2.57154703,-3.82536604,,,
imu,240.465277,0.4456238360000001,-9.371259917600002,3.396311598400001,-1.35321324,2.73603905,-3.66087402,,,
imu,240.473733,0.4468201416000001,-9.385615584800002,3.3969097512,-1.52518217,2.6986545,-3.58610492,,,
imu,240.482188,0.4611758088,-9.370661764800001,3.391526376000001,-1.71210492,2.89305416,-3.48890509,,,
imu,240.490644,0.4689517952000001,-9.361091320000002,3.4130598768,-1.79435093,2.74351596,-3.58610492,,,
imu,240.4991,0.4749333232000001,-9.3413522776,3.4058820432,-1.79435093,2.68370068,-3.45152054,,,
imu,240.507556,0.4761296288000001,-9.329987374400002,3.3951152928,-1.94388913,2.69117759,-3.51133582,,,
imu,240.516012,0.4874945320000001,-9.3419504304,3.4022931264,-1.78687402,2.57154703,-3.48890509,,,
imu,240.524468,0.5048409632,-9.334174444000002,3.4142561824,-1.68967419,2.53416248,-3.43656672,,,
imu,240.532924,0.502448352,-9.323407693600002,3.421434016000001,-1.4728438,2.57154703,-3.41413599,,,
imu,240.54138,0.4976631296000001,-9.325202152000001,3.4238266272,-1.54013599,2.3995781,-3.52628964,,,
imu,240.549836,0.5072335744,-9.363483931200001,3.4459582808,-1.72705874,2.28742445,-3.55619728,,,
imu,240.558292,0.4874945320000001,-9.3622876256,3.447154586400001,-1.75696638,2.13788625,-3.50385891,,,
imu,240.566748,0.4946723656000001,-9.348530111200002,3.4585194896,-1.87659694,2.07059406,-3.5711511,,,
imu,240.575204,0.4946723656000001,-9.3455393472,3.4645010176,-1.94388913,1.98087114,-3.5711511,,,
imu,240.583659,0.490485296,-9.3317818328,3.460912100800001,-2.06351969,1.92105586,-3.56367419,,,
imu,240.592115,0.4898871432,-9.346137500000001,3.457323184,-2.21305789,1.69674856,-3.5711511,,,
imu,240.600571,0.4874945320000001,-9.332978138400001,3.472875156800001,-2.27287317,1.74161002,-3.57862801,,,
imu,240.609027,0.49347606,-9.325202152000001,3.4848382128,-2.4448421,1.71170238,-3.52628964,,,
imu,240.617488,0.4898871432,-9.3317818328,3.496203116000001,-2.4448421,1.58459491,-3.496382,,,
imu,240.625949,0.4731388648000001,-9.325202152000001,3.497997574400001,-2.49718047,1.62945637,-3.50385891,,,
imu,240.63441,0.4749333232000001,-9.336567055200002,3.493212352,-2.49718047,1.59954873,-3.45152054,,,
imu,240.642871,0.4910834488,-9.325800304800001,3.505175408000001,-2.58690339,1.40514907,-3.40665908,,,
imu,240.651332,0.4857000736000001,-9.309650179200002,3.5243162976,-2.48970356,1.38271834,-3.21973633,,,
imu,240.659793,0.4857000736000001,-9.298285276000001,3.523119992000001,-2.42988828,1.40514907,-3.21973633,,,
imu,240.668254,0.49347606,-9.304266804000001,3.514745852800001,-2.40745755,1.40514907,-3.24216706,,,
imu,240.676715,0.4791203928000001,-9.2917055952,3.523119992000001,-2.17567334,1.19579559,-3.33188998,,,
imu,240.685176,0.4743351704000001,-9.271368400000002,3.5249144504,-1.9962275,1.22570323,-3.3468438,,,
imu,240.693637,0.4701481008,-9.262994260800001,3.5404664232,-2.13828879,1.2780416,-3.46647436,,,
imu,239.381588,,,,,,,83.6315164,-42.01110920000002,115.766996
imu,239.48312,,,,,,,80.9459324,-40.43638040000002,118.5990664
imu,239.584683,,,,,,,81.1534548,-41.70592920000003,116.3651488
imu,239.686276,,,,,,,81.287734,-40.96129000000002,118.5868592
imu,239.787808,,,,,,,81.21449080000001,-40.82701080000002,119.0263184
imu,239.889431,,,,,,,81.8126436,-40.92466840000002,118.4892016
imu,239.990963,,,,,,,81.4586348,-40.9124612,118.5990664
imu,240.092495,,,,,,,81.165662,-41.31529880000002,118.1229856
imu,240.702098,0.4647647256,-9.260601649600002,3.5249144504,-1.89902767,1.26308778,-3.44404363,,,
imu,240.710559,0.4605776560000001,-9.254021968800002,3.5314941312,-1.622382,1.28551851,-3.36179762,,,
imu,240.71902,0.4689517952000001,-9.232488468000001,3.5458497984,-1.45788998,1.51730272,-3.39170526,,,
imu,240.727481,0.4695499480000001,-9.217534648,3.551831326400001,-1.35321324,1.60702564,-3.45152054,,,
imu,240.735942,0.4641665728000001,-9.2133475784,3.547046104000001,-1.00927538,1.74161002,-3.45152054,,,
imu,240.744403,0.4575868920000001,-9.194206688800001,3.554223937600001,-0.91955246,1.68927165,-3.65339711,,,
imu,240.752864,0.4665591840000001,-9.211553120000001,3.567981452000001,-0.59056842,1.67431783,-3.7206893,,,
imu,240.761325,0.4689517952000001,-9.2300958568,3.5667851464,-0.2765382,1.75656384,-3.78798149,,,
imu,240.769786,0.4749333232000001,-9.242657065600001,3.570972216,-0.02980017,1.78647148,-3.98985806,,,
imu,240.778247,0.4767277816000001,-9.2342829264,3.5733648272,0.21693786,1.93600968,-3.98985806,,,
imu,240.786708,0.4851019208000001,-9.2408626072,3.575159285600001,0.42629134,1.88367131,-4.08705789,,,
imu,240.795169,0.4874945320000001,-9.223516176,3.5775518968,0.56835263,1.74908693,-4.06462716,,,
imu,240.80363,0.4839056152000001,-9.218132800800001,3.5781500496,0.7552753799999999,1.76404075,-3.97490424,,,
imu,240.812091,0.4928779072000001,-9.220525412,3.576953744000001,0.97210577,1.62197946,-4.07210407,,,
imu,240.820943,0.4791203928000001,-9.250433052000002,3.5871223416,1.12912088,1.53225654,-4.28145755,,,
imu,240.829794,0.4701481008,-9.283331456,3.607459536800001,1.2936129,1.47244126,-4.22164227,,,
imu,240.838645,0.4629702672000001,-9.315033554400001,3.621217051200001,1.31604363,1.41262598,-4.21416536,,,
imu,240.847497,0.4468201416000001,-9.335370749600001,3.61882444,1.16650543,1.29299542,-4.25154991,,,
imu,240.856348,0.4252866408000001,-9.325202152000001,3.61882444,1.09921324,1.33037997,-4.18425772,,,
imu,240.8652,0.4420349192,-9.3419504304,3.5990853976,0.9571519499999999,1.45001053,-3.82536604,,,
imu,240.874051,0.4318663216,-9.33118368,3.591309411200001,0.97958268,1.64441019,-3.35432071,,,
imu,240.882903,0.4360533912000001,-9.306659415200002,3.587720494400001,0.8973366700000001,1.68179474,-3.11505959,,,
imu,240.891754,0.4486146000000001,-9.316229860000002,3.570972216,1.04687487,1.83880985,-3.22721324,,,
imu,240.900605,0.4510072112,-9.301276040000001,3.55900916,1.01696723,1.80890221,-3.30198234,,,
imu,240.909457,0.4486146000000001,-9.2917055952,3.560205465600001,1.03939796,1.68179474,-3.55619728,,,
imu,240.918308,0.4533998224,-9.2899111368,3.5572147016,1.00201341,1.75656384,-3.77302767,,,
imu,240.92716,0.4342589328000001,-9.286920372800001,3.5482424096,1.00949032,1.6518871,-4.04967334,,,
imu,240.936011,0.4205014184,-9.283929608800001,3.548840562400001,0.91229049,1.62197946,-4.10948862,,,
imu,240.944863,0.4234921824,-9.294098206400001,3.5536257848,1.03939796,1.69674856,-4.02724261,,,
imu,240.953714,0.4240903352000001,-9.310248332,3.5548220904,0.85995212,1.67431783,-4.17678081,,,
imu,240.962565,0.4378478496000001,-9.3006778872,3.55900916,0.74779847,1.77899457,-3.93751969,,,
imu,240.971417,0.4372496968000001,-9.291107442400001,3.5566165488,0.63564482,1.74161002,-3.90761205,,,
imu,240.980131,0.4402404608,-9.286920372800001,3.5482424096,0.58330645,1.66684092,-3.95247351,,,
imu,240.988982,0.4372496968000001,-9.2935000536,3.5476442568,0.66555246,1.84628676,-3.66087402,,,
imu,240.997834,0.4288755576000001,-9.288714831200002,3.5404664232,0.58330645,1.68927165,-3.69078166,,,
imu,241.006685,0.4234921824,-9.284527761600001,3.5338867424,0.51601426,1.64441019,-3.91508896,,,
imu,241.015537,0.4216977240000001,-9.286920372800001,3.54405534,0.47862971,1.65936401,-3.97490424,,,
imu,241.023982,0.4181088072000001,-9.290509289600001,3.5452516456,0.53096808,1.59954873,-3.96742733,,,
imu,241.032428,0.4145198904,-9.290509289600001,3.550036868,0.5982602699999999,1.54721036,-3.91508896,,,
imu,241.040874,0.4031549872,-9.304266804000001,3.5536257848,0.70293701,1.64441019,-3.78798149,,,
imu,241.04932,0.3947808480000001,-9.326398457600002,3.563196229600001,0.70293701,1.66684092,-3.65339711,,,
imu,241.057765,0.3947808480000001,-9.3174261656,3.5596073128,0.5982602699999999,1.8014253,-3.56367419,,,
imu,241.066211,0.4109309736,-9.288714831200002,3.5482424096,0.57582954,1.99582496,-3.47395127,,,
imu,241.074657,0.4199032656,-9.271368400000002,3.550635020800001,0.5459219,1.98834805,-3.54872037,,,
imu,241.083103,0.4294737104000001,-9.267181330400001,3.570972216,0.56087572,1.86871749,-3.54124346,,,
imu,241.091548,0.4294737104000001,-9.259405344000001,3.570374063200001,0.77770611,1.92853277,-3.7206893,,,
imu,241.099994,0.4324644744,-9.2342829264,3.5428590344,1.03192105,1.92853277,-3.84031986,,,
imu,241.10844,0.4492127528000001,-9.174467646400002,3.5249144504,1.31604363,1.66684092,-4.11696553,,,
imu,241.116886,0.4713444064,-9.159513826400001,3.518932922400001,1.68988913,1.62945637,-4.23659609,,,
imu,241.125331,0.4916816016,-9.114054213600001,3.492614199200001,2.42262631,1.53973345,-4.13939626,,,
imu,241.133777,0.5221873944000001,-9.093717018400001,3.488427129600001,3.282470959999999,1.18831868,-4.29641137,,,
imu,241.142223,0.5233837000000001,-9.121830200000002,3.512353241600001,4.20213089,0.7995193599999997,-4.63287232,,,
imu,241.150669,0.5245800056000001,-9.208562356000002,3.5596073128,5.12926773,0.3957662200000001,-5.08896383,,,
imu,241.159114,0.5108224912,-9.2659850248,3.5691777576,5.97415856,0.1265974599999997,-5.05905619,,,
imu,241.16756,0.4671573368000001,-9.2917055952,3.569775910400001,6.11621985,-0.1201405700000002,-5.01419473,,,
imu,241.176006,0.4617739616000001,-9.3246039992,3.572766674400001,6.40034243,0.08173599999999981,-4.37118047,,,
imu,241.184452,0.4731388648000001,-9.2899111368,3.6110484536,6.57978827,0.04435144999999974,-3.95995042,,,
imu,241.192897,0.4384460024000001,-9.3174261656,3.588916800000001,6.22089659,-0.3444478700000002,-4.19921154,,,
imu,241.201343,0.3911919312,-9.332978138400001,3.583533424800001,6.29566569,-0.2173404000000003,-3.65339711,,,
imu,241.209789,0.4139217376000001,-9.364680236800002,3.562598076800001,5.84705109,0.09668981999999993,-2.87579847,,,
imu,241.218234,0.3929863896,-9.378437751200002,3.54405534,5.13674464,0.1191205499999999,-2.71130645,,,
imu,241.226706,0.3612842912,-9.398774946400001,3.5428590344,4.75542223,0.1714589200000001,-2.69635263,,,
imu,241.235177,0.3535083048,-9.4244955168,3.5195310752,4.17222325,0.3733354899999997,-2.34493786,,,
imu,241.243648,0.3415452488,-9.427486280800002,3.5087643248,3.47687062,0.7920424499999998,-1.96361545,,,
imu,241.252119,0.3253951232,-9.440645642400002,3.508166172,3.05816366,1.15093413,-2.12810747,,,
imu,241.26059,0.3259932760000001,-9.440645642400002,3.490221588,2.51234923,1.47991817,-2.2253073,,,
imu,241.269062,0.3098431504,-9.4412437952,3.471678851200001,2.10859609,1.95844041,-2.15801511,,,
imu,241.277533,0.311039456,-9.4286825864,3.449547197600001,1.50296638,2.27994754,-2.41970696,,,
imu,241.286004,0.323002512,-9.438851184,3.4459582808,1.10669015,2.78090051,-2.5243837,,,
imu,241.294475,0.3331711096,-9.433467808800001,3.4429675168,0.68798319,3.28933039,-2.70382954,,,
imu,241.302946,0.3559009160000001,-9.417915836,3.4435656696,0.41133752,3.71551426,-2.8234601,,,
imu,241.311417,0.376836264,-9.419710294400002,3.4250229328,0.14216876,3.99215993,-2.96552139,,,
imu,241.319889,0.3983697648000001,-9.4041583216,3.4256210856,0.0001074699999999984,4.4183438,-3.02533667,,,
imu,241.32836,0.4372496968000001,-9.403560168800002,3.442369364000001,-0.26906129,4.807143119999999,-3.22721324,,,
imu,241.336831,0.4641665728000001,-9.399971252000002,3.4459582808,-0.41112258,4.8669584,-3.24216706,,,
imu,241.345302,0.4791203928000001,-9.4041583216,3.4585194896,-0.65786061,4.7921893,-3.39918217,,,
imu,241.353773,0.5036446576000001,-9.399971252000002,3.472875156800001,-0.97189083,4.70994329,-3.5711511,,,
imu,241.362244,0.5281689224000001,-9.372456223200002,3.470482545600001,-1.36816706,4.42582071,-3.78798149,,,
imu,241.370716,0.5449172008000001,-9.350324569600001,3.478856684800001,-1.54013599,4.02206757,-4.0197657,,,
imu,241.379187,0.5419264368000001,-9.332978138400001,3.460313948,-1.64481273,3.71551426,-4.124442439999999,,,
imu,241.387658,0.5269726168000001,-9.295294512000002,3.4435656696,-1.9214584,3.23699202,-4.11696553,,,
imu,241.396129,0.5317578392000001,-9.266583177600001,3.4387804472,-1.83921239,2.6986545,-4.19173463,,,
imu,241.4046,0.5215892416000001,-9.2366755376,3.4238266272,-1.42798234,2.34723973,-4.169303899999999,,,
imu,241.413071,0.5084298800000001,-9.212151272800002,3.4196395576,-1.08404448,1.75656384,-4.48333412,,,
imu,241.421543,0.4857000736000001,-9.211553120000001,3.397507904,-0.71767589,1.2780416,-4.49828794,,,
imu,241.430025,0.4719425592000001,-9.215142036800001,3.3909282232,0.06739966,0.94905756,-4.363703559999999,,,
imu,241.438508,0.4593813504000001,-9.221123564800001,3.3969097512,0.8823828499999999,0.76213481,-4.35622665,,,
imu,241.44699,0.4498109056,-9.221721717600001,3.414854335200001,1.60016621,0.6125966099999998,-4.169303899999999,,,
imu,241.455473,0.4324644744,-9.250433052000002,3.4381822944,2.17588828,0.4929660499999997,-4.08705789,,,
imu,241.463956,0.430670016,-9.286920372800001,3.453734267200001,2.69927198,0.5901658799999998,-3.82536604,,,
imu,241.472438,0.4210995712,-9.328192916,3.4824456016,2.95348692,0.6125966099999998,-3.73564312,,,
imu,241.480921,0.4139217376000001,-9.355109792000002,3.496203116000001,3.07311748,0.7322271699999998,-3.496382,,,
imu,241.489404,0.4318663216,-9.363483931200001,3.5195310752,2.7142258,0.76213481,-3.38422835,,,
imu,241.497886,0.4318663216,-9.381428515200001,3.5225218392,2.6394567,1.0537343,-3.27955161,,,
imu,241.506369,0.4312681688,-9.367671000800001,3.505175408000001,2.46001086,1.23318014,-3.13749032,,,
imu,241.514851,0.4402404608,-9.356306097600001,3.4860345184,2.24318047,1.43505671,-3.04029049,,,
imu,240.194027,,,,,,,81.0924188,-40.94908280000003,119.0141112
imu,240.29562,,,,,,,83.4484084,-41.54723560000002,118.3060936
imu,240.397396,,,,,,,81.54408520000001,-40.64390280000001,118.086364
imu,240.498776,,,,,,,83.31412920000001,-41.95007320000001,115.9134824
imu,240.600308,,,,,,,81.1168332,-40.66831720000002,118.0009136
imu,240.701901,,,,,,,81.66615720000001,-41.58385720000002,115.889068
imu,240.803463,,,,,,,81.470842,-40.59507400000002,118.0497424
imu,240.904995,,,,,,,81.4830492,-40.54624520000001,118.5624448
imu,241.523334,0.4468201416000001,-9.346137500000001,3.4710806984,2.1908421,1.58459491,-2.95804448,,,
imu,241.531817,0.4528016696000001,-9.327594763200002,3.471678851200001,1.83942733,1.70422547,-3.00290594,,,
imu,241.540299,0.4695499480000001,-9.319818776800002,3.4680899344,1.82447351,1.91357895,-3.18235178,,,
imu,241.548782,0.4755314760000001,-9.324005846400002,3.460313948,1.95158098,2.1005017,-3.4216129,,,
imu,241.557264,0.4647647256,-9.3383615136,3.4585194896,1.86933497,2.19770153,-3.95247351,,,
imu,241.565747,0.4779240872000001,-9.3419504304,3.4800529904,1.70484295,2.27994754,-4.25902682,,,
imu,241.57423,0.454596128,-9.370063612000001,3.491417893600001,1.60764312,2.22760917,-4.43847266,,,
imu,241.582712,0.4354552384000001,-9.4005694048,3.4848382128,1.39828964,2.29490136,-4.68521069,,,
imu,241.591195,0.4444275304,-9.4113361552,3.490819740800001,1.28613599,2.50425484,-4.63287232,,,
imu,241.599678,0.442633072,-9.391597112800001,3.504577255200001,1.00201341,2.63883922,-4.75250288,,,
imu,241.60816,0.4354552384000001,-9.3832229736,3.5087643248,0.55339881,2.76594669,-4.73007215,,,
imu,241.616643,0.439642308,-9.381428515200001,3.4878289768,0.2468455,2.78090051,-4.647826139999999,,,
imu,241.625125,0.4360533912000001,-9.361091320000002,3.472277004,0.14964567,2.8481927,-4.57305704,,,
imu,241.633565,0.43366078,-9.3413522776,3.4698843928,-0.02980017,2.83323888,-4.75250288,,,
imu,241.642004,0.4498109056,-9.318622471200001,3.460313948,-0.31392275,2.78837742,-4.66277996,,,
imu,241.650444,0.4384460024000001,-9.3036686512,3.4615102536,-0.18681528,2.91548489,-4.42351884,,,
imu,241.658883,0.43366078,-9.281536997600002,3.4459582808,-0.0522309,2.87062343,-4.13191935,,,
imu,241.667322,0.4402404608,-9.263592413600001,3.4393786,0.02253820000000001,2.88557725,-3.85527368,,,
imu,241.675762,0.4510072112,-9.272564705600002,3.4411730584,0.19450713,2.82576197,-3.62348947,,,
imu,241.684201,0.4522035168,-9.280340692000001,3.4417712112,0.32909151,2.75846978,-3.40665908,,,
imu,241.69264,0.4605776560000001,-9.284527761600001,3.445360128,0.5459219,2.70613141,-3.09262886,,,
imu,241.70108,0.4719425592000001,-9.2958926648,3.444163822400001,0.6954601,2.59397776,-2.99542903,,,
imu,241.709519,0.4749333232000001,-9.298285276000001,3.4405749056,0.9272443100000001,2.43696265,-2.91318302,,,
imu,241.717959,0.4719425592000001,-9.304266804000001,3.4459582808,1.12164397,2.21265535,-2.80102937,,,
imu,241.726398,0.4665591840000001,-9.3108464848,3.444163822400001,1.33847436,2.07059406,-2.72626027,,,
imu,241.734837,0.4665591840000001,-9.312042790400001,3.4417712112,1.38333582,1.83880985,-2.80850628,,,
imu,241.743277,0.4587831976000001,-9.329987374400002,3.456725031200001,1.31604363,1.61450255,-2.98795212,,,
imu,241.751716,0.451605364,-9.3557079448,3.462108406400001,1.45062801,1.63693328,-3.03281358,,,
imu,241.760155,0.4402404608,-9.3718580704,3.471678851200001,1.43567419,1.7266562,-2.99542903,,,
imu,241.768595,0.4312681688,-9.370063612000001,3.4639028648,1.43567419,1.83880985,-3.04029049,,,
imu,241.777034,0.4318663216,-9.357502403200002,3.436985988800001,1.24875144,1.77899457,-3.09262886,,,
imu,241.785474,0.4288755576000001,-9.3383615136,3.434593377600001,1.39081273,1.84628676,-3.10010577,,,
imu,241.793913,0.4420349192,-9.356904250400001,3.4591176424,1.18145925,1.98834805,-3.21225942,,,
imu,241.802352,0.4312681688,-9.382026668000002,3.462108406400001,1.30856672,2.08554788,-3.30945925,,,
imu,241.810792,0.4312681688,-9.417915836,3.460313948,1.22632071,2.09302479,-3.62348947,,,
imu,241.819231,0.4414367664,-9.392195265600002,3.454332420000001,1.16650543,2.21265535,-3.82536604,,,
imu,241.827671,0.43366078,-9.3754469872,3.444163822400001,0.9945364999999999,2.39210119,-3.91508896,,,
imu,241.836487,0.4294737104000001,-9.374250681600001,3.4585194896,0.8749059399999999,2.53416248,-3.46647436,,,
imu,241.845304,0.4528016696000001,-9.3622876256,3.449547197600001,0.73284465,2.66126995,-3.30198234,,,
imu,241.854121,0.4623721144,-9.3592968616,3.442369364000001,0.6954601,2.72856214,-3.33188998,,,
imu,241.862938,0.4737370176,-9.3664746952,3.439976752800001,0.47862971,2.87810034,-3.30945925,,,
imu,241.871755,0.4910834488,-9.363483931200001,3.4381822944,0.36647606,2.6986545,-3.30945925,,,
imu,241.880572,0.505439116,-9.3419504304,3.4292100024,0.3963837,2.51173175,-3.36179762,,,
imu,241.889389,0.4946723656000001,-9.3377633608,3.436985988800001,0.28423005,2.35471664,-3.51881273,,,
imu,241.898206,0.4827093096,-9.337165208000002,3.439976752800001,0.1720764,2.05564024,-3.47395127,,,
imu,241.907023,0.4731388648000001,-9.323407693600002,3.436985988800001,0.13469185,1.98087114,-3.43656672,,,
imu,241.91584,0.4689517952000001,-9.325800304800001,3.433397072000001,0.11226112,1.92105586,-3.42908981,,,
imu,241.924657,0.4773259344000001,-9.325800304800001,3.436985988800001,0.05992275,2.04816333,-3.33188998,,,
imu,241.933474,0.4833074624000001,-9.325800304800001,3.4501453504,-0.08213854000000001,2.08554788,-3.09262886,,,
imu,241.942291,0.4803166984,-9.3204169296,3.448350892000001,0.0001074699999999984,2.09302479,-2.98047521,,,
imu,241.951107,0.4821111568000001,-9.340155972000002,3.4489490448,-0.03727708,1.96591732,-2.95056757,,,
imu,241.959924,0.4731388648000001,-9.353913486400002,3.449547197600001,0.05244583999999999,1.93600968,-2.98047521,,,
imu,241.00672,,,,,,,81.3243556,-40.41196600000001,117.7933912
imu,241.108313,,,,,,,81.03138279999999,-40.52183080000002,118.6478952
imu,241.209906,,,,,,,81.6417428,-40.64390280000001,118.1596072
imu,241.311407,,,,,,,81.49525639999999,-40.8148036,118.6723096
imu,241.413,,,,,,,83.47282279999999,-40.6194884,118.4892016
imu,241.514563,,,,,,,80.78723880000001,-40.9124612,119.0873544
imu,241.616675,,,,,,,81.29994119999999,-40.57065960000001,118.9774896
imu,241.717688,,,,,,,82.8258412,-41.69372200000001,116.6703288
imu,241.81925,,,,,,,80.61633800000001,-40.64390280000001,118.0497424
imu,241.920813,,,,,,,81.20228359999999,-40.39975880000001,117.8910488
