Type,Timestamp,Data Accelerometer X,Data Accelerometer Y,Data Accelerometer Z,Data Gyroscope X,Data Gyroscope Y,Data Gyroscope Z,Data Magnetometer X,Data Magnetometer Y,Data Magnetometer Z
imu,316.642704,0.3086468448,-9.4137287664,3.4501453504,2.44505704,-0.3594016900000003,-3.6459202,,,
imu,316.651191,0.3008708584000001,-9.438851184,3.4501453504,2.24318047,-0.1425713000000002,-3.61601256,,,
imu,316.659677,0.2889078024000001,-9.450216087200001,3.451939808800001,2.00391935,0.27613566,-3.45152054,,,
imu,316.668164,0.2948893304,-9.4591883792,3.449547197600001,1.75718132,0.6350273399999997,-3.51133582,,,
imu,316.67665,0.2877114968,-9.444832712,3.4477527392,1.30856672,1.09859576,-3.47395127,,,
imu,316.685136,0.3032634696000001,-9.437056725600002,3.4639028648,1.0693056,1.45748744,-3.39170526,,,
imu,316.693623,0.3086468448,-9.457393920800001,3.4698843928,0.80013684,1.71917929,-3.40665908,,,
imu,316.70208,0.3026653168,-9.464571754400001,3.4734733096,0.55339881,1.97339423,-3.5711511,,,
imu,316.710537,0.3194135952000001,-9.448421628800002,3.456725031200001,0.29170696,2.36219355,-3.47395127,,,
imu,316.718994,0.3415452488,-9.414925072,3.4507435032,-0.02232326000000001,2.48182411,-3.7206893,,,
imu,316.727452,0.3379563320000001,-9.419710294400002,3.470482545600001,-0.43355331,2.88557725,-3.84031986,,,
imu,316.735909,0.3397507904000001,-9.411934308000001,3.472875156800001,-0.64290679,3.10988455,-3.52628964,,,
imu,316.744366,0.3505175408000001,-9.402363863200002,3.4591176424,-1.00179847,3.54354533,-3.28702852,,,
imu,316.752823,0.3756399584,-9.3975786408,3.4758659208,-1.15881358,3.78280645,-3.24964397,,,
imu,316.76128,0.3953790008,-9.391597112800001,3.4710806984,-1.42050543,4.05197521,-3.33188998,,,
imu,316.769738,0.4127254320000001,-9.361689472800002,3.4698843928,-1.48779762,4.15665195,-3.31693616,,,
imu,316.778195,0.4210995712,-9.330585527200002,3.4585194896,-1.59995127,4.20899032,-3.47395127,,,
imu,316.786652,0.4330626272,-9.309052026400002,3.463304712000001,-1.5476129,4.32114397,-3.71321239,,,
imu,316.795109,0.4486146000000001,-9.280938844800001,3.4507435032,-1.31582869,4.27628251,-3.90761205,,,
imu,316.803566,0.4528016696000001,-9.268377636,3.4459582808,-1.24105959,4.216467229999999,-4.102011709999999,,,
imu,316.812023,0.4659610312,-9.2552182744,3.4555287256,-1.15881358,4.13422122,-4.146873169999999,,,
imu,316.820481,0.4671573368000001,-9.2378718432,3.456725031200001,-0.92702937,4.06692903,-4.25154991,,,
imu,316.828938,0.4797185456,-9.253423816000002,3.456725031200001,-0.77749117,3.93234465,-4.13939626,,,
imu,316.837395,0.4839056152000001,-9.2486385936,3.467491781600001,-0.5307531400000001,3.70056044,-3.95247351,,,
imu,316.845852,0.4845037680000001,-9.2576108856,3.475267768000001,-0.45598404,3.58840679,-3.73564312,,,
imu,316.854309,0.4910834488,-9.268377636,3.4776603792,-0.22419983,3.37905331,-3.5711511,,,
imu,316.862767,0.4910834488,-9.270172094400001,3.493212352,-0.08961545,3.25942275,-3.39918217,,,
imu,316.871224,0.4922797544,-9.267779483200002,3.4920160464,0.05992275,3.08745382,-3.2720747,,,
imu,316.879681,0.499457588,-9.2689757888,3.4997920328,0.26927623,2.76594669,-3.25712088,,,
imu,316.888138,0.4862982264000001,-9.2827333032,3.4973994216,0.45619898,2.6986545,-3.18235178,,,
imu,316.896595,0.4827093096,-9.28632222,3.5093624776,0.70293701,2.48182411,-3.14496723,,,
imu,316.90506,0.4803166984,-9.273162858400001,3.511156936,0.8524752099999999,2.38462428,-3.11505959,,,
imu,316.913525,0.4868963792000001,-9.288714831200002,3.5183347696,0.9646288599999999,2.31733209,-3.15992105,,,
imu,316.92199,0.4868963792000001,-9.294098206400001,3.5165403112,0.8973366700000001,2.30237827,-3.13749032,,,
imu,316.930455,0.4821111568000001,-9.306659415200002,3.5243162976,1.03939796,2.1752708,-3.1225365,,,
imu,316.938919,0.4833074624000001,-9.3269966104,3.538073812,1.01696723,2.12293243,-3.21973633,,,
imu,316.947384,0.4976631296000001,-9.3317818328,3.5524294792,0.9571519499999999,2.16779389,-3.21973633,,,
imu,316.955849,0.4952705184000001,-9.340754124800002,3.542260881600001,0.8674290299999999,2.06311715,-3.25712088,,,
imu,316.964314,0.499457588,-9.3557079448,3.550635020800001,0.8524752099999999,1.98087114,-3.32441307,,,
imu,316.972779,0.4970649768000001,-9.358100556000002,3.560205465600001,0.7104139199999999,1.92105586,-3.54124346,,,
imu,316.981243,0.5006538936,-9.363483931200001,3.560205465600001,0.56087572,1.92105586,-3.63096638,,,
imu,316.989708,0.4916816016,-9.350324569600001,3.5482424096,0.40386061,1.71170238,-3.63844329,,,
imu,316.998173,0.4701481008,-9.359895014400001,3.5434571872,0.23189168,1.48739508,-3.8702275,,,
imu,317.006638,0.4528016696000001,-9.3383615136,3.5314941312,0.03749201999999999,1.41262598,-3.81788913,,,
imu,317.015103,0.4498109056,-9.3174261656,3.532092284,-0.08213854000000001,1.53225654,-3.7206893,,,
imu,317.023568,0.4354552384000001,-9.305463109600002,3.5362793536,-0.05970781,1.56964109,-3.69825857,,,
imu,317.032032,0.4240903352000001,-9.290509289600001,3.5279052144,-0.15690764,1.56964109,-3.63844329,,,
imu,317.040497,0.4264829464000001,-9.28632222,3.542260881600001,-0.20924601,1.63693328,-3.7206893,,,
imu,317.048962,0.4055475984,-9.288116678400002,3.5183347696,-0.02232326000000001,1.89862513,-3.68330475,,,
imu,317.057427,0.3995660704000001,-9.287518525600001,3.509960630400001,0.1720764,2.12293243,-3.69825857,,,
imu,317.065892,0.3977716120000001,-9.271368400000002,3.521325533600001,0.33656842,2.25751681,-3.62348947,,,
imu,317.074356,0.3786307224000001,-9.2899111368,3.526110756,0.30666078,2.48182411,-3.68330475,,,
imu,317.082821,0.4043512928,-9.2899111368,3.5452516456,0.36647606,2.63883922,-3.78050458,,,
imu,317.091286,0.4037531400000001,-9.300079734400002,3.52910152,0.53096808,2.79585433,-3.78798149,,,
imu,317.099751,0.4031549872,-9.327594763200002,3.549438715200001,0.50853735,3.02763854,-3.88518132,,,
imu,317.108211,0.4199032656,-9.283929608800001,3.5195310752,0.52349117,3.38653022,-3.72816621,,,
imu,317.11667,0.4539979752000001,-9.287518525600001,3.5267089088,0.53096808,3.58092988,-3.51881273,,,
imu,317.12513,0.4593813504000001,-9.268377636,3.515942158400001,0.63564482,3.55849915,-3.54872037,,,
imu,317.13359,0.4701481008,-9.267181330400001,3.5057735608,0.66555246,3.50616078,-3.87770441,,,
imu,317.142049,0.4874945320000001,-9.269573941600001,3.497997574400001,0.8524752099999999,3.37905331,-4.11696553,,,
imu,317.150509,0.5042428104000001,-9.298883428800002,3.509960630400001,0.9945364999999999,3.19213056,-4.23659609,,,
imu,317.158969,0.5006538936,-9.328192916,3.518932922400001,1.03939796,2.80333124,-4.25154991,,,
imu,317.167429,0.4892889904,-9.340754124800002,3.529699672800001,1.09921324,2.71360832,-4.21416536,,,
imu,317.175888,0.4958686712000001,-9.3443430416,3.54405534,1.12164397,2.44443956,-4.17678081,,,
imu,317.184348,0.4928779072000001,-9.348530111200002,3.5404664232,1.11416706,2.4743472,-3.84779677,,,
imu,317.192808,0.4946723656000001,-9.340155972000002,3.5344848952,1.19641307,2.41453192,-3.45152054,,,
imu,317.201268,0.4886908376000001,-9.3383615136,3.533288589600001,1.06182869,2.29490136,-3.18982869,,,
imu,317.209727,0.481513004,-9.329987374400002,3.5135495472,1.08425942,2.2500399,-3.01038285,,,
imu,317.218187,0.502448352,-9.322809540800002,3.505175408000001,1.20388998,2.08554788,-3.01038285,,,
imu,317.226647,0.5042428104000001,-9.3204169296,3.49919388,1.0693056,1.79394839,-3.13001341,,,
imu,317.235106,0.4868963792000001,-9.307855720800001,3.4950068104,1.31604363,1.62197946,-3.32441307,,,
imu,317.243566,0.4821111568000001,-9.2935000536,3.5015864912,1.48801256,1.51730272,-3.47395127,,,
imu,317.252026,0.4641665728000001,-9.301874192800001,3.4973994216,1.5926893,1.30794924,-3.74312003,,,
imu,317.260486,0.4498109056,-9.3144354016,3.4956049632,1.57773548,1.23318014,-3.74312003,,,
imu,317.268945,0.4402404608,-9.328192916,3.500390185600001,1.37585891,1.2780416,-3.80293531,,,
imu,317.277405,0.4354552384000001,-9.325202152000001,3.500390185600001,1.45810492,1.33037997,-3.69825857,,,
imu,317.285865,0.4318663216,-9.338959666400001,3.5087643248,1.38333582,1.36776452,-3.69825857,,,
imu,317.294325,0.4294737104000001,-9.3347725968,3.5033809496,1.45810492,1.40514907,-3.45152054,,,
imu,317.302784,0.4240903352000001,-9.330585527200002,3.502184644000001,1.28613599,1.52477963,-3.41413599,,,
imu,317.311649,0.415716196,-9.318024318400001,3.5039791024,1.13659779,1.55468727,-3.39170526,,,
imu,317.320514,0.3995660704000001,-9.322809540800002,3.4968012688,0.94967504,1.64441019,-3.56367419,,,
imu,317.329378,0.3923882368,-9.325800304800001,3.493212352,0.8524752099999999,1.7266562,-3.62348947,,,
imu,317.338243,0.3846122504,-9.325202152000001,3.5069698664,0.97210577,1.88367131,-3.6459202,,,
imu,317.347108,0.3852104032000001,-9.3204169296,3.509960630400001,0.7702292,1.84628676,-3.87770441,,,
imu,317.355972,0.385808556,-9.328791068800001,3.5033809496,0.83004448,2.13788625,-3.69078166,,,
imu,317.364837,0.3834159448,-9.332978138400001,3.5039791024,0.82256757,2.30237827,-3.69825857,,,
imu,317.373702,0.3947808480000001,-9.332379985600001,3.5087643248,0.9347212199999999,2.48182411,-3.71321239,,,
imu,317.382567,0.4037531400000001,-9.328791068800001,3.5039791024,1.01696723,2.72108523,-3.65339711,,,
imu,317.391431,0.4097346680000001,-9.322809540800002,3.4956049632,1.13659779,2.80333124,-3.51881273,,,
imu,317.400296,0.4163143488000001,-9.325800304800001,3.5093624776,1.15902852,2.89305416,-3.66835093,,,
imu,317.409161,0.4276792520000001,-9.343146736000001,3.5249144504,1.12164397,2.99025399,-3.89265823,,,
imu,317.418025,0.4300718632,-9.3443430416,3.512353241600001,1.17398234,2.94539253,-3.8702275,,,
imu,317.42689,0.4288755576000001,-9.327594763200002,3.493810504800001,1.21136689,2.83323888,-3.90013514,,,
imu,317.435755,0.4456238360000001,-9.340155972000002,3.5129513944,1.13659779,2.82576197,-3.96742733,,,
imu,317.444619,0.4432312248,-9.340754124800002,3.515942158400001,1.13659779,2.9229618,-3.78798149,,,
imu,317.453484,0.4432312248,-9.330585527200002,3.5105587832,1.05435178,2.94539253,-3.45899745,,,
imu,317.462221,0.4450256832000001,-9.316229860000002,3.511156936,1.18145925,2.98277708,-3.21973633,,,
imu,317.471086,0.4593813504000001,-9.318024318400001,3.4973994216,1.19641307,3.02016163,-3.09262886,,,
imu,317.479951,0.4689517952000001,-9.319220624000002,3.4920160464,1.09921324,2.8481927,-3.15244414,,,
imu,317.488815,0.4737370176,-9.326398457600002,3.5027827968,0.97958268,2.57902394,-3.3468438,,,
imu,317.49768,0.4833074624000001,-9.322809540800002,3.508166172,0.94967504,2.53416248,-3.36927453,,,
imu,317.506545,0.4749333232000001,-9.309052026400002,3.5027827968,1.08425942,2.39210119,-3.48142818,,,
imu,317.514978,0.4659610312,-9.311444637600001,3.4968012688,1.17398234,2.33976282,-3.44404363,,,
imu,317.523411,0.4629702672000001,-9.295294512000002,3.4950068104,1.15902852,2.22760917,-3.66087402,,,
imu,317.531844,0.4563905864000001,-9.292303748000002,3.5087643248,1.19641307,2.27247063,-3.56367419,,,
imu,317.540277,0.4528016696000001,-9.2899111368,3.5087643248,1.18893616,2.21265535,-3.51881273,,,
imu,317.54871,0.4510072112,-9.284527761600001,3.4896234352,1.30856672,2.27994754,-3.48890509,,,
imu,317.557143,0.4528016696000001,-9.2970889704,3.4956049632,1.36090509,2.26499372,-3.48142818,,,
imu,317.565576,0.4486146000000001,-9.289312984,3.491417893600001,1.46558183,2.34723973,-3.3468438,,,
imu,317.574009,0.4492127528000001,-9.315631707200001,3.4997920328,1.53287402,2.33228591,-3.33936689,,,
imu,317.582442,0.4456238360000001,-9.324005846400002,3.5057735608,1.63755076,2.38462428,-3.10010577,,,
imu,317.590875,0.4474182944000001,-9.326398457600002,3.5057735608,1.55530475,2.45939338,-3.10758268,,,
imu,317.599308,0.4617739616000001,-9.324005846400002,3.5015864912,1.52539711,2.48930102,-3.15244414,,,
imu,317.607741,0.4719425592000001,-9.308453873600001,3.492614199200001,1.57773548,2.48930102,-3.17487487,,,
imu,317.616174,0.472540712,-9.321613235200001,3.4944086576,1.60016621,2.64631613,-3.04029049,,,
imu,317.624607,0.4970649768000001,-9.328192916,3.4968012688,1.56278166,2.76594669,-3.1225365,,,
imu,317.63304,0.5108224912,-9.334174444000002,3.497997574400001,1.54035093,2.75846978,-3.23469015,,,
imu,317.641473,0.5156077136000001,-9.336567055200002,3.4956049632,1.57773548,2.73603905,-3.36927453,,,
imu,317.649906,0.5311596864,-9.332379985600001,3.492614199200001,1.5179202,2.71360832,-3.61601256,,,
imu,317.658339,0.535346756,-9.3443430416,3.493212352,1.54035093,2.48182411,-4.04219643,,,
imu,317.666772,0.5419264368000001,-9.343146736000001,3.5033809496,1.42819728,2.37714737,-4.29641137,,,
imu,317.675205,0.5455153536,-9.338959666400001,3.4973994216,1.45062801,2.16779389,-4.49081103,,,
imu,317.683638,0.5323559920000001,-9.3317818328,3.487230824,1.45810492,1.97339423,-4.72259524,,,
imu,317.692071,0.5311596864,-9.3335762912,3.4848382128,1.46558183,1.74161002,-4.72259524,,,
imu,317.700504,0.5311596864,-9.328791068800001,3.484240060000001,1.31604363,1.62197946,-4.75250288,,,
imu,317.708937,0.5221873944000001,-9.324005846400002,3.474669615200001,1.13659779,1.33037997,-4.81231816,,,
imu,317.717398,0.5132151024,-9.326398457600002,3.4668936288,1.15155161,1.17336486,-4.58053395,,,
imu,317.725859,0.499457588,-9.326398457600002,3.466295476,1.32352054,1.01634975,-4.41604193,,,
imu,317.73432,0.4898871432,-9.328192916,3.4645010176,1.38333582,0.8518577299999999,-4.26650373,,,
imu,317.742781,0.4779240872000001,-9.328192916,3.451939808800001,1.37585891,0.8369039099999998,-3.95995042,,,
imu,317.751242,0.4689517952000001,-9.328791068800001,3.4525379616,1.43567419,0.7097964399999999,-3.7206893,,,
imu,317.759703,0.4456238360000001,-9.326398457600002,3.4525379616,1.51044329,0.6948426199999997,-3.47395127,,,
imu,317.768164,0.4288755576000001,-9.324005846400002,3.456126878400001,1.56278166,0.5677351499999999,-3.29450543,,,
imu,317.776625,0.4163143488000001,-9.326398457600002,3.448350892000001,1.53287402,0.6574580699999997,-3.25712088,,,
imu,317.785086,0.4151180432000001,-9.329987374400002,3.467491781600001,1.54782784,0.6798887999999996,-3.15244414,,,
imu,317.793547,0.3947808480000001,-9.343146736000001,3.456126878400001,1.63007385,0.8144731799999998,-3.10758268,,,
imu,317.802008,0.3905937784,-9.3419504304,3.4501453504,1.63007385,1.09111885,-3.02533667,,,
imu,317.810469,0.3864067088000001,-9.332379985600001,3.4501453504,1.58521239,1.16588795,-2.99542903,,,
imu,317.81893,0.3834159448,-9.335370749600001,3.456126878400001,1.5926893,1.40514907,-3.03281358,,,
imu,317.827391,0.3887993200000001,-9.352119028,3.445360128,1.61512003,1.68927165,-3.08515195,,,
imu,317.835852,0.3852104032000001,-9.361689472800002,3.4447619752,1.46558183,1.8761944,-3.30198234,,,
imu,317.844313,0.4049494456000001,-9.367072848000001,3.4429675168,1.37585891,2.08554788,-3.50385891,,,
imu,317.852774,0.4222958768,-9.3455393472,3.431004460800001,1.34595127,2.31733209,-3.38422835,,,
imu,317.861235,0.4288755576000001,-9.350324569600001,3.436387836,1.34595127,2.6238854,-3.17487487,,,
imu,317.869696,0.442633072,-9.330585527200002,3.434593377600001,1.33099745,2.78090051,-3.25712088,,,
imu,317.878157,0.4713444064,-9.325800304800001,3.4316026136,1.27118217,2.72856214,-3.3468438,,,
imu,317.886618,0.4797185456,-9.3204169296,3.4226303216,1.46558183,2.71360832,-3.47395127,,,
imu,317.895079,0.4880926848000001,-9.335968902400001,3.436387836,1.43567419,2.54163939,-3.75059694,,,
imu,317.90354,0.4886908376000001,-9.3622876256,3.454332420000001,1.40576655,2.48930102,-3.67582784,,,
imu,317.912001,0.4767277816000001,-9.3766432928,3.446556433600001,1.24875144,2.35471664,-3.67582784,,,
imu,317.920477,0.4785222400000001,-9.398774946400001,3.4405749056,1.15902852,2.22760917,-3.69825857,,,
imu,317.928954,0.4773259344000001,-9.394587876800001,3.4549305728,0.9945364999999999,2.21265535,-3.44404363,,,
imu,317.93743,0.4773259344000001,-9.378437751200002,3.456126878400001,1.02444414,2.26499372,-3.1225365,,,
imu,317.945906,0.4892889904,-9.3862137376,3.4435656696,0.97210577,2.42948574,-2.80850628,,,
imu,317.954383,0.49347606,-9.370063612000001,3.4322007664,1.00949032,2.33228591,-2.6739219,,,
imu,317.962859,0.4880926848000001,-9.348530111200002,3.428611849600001,1.03939796,2.20517844,-2.78607555,,,
imu,317.971335,0.502448352,-9.3455393472,3.4298081552,0.9347212199999999,2.18274771,-3.10758268,,,
imu,317.979811,0.5138132552000001,-9.3545116392,3.426219238400001,0.97210577,2.06311715,-3.26459779,,,
imu,317.988288,0.4892889904,-9.349726416800001,3.427415544,1.13659779,1.7266562,-3.50385891,,,
imu,317.996764,0.4880926848000001,-9.3688673064,3.431004460800001,1.12912088,1.53973345,-3.72816621,,,
imu,316.685241,,,,,,,80.8971036,-40.36313720000002,118.940868
imu,316.786834,,,,,,,83.24088599999999,-40.77818200000001,116.3407344
imu,316.888366,,,,,,,80.7262028,-40.07016440000002,119.1117688
imu,316.989959,,,,,,,80.2257076,-40.19223640000003,119.1605976
imu,317.091613,,,,,,,80.51868040000001,-39.39876840000001,119.3925344
imu,317.193084,,,,,,,80.6895812,-40.53403800000002,119.06294
imu,317.294646,,,,,,,81.165662,-40.02133560000001,118.8432104
imu,317.396178,,,,,,,81.1778692,-39.8260204,118.9042464
imu,318.00524,0.4677554896000001,-9.425691822400001,3.4686880872,0.88985976,1.59954873,-3.7954584,,,
imu,318.013716,0.454596128,-9.460982837600001,3.490221588,0.78518302,1.74908693,-3.69078166,,,
imu,318.022193,0.4324644744,-9.535153784800002,3.521325533600001,0.43376825,1.90610204,-3.60105874,,,
imu,318.030669,0.3905937784,-9.566257730400002,3.544653492800001,-0.2765382,2.13788625,-3.4216129,,,
imu,318.039145,0.391790084,-9.599156134400001,3.5715703688,-1.14385976,2.48930102,-3.07019813,,,
imu,318.047621,0.3947808480000001,-9.630858232800001,3.5841315776,-2.42241137,2.84071579,-2.86084465,,,
imu,318.056098,0.3870048616000001,-9.5590798968,3.5183347696,-3.7159168,3.23699202,-2.60662971,,,
imu,318.064574,0.3756399584,-9.469356976800002,3.471678851200001,-4.9122224,3.63326825,-2.15801511,,,
imu,318.07305,0.4001642232,-9.390998960000001,3.460313948,-5.861789969999999,4.0444983,-1.67949287,,,
imu,318.081526,0.4049494456000001,-9.343744888800002,3.4387804472,-6.287973839999999,4.17908268,-1.68696978,,,
imu,318.090003,0.3941826952,-9.334174444000002,3.4316026136,-6.60948097,4.08935976,-2.21783039,,,
imu,318.098479,0.3953790008,-9.3108464848,3.428611849600001,-6.65434243,4.23889796,-2.78607555,,,
imu,318.106955,0.4127254320000001,-9.332978138400001,3.4112654184,-6.51228114,4.32114397,-3.13001341,,,
imu,318.115431,0.442633072,-9.2641905664,3.457921336800001,-6.46741968,4.44077453,-3.76555076,,,
imu,318.123885,0.4145198904,-9.265386872,3.460912100800001,-6.13095873,4.48563599,-4.17678081,,,
imu,318.132338,0.4468201416000001,-9.2480404408,3.451341656,-5.49542138,4.76975857,-3.81788913,,,
imu,318.140792,0.499457588,-9.199590064,3.474669615200001,-4.90474549,5.0164966,-3.93751969,,,
imu,318.149245,0.502448352,-9.187028855200001,3.5027827968,-4.538376899999999,4.97163514,-4.33379592,,,
imu,318.157698,0.5144114080000001,-9.1924122304,3.511156936,-3.79816281,4.98658896,-4.50576485,,,
imu,318.166152,0.5449172008000001,-9.178056563200002,3.5243162976,-3.18505619,4.89686604,-4.4683803,,,
imu,318.174605,0.5808063688,-9.166093507200001,3.5637943824,-2.61681103,4.61274346,-4.74502597,,,
imu,318.183058,0.5957601888000001,-9.176860257600001,3.5943001752,-2.20558098,4.30619015,-4.84970271,,,
imu,318.191512,0.6083213976,-9.1792528688,3.609852148000001,-1.80930475,4.11179049,-4.70764142,,,
imu,318.199965,0.6244715232,-9.187627008000002,3.6283948848,-1.59247436,3.64822207,-4.35622665,,,
imu,318.208418,0.6519865520000001,-9.173271340800001,3.630787496000001,-1.21115195,3.19960747,-4.25154991,,,
imu,318.216872,0.6729219000000001,-9.158915673600001,3.6266004264,-0.83730645,2.96782326,-4.04219643,,,
imu,318.225325,0.6800997336000001,-9.145756312000001,3.6325819544,-0.53823005,2.46687029,-3.9449966,,,
imu,318.233779,0.6860812616,-9.145158159200001,3.6266004264,-0.01484635000000001,1.82385603,-3.88518132,,,
imu,318.242232,0.6878757200000001,-9.131998797600001,3.6283948848,0.64312173,1.30794924,-3.72816621,,,
imu,318.250685,0.6753145112000001,-9.1302043392,3.6289930376,1.15155161,0.70231953,-3.80293531,,,
imu,318.259139,0.6579680800000002,-9.1481489232,3.63377826,1.68988913,0.13407437,-3.88518132,,,
imu,318.267592,0.6244715232,-9.169682424000001,3.649330232800001,2.13850373,-0.31454023,-3.88518132,,,
imu,318.276045,0.6119103144000001,-9.198991911200002,3.6684711224,2.29551884,-0.6958626400000001,-4.012288789999999,,,
imu,318.284499,0.5879842024,-9.212151272800002,3.672060039200001,2.4899185,-0.8977392100000001,-3.98985806,,,
imu,318.292952,0.5820026744000001,-9.217534648,3.669667428,2.60207215,-1.00989286,-3.88518132,,,
imu,318.301406,0.5664507016000001,-9.1894214664,3.688210164800001,2.60954906,-1.12952342,-3.91508896,,,
imu,318.309859,0.5592728680000001,-9.2300958568,3.660695136000001,2.72170271,-1.22672325,-4.02724261,,,
imu,318.318312,0.5341504504000001,-9.267181330400001,3.621217051200001,2.90862546,-1.38373836,-3.87770441,,,
imu,318.327129,0.5132151024,-9.2851259144,3.6271985792,3.0133022,-1.46598437,-4.10948862,,,
imu,318.335946,0.4827093096,-9.282135150400002,3.633180107200001,2.87871782,-1.413646,-4.37865738,,,
imu,318.344763,0.4641665728000001,-9.279144386400002,3.6565080664,3.02825602,-1.39121527,-4.52819558,,,
imu,318.35358,0.4641665728000001,-9.307855720800001,3.6266004264,3.21517877,-1.30149235,-4.55062631,,,
imu,318.362397,0.4354552384000001,-9.3455393472,3.6134410648,3.24508641,-1.18186179,-4.59548777,,,
imu,318.371214,0.4061457512000001,-9.3443430416,3.6194225928,3.07311748,-0.9799852200000005,-4.61044159,,,
imu,318.380031,0.3947808480000001,-9.332379985600001,3.6463394688,2.91610237,-0.6883857300000003,-4.7674567,,,
imu,318.388848,0.3732473472,-9.322211388000001,3.6481339272,2.78151799,-0.5014629800000003,-4.887087259999999,,,
imu,318.397665,0.376836264,-9.3335762912,3.6289930376,2.75161035,-0.1350943900000003,-4.8422258,,,
imu,318.406482,0.3648732080000001,-9.346735652800001,3.614039217600001,2.58711833,0.2013665599999999,-4.737549059999999,,,
imu,318.415298,0.3642750552,-9.346137500000001,3.6242078152,2.32542648,0.4929660499999997,-4.82727198,,,
imu,318.424115,0.3630787496,-9.324005846400002,3.618226287200001,2.23570356,0.7696117199999999,-4.83474889,,,
imu,318.432932,0.3672658192000001,-9.3269966104,3.6080576896,2.04878081,0.84438082,-4.79736434,,,
imu,318.441749,0.3756399584,-9.321613235200001,3.597889092,2.02635008,1.03878048,-4.7674567,,,
imu,318.450566,0.3798270280000001,-9.3210150824,3.588916800000001,1.86185806,1.18831868,-4.70016451,,,
imu,318.459383,0.3816214864,-9.2929019008,3.569775910400001,1.93662716,1.38271834,-4.6179185,,,
imu,318.4682,0.4019586816,-9.2929019008,3.564392535200001,1.78708896,1.42010289,-4.602964679999999,,,
imu,318.477017,0.4109309736,-9.300079734400002,3.562598076800001,1.92915025,1.48739508,-4.66277996,,,
imu,318.485834,0.4163143488000001,-9.298883428800002,3.5661869936,1.94410407,1.4275798,-4.59548777,,,
imu,318.494651,0.4121272792,-9.2929019008,3.5482424096,2.07868845,1.32290306,-4.61044159,,,
imu,318.503468,0.4121272792,-9.291107442400001,3.528503367200001,2.116073,1.15841104,-4.625395409999999,,,
imu,318.512285,0.4061457512000001,-9.290509289600001,3.5273070616,2.22074974,1.01634975,-4.670256869999999,,,
imu,318.521102,0.3983697648000001,-9.283929608800001,3.518932922400001,2.31047266,0.8742884599999998,-4.59548777,,,
imu,318.529577,0.3959771536000001,-9.291107442400001,3.5195310752,2.31794957,0.7322271699999998,-4.670256869999999,,,
imu,318.538052,0.3816214864,-9.3108464848,3.506371713600001,2.54973378,0.64250425,-4.59548777,,,
imu,318.546527,0.3774344168000001,-9.322809540800002,3.491417893600001,2.6394567,0.52287369,-4.52071867,,,
imu,318.554928,0.352910152,-9.325202152000001,3.496203116000001,2.69179507,0.3808123999999999,-4.49081103,,,
imu,318.563403,0.3517138464,-9.335370749600001,3.488427129600001,2.88619473,0.2910894799999997,-4.341272829999999,,,
imu,318.571878,0.3271895816000001,-9.3443430416,3.478856684800001,2.863764,0.2088434699999997,-4.37118047,,,
imu,318.580353,0.3218062064,-9.3664746952,3.4896234352,3.02825602,0.3209971199999999,-4.22164227,,,
imu,318.588828,0.305057928,-9.368269153600002,3.487230824,3.05816366,0.3284740299999998,-4.079580979999999,,,
imu,318.597303,0.3020671640000001,-9.3802322096,3.4800529904,2.99087147,0.4032431299999999,-3.87770441,,,
imu,318.605778,0.2978800944000001,-9.373652528800001,3.4776603792,2.81142563,0.64250425,-3.75807385,,,
imu,318.614253,0.2936930248,-9.3622876256,3.477062226400001,2.60954906,0.80699627,-3.5711511,,,
imu,318.622728,0.2907022608000001,-9.350922722400002,3.471678851200001,2.49739541,1.00887284,-3.36927453,,,
imu,318.631203,0.287113344,-9.3652783896,3.463304712000001,2.42262631,1.09859576,-3.31693616,,,
imu,318.639678,0.296085636,-9.351520875200002,3.4645010176,2.32542648,1.24065705,-3.45152054,,,
imu,318.648153,0.2853188856,-9.359895014400001,3.463304712000001,2.01887317,1.46496435,-3.71321239,,,
imu,318.656628,0.2805336632,-9.3664746952,3.471678851200001,1.94410407,1.69674856,-3.60105874,,,
imu,318.665103,0.2769447464000001,-9.3963823352,3.481249296000001,1.75718132,1.81637912,-3.74312003,,,
imu,318.673578,0.2685706072,-9.411934308000001,3.500390185600001,1.50296638,1.99582496,-3.74312003,,,
imu,318.682053,0.275150288,-9.414326919200002,3.5027827968,1.20388998,2.27247063,-3.61601256,,,
imu,318.690528,0.2847207328,-9.414925072,3.490221588,1.15155161,2.71360832,-3.25712088,,,
imu,318.699003,0.3212080536,-9.422701058400001,3.486632671200001,1.02444414,3.09493073,-2.92065993,,,
imu,318.707478,0.3475267768,-9.404756474400001,3.4854363656,0.76275229,3.37905331,-2.70382954,,,
imu,318.715953,0.3762381112000001,-9.3868118904,3.496203116000001,0.66555246,3.49120696,-2.56924516,,,
imu,318.724428,0.4049494456000001,-9.381428515200001,3.491417893600001,0.57582954,3.57345297,-2.5243837,,,
imu,318.732967,0.4330626272,-9.373054376,3.4997920328,0.40386061,3.5958837,-2.47952224,,,
imu,318.741507,0.4587831976000001,-9.379035904000002,3.5087643248,0.15712258,3.4463455,-2.44213769,,,
imu,318.750047,0.4809148512,-9.3796340568,3.537475659200001,-0.14195382,3.28185348,-2.38979932,,,
imu,318.758587,0.4821111568000001,-9.3664746952,3.5524294792,-0.48589168,3.00520781,-2.30755331,,,
imu,318.767127,0.4880926848000001,-9.3419504304,3.567981452000001,-1.19619813,2.53416248,-2.41223005,,,
imu,318.775667,0.49347606,-9.325800304800001,3.573962980000001,-1.74948947,1.96591732,-2.6739219,,,
imu,318.784206,0.4647647256,-9.304266804000001,3.5685796048,-2.09342733,1.55468727,-2.71130645,,,
imu,318.792746,0.4462219888000001,-9.2588071912,3.542260881600001,-2.28782699,1.1285034,-2.53933752,,,
imu,318.801286,0.4234921824,-9.219329106400002,3.5177366168,-2.41493446,0.8742884599999998,-2.56176825,,,
imu,318.809826,0.3959771536000001,-9.150541534400002,3.484240060000001,-2.13081188,0.7397040799999997,-2.58419898,,,
imu,318.818366,0.331974804,-9.123026505600002,3.4597157952,-1.68967419,0.56025824,-2.80850628,,,
imu,317.497659,,,,,,,80.7262028,-39.65511960000001,118.7089312
imu,317.599313,,,,,,,83.1066068,-41.09556920000001,117.7079408
imu,317.700784,,,,,,,80.9337252,-40.04575000000001,118.8310032
imu,317.802499,,,,,,,83.6193092,-41.29088440000002,116.7557792
imu,317.903939,,,,,,,80.8726892,-39.5940836,119.001904
imu,318.005471,,,,,,,81.26331959999999,-40.65611000000003,117.2196528
imu,318.107064,,,,,,,80.77503159999999,-39.72836280000001,119.4535704
imu,318.208596,,,,,,,81.2511124,-39.76498440000002,119.1361832
imu,318.826906,0.3098431504,-9.102091157600002,3.4429675168,-0.91207555,0.80699627,-2.65149117,,,
imu,318.835445,0.3068523864000001,-9.123026505600002,3.4429675168,-0.08213854000000001,1.32290306,-2.58419898,,,
imu,318.843985,0.2799355104,-9.137980325600001,3.453734267200001,0.6281679099999999,1.60702564,-2.92065993,,,
imu,318.852525,0.2781410520000001,-9.183439938400001,3.4740714624,1.47305874,2.13040934,-3.07767504,,,
imu,318.861065,0.296085636,-9.2408626072,3.504577255200001,2.28056502,2.81828506,-3.00290594,,,
imu,318.869605,0.3301803456000001,-9.28632222,3.514147700000001,2.64693361,3.31923803,-3.06272122,,,
imu,318.878145,0.3535083048,-9.3210150824,3.525512603200001,3.13293276,3.9697292,-2.92065993,,,
imu,318.886684,0.4055475984,-9.370661764800001,3.5578128544,3.15536349,4.62022037,-2.77859864,,,
imu,318.895224,0.4653628784000001,-9.4526086984,3.6152355232,2.88619473,4.98658896,-2.62158353,,,
imu,318.903764,0.4982612824000001,-9.514218436800002,3.637367176800001,2.54225687,5.23332699,-2.53186061,,,
imu,318.912304,0.5544876456000001,-9.547714993600001,3.642750552,1.7422275,5.285665359999999,-2.5243837,,,
imu,318.920844,0.6184899952000001,-9.558481744000002,3.658302524800001,1.07678251,5.18846553,-2.35241477,,,
imu,318.929384,0.6507902464,-9.5501076048,3.657704372,0.4711528,4.99406587,-2.05333837,,,
imu,318.937771,0.6699311360000001,-9.527377798400002,3.6499283856,-0.20924601,4.70994329,-1.67949287,,,
imu,318.946158,0.6944554008000001,-9.4980683112,3.6463394688,-0.94198319,4.35852852,-1.51500085,,,
imu,318.954545,0.7141944432000001,-9.462777296000002,3.6170299816,-1.43545925,3.820191,-1.64958523,,,
imu,318.962933,0.7231667352000001,-9.437654878400002,3.5871223416,-1.86912003,3.28185348,-1.87389253,,,
imu,318.97132,0.7058203040000001,-9.3796340568,3.579346355200001,-2.10090424,2.82576197,-2.15801511,,,
imu,318.979707,0.70282954,-9.301276040000001,3.5667851464,-2.19810407,2.18274771,-2.64401426,,,
imu,318.988094,0.6789034280000001,-9.2917055952,3.5243162976,-2.10838115,1.65936401,-3.24964397,,,
imu,318.996482,0.6160973840000001,-9.300079734400002,3.486632671200001,-2.13081188,1.16588795,-3.65339711,,,
imu,319.004869,0.6065269392000001,-9.255816427200001,3.49919388,-1.98875059,0.8742884599999998,-4.22164227,,,
imu,319.013256,0.5431227424,-9.216338342400002,3.5195310752,-1.87659694,0.6125966099999998,-4.7674567,,,
imu,319.021643,0.5102243384,-9.212151272800002,3.488427129600001,-1.43545925,0.66493498,-5.0665331,,,
imu,319.030031,0.4964668240000001,-9.216338342400002,3.4878289768,-1.20367504,0.84438082,-5.35813259,,,
imu,319.038418,0.4731388648000001,-9.197795605600001,3.4956049632,-0.79244499,0.98644211,-5.43290169,,,
imu,319.046805,0.4480164472000001,-9.216338342400002,3.504577255200001,-0.64290679,1.18084177,-5.77683955,,,
imu,319.055192,0.4402404608,-9.221123564800001,3.5039791024,-0.30644584,1.49487199,-5.79927028,,,
imu,319.06358,0.4474182944000001,-9.2486385936,3.5093624776,-0.13447691,1.8014253,-5.69459354,,,
imu,319.071967,0.454596128,-9.277948080800002,3.515942158400001,-0.05970781,2.06311715,-5.851608649999999,,,
imu,319.080354,0.4438293776000001,-9.322211388000001,3.5416627288,-0.02232326000000001,2.19022462,-5.67216281,,,
imu,319.088741,0.4868963792000001,-9.3204169296,3.550635020800001,-0.16438455,2.35471664,-5.27588658,,,
imu,319.097129,0.4791203928000001,-9.323407693600002,3.5667851464,-0.35878421,2.324809,-4.84970271,,,
imu,319.105516,0.424688488,-9.3317818328,3.570374063200001,-0.66533752,2.3995781,-4.49081103,,,
imu,319.113903,0.3732473472,-9.3347725968,3.561999924,-1.07656757,2.44443956,-4.04219643,,,
imu,319.12229,0.3403489432000001,-9.325202152000001,3.5482424096,-1.15133667,2.73603905,-3.2720747,,,
imu,319.130678,0.2685706072,-9.348530111200002,3.5691777576,-1.28592105,3.34166876,-2.50195297,,,
imu,319.139144,0.2015774936,-9.389204501600002,3.586524188800001,-1.4728438,4.11179049,-1.64210832,,,
imu,319.14761,0.1483418944,-9.3592968616,3.558411007200001,-1.80930475,5.03145042,-0.8794635,,,
imu,319.156076,0.1052748928,-9.382026668000002,3.5996835504,-1.83173548,5.99597181,-0.28878761,,,
imu,319.164542,0.116639796,-9.405354627200001,3.606861384000001,-1.95884295,7.21470814,-0.07195722000000004,,,
imu,319.173008,0.1692772424,-9.393391571200002,3.6176281344,-1.86164312,8.24652172,-0.12429559,,,
imu,319.181474,0.188418132,-9.374250681600001,3.6271985792,-2.2953039,9.02412036,-0.34860289,,,
imu,319.18994,0.2009793408,-9.3592968616,3.6403579408,-2.5196112,9.67461153,-0.46075654,,,
imu,319.198406,0.2757484408,-9.348530111200002,3.6421523992,-2.63176485,10.14565686,-1.18601681,,,
imu,319.206872,0.3259932760000001,-9.322809540800002,3.6403579408,-2.93084125,10.45968708,-2.04586146,,,
imu,319.215338,0.3876030144000001,-9.2958926648,3.6565080664,-3.13271782,10.69147129,-2.88327538,,,
imu,319.223804,0.430670016,-9.2851259144,3.6594988304,-3.17010237,10.60922528,-3.57862801,,,
imu,319.232271,0.4845037680000001,-9.267181330400001,3.6463394688,-3.3420713,10.60174837,-4.13939626,,,
imu,319.240737,0.5790119104,-9.2576108856,3.669667428,-3.53647096,10.40734871,-4.63287232,,,
imu,319.249203,0.6208826064000001,-9.238469996000001,3.681630484000001,-3.67853225,9.86153428,-5.260932759999999,,,
imu,319.257669,0.6448087184,-9.216338342400002,3.684023095200001,-3.902839549999999,9.203566200000001,-5.90394702,,,
imu,319.266135,0.6812960392000001,-9.219927259200002,3.690602776,-3.97013174,8.553075029999999,-6.17311578,,,
imu,319.274601,0.7177833600000001,-9.2067678976,3.7019676792,-3.78320899,7.79790712,-6.113300499999999,,,
imu,319.283067,0.7590559032000002,-9.194206688800001,3.716323346400001,-3.85050118,6.83338573,-6.203023419999999,,,
imu,319.291533,0.7560651392000002,-9.214543884000001,3.730080860800001,-3.88788573,5.82400288,-6.270315609999999,,,
imu,319.299999,0.7435039304000001,-9.184636244000002,3.713332582400001,-3.58880933,4.91929677,-5.9637623,,,
imu,319.308465,0.76264482,-9.161308284800002,3.721108568800001,-3.25234838,3.98468302,-5.57496298,,,
imu,319.316931,0.7536725280000001,-9.1409710896,3.726491944,-3.1925331,2.90053107,-5.283363489999999,,,
imu,319.325398,0.7231667352000001,-9.139774784,3.741445764000001,-2.87102597,1.88367131,-4.86465653,,,
imu,319.333864,0.7046239984,-9.13678402,3.7402494584,-2.39250373,0.9041961000000001,-4.46090339,,,
imu,319.342678,0.6902683312000001,-9.1331951032,3.7599885008,-2.19062716,0.006966899999999665,-4.244073,,,
imu,319.351492,0.6424161072,-9.166691660000001,3.777334932,-1.72705874,-0.82297011,-3.85527368,,,
imu,319.360306,0.6113121616,-9.1918140776,3.797672127200001,-1.42798234,-1.60056875,-3.38422835,,,
imu,319.369121,0.5706377712,-9.191215924800002,3.813224100000001,-1.15133667,-2.06413717,-3.01038285,,,
imu,319.377935,0.5221873944000001,-9.207366050400001,3.8174111696,-0.92702937,-2.55761323,-2.80850628,,,
imu,319.386749,0.4707462536000001,-9.2127494256,3.7970739744,-0.67281443,-2.6099516,-2.27764567,,,
imu,319.395564,0.4539979752000001,-9.191215924800002,3.8054481136,-0.25410747,-2.49779795,-1.63463141,,,
imu,319.404378,0.4360533912000001,-9.160111979200002,3.7898961408,0.07487657,-2.19872155,-1.32060119,,,
imu,319.413192,0.4210995712,-9.158915673600001,3.7617829592,0.50853735,-1.95198352,-1.1037708,,,
imu,319.422006,0.4025568344,-9.155924909600001,3.739651305600001,0.94219813,-1.72767622,-1.1037708,,,
imu,319.430821,0.4001642232,-9.138578478400001,3.733071624800001,1.47305874,-1.35383072,-0.99161715,,,
imu,319.439635,0.3690602776000001,-9.1433637008,3.7390531528,1.8917657,-0.9949390400000002,-1.18601681,,,
imu,319.448449,0.3576953744,-9.1499433816,3.7408476112,2.37028794,-0.6510011800000002,-1.29069355,,,
imu,319.457263,0.3732473472,-9.167887965600002,3.7498199032,2.55721069,-0.08275602000000015,-1.26826282,,,
imu,319.466078,0.3690602776000001,-9.155326756800001,3.7599885008,2.78151799,0.4705353199999998,-1.35050883,,,
imu,319.474892,0.3517138464,-9.1511396872,3.759390348,2.80394872,1.07616503,-1.50004703,,,
imu,319.483706,0.3594898328000001,-9.1828417856,3.748025444800001,3.05816366,1.69674856,-1.71687742,,,
imu,319.492521,0.3642750552,-9.180449174400001,3.7522125144,3.11797894,2.324809,-1.50752394,,,
imu,319.501335,0.3798270280000001,-9.188823313600002,3.757595889600001,2.88619473,2.78837742,-1.59724686,,,
imu,319.510149,0.3864067088000001,-9.188823313600002,3.751614361600001,2.93105619,3.42391477,-1.7766927,,,
imu,319.518963,0.4115291264,-9.1882251608,3.756399584,2.95348692,3.93982156,-1.90380017,,,
imu,319.527778,0.4216977240000001,-9.193608536000001,3.7665681816,2.92357928,4.478159079999999,-2.00847691,,,
imu,319.536592,0.4402404608,-9.212151272800002,3.7731478624,2.80394872,4.88938913,-2.20287657,,,
imu,319.545069,0.4647647256,-9.195402994400002,3.762381112,2.88619473,5.21837317,-2.4496146,,,
imu,319.553547,0.4821111568000001,-9.191215924800002,3.765371876000001,2.7889949,5.56231103,-2.68887572,,,
imu,319.562024,0.5221873944000001,-9.237273690400002,3.746829139200001,2.84881018,5.78661833,-2.84589083,,,
imu,319.570502,0.5371412144000001,-9.249834899200001,3.7450346808,2.7889949,6.00344872,-3.13001341,,,
imu,319.57898,0.5742266880000001,-9.209758661600002,3.738455000000001,2.87124091,6.10064855,-3.10758268,,,
imu,319.587457,0.6125084672000001,-9.1965993,3.728286402400001,3.06564057,6.09317164,-3.13001341,,,
imu,319.595935,0.6531828576,-9.198991911200002,3.7366605416,3.17031731,5.95111035,-3.14496723,,,
imu,319.604412,0.6771089696000001,-9.224114328800002,3.7252956384,3.14788658,5.67446468,-3.13749032,,,
imu,319.61289,0.6896701784000001,-9.266583177600001,3.7007713736,3.26004023,5.3903421,-3.18235178,,,
imu,319.621367,0.7279519576000001,-9.292303748000002,3.678639720000001,3.31985551,4.77723548,-3.3468438,,,
imu,319.629845,0.7530743752000001,-9.2761536224,3.684023095200001,3.33480933,4.23889796,-3.36927453,,,
imu,319.638322,0.7369242496000001,-9.257012732800002,3.697780609600001,3.28994787,3.86505246,-3.24216706,,,
imu,318.310189,,,,,,,81.00696839999999,-39.77719160000002,118.75776
imu,318.411752,,,,,,,80.78723880000001,-39.37435400000003,119.1728048
imu,318.513375,,,,,,,81.0557972,-40.0579572,119.0507328
imu,318.614877,,,,,,,81.165662,-40.30210120000002,119.06294
imu,318.716409,,,,,,,83.79021,-40.80259640000001,118.0131208
imu,318.818124,,,,,,,80.8848964,-40.11899320000001,118.8432104
imu,318.919625,,,,,,,83.5582732,-40.46079480000002,115.5350592
imu,319.021371,,,,,,,80.8848964,-39.70394840000002,118.574652
imu,319.646792,0.7793930984000002,-9.277349928000001,3.6780415672,3.17031731,3.08745382,-2.98795212,,,
imu,319.65527,0.7638411256000001,-9.318024318400001,3.6738544976,3.14788658,2.64631613,-2.62158353,,,
imu,319.663747,0.7704208064000001,-9.309052026400002,3.6636859,2.998348379999999,2.12293243,-2.51690679,,,
imu,319.672225,0.7662337368000001,-9.310248332,3.660695136000001,2.80394872,1.51730272,-2.36736859,,,
imu,319.680702,0.7500836112000001,-9.313239096000002,3.6505265384,2.61702597,0.7770886299999997,-2.41223005,,,
imu,319.68918,0.7787949456000002,-9.287518525600001,3.639759788000001,2.31047266,0.2088434699999997,-2.45709151,,,
imu,319.697657,0.7058203040000001,-9.288714831200002,3.634974565600001,2.07121154,-0.31454023,-2.65149117,,,
imu,319.706135,0.6717255944000001,-9.289312984,3.614637370400001,2.16093446,-0.6435242699999999,-2.65896808,,,
imu,319.714612,0.6896701784000001,-9.260601649600002,3.602674314400001,2.03382699,-0.8902623000000003,-2.748691,,,
imu,319.72309,0.6501920936000001,-9.262994260800001,3.6110484536,2.00391935,-1.05475432,-2.89075229,,,
imu,319.731567,0.6160973840000001,-9.2689757888,3.5895149528,1.86185806,-1.15195415,-2.95804448,,,
imu,319.740045,0.6394253432000001,-9.2761536224,3.600281703200001,1.84690424,-1.2641078,-3.1225365,,,
imu,319.748512,0.6214807592000001,-9.273162858400001,3.600879856,1.69736604,-1.32392308,-3.21973633,,,
imu,319.75698,0.6005454112,-9.28632222,3.5895149528,1.58521239,-1.27158471,-3.32441307,,,
imu,319.765447,0.6023398696000001,-9.301276040000001,3.5883186472,1.57773548,-1.13700033,-3.48890509,,,
imu,319.773914,0.5987509528,-9.298285276000001,3.602674314400001,1.48053565,-1.1145696,-3.63096638,,,
imu,319.782382,0.5879842024,-9.2964908176,3.5901131056,1.40576655,-0.9725083100000003,-3.81041222,,,
imu,319.790849,0.5820026744000001,-9.318024318400001,3.591309411200001,1.42072037,-0.8528777500000002,-3.90013514,,,
imu,319.799316,0.5987509528,-9.2851259144,3.614039217600001,1.37585891,-0.8080162900000003,-4.07210407,,,
imu,319.807784,0.56824516,-9.3210150824,3.597889092,1.2188438,-0.7556779200000001,-4.21416536,,,
imu,319.816251,0.5670488544000001,-9.311444637600001,3.5901131056,1.16650543,-0.4865091600000002,-4.13191935,,,
imu,319.824718,0.5754229936,-9.304266804000001,3.614039217600001,1.06182869,-0.37435551,-3.90761205,,,
imu,319.833186,0.5676470072,-9.2899111368,3.6170299816,0.94967504,-0.1949096699999999,-3.98238115,,,
imu,319.841653,0.5646562432000001,-9.304864956800001,3.6170299816,0.8524752099999999,-0.01546383000000029,-4.07210407,,,
imu,319.850121,0.5425245896,-9.312042790400001,3.6116466064,0.9272443100000001,0.13407437,-3.99733497,,,
imu,319.858588,0.5347486032000001,-9.3006778872,3.608655842400001,0.80013684,0.2686587499999997,-3.95995042,,,
imu,319.867055,0.5443190480000001,-9.294696359200001,3.6062632312,0.7552753799999999,0.58268897,-4.0197657,,,
imu,319.875523,0.5455153536,-9.307257568,3.6271985792,0.78518302,0.7322271699999998,-4.13939626,,,
imu,319.88399,0.5138132552000001,-9.330585527200002,3.6170299816,0.8823828499999999,0.7995193599999997,-4.169303899999999,,,
imu,319.892457,0.5323559920000001,-9.322809540800002,3.621217051200001,0.7403215599999999,1.12102649,-4.22164227,,,
imu,319.900925,0.5191966304000001,-9.3126409432,3.634974565600001,0.65059864,1.18084177,-4.37118047,,,
imu,319.909392,0.5209910888,-9.3246039992,3.6361708712,0.35899915,1.31542615,-4.55062631,,,
imu,319.917859,0.5197947832,-9.316229860000002,3.626002273600001,0.13469185,1.39767216,-4.65530305,,,
imu,319.926327,0.5162058664000001,-9.302472345600002,3.639161635200001,0.14964567,1.577118,-4.6179185,,,
imu,319.934794,0.520392936,-9.2994815816,3.644545010400001,-0.21672292,1.48739508,-4.67773378,,,
imu,319.943261,0.5126169496,-9.2899111368,3.6523209968,-0.43355331,1.59954873,-4.65530305,,,
imu,319.951738,0.5078317272000001,-9.280938844800001,3.6481339272,-0.47093786,1.51730272,-4.46090339,,,
imu,319.960214,0.520392936,-9.265386872,3.6589006776,-0.7251528,1.63693328,-4.42351884,,,
imu,319.96869,0.5000557408,-9.283929608800001,3.6589006776,-0.83730645,1.47991817,-4.318842099999999,,,
imu,319.977166,0.5012520464000001,-9.2719665528,3.662489594400001,-0.9494601,1.577118,-4.19921154,,,
imu,319.985643,0.5090280328000001,-9.255816427200001,3.688808317600001,-1.16629049,1.61450255,-4.17678081,,,
imu,319.994119,0.499457588,-9.263592413600001,3.7043602904,-1.12142903,1.63693328,-3.98985806,,,
imu,320.002595,0.5102243384,-9.253423816000002,3.7007713736,-1.36816706,1.52477963,-3.96742733,,,
imu,320.011072,0.5156077136000001,-9.243853371200002,3.695387998400001,-1.25601341,1.52477963,-3.7206893,,,
imu,320.019548,0.5096261856000001,-9.2300958568,3.706752901600001,-1.42050543,1.40514907,-3.65339711,,,
imu,320.028024,0.5036446576000001,-9.212151272800002,3.721108568800001,-1.34573633,1.43505671,-3.25712088,,,
imu,320.0365,0.4964668240000001,-9.169084271200001,3.7043602904,-1.16629049,1.39019525,-3.30945925,,,
imu,320.044977,0.4821111568000001,-9.132596950400002,3.6822286368,-0.9644139199999999,1.44253362,-3.29450543,,,
imu,320.053453,0.4821111568000001,-9.1331951032,3.688808317600001,-0.70272207,1.28551851,-3.39918217,,,
imu,320.061929,0.4731388648000001,-9.142167395200001,3.704958443200001,-0.26906129,1.21074941,-3.39918217,,,
imu,320.070405,0.4492127528000001,-9.160111979200002,3.7199122632,0.19450713,1.2032725,-3.33188998,,,
imu,320.078882,0.4342589328000001,-9.1708787296,3.7199122632,0.57582954,1.21822632,-3.36927453,,,
imu,320.087358,0.4234921824,-9.167887965600002,3.717519652,0.9571519499999999,1.5023489,-3.38422835,,,
imu,320.095834,0.4043512928,-9.157719368,3.733071624800001,1.48801256,1.8761944,-3.15992105,,,
imu,320.10431,0.406743904,-9.169682424000001,3.722903027200001,1.95905789,2.13788625,-2.90570611,,,
imu,320.112787,0.4181088072000001,-9.1882251608,3.721108568800001,2.24318047,2.57902394,-2.74121409,,,
imu,320.121263,0.4181088072000001,-9.1965993,3.717519652,2.60954906,3.10988455,-2.57672207,,,
imu,320.129739,0.4151180432000001,-9.225908787200002,3.709145512800001,2.97591765,3.67812971,-2.35989168,,,
imu,320.138215,0.400762376,-9.263592413600001,3.696584304,3.04320984,4.246374869999999,-2.20287657,,,
imu,320.146692,0.3816214864,-9.302472345600002,3.6983787624,3.00582529,4.82957385,-2.03838455,,,
imu,320.15514,0.385808556,-9.342548583200001,3.7061547488,2.67684125,5.442680469999999,-1.73183124,,,
imu,320.163588,0.3870048616000001,-9.374250681600001,3.7031639848,2.3403803,6.227756019999999,-1.67949287,,,
imu,320.172036,0.3947808480000001,-9.402962016000002,3.692995387200001,1.92167334,6.92310865,-1.90380017,,,
imu,320.180485,0.4258847936,-9.4250936696,3.690602776,1.50296638,7.61098437,-2.03090764,,,
imu,320.188933,0.4749333232000001,-9.4322715032,3.717519652,0.94219813,8.0820297,-2.35241477,,,
imu,320.197381,0.4623721144,-9.4286825864,3.697780609600001,0.26927623,8.34372155,-2.74121409,,,
imu,320.20583,0.5180003248000001,-9.404756474400001,3.667872969600001,-0.31392275,8.69513632,-3.02533667,,,
imu,320.214278,0.5939657304000001,-9.335968902400001,3.666676664000001,-0.91207555,8.81476688,-3.33188998,,,
imu,320.222726,0.5927694248,-9.295294512000002,3.6636859,-1.26349032,8.74747469,-3.7206893,,,
imu,320.231174,0.6448087184,-9.271368400000002,3.651124691200001,-1.65976655,8.52316739,-4.17678081,,,
imu,320.239623,0.6723237472000001,-9.252227510400001,3.6313856488,-1.8466893,8.27642936,-4.49081103,,,
imu,320.248071,0.7022313872,-9.216338342400002,3.620618898400001,-1.74201256,8.029691329999999,-4.63287232,,,
imu,320.256519,0.7411113192000001,-9.1930103832,3.6254041208,-1.55508981,7.745568749999999,-4.67773378,,,
imu,320.264968,0.7578595976000001,-9.170280576800002,3.61882444,-1.07656757,7.341815609999999,-4.58801086,,,
imu,320.273416,0.7656355840000001,-9.1648972016,3.6176281344,-0.6279529699999999,6.72123208,-4.49081103,,,
imu,320.281864,0.7913561544000001,-9.142167395200001,3.612842912,-0.23167674,6.160463829999999,-4.386134289999999,,,
imu,320.290312,0.8230582528,-9.0961096296,3.5901131056,0.51601426,5.71184923,-4.25902682,,,
imu,320.298761,0.8727049352000001,-9.062014920000001,3.593702022400001,1.13659779,5.001542779999999,-4.124442439999999,,,
imu,320.307209,0.8392083784000002,-9.088931796,3.5966927864,2.10111918,4.216467229999999,-4.13939626,,,
imu,320.315657,0.8457880592000001,-9.118839436000002,3.6056650784,2.90114855,3.37905331,-4.28893446,,,
imu,320.324106,0.8571529624000002,-9.1331951032,3.623609662400001,3.59650118,2.53416248,-4.28893446,,,
imu,320.332554,0.8392083784000002,-9.13678402,3.6451431632,4.10493106,1.62945637,-4.37865738,,,
imu,320.341002,0.804515516,-9.197197452800001,3.6565080664,4.46382274,0.9041961000000001,-4.318842099999999,,,
imu,320.34945,0.8015247520000001,-9.245647829600001,3.7079492072,4.71803768,0.4929660499999997,-3.92256587,,,
imu,320.358277,0.7441020832,-9.267779483200002,3.7079492072,4.75542223,0.06678217999999969,-3.36179762,,,
imu,320.367103,0.7333353328000001,-9.266583177600001,3.7139307352,4.57597639,-0.2771556799999999,-2.89075229,,,
imu,320.375929,0.6962498592000002,-9.2707702472,3.692995387200001,4.40400746,-0.5687551700000002,-2.74121409,,,
imu,320.384755,0.6789034280000001,-9.2958926648,3.6738544976,4.16474634,-0.7033395499999999,-2.56924516,,,
imu,320.393581,0.6436124128,-9.326398457600002,3.665480358400001,3.99277741,-0.8977392100000001,-2.56176825,,,
imu,320.402408,0.6154992312,-9.3443430416,3.669667428,3.72360865,-1.00241595,-2.56176825,,,
imu,320.411234,0.5754229936,-9.3269966104,3.6589006776,3.42453225,-0.8528777500000002,-2.69635263,,,
imu,320.42006,0.5443190480000001,-9.3443430416,3.657704372,3.18527113,-0.76315483,-3.06272122,,,
imu,320.428886,0.5323559920000001,-9.323407693600002,3.6254041208,3.04320984,-0.5164168,-3.18235178,,,
imu,320.437713,0.5467116592000001,-9.361689472800002,3.6403579408,2.9385331,-0.1201405700000002,-3.3468438,,,
imu,320.446539,0.5305615336,-9.368269153600002,3.6313856488,2.50487232,0.08921290999999965,-3.56367419,,,
imu,320.455365,0.4970649768000001,-9.335370749600001,3.654115455200001,1.9665348,0.6051196999999999,-3.61601256,,,
imu,319.122643,,,,,,,81.27552680000001,-40.92466840000002,116.072176
imu,319.224236,,,,,,,80.6285452,-40.08237160000001,118.7943816
imu,319.325768,,,,,,,81.1778692,-39.76498440000002,118.4769944
imu,319.427391,,,,,,,80.6407524,-40.14340760000002,118.208436
imu,319.528893,,,,,,,80.75061720000001,-40.00912840000002,118.6234808
imu,319.630608,,,,,,,80.55530200000001,-39.58187640000001,118.3060936
imu,319.731987,,,,,,,80.90931080000001,-40.20444360000002,118.5868592
imu,319.833611,,,,,,,83.19205720000001,-39.47201160000002,117.8300128
imu,320.464191,0.4952705184000001,-9.3335762912,3.6481339272,1.61512003,1.1285034,-3.45899745,,,
imu,320.473017,0.5108224912,-9.356306097600001,3.6475357744,1.19641307,1.59207182,-3.47395127,,,
imu,320.481844,0.5114206440000001,-9.353913486400002,3.6409560936,0.7552753799999999,2.20517844,-3.52628964,,,
imu,320.49067,0.5329541448,-9.329987374400002,3.6612932888,0.42629134,2.57902394,-3.67582784,,,
imu,320.499496,0.5455153536,-9.330585527200002,3.655311760800001,0.25432241,3.0725,-3.72816621,,,
imu,320.508322,0.5909749664,-9.303070498400002,3.6499283856,0.06739966,3.26689966,-3.97490424,,,
imu,320.517148,0.5634599376000001,-9.308453873600001,3.618226287200001,-0.14195382,3.48373005,-4.08705789,,,
imu,320.525975,0.6178918424000002,-9.272564705600002,3.612842912,-0.05970781,3.76037572,-4.0945348,,,
imu,320.534801,0.6364345792000001,-9.2617979552,3.6176281344,-0.09709236,3.85009864,-4.25154991,,,
imu,320.543627,0.6495939408000001,-9.247442288000002,3.6134410648,0.18703022,3.95477538,-4.341272829999999,,,
imu,320.552453,0.6759126640000002,-9.2169364952,3.6056650784,0.40386061,3.87252937,-4.40108811,,,
imu,320.560928,0.6812960392000001,-9.219329106400002,3.6014780088,0.56835263,3.70803735,-4.55062631,,,
imu,320.569403,0.6884738728,-9.212151272800002,3.593702022400001,0.78518302,3.46877623,-4.63287232,,,
imu,320.577878,0.684884956,-9.208562356000002,3.591907564,0.85995212,3.20708438,-4.78241052,,,
imu,320.586353,0.6830904976000001,-9.210954967200001,3.591907564,1.26370526,2.96034635,-4.737549059999999,,,
imu,320.594828,0.6795015808000001,-9.1924122304,3.588916800000001,1.28613599,2.54163939,-4.737549059999999,,,
imu,320.603303,0.6753145112000001,-9.194804841600002,3.5883186472,1.45810492,2.11545552,-4.80484125,,,
imu,320.611778,0.6699311360000001,-9.217534648,3.5787482024,1.60764312,1.91357895,-4.670256869999999,,,
imu,320.620253,0.6466031768,-9.229497704000002,3.587720494400001,1.76465823,1.53225654,-4.64034923,,,
imu,320.628728,0.648995788,-9.2486385936,3.5757574384,1.70484295,1.36028761,-4.386134289999999,,,
imu,320.637203,0.6507902464,-9.267779483200002,3.5841315776,1.88428879,1.33037997,-4.02724261,,,
imu,320.645678,0.6406216488000002,-9.282135150400002,3.5853278832,1.94410407,0.9939190199999999,-4.012288789999999,,,
imu,320.654153,0.6382290376000002,-9.2917055952,3.5775518968,2.0413039,0.8369039099999998,-3.78050458,,,
imu,320.662628,0.6334438152,-9.3246039992,3.5883186472,2.05625772,0.7397040799999997,-3.48890509,,,
imu,320.671103,0.6208826064000001,-9.350324569600001,3.587720494400001,2.01139626,0.5527813299999997,-3.33936689,,,
imu,320.679578,0.6202844536000002,-9.3557079448,3.60387062,1.78708896,0.4032431299999999,-3.39918217,,,
imu,320.688053,0.6107140088,-9.364680236800002,3.61882444,1.4431511,0.2013665599999999,-3.43656672,,,
imu,320.696528,0.5927694248,-9.3652783896,3.6230115096,1.24127453,0.11164364,-3.35432071,,,
imu,320.705003,0.5927694248,-9.374250681600001,3.6194225928,1.02444414,0.08921290999999965,-3.32441307,,,
imu,320.713478,0.5736285352000001,-9.388606348800002,3.6355727184,0.7403215599999999,0.01444380999999995,-3.46647436,,,
imu,320.721953,0.5730303824,-9.360493167200001,3.639161635200001,0.36647606,0.1041667299999998,-3.50385891,,,
imu,320.730428,0.5359449088000001,-9.3622876256,3.612244759200001,0.11226112,0.08921290999999965,-3.66835093,,,
imu,320.738796,0.5281689224000001,-9.340155972000002,3.5960946336,-0.29149202,0.2237972899999998,-3.72816621,,,
imu,320.747271,0.5233837000000001,-9.300079734400002,3.607459536800001,-0.47093786,0.4929660499999997,-3.56367419,,,
imu,320.755746,0.5162058664000001,-9.269573941600001,3.5960946336,-0.54570696,0.6275504299999999,-3.71321239,,,
imu,320.764206,0.5048409632,-9.250433052000002,3.575159285600001,-0.56066078,0.78456554,-4.012288789999999,,,
imu,320.772666,0.5185984776000001,-9.225310634400001,3.581140813600001,-0.59056842,0.92662683,-4.41604193,,,
imu,320.781125,0.5006538936,-9.2707702472,3.585926036,-0.29149202,1.29299542,-4.408565019999999,,,
imu,320.789585,0.4868963792000001,-9.289312984,3.6056650784,-0.25410747,1.42010289,-4.59548777,,,
imu,320.798045,0.4851019208000001,-9.307855720800001,3.615833676,-0.13447691,1.60702564,-4.887087259999999,,,
imu,320.806505,0.4827093096,-9.3174261656,3.6242078152,-0.127,1.92853277,-4.86465653,,,
imu,320.814964,0.4707462536000001,-9.325202152000001,3.6379653296,-0.16438455,2.21265535,-4.59548777,,,
imu,320.823424,0.4928779072000001,-9.319220624000002,3.6451431632,-0.26906129,2.51173175,-4.25902682,,,
imu,320.831884,0.5132151024,-9.304864956800001,3.630189343200001,-0.3513073,2.78090051,-3.99733497,,,
imu,320.840343,0.5407301312,-9.284527761600001,3.6295911904,-0.38869185,2.9977309,-3.74312003,,,
imu,320.848803,0.5772174520000001,-9.246844135200002,3.637367176800001,-0.07466163,3.17717674,-3.5711511,,,
imu,320.857263,0.5778156048000002,-9.254021968800002,3.6176281344,-0.0522309,3.13231528,-3.66087402,,,
imu,320.865723,0.5915731192000001,-9.2378718432,3.6062632312,0.11973803,3.02763854,-3.85527368,,,
imu,320.874182,0.6113121616,-9.2067678976,3.6110484536,0.23189168,2.68370068,-3.90013514,,,
imu,320.882642,0.6017417168000001,-9.207366050400001,3.614039217600001,0.19450713,2.31733209,-4.07210407,,,
imu,320.891102,0.6035361752000001,-9.190019619200001,3.616431828800001,0.40386061,2.13040934,-4.124442439999999,,,
imu,320.899562,0.6095177032000001,-9.207964203200001,3.6134410648,0.7403215599999999,1.98834805,-3.93751969,,,
imu,320.908021,0.6059287864000001,-9.217534648,3.615833676,0.9945364999999999,1.58459491,-3.74312003,,,
imu,320.916481,0.6047324808000001,-9.2103568144,3.631983801600001,1.01696723,1.45001053,-3.58610492,,,
imu,320.924941,0.5969564944000001,-9.210954967200001,3.6283948848,1.23379762,1.3528107,-3.24216706,,,
imu,320.9334,0.5778156048000002,-9.225908787200002,3.641554246400001,1.26370526,1.06121121,-3.13749032,,,
imu,320.94186,0.5634599376000001,-9.228899551200001,3.6475357744,1.23379762,0.84438082,-3.04029049,,,
imu,320.95032,0.5592728680000001,-9.207964203200001,3.6594988304,1.18145925,0.7471809899999999,-2.96552139,,,
imu,320.95878,0.5479079648000001,-9.202580828,3.672658192000001,1.25622835,0.6499811599999998,-2.87579847,,,
imu,320.967251,0.5407301312,-9.202580828,3.6774434144,1.33847436,0.5976427899999996,-2.87579847,,,
imu,320.975722,0.5096261856000001,-9.211553120000001,3.663087747200001,1.6674584,0.6275504299999999,-2.74121409,,,
imu,320.984193,0.4910834488,-9.242058912800001,3.675050803200001,1.82447351,0.6724118899999998,-2.47952224,,,
imu,320.992664,0.4970649768000001,-9.240264454400002,3.676247108800001,1.85438115,0.9041961000000001,-2.44213769,,,
imu,321.001135,0.5108224912,-9.24146076,3.6738544976,2.03382699,1.14345722,-2.35241477,,,
imu,321.009607,0.5180003248000001,-9.244451524,3.6535173024,2.14598064,1.4275798,-2.21035348,,,
imu,321.018078,0.5323559920000001,-9.245647829600001,3.6523209968,2.24318047,1.62197946,-2.14306129,,,
imu,321.026549,0.5538894928000001,-9.273162858400001,3.670265580800001,2.52730305,1.89862513,-2.11315365,,,
imu,321.03502,0.5604691736,-9.290509289600001,3.676247108800001,2.54225687,1.99582496,-2.24026112,,,
imu,321.043491,0.5628617848,-9.304864956800001,3.6409560936,2.65441052,2.11545552,-2.39727623,,,
imu,321.051962,0.5897786608000001,-9.288116678400002,3.6385634824,2.45253395,2.07059406,-2.65149117,,,
imu,321.060434,0.6101158560000001,-9.287518525600001,3.6421523992,2.3403803,2.04816333,-2.77859864,,,
imu,321.068905,0.5963583416000001,-9.295294512000002,3.6361708712,2.31047266,2.09302479,-2.71878336,,,
imu,321.077376,0.5993491056000001,-9.2958926648,3.6230115096,2.18336519,2.18274771,-2.57672207,,,
imu,321.085847,0.6190881480000001,-9.309052026400002,3.604468772800001,1.83942733,1.91357895,-2.76364482,,,
imu,321.094318,0.6190881480000001,-9.319818776800002,3.6014780088,1.71979677,1.9509635,-2.71878336,,,
imu,321.10279,0.6304530512000001,-9.322809540800002,3.6062632312,1.63755076,2.01825569,-2.74121409,,,
imu,321.111261,0.6328456624000001,-9.335370749600001,3.6170299816,1.28613599,1.88367131,-2.92065993,,,
imu,321.119732,0.6316493568000001,-9.335968902400001,3.614039217600001,0.9197674,1.68179474,-3.01785976,,,
imu,321.128203,0.6137047728000001,-9.332978138400001,3.614039217600001,0.8375213899999999,1.52477963,-3.02533667,,,
imu,321.136674,0.6149010784000001,-9.321613235200001,3.6134410648,0.56087572,1.49487199,-3.13749032,,,
imu,321.145145,0.6089195504,-9.312042790400001,3.5966927864,0.29918387,1.23318014,-3.24964397,,,
imu,321.153617,0.6119103144000001,-9.28632222,3.604468772800001,-0.007369440000000005,1.03130357,-3.30945925,,,
imu,321.162088,0.5987509528,-9.270172094400001,3.5871223416,0.007584380000000002,1.03130357,-3.1225365,,,
imu,321.170545,0.5933675776,-9.258209038400002,3.572766674400001,-0.14195382,0.9714882899999999,-3.1225365,,,
imu,321.179002,0.5897786608000001,-9.233086620800002,3.5673832992,-0.11952309,0.8219500899999996,-3.13001341,,,
imu,321.187459,0.5736285352000001,-9.228301398400001,3.558411007200001,0.03749201999999999,0.7770886299999997,-3.07019813,,,
imu,321.195916,0.5736285352000001,-9.250433052000002,3.562598076800001,0.12721494,0.7471809899999999,-2.96552139,,,
imu,321.204374,0.5550857984,-9.2510312048,3.5512331736,0.55339881,0.7696117199999999,-2.86832156,,,
imu,321.212831,0.5461135064000001,-9.2510312048,3.564392535200001,0.70293701,0.94905756,-2.98795212,,,
imu,321.221288,0.5461135064000001,-9.261199802400002,3.564392535200001,1.00949032,1.03130357,-2.91318302,,,
imu,321.229745,0.5491042704000001,-9.2659850248,3.5685796048,1.23379762,1.13598031,-2.92065993,,,
imu,321.238202,0.5604691736,-9.271368400000002,3.570972216,1.54035093,1.37524143,-2.94309066,,,
imu,321.24666,0.5592728680000001,-9.274359164000002,3.5757574384,1.71979677,1.45748744,-2.92813684,,,
imu,321.255117,0.5670488544000001,-9.2617979552,3.5787482024,1.67493531,1.7266562,-3.07019813,,,
imu,321.263574,0.5622636320000001,-9.270172094400001,3.5781500496,1.69736604,1.64441019,-3.27955161,,,
imu,321.272031,0.5544876456000001,-9.2755554696,3.564990688,1.77961205,1.79394839,-3.40665908,,,
imu,319.935143,,,,,,,80.77503159999999,-39.54525480000002,118.7089312
imu,320.036827,,,,,,,83.17985000000002,-40.94908280000003,115.828032
imu,320.13839,,,,,,,82.48403959999999,-40.82701080000002,116.2186624
imu,320.239861,,,,,,,80.3355724,-39.3011108,118.330508
imu,320.341393,,,,,,,80.2745364,-39.38656120000002,117.8544272
imu,320.442955,,,,,,,80.77503159999999,-39.26448920000001,118.3671296
imu,320.544548,,,,,,,80.4210228,-39.70394840000002,118.1229856
imu,320.64605,,,,,,,80.78723880000001,-39.60629080000002,118.5868592
imu,321.280488,0.5616654792000001,-9.2797425392,3.5685796048,1.85438115,1.9509635,-3.56367419,,,
imu,321.288945,0.56824516,-9.2719665528,3.567981452000001,1.68988913,1.98087114,-3.89265823,,,
imu,321.297403,0.5784137576,-9.285724067200002,3.586524188800001,1.83942733,2.01077878,-3.86275059,,,
imu,321.30586,0.5939657304000001,-9.309052026400002,3.581738966400001,1.7422275,2.16031698,-3.83284295,,,
imu,321.314317,0.6149010784000001,-9.309650179200002,3.5990853976,1.51044329,2.27247063,-3.68330475,,,
imu,321.322774,0.6477994824000001,-9.2935000536,3.6152355232,1.41324346,2.40705501,-3.30198234,,,
imu,321.331231,0.666940372,-9.297687123200001,3.626002273600001,1.11416706,2.33228591,-2.8982292,,,
imu,321.339689,0.6830904976000001,-9.322809540800002,3.6421523992,0.7702292,2.05564024,-2.44213769,,,
imu,321.348146,0.6920627896000001,-9.322809540800002,3.6571062192,0.18703022,1.90610204,-2.19539966,,,
imu,321.356603,0.6986424704000002,-9.325202152000001,3.6589006776,-0.32139966,1.52477963,-2.03090764,,,
imu,321.36506,0.6968480120000001,-9.319220624000002,3.648732080000001,-0.91955246,1.07616503,-1.99352309,,,
imu,321.373874,0.6926609424000001,-9.328791068800001,3.642750552,-0.9644139199999999,0.6051196999999999,-2.21035348,,,
imu,321.382689,0.6693329832000001,-9.328791068800001,3.637367176800001,-1.30835178,0.21632038,-2.23278421,,,
imu,321.391503,0.6406216488000002,-9.319220624000002,3.630189343200001,-1.1737674,0.06678217999999969,-2.20287657,,,
imu,321.400317,0.6244715232,-9.3269966104,3.627796732000001,-0.9494601,-0.23229422,-2.21783039,,,
imu,321.409131,0.6220789120000001,-9.343146736000001,3.6271985792,-0.88964482,-0.23229422,-2.18792275,,,
imu,321.417946,0.5999472584000001,-9.330585527200002,3.623609662400001,-0.80739881,-0.2622018600000002,-2.36736859,,,
imu,321.42676,0.5873860496000001,-9.323407693600002,3.6242078152,-0.49336859,0.006966899999999665,-2.3000764,,,
imu,321.435574,0.5927694248,-9.2994815816,3.60387062,-0.127,0.4854891399999999,-2.17296893,,,
imu,321.444389,0.5999472584000001,-9.2785462336,3.621815204,0.05244583999999999,0.9341037399999998,-2.29259949,,,
imu,321.453203,0.5969564944000001,-9.271368400000002,3.6325819544,0.10478421,1.36028761,-2.31503022,,,
imu,321.462017,0.6113121616,-9.252825663200001,3.622413356800001,0.2468455,1.94348659,-2.59167589,,,
imu,321.470831,0.6178918424000002,-9.247442288000002,3.6116466064,0.33656842,2.324809,-3.10758268,,,
imu,321.479646,0.6501920936000001,-9.2366755376,3.623609662400001,0.27675314,2.61640849,-3.54872037,,,
imu,321.48846,0.6543791632000001,-9.242058912800001,3.6283948848,0.35899915,2.93791562,-4.079580979999999,,,
imu,321.497274,0.681894192,-9.249834899200001,3.6230115096,0.28423005,3.15474601,-4.55062631,,,
imu,321.506088,0.6908664840000001,-9.247442288000002,3.6343764128,0.30666078,3.2220382,-5.15625602,,,
imu,321.514903,0.6932590952000001,-9.2641905664,3.630787496000001,0.3739529699999999,3.43139168,-5.500193879999999,,,
imu,321.523717,0.7064184568,-9.245647829600001,3.6194225928,0.44872207,3.61083752,-5.8142241,,,
imu,321.532531,0.7327371800000001,-9.2510312048,3.6152355232,0.53844499,3.62579134,-5.74693191,,,
imu,321.541346,0.7536725280000001,-9.239068148800001,3.614637370400001,0.56835263,3.61083752,-5.82170101,,,
imu,321.55016,0.7686263480000001,-9.234881079200001,3.61882444,0.70293701,3.40896095,-5.97871612,,,
imu,321.558974,0.7692245008,-9.222918023200002,3.609852148000001,0.78518302,3.16969983,-6.180592689999999,,,
imu,321.567788,0.7638411256000001,-9.217534648,3.616431828800001,0.94967504,2.6986545,-6.34508471,,,
imu,321.576249,0.7632429728000001,-9.221721717600001,3.6295911904,0.9571519499999999,2.20517844,-6.44976145,,,
imu,321.58471,0.7339334856000002,-9.229497704000002,3.6230115096,1.04687487,1.71170238,-6.599299649999999,,,
imu,321.59317,0.7129981376000001,-9.254021968800002,3.6421523992,1.0693056,1.17336486,-6.53948437,,,
imu,321.601631,0.6878757200000001,-9.252227510400001,3.645741316000001,0.97210577,0.56025824,-6.360038530000001,,,
imu,321.610092,0.6603606912000002,-9.261199802400002,3.651722844000001,0.8749059399999999,0.1490281899999997,-6.10582359,,,
imu,321.618553,0.6406216488000002,-9.252825663200001,3.665480358400001,0.5459219,-0.2921095,-5.74693191,,,
imu,321.627013,0.5981528,-9.264788719200002,3.6660785112,0.3739529699999999,-0.6659550000000003,-5.37308641,,,
imu,321.635474,0.5646562432000001,-9.2641905664,3.675648956,0.25432241,-0.9276468500000004,-4.86465653,,,
imu,320.747545,,,,,,,80.3599868,-39.862642,118.025328
imu,320.849077,,,,,,,81.8736796,-39.08138120000002,117.3661392
imu,320.950639,,,,,,,80.09142840000001,-39.44759720000002,117.8300128
imu,321.052202,,,,,,,83.02115640000001,-40.30210120000002,116.4261848
imu,321.153764,,,,,,,80.9581396,-39.42318280000001,118.2206432
imu,321.255418,,,,,,,83.2164716,-40.19223640000003,116.4628064
imu,321.357042,,,,,,,81.01917560000001,-39.72836280000001,118.2816792
imu,321.458452,,,,,,,81.06800439999999,-39.16683160000001,118.8676248
imu,321.560014,,,,,,,80.9459324,-39.19124600000001,118.4647872
