Type,Timestamp,Data Accelerometer X,Data Accelerometer Y,Data Accelerometer Z,Data Gyroscope X,Data Gyroscope Y,Data Gyroscope Z,Data Magnetometer X,Data Magnetometer Y,Data Magnetometer Z
imu,64.868243,0.3684621248000001,-9.440645642400002,3.079290614400001,0.3889067899999999,1.18084177,-3.36927453,,,
imu,64.876706,0.3606861384,-9.438851184,3.091851823200001,0.3889067899999999,1.47991817,-3.37675144,,,
imu,64.88517,0.4169125016,-9.401167557600001,3.083477684,0.5459219,1.53973345,-3.24216706,,,
imu,64.893633,0.4216977240000001,-9.3975786408,3.078094308800001,0.44872207,1.62197946,-3.41413599,,,
imu,64.902097,0.376836264,-9.406550932800002,3.0583552664,0.49358353,1.64441019,-3.54124346,,,
imu,64.91056,0.4019586816,-9.398774946400001,3.0493829744,0.7253677399999999,1.6518871,-3.63096638,,,
imu,64.919024,0.4085383624000001,-9.382624820800002,3.0428032936,0.7702292,1.577118,-3.85527368,,,
imu,64.927487,0.385808556,-9.382624820800002,3.051775585600001,0.74779847,1.68179474,-3.93004278,,,
imu,64.935951,0.406743904,-9.367072848000001,3.0577571136,1.00949032,1.70422547,-3.85527368,,,
imu,64.944415,0.4055475984,-9.3664746952,3.0487848216,1.09921324,1.74908693,-4.079580979999999,,,
imu,64.952878,0.3786307224000001,-9.364082084000001,3.0422051408,1.34595127,1.49487199,-4.26650373,,,
imu,64.961342,0.3834159448,-9.380830362400001,3.0272513208,1.54035093,1.52477963,-4.29641137,,,
imu,64.969805,0.3893974728000001,-9.398774946400001,3.0332328488,1.80204278,1.36028761,-4.28893446,,,
imu,64.978269,0.3852104032000001,-9.403560168800002,3.0254568624,2.06373463,1.30047233,-4.32631901,,,
imu,64.986732,0.385808556,-9.429280739200001,3.032634696,2.32542648,1.26308778,-4.35622665,,,
imu,64.995196,0.382817792,-9.448421628800002,3.0410088352,2.37776485,1.24065705,-4.40108811,,,
imu,65.003659,0.3726491944000001,-9.457992073600002,3.0350273072,2.37028794,1.21822632,-4.3936112,,,
imu,65.012123,0.3864067088000001,-9.469356976800002,3.033831001600001,2.38524176,1.25561087,-4.18425772,,,
imu,65.020586,0.3780325696000001,-9.471151435200001,3.0111011952,2.31047266,1.39019525,-3.88518132,,,
imu,65.02905,0.3887993200000001,-9.443038253600001,3.02067164,2.1908421,1.52477963,-3.41413599,,,
imu,65.037514,0.3935845424,-9.414925072,2.996147375200001,1.9665348,1.41262598,-3.37675144,,,
imu,65.045977,0.3911919312,-9.437056725600002,3.020073487200001,1.76465823,1.19579559,-3.68330475,,,
imu,65.054441,0.4001642232,-9.464571754400001,3.0374199184,1.6674584,1.07616503,-3.95995042,,,
imu,65.062904,0.331974804,-9.450216087200001,3.0374199184,1.48053565,1.23318014,-4.15435008,,,
imu,65.071368,0.281131816,-9.5172092008,3.0577571136,1.39828964,1.23318014,-4.30388828,,,
imu,65.079901,0.2619909264,-9.522592576000001,3.0188771816,1.21136689,1.47244126,-4.51324176,,,
imu,65.088386,0.3367600264,-9.509433214400001,3.0093067368,1.03939796,1.89114822,-4.46090339,,,
imu,65.096871,0.3505175408000001,-9.486703408,3.0230642512,0.8749059399999999,2.25751681,-3.98238115,,,
imu,65.105357,0.3690602776000001,-9.456795768000001,3.0134938064,0.9272443100000001,2.57154703,-3.46647436,,,
imu,65.113842,0.3816214864,-9.4526086984,2.989567694400001,1.03939796,2.78837742,-3.40665908,,,
imu,65.122327,0.3905937784,-9.456197615200002,2.9865769304,1.0693056,2.72856214,-3.54124346,,,
imu,65.130812,0.4151180432000001,-9.426888128000002,2.975810180000001,1.27118217,2.63136231,-3.56367419,,,
imu,65.139297,0.424688488,-9.419710294400002,2.984782472,1.23379762,2.59397776,-3.66835093,,,
imu,65.147782,0.4390441552000001,-9.4286825864,2.9752120272,1.40576655,2.63136231,-3.73564312,,,
imu,65.156268,0.4474182944000001,-9.432869656000001,2.9871750832,1.48053565,2.53416248,-3.68330475,,,
imu,65.164753,0.4575868920000001,-9.435860420000001,2.9811935552,1.36090509,2.36219355,-3.70573548,,,
imu,65.173238,0.4641665728000001,-9.435262267200002,2.9716231104,1.39081273,2.13788625,-3.61601256,,,
imu,65.181723,0.46356842,-9.440645642400002,2.971024957600001,1.51044329,1.94348659,-3.37675144,,,
imu,65.190208,0.454596128,-9.459786532,2.9764083328,1.36090509,1.68179474,-3.3468438,,,
imu,65.198693,0.4384460024000001,-9.456795768000001,2.963248971200001,1.38333582,1.46496435,-3.30198234,,,
imu,65.207178,0.4043512928,-9.4382530312,2.9764083328,1.30856672,1.24813396,-3.20478251,,,
imu,65.215664,0.4055475984,-9.481320032800001,2.9853806248,1.23379762,1.17336486,-3.24964397,,,
imu,65.224149,0.439642308,-9.48072188,3.0003344448,1.32352054,1.25561087,-3.17487487,,,
imu,65.232634,0.4444275304,-9.438851184,2.997941833600001,1.11416706,1.2780416,-3.10010577,,,
imu,65.241119,0.4270810992000001,-9.444832712,2.9955492224,1.02444414,1.08364194,-2.98795212,,,
imu,65.249604,0.4300718632,-9.4591883792,2.9674360408,1.18145925,0.8144731799999998,-3.09262886,,,
imu,65.258089,0.3487230824000001,-9.4729458936,2.969828652,1.1440747,0.64250425,-3.38422835,,,
imu,65.266575,0.3343674152,-9.5184055064,2.9734175688,1.43567419,0.70231953,-3.51881273,,,
imu,65.27506,0.3774344168000001,-9.516012895200001,2.962052665600001,1.42072037,1.02382666,-3.50385891,,,
imu,65.283526,0.3762381112000001,-9.496872005600002,2.9716231104,1.35342818,1.25561087,-3.26459779,,,
imu,65.291992,0.4013605288,-9.4908904776,2.996147375200001,1.31604363,1.32290306,-2.86084465,,,
imu,65.300458,0.4821111568000001,-9.5154147424,3.012895653600001,1.07678251,1.25561087,-2.93561375,,,
imu,65.308924,0.4037531400000001,-9.520798117600002,3.015288264800001,0.8973366700000001,1.04625739,-2.91318302,,,
imu,65.31739,0.385808556,-9.5004609224,2.990764,0.5982602699999999,0.6798887999999996,-3.13749032,,,
imu,65.325856,0.4785222400000001,-9.441841948000002,2.9793990968,0.31413769,0.6051196999999999,-3.42908981,,,
imu,65.334322,0.424688488,-9.519003659200001,2.990764,0.3739529699999999,0.6499811599999998,-3.28702852,,,
imu,65.342788,0.334965568,-9.505246144800001,2.9883713888,0.23189168,0.6499811599999998,-2.70382954,,,
imu,65.351254,0.370854736,-9.493283088800002,2.9746138744,-0.01484635000000001,0.6051196999999999,-2.86832156,,,
imu,65.359721,0.3876030144000001,-9.481320032800001,2.9716231104,-0.2017691,0.8817653699999997,-3.11505959,,,
imu,65.368187,0.3576953744,-9.459786532,2.957865596,-0.08213854000000001,1.06121121,-3.03281358,,,
imu,65.376653,0.3493212352000001,-9.4490197816,2.9584637488,-0.07466163,1.09859576,-3.10010577,,,
imu,65.385119,0.3493212352000001,-9.438851184,2.96085636,-0.29149202,1.09859576,-3.65339711,,,
imu,65.393585,0.3373581792000001,-9.426888128000002,2.957267443200001,-0.31392275,1.24813396,-4.102011709999999,,,
imu,65.402051,0.3385544848000001,-9.405354627200001,2.9704268048,-0.22419983,1.39767216,-4.25902682,,,
imu,65.410517,0.3457323184,-9.395186029600001,2.963847124,-0.18681528,1.42010289,-4.363703559999999,,,
imu,65.418983,0.3469286240000001,-9.417915836,2.96085636,-0.05970781,1.67431783,-4.34874974,,,
imu,65.427449,0.3493212352000001,-9.4113361552,2.971024957600001,-0.26158438,1.98834805,-4.341272829999999,,,
imu,65.435915,0.3834159448,-9.3455393472,2.96085636,-0.2017691,2.13040934,-4.07210407,,,
imu,65.444381,0.4264829464000001,-9.405952780000002,2.9793990968,-0.16438455,2.10797861,-4.00481188,,,
imu,65.452847,0.3876030144000001,-9.462777296000002,3.0158864176,0.007584380000000002,2.04068642,-3.78050458,,,
imu,65.461314,0.3744436528,-9.408943544000001,3.012895653600001,-0.11204618,1.90610204,-3.88518132,,,
imu,65.46978,0.2883096496000001,-9.4322715032,2.996745528,-0.02232326000000001,1.91357895,-4.17678081,,,
imu,65.478246,0.3158246784000001,-9.46576806,2.96085636,0.26179932,2.04068642,-4.16182699,,,
imu,65.486686,0.4085383624000001,-9.468758824,2.979997249600001,0.2468455,2.22760917,-4.169303899999999,,,
imu,65.495127,0.4288755576000001,-9.4280844336,3.003325208800001,0.21693786,2.27247063,-3.66835093,,,
imu,65.503568,0.4438293776000001,-9.425691822400001,3.014690112,0.51601426,2.1005017,-3.32441307,,,
imu,65.512008,0.4169125016,-9.446627170400001,2.999138139200001,0.59078336,1.89114822,-3.24216706,,,
imu,65.520449,0.3953790008,-9.463973601600001,2.9985399864,0.70293701,1.81637912,-3.23469015,,,
imu,65.52889,0.4127254320000001,-9.460384684800001,3.005717820000001,0.70293701,1.79394839,-3.17487487,,,
imu,65.53733,0.4163143488000001,-9.440645642400002,3.024260556800001,0.6281679099999999,1.69674856,-3.08515195,,,
imu,65.545771,0.4175106544000001,-9.450216087200001,3.012895653600001,0.76275229,1.63693328,-2.93561375,,,
imu,65.554212,0.4181088072000001,-9.453206851200001,3.0039233616,0.65059864,1.59954873,-2.95056757,,,
imu,65.562652,0.4091365152000001,-9.453805004000001,3.0134938064,0.65059864,1.53225654,-3.07767504,,,
imu,65.571093,0.4127254320000001,-9.460982837600001,3.0164845704,0.57582954,1.42010289,-3.07019813,,,
imu,65.579534,0.400762376,-9.457992073600002,3.020073487200001,0.43376825,1.42010289,-3.13749032,,,
imu,65.587974,0.3846122504,-9.437654878400002,3.011699348,0.44124516,1.47244126,-3.23469015,,,
imu,65.596415,0.3893974728000001,-9.460384684800001,3.0164845704,0.36647606,1.47991817,-3.38422835,,,
imu,65.604856,0.4049494456000001,-9.4496179344,3.0051196672,0.3739529699999999,1.52477963,-3.51133582,,,
imu,65.613296,0.4073420568000001,-9.425691822400001,3.017082723200001,0.40386061,1.74161002,-3.32441307,,,
imu,65.621737,0.3995660704000001,-9.426289975200001,3.017082723200001,0.4711528,1.77899457,-3.02533667,,,
imu,65.630178,0.4294737104000001,-9.429280739200001,3.0099048896,0.53096808,1.89862513,-3.10010577,,,
imu,65.638618,0.4061457512000001,-9.412532460800001,3.011699348,0.3889067899999999,1.80890221,-3.36179762,,,
imu,65.647059,0.3816214864,-9.4250936696,3.020073487200001,0.50853735,1.7266562,-3.48890509,,,
imu,65.655499,0.3427415544,-9.436458572800001,3.0158864176,0.73284465,1.74908693,-3.56367419,,,
imu,65.66394,0.3882011672000001,-9.429280739200001,3.026653168000001,0.82256757,1.86124058,-3.66087402,,,
imu,65.672381,0.43366078,-9.437654878400002,3.022466098400001,0.79265993,1.99582496,-3.65339711,,,
imu,65.680821,0.424688488,-9.430477044800002,3.011699348,0.91229049,2.1752708,-3.24964397,,,
imu,65.689645,0.5114206440000001,-9.416121377600001,3.0111011952,1.09173633,2.22760917,-2.94309066,,,
imu,65.698469,0.4868963792000001,-9.432869656000001,2.997941833600001,1.2188438,2.09302479,-2.92813684,,,
imu,65.707292,0.4121272792,-9.4203084472,2.991960305600001,1.21136689,1.85376367,-2.77859864,,,
imu,65.716116,0.4659610312,-9.3838211264,2.9584637488,1.12912088,1.71170238,-3.01785976,,,
imu,65.724939,0.5431227424,-9.408345391200001,2.9913621528,1.39081273,1.66684092,-3.44404363,,,
imu,65.733763,0.4444275304,-9.436458572800001,2.972819416000001,1.6674584,1.49487199,-3.43656672,,,
imu,65.742586,0.4360533912000001,-9.460384684800001,2.996147375200001,1.50296638,1.06121121,-3.62348947,,,
imu,65.75141,0.4575868920000001,-9.475936657600002,2.9853806248,1.47305874,1.11354958,-4.06462716,,,
imu,64.961884,,,,,,,84.88885800000001,-44.29385560000001,118.8554176
imu,65.063385,,,,,,,84.36394840000001,-43.95205400000002,116.4505992
imu,65.165131,,,,,,,84.4982276,-43.86660360000001,118.9530752
imu,65.760233,0.4264829464000001,-9.490292324800002,2.9871750832,1.39828964,1.07616503,-4.386134289999999,,,
imu,65.769057,0.3816214864,-9.5010590752,2.978800944,1.54782784,1.06121121,-4.19921154,,,
imu,65.777881,0.3965753064,-9.5154147424,2.9811935552,1.34595127,1.22570323,-4.11696553,,,
imu,65.786704,0.3989679176000001,-9.5184055064,2.975810180000001,1.26370526,1.69674856,-4.0197657,,,
imu,65.795528,0.3989679176000001,-9.4908904776,2.9829880136,1.15902852,1.84628676,-4.04219643,,,
imu,65.804351,0.4240903352000001,-9.4633754488,2.953678526400001,1.02444414,2.00330187,-4.08705789,,,
imu,65.813175,0.4581850448000001,-9.444832712,2.9614545128,1.17398234,2.09302479,-4.10948862,,,
imu,65.821998,0.4737370176,-9.4526086984,2.936930248,1.18893616,2.00330187,-4.318842099999999,,,
imu,65.830822,0.4851019208000001,-9.450216087200001,2.9470988456,1.06182869,1.8761944,-4.47585721,,,
imu,65.839646,0.5078317272000001,-9.4250936696,2.9602582072,1.03939796,1.69674856,-4.57305704,,,
imu,65.848469,0.4946723656000001,-9.439449336800001,2.9853806248,1.00949032,1.36028761,-4.70016451,,,
imu,65.857293,0.430670016,-9.457393920800001,2.971024957600001,0.85995212,1.1285034,-4.78988743,,,
imu,65.866116,0.4528016696000001,-9.448421628800002,2.991960305600001,0.8973366700000001,0.9191499199999997,-5.05157928,,,
imu,65.87494,0.3086468448,-9.471749588000002,2.9770064856,0.8674290299999999,0.7397040799999997,-5.193640569999999,,,
imu,65.883763,0.3367600264,-9.51062952,2.9506877624,0.7403215599999999,0.7696117199999999,-5.08148692,,,
imu,65.89224,0.4193051128000001,-9.499862769600002,2.957267443200001,0.56087572,1.00139593,-4.83474889,,,
imu,65.900716,0.4037531400000001,-9.4591883792,2.981791708,0.45619898,1.00887284,-4.35622665,,,
imu,65.909192,0.3911919312,-9.444832712,2.9889695416,0.50853735,1.03878048,-3.97490424,,,
imu,65.917668,0.3672658192000001,-9.451412392800002,2.978202791200001,0.5010604399999999,0.9640113799999996,-3.98238115,,,
imu,65.926145,0.3343674152,-9.4460290176,2.971024957600001,0.22441477,0.9116730099999999,-4.20668845,,,
imu,65.934621,0.3253951232,-9.440645642400002,2.9692304992,0.11973803,0.98644211,-4.0945348,,,
imu,65.943097,0.3271895816000001,-9.4382530312,2.9704268048,0.29918387,1.27056469,-3.78050458,,,
imu,65.951573,0.3313766512,-9.4460290176,2.968632346400001,0.36647606,1.62197946,-3.62348947,,,
imu,65.96005,0.3170209840000001,-9.4496179344,2.969828652,0.29918387,1.58459491,-3.65339711,,,
imu,65.968526,0.3391526376000001,-9.471749588000002,2.9680341936,0.52349117,1.85376367,-3.42908981,,,
imu,65.977002,0.3564990688,-9.462777296000002,2.957865596,0.56835263,1.98834805,-3.26459779,,,
imu,65.985478,0.3457323184,-9.440645642400002,2.9560711376,0.63564482,2.04816333,-3.26459779,,,
imu,65.993955,0.3666676664,-9.531564868,3.008708584,0.5459219,2.07059406,-3.38422835,,,
imu,66.002431,0.3600879856,-9.539939007200001,3.0182790288,0.50853735,2.29490136,-3.51133582,,,
imu,66.010907,0.3995660704000001,-9.517807353600002,3.0051196672,0.28423005,2.28742445,-3.75059694,,,
imu,66.019383,0.4222958768,-9.478927421600002,3.0194753344,0.22441477,2.33976282,-3.61601256,,,
imu,66.02786,0.4115291264,-9.489096019200002,3.038616224000001,0.14216876,2.07059406,-3.496382,,,
imu,66.036336,0.3570972216000001,-9.5118258256,3.0314383904,-0.19429219,1.98834805,-3.50385891,,,
imu,66.044812,0.4049494456000001,-9.498666464000001,3.0093067368,-0.4260764,1.80890221,-3.70573548,,,
imu,66.053288,0.4145198904,-9.460384684800001,3.0093067368,-0.33635348,1.89862513,-3.61601256,,,
imu,66.061765,0.415716196,-9.4215047528,3.0069141256,-0.48589168,1.74161002,-3.1225365,,,
imu,66.070241,0.4569887392,-9.402962016000002,3.0081104312,-0.56066078,1.64441019,-3.03281358,,,
imu,66.078717,0.3947808480000001,-9.406550932800002,3.0099048896,-0.54570696,1.49487199,-3.45899745,,,
imu,66.087194,0.34393786,-9.419112141600001,2.9931566112,-0.48589168,1.36776452,-3.67582784,,,
imu,66.095653,0.3738455000000001,-9.3718580704,2.9985399864,-0.14195382,1.41262598,-3.66087402,,,
imu,66.104113,0.370854736,-9.342548583200001,2.993754764000001,-0.07466163,1.53973345,-3.63844329,,,
imu,66.112573,0.4091365152000001,-9.388606348800002,2.9955492224,0.18703022,1.577118,-3.61601256,,,
imu,66.121032,0.3756399584,-9.405952780000002,2.9859787776,0.29170696,1.577118,-3.46647436,,,
imu,66.129492,0.3822196392,-9.404756474400001,2.991960305600001,0.43376825,1.66684092,-3.46647436,,,
imu,66.137952,0.4031549872,-9.405354627200001,3.0158864176,0.36647606,1.71170238,-3.77302767,,,
imu,66.146412,0.3953790008,-9.408943544000001,3.0099048896,0.68050628,1.80890221,-3.7954584,,,
imu,66.154871,0.385808556,-9.433467808800001,2.9985399864,0.8749059399999999,1.85376367,-3.73564312,,,
imu,66.163331,0.3977716120000001,-9.464571754400001,2.9865769304,0.9571519499999999,1.77899457,-3.84031986,,,
imu,66.171647,0.3911919312,-9.484908949600001,2.9949510696,1.21136689,1.83133294,-3.95247351,,,
imu,66.180107,0.4151180432000001,-9.4765348104,3.014690112,1.16650543,1.97339423,-4.0197657,,,
imu,66.188567,0.4193051128000001,-9.455001309600002,3.0134938064,1.03192105,1.83880985,-4.15435008,,,
imu,66.197026,0.4342589328000001,-9.4591883792,3.005717820000001,1.09173633,1.76404075,-4.20668845,,,
imu,66.205486,0.4474182944000001,-9.440645642400002,2.9913621528,0.97958268,1.77151766,-4.22164227,,,
imu,66.213946,0.4587831976000001,-9.447225323200001,2.996745528,0.9197674,1.61450255,-4.13939626,,,
imu,66.222406,0.4539979752000001,-9.4460290176,2.9943529168,0.8749059399999999,1.55468727,-4.02724261,,,
imu,66.230865,0.46356842,-9.423897364000002,2.9955492224,0.82256757,1.30794924,-4.31136519,,,
imu,66.239325,0.4749333232000001,-9.410139849600002,2.9973436808,1.04687487,1.30794924,-4.21416536,,,
imu,66.247785,0.4378478496000001,-9.46576806,3.0069141256,0.85995212,1.09111885,-4.29641137,,,
imu,66.256244,0.4115291264,-9.426289975200001,3.0069141256,0.82256757,0.7471809899999999,-4.647826139999999,,,
imu,66.264704,0.3259932760000001,-9.450216087200001,2.9985399864,0.76275229,0.6350273399999997,-5.22354821,,,
imu,66.273164,0.3505175408000001,-9.493283088800002,2.9901658472,0.74779847,0.72475026,-5.29831731,,,
imu,66.281624,0.424688488,-9.471749588000002,2.993754764000001,0.73284465,1.00139593,-4.98428709,,,
imu,66.290083,0.4294737104000001,-9.460982837600001,2.9985399864,0.68798319,1.06868812,-4.647826139999999,,,
imu,66.298552,0.4330626272,-9.456795768000001,3.0045215144,0.7702292,1.04625739,-4.30388828,,,
imu,66.307021,0.4163143488000001,-9.4699551296,3.007512278400001,0.6954601,0.8967191899999998,-4.341272829999999,,,
imu,66.315489,0.4031549872,-9.471151435200001,3.005717820000001,0.65059864,0.6798887999999996,-4.27398064,,,
imu,66.323958,0.3977716120000001,-9.453805004000001,3.005717820000001,0.6954601,0.4630584099999999,-4.21416536,,,
imu,66.332427,0.4043512928,-9.431075197600002,3.0039233616,0.53844499,0.4107200399999997,-4.07210407,,,
imu,66.340895,0.4049494456000001,-9.433467808800001,3.0051196672,0.58330645,0.29856639,-3.9449966,,,
imu,66.349364,0.391790084,-9.422102905600001,2.9931566112,0.76275229,0.2237972899999998,-3.99733497,,,
imu,66.357832,0.3810233336,-9.425691822400001,2.9985399864,0.74779847,0.2537049300000001,-3.89265823,,,
imu,66.366301,0.3648732080000001,-9.432869656000001,2.9859787776,0.7403215599999999,0.2237972899999998,-3.84031986,,,
imu,66.37477,0.3427415544,-9.422701058400001,2.9793990968,0.8674290299999999,0.2537049300000001,-3.75807385,,,
imu,66.383238,0.2865151912,-9.4753385048,2.996745528,0.9945364999999999,0.4256738599999998,-3.95247351,,,
imu,66.391707,0.2368685088,-9.490292324800002,3.0039233616,1.13659779,0.64250425,-4.00481188,,,
imu,66.400176,0.3134320672,-9.4873015608,3.0284476264,0.94967504,0.92662683,-4.146873169999999,,,
imu,66.408644,0.442633072,-9.4203084472,3.0398125296,0.9048135799999999,1.36028761,-4.169303899999999,,,
imu,66.417113,0.3582935272000001,-9.391597112800001,3.0051196672,1.12912088,1.59954873,-3.55619728,,,
imu,66.425581,0.3887993200000001,-9.4071490856,2.949491456800001,1.33099745,1.4275798,-3.28702852,,,
imu,66.43405,0.4438293776000001,-9.459786532,2.9602582072,1.27118217,1.47244126,-3.80293531,,,
imu,66.442519,0.3355637208,-9.4215047528,2.968632346400001,1.27118217,1.2780416,-4.20668845,,,
imu,66.450987,0.3313766512,-9.395784182400002,2.996745528,1.25622835,1.21822632,-4.3936112,,,
imu,66.459456,0.3576953744,-9.4215047528,2.9973436808,1.2188438,1.22570323,-4.84970271,,,
imu,66.467925,0.3307784984000001,-9.448421628800002,3.0069141256,1.30856672,1.14345722,-5.0665331,,,
imu,66.476393,0.3206099008000001,-9.4591883792,3.003325208800001,1.32352054,1.08364194,-5.193640569999999,,,
imu,66.484862,0.3259932760000001,-9.4555994624,2.979997249600001,1.27865908,1.22570323,-5.18616366,,,
imu,66.49333,0.3463304712,-9.4077472384,2.945304387200001,1.33847436,1.18831868,-4.89456417,,,
imu,66.501791,0.3684621248000001,-9.4621791432,2.962052665600001,1.39828964,1.28551851,-4.670256869999999,,,
imu,66.510252,0.3331711096,-9.4591883792,2.9596600544,1.36090509,1.44253362,-4.20668845,,,
imu,66.518713,0.3475267768,-9.5082369088,3.026653168000001,1.54782784,1.33785688,-3.9449966,,,
imu,66.527174,0.323002512,-9.4215047528,3.0093067368,1.36090509,1.27056469,-3.96742733,,,
imu,66.535635,0.2865151912,-9.470553282400001,3.020073487200001,1.40576655,1.28551851,-4.25902682,,,
imu,66.544096,0.23926112,-9.4621791432,2.9811935552,1.30856672,1.06868812,-4.49828794,,,
imu,66.552557,0.3176191368,-9.461580990400002,2.980595402400001,1.42072037,1.14345722,-4.625395409999999,,,
imu,66.561018,0.3343674152,-9.448421628800002,2.978202791200001,1.2936129,1.24813396,-4.386134289999999,,,
imu,66.569479,0.3259932760000001,-9.444832712,2.9722212632,1.27865908,1.02382666,-4.00481188,,,
imu,65.266392,,,,,,,84.278498,-43.50038760000001,118.8554176
imu,65.367985,,,,,,,84.2052548,-43.37831560000001,118.4647872
imu,65.469547,,,,,,,84.26629080000001,-43.76894600000001,118.574652
imu,65.571079,,,,,,,84.4371916,-43.64687400000003,118.208436
imu,65.672642,,,,,,,84.53484920000001,-43.37831560000001,118.8432104
imu,65.774357,,,,,,,86.4513796,-44.45254920000001,117.6957336
imu,65.875797,,,,,,,84.52264199999999,-44.19619800000001,118.6723096
imu,65.977329,,,,,,,86.780974,-44.0985404,116.2919056
imu,66.57794,0.3301803456000001,-9.453206851200001,2.9793990968,1.4431511,0.9939190199999999,-3.75059694,,,
imu,66.586401,0.3086468448,-9.464571754400001,2.978202791200001,1.62259694,0.8144731799999998,-3.57862801,,,
imu,66.594862,0.2954874832,-9.486105255200002,2.9722212632,1.62259694,0.7471809899999999,-3.3468438,,,
imu,66.603323,0.2996745528,-9.472347740800002,2.9746138744,1.4431511,0.6798887999999996,-3.08515195,,,
imu,66.611784,0.3080486920000001,-9.4765348104,2.972819416000001,1.2936129,0.5976427899999996,-2.77859864,,,
imu,66.620245,0.2930948720000001,-9.462777296000002,2.9704268048,1.2936129,0.5976427899999996,-2.56924516,,,
imu,66.628706,0.2984782472,-9.458590226400002,2.9716231104,1.4431511,0.6948426199999997,-2.29259949,,,
imu,66.637167,0.3014690112,-9.450814240000001,2.9614545128,1.24875144,0.5079198699999998,-2.2253073,,,
imu,66.645628,0.2757484408,-9.4215047528,2.935733942400001,1.2188438,0.56025824,-2.1505382,,,
imu,66.654089,0.2350740504,-9.507040603200002,2.9273598032,1.32352054,0.6350273399999997,-2.12810747,,,
imu,66.66255,0.2320832864,-9.477731116000001,2.9465006928,1.18893616,0.86681155,-2.16549202,,,
imu,66.671011,0.3283858872000001,-9.4669643656,2.9554729848,1.27865908,1.07616503,-2.29259949,,,
imu,66.679472,0.4025568344,-9.419710294400002,2.966837888,1.41324346,1.49487199,-1.95613854,,,
imu,66.687933,0.3517138464,-9.3904008072,2.913004136000001,1.60016621,1.39019525,-1.42527793,,,
imu,66.696394,0.4318663216,-9.419112141600001,2.8795075792,1.8917657,1.18084177,-1.44770866,,,
imu,66.705215,0.3977716120000001,-9.470553282400001,2.9028355384,2.19831901,1.02382666,-1.79912343,,,
imu,66.714036,0.334965568,-9.4801237272,2.945304387200001,2.15345755,0.7471809899999999,-2.14306129,,,
imu,66.722857,0.3564990688,-9.4944793944,2.963248971200001,2.15345755,0.6051196999999999,-2.38979932,,,
imu,66.731678,0.3385544848000001,-9.490292324800002,2.9482951512,2.0413039,0.6125966099999998,-2.73373718,,,
imu,66.740499,0.3253951232,-9.486703408,2.9393228592,1.75718132,0.6948426199999997,-3.05524431,,,
imu,66.74932,0.3559009160000001,-9.4944793944,2.9530803736,1.68241222,0.6798887999999996,-3.0477674,,,
imu,66.758141,0.34393786,-9.4938812416,2.9542766792,1.60764312,0.9565344699999998,-2.80102937,,,
imu,66.766962,0.3253951232,-9.486105255200002,2.9423136232,1.45062801,1.14345722,-2.57672207,,,
imu,66.775783,0.3594898328000001,-9.440047489600001,2.8908724824,1.18893616,1.29299542,-2.5243837,,,
imu,66.784603,0.3876030144000001,-9.4908904776,2.918985664,1.17398234,1.53973345,-2.54681443,,,
imu,66.793424,0.4115291264,-9.447225323200001,2.910013372,1.10669015,1.52477963,-2.49447606,,,
imu,66.802245,0.4043512928,-9.4980683112,3.007512278400001,1.09921324,1.48739508,-2.74121409,,,
imu,66.811066,0.311039456,-9.435262267200002,2.9650434296,0.9048135799999999,1.39019525,-3.20478251,,,
imu,66.819887,0.2637853848,-9.471151435200001,2.968632346400001,1.03939796,1.36028761,-3.7954584,,,
imu,66.828708,0.2500278704,-9.498666464000001,2.922574580800001,1.10669015,1.64441019,-4.22164227,,,
imu,66.837529,0.3379563320000001,-9.4962738528,2.9094152192,1.18145925,2.34723973,-4.124442439999999,,,
imu,66.84635,0.3870048616000001,-9.4729458936,2.920181969600001,1.12912088,2.63883922,-3.58610492,,,
imu,66.855171,0.415716196,-9.4669643656,2.9351357896,1.08425942,2.76594669,-3.18982869,,,
imu,66.863992,0.43366078,-9.474142199200001,2.927957956,1.27865908,2.8481927,-3.04029049,,,
imu,66.872813,0.4312681688,-9.4735440464,2.9213782752,1.23379762,2.78837742,-3.15992105,,,
imu,66.881633,0.4510072112,-9.475936657600002,2.9207801224,1.27118217,2.55659321,-3.10758268,,,
imu,66.890454,0.4539979752000001,-9.477731116000001,2.9195838168,1.12912088,2.4743472,-3.05524431,,,
imu,66.899275,0.4575868920000001,-9.483712644000002,2.93094872,1.24127453,2.31733209,-3.00290594,,,
imu,66.907754,0.439642308,-9.4831144912,2.9303505672,1.2936129,1.97339423,-2.98047521,,,
imu,66.916233,0.439642308,-9.474740352000001,2.939921012000001,1.22632071,1.89114822,-2.86832156,,,
imu,66.924712,0.400762376,-9.505246144800001,2.9405191648,1.04687487,1.7266562,-2.81598319,,,
imu,66.93319,0.3301803456000001,-9.5423316184,2.9171912056,1.00201341,1.68179474,-2.8982292,,,
imu,66.941669,0.4139217376000001,-9.51062952,2.9291542616,0.7702292,1.70422547,-3.07767504,,,
imu,66.950148,0.5497024232000001,-9.427486280800002,2.9656415824,0.7253677399999999,1.85376367,-3.07019813,,,
imu,66.958627,0.4599795032,-9.3694654592,2.9118078304,0.83004448,1.86871749,-2.50942988,,,
imu,66.967106,0.5251781584,-9.4280844336,2.9022373856,1.12164397,1.58459491,-2.32250713,,,
imu,66.975584,0.5221873944000001,-9.486105255200002,2.877114968,1.2936129,1.4275798,-2.83841392,,,
imu,66.984063,0.4163143488000001,-9.460384684800001,2.9165930528,1.31604363,1.17336486,-3.28702852,,,
imu,66.992542,0.4187069600000001,-9.441841948000002,2.933939484000001,1.45062801,0.9191499199999997,-3.65339711,,,
imu,67.001021,0.4169125016,-9.477731116000001,2.9423136232,1.41324346,0.8742884599999998,-4.22164227,,,
imu,67.0095,0.391790084,-9.489096019200002,2.9273598032,1.25622835,0.7696117199999999,-4.625395409999999,,,
imu,67.017978,0.385808556,-9.490292324800002,2.928556108800001,1.32352054,0.8518577299999999,-4.6179185,,,
imu,67.026457,0.3905937784,-9.492086783200001,2.924369039200001,1.36090509,1.00887284,-4.74502597,,,
imu,67.034936,0.3762381112000001,-9.484908949600001,2.9171912056,1.36090509,1.18831868,-4.90204108,,,
imu,67.043415,0.3744436528,-9.4908904776,2.904031844000001,1.32352054,1.18084177,-4.92447181,,,
imu,67.051894,0.3660695136000001,-9.4873015608,2.905228149600001,1.16650543,1.23318014,-4.9169949,,,
imu,67.060372,0.3864067088000001,-9.409541696800002,2.8519925504,1.07678251,1.46496435,-4.715118329999999,,,
imu,67.068851,0.4234921824,-9.503451686400002,2.887283565600001,1.20388998,1.51730272,-4.64034923,,,
imu,67.07733,0.3947808480000001,-9.4974701584,2.933939484000001,1.09921324,1.5023489,-4.55062631,,,
imu,67.085809,0.3983697648000001,-9.425691822400001,2.949491456800001,0.97958268,1.45001053,-4.602964679999999,,,
imu,67.094288,0.3780325696000001,-9.489694172,2.93094872,0.9272443100000001,1.49487199,-4.72259524,,,
imu,67.102766,0.2781410520000001,-9.486703408,2.9512859152,0.8449983,1.3528107,-4.83474889,,,
imu,67.111222,0.2356722032,-9.478927421600002,2.914798594400001,0.82256757,1.48739508,-4.98428709,,,
imu,67.119678,0.2823281216,-9.507040603200002,2.895657704800001,0.81509066,1.95844041,-5.15625602,,,
imu,67.128134,0.3391526376000001,-9.490292324800002,2.8998447744,0.57582954,2.24256299,-4.83474889,,,
imu,67.13659,0.3642750552,-9.477731116000001,2.9213782752,0.55339881,2.42200883,-4.15435008,,,
imu,67.145046,0.3535083048,-9.498666464000001,2.913004136000001,0.57582954,2.36219355,-3.93004278,,,
imu,67.153502,0.3582935272000001,-9.4944793944,2.899246621600001,0.66555246,2.40705501,-4.10948862,,,
imu,67.161958,0.35889168,-9.4801237272,2.8962558576,0.70293701,2.56407012,-3.93751969,,,
imu,67.170414,0.3822196392,-9.453206851200001,2.8998447744,0.620691,2.63136231,-3.66835093,,,
imu,67.17887,0.3965753064,-9.453206851200001,2.8944613992,0.73284465,2.73603905,-3.36927453,,,
imu,67.187326,0.3965753064,-9.4490197816,2.889676176800001,0.77770611,2.45191647,-3.39170526,,,
imu,67.195782,0.4127254320000001,-9.448421628800002,2.8974521632,0.8524752099999999,2.35471664,-3.48890509,,,
imu,67.204237,0.4091365152000001,-9.4591883792,2.9028355384,0.94219813,2.23508608,-3.47395127,,,
imu,67.212693,0.3654713608,-9.489096019200002,2.928556108800001,0.74779847,1.83880985,-3.66835093,,,
imu,67.221149,0.3325729568,-9.534555632000002,2.9112096776,0.41881443,1.68927165,-3.82536604,,,
imu,67.229605,0.3038616224,-9.554892827200002,2.9602582072,0.26927623,1.70422547,-3.74312003,,,
imu,67.238061,0.4611758088,-9.460384684800001,2.935733942400001,0.01506129,1.83133294,-3.83284295,,,
imu,67.246517,0.4683536424000001,-9.4729458936,2.9530803736,0.03001510999999998,1.93600968,-3.29450543,,,
imu,67.254973,0.4151180432000001,-9.4591883792,2.8842928016,0.14216876,1.8014253,-2.57672207,,,
imu,67.263332,0.5150095608,-9.541135312800002,2.889078024,0.56835263,1.73413311,-2.42718387,,,
imu,67.271788,0.4216977240000001,-9.505844297600001,2.866348217600001,0.6281679099999999,1.47991817,-3.21225942,,,
imu,67.280244,0.3726491944000001,-9.463973601600001,2.9034336912,0.8524752099999999,1.15841104,-3.68330475,,,
imu,67.2887,0.3864067088000001,-9.4633754488,2.9046299968,0.9945364999999999,0.9714882899999999,-4.17678081,,,
imu,67.297156,0.3666676664,-9.458590226400002,2.896854010400001,1.09173633,0.9041961000000001,-4.68521069,,,
imu,67.305612,0.3421434016,-9.460384684800001,2.88608726,1.12912088,0.8593346399999997,-4.98428709,,,
imu,67.314111,0.3541064576,-9.4663662128,2.8854891072,0.9646288599999999,1.02382666,-5.17120984,,,
imu,67.32261,0.35889168,-9.460384684800001,2.899246621600001,1.03939796,1.30794924,-5.14877911,,,
imu,67.331109,0.3594898328000001,-9.471151435200001,2.887283565600001,1.08425942,1.37524143,-5.260932759999999,,,
imu,67.339609,0.370854736,-9.3993730992,2.8029440208,0.9347212199999999,1.37524143,-5.23102512,,,
imu,67.348108,0.4127254320000001,-9.513022131200001,2.8513943976,0.91229049,1.53973345,-5.11139456,,,
imu,67.356607,0.3738455000000001,-9.496872005600002,2.8824983432,0.7552753799999999,1.56964109,-4.78241052,,,
imu,67.365106,0.3882011672000001,-9.4669643656,2.947696998400001,0.77770611,1.31542615,-4.85717962,,,
imu,67.373605,0.323002512,-9.4669643656,2.9159949,0.83004448,1.25561087,-5.044102369999999,,,
imu,67.382104,0.2996745528,-9.467562518400001,2.9231727336,0.8749059399999999,1.1285034,-5.23102512,,,
imu,67.390604,0.2494297176,-9.4908904776,2.907022608,0.68798319,1.19579559,-5.59739371,,,
imu,66.078983,,,,,,,84.30291240000001,-43.45155880000002,118.4037512
imu,66.180546,,,,,,,84.13201160000001,-43.56142360000001,115.6205096
imu,66.282017,,,,,,,84.22966919999999,-43.36610840000002,118.2816792
imu,66.38361,,,,,,,84.4371916,-43.69570280000001,118.3671296
imu,66.485172,,,,,,,84.53484920000001,-43.5736308,117.8910488
imu,66.586704,,,,,,,83.94890360000001,-44.07412600000002,118.6601024
imu,66.688297,,,,,,,84.13201160000001,-43.90322520000001,117.903256
imu,66.789829,,,,,,,84.47381320000001,-43.75673880000002,118.4403728
imu,67.399103,0.2637853848,-9.513022131200001,2.8908724824,0.6954601,1.45001053,-5.60487062,,,
imu,67.407602,0.3253951232,-9.516012895200001,2.896854010400001,0.57582954,1.55468727,-5.37308641,,,
imu,67.416101,0.3134320672,-9.502255380800001,2.9118078304,0.55339881,1.66684092,-4.78241052,,,
imu,67.4246,0.2733558296,-9.513022131200001,2.889676176800001,0.60573718,1.69674856,-4.50576485,,,
imu,67.433099,0.2560093984,-9.527975951200002,2.9004429272,0.7253677399999999,1.92853277,-4.44594957,,,
imu,67.441598,0.2972819416,-9.491488630400001,2.913004136000001,0.65059864,2.18274771,-4.65530305,,,
imu,67.450098,0.290104108,-9.505844297600001,2.918985664,0.53096808,2.42948574,-4.65530305,,,
imu,67.458597,0.2877114968,-9.533957479200001,2.938126553600001,0.28423005,2.39210119,-4.75250288,,,
imu,67.467096,0.2895059552,-9.536948243200001,2.943509928800001,0.35152224,2.44443956,-4.75250288,,,
imu,67.475595,0.3014690112,-9.5184055064,2.945304387200001,0.03001510999999998,2.39210119,-4.954379449999999,,,
imu,67.484094,0.3212080536,-9.527975951200002,2.9596600544,-0.03727708,2.30237827,-4.83474889,,,
imu,67.492593,0.3247969704000001,-9.543527924000001,2.949491456800001,-0.127,2.45939338,-4.49828794,,,
imu,67.501092,0.3092449976000001,-9.5219944232,2.954874832000001,-0.38121494,2.42948574,-4.22911918,,,
imu,67.509592,0.2924967192,-9.551902063200002,2.952482220800001,-0.5681376899999999,2.36967046,-4.04967334,,,
imu,67.518022,0.3002727056,-9.540537160000001,2.9470988456,-0.69524516,2.37714737,-3.98238115,,,
imu,67.526453,0.3570972216000001,-9.528574104,2.966239735200001,-0.73262971,2.2500399,-3.99733497,,,
imu,67.534883,0.4145198904,-9.456197615200002,2.957267443200001,-0.61299915,2.1752708,-3.75059694,,,
imu,67.543313,0.4210995712,-9.4663662128,2.9740157216,-0.65786061,1.91357895,-3.40665908,,,
imu,67.551744,0.3541064576,-9.482516338400002,2.952482220800001,-0.38869185,1.61450255,-3.26459779,,,
imu,67.560174,0.3564990688,-9.477731116000001,2.945304387200001,-0.32887657,1.23318014,-3.496382,,,
imu,67.568605,0.3582935272000001,-9.448421628800002,2.938126553600001,-0.38121494,1.10607267,-3.75807385,,,
imu,67.577035,0.331974804,-9.460982837600001,2.9554729848,-0.39616876,0.9116730099999999,-3.69825857,,,
imu,67.585466,0.3176191368,-9.4460290176,2.9674360408,-0.40364567,0.7696117199999999,-3.44404363,,,
imu,67.593896,0.3224043592,-9.437654878400002,2.969828652,-0.47093786,0.9341037399999998,-3.37675144,,,
imu,67.602327,0.3116376088,-9.443038253600001,2.9644452768,-0.62047606,0.8967191899999998,-3.66835093,,,
imu,67.610757,0.2930948720000001,-9.420906600000002,2.9692304992,-0.6279529699999999,0.8817653699999997,-3.70573548,,,
imu,67.619188,0.2930948720000001,-9.4137287664,2.9650434296,-0.71019898,0.8294269999999999,-3.78050458,,,
imu,67.627618,0.28412258,-9.406550932800002,2.9602582072,-0.5008455,0.9939190199999999,-3.81041222,,,
imu,67.636049,0.2883096496000001,-9.411934308000001,2.9644452768,-0.46346095,1.16588795,-3.7206893,,,
imu,67.644479,0.2889078024000001,-9.404756474400001,2.966837888,-0.38121494,1.30794924,-3.81041222,,,
imu,67.65291,0.2930948720000001,-9.399971252000002,2.9704268048,-0.21672292,1.33785688,-3.85527368,,,
imu,67.66134,0.2966837888,-9.405354627200001,2.9722212632,-0.08213854000000001,1.45001053,-3.95247351,,,
imu,67.669771,0.2978800944000001,-9.395186029600001,2.9746138744,0.15712258,1.53973345,-3.96742733,,,
imu,67.678201,0.3026653168,-9.3868118904,2.968632346400001,0.20946095,1.47244126,-4.16182699,,,
imu,67.686632,0.3008708584000001,-9.390998960000001,2.9650434296,0.45619898,1.42010289,-4.15435008,,,
imu,67.695062,0.2996745528,-9.3975786408,2.957865596,0.64312173,1.40514907,-4.244073,,,
imu,67.703493,0.3241988176,-9.401765710400001,2.9554729848,0.77770611,1.33037997,-4.23659609,,,
imu,67.711923,0.3218062064,-9.3993730992,2.9441080816,1.03192105,1.32290306,-4.16182699,,,
imu,67.720741,0.3188154424,-9.4005694048,2.9321450256,1.28613599,1.32290306,-4.27398064,,,
imu,67.72956,0.3212080536,-9.401765710400001,2.9213782752,1.42819728,1.41262598,-4.19921154,,,
imu,67.738378,0.3283858872000001,-9.416719530400002,2.9237708864,1.70484295,1.24065705,-4.04219643,,,
imu,67.747196,0.3283858872000001,-9.439449336800001,2.9136022888,1.85438115,1.18084177,-3.95995042,,,
imu,67.756014,0.3325729568,-9.452010545600002,2.9159949,2.01887317,1.03130357,-4.07210407,,,
imu,67.764833,0.34393786,-9.488497866400001,2.922574580800001,2.0413039,0.9565344699999998,-3.96742733,,,
imu,67.773651,0.3505175408000001,-9.505246144800001,2.921976428000001,2.0413039,0.8369039099999998,-3.86275059,,,
imu,67.782469,0.3457323184,-9.528574104,2.914798594400001,2.07868845,0.7546578999999998,-3.69825857,,,
imu,67.791287,0.3379563320000001,-9.551902063200002,2.920181969600001,1.89924261,0.4705353199999998,-3.55619728,,,
imu,67.800106,0.323002512,-9.575230022400001,2.9165930528,1.76465823,0.3135202100000001,-3.6459202,,,
imu,67.808924,0.3188154424,-9.578220786400001,2.9171912056,1.53287402,-0.01546383000000029,-3.71321239,,,
imu,67.817742,0.3271895816000001,-9.539939007200001,2.9004429272,1.30108981,-0.1276174800000001,-3.82536604,,,
imu,67.82656,0.3044597752,-9.597361676,2.913004136000001,0.8973366700000001,-0.3294940500000001,-4.04219643,,,
imu,67.835379,0.2643835376,-9.569248494400002,2.9423136232,0.50853735,-0.3444478700000002,-3.89265823,,,
imu,67.844197,0.2590001624000001,-9.5429297712,2.952482220800001,0.22441477,-0.4192169699999999,-3.95247351,,,
imu,67.853015,0.2266999112,-9.5172092008,2.9261634976,0.04496892999999999,-0.2696787700000001,-3.90013514,,,
imu,67.861833,0.2219146888,-9.537546396000002,2.9273598032,-0.16438455,-0.08275602000000015,-3.76555076,,,
imu,67.870652,0.2231109944,-9.496872005600002,2.8932650936,-0.33635348,0.11164364,-3.61601256,,,
imu,67.87947,0.2308869808,-9.4801237272,2.8974521632,-0.49336859,0.2836125699999998,-3.39170526,,,
imu,67.888288,0.1154434904,-9.489096019200002,2.8854891072,-0.51579932,0.5153967799999997,-3.16739796,,,
imu,67.897106,0.161501256,-9.472347740800002,2.910013372,-0.44850713,0.7471809899999999,-3.26459779,,,
imu,67.905925,0.09989151760000002,-9.468758824,2.9058263024,-0.73262971,1.00887284,-3.76555076,,,
imu,67.914743,0.09989151760000002,-9.4831144912,2.9195838168,-0.65786061,1.4275798,-3.95995042,,,
imu,67.92322,0.1495382,-9.502255380800001,2.9375284008,-0.73262971,1.76404075,-3.93751969,,,
imu,67.931698,0.1417622136,-9.517807353600002,2.954874832000001,-0.89712173,2.25751681,-3.74312003,,,
imu,67.940175,0.128602852,-9.529770409600001,2.9596600544,-0.9793677399999999,2.65379304,-3.69078166,,,
imu,67.948653,0.143556672,-9.531564868,2.9650434296,-1.12890594,3.07997691,-3.5711511,,,
imu,67.957131,0.1591086448,-9.5291722568,2.969828652,-1.36816706,3.57345297,-3.48890509,,,
imu,67.965608,0.1830347568,-9.514218436800002,2.975810180000001,-1.39059779,4.07440594,-2.96552139,,,
imu,67.974086,0.2237091472,-9.4944793944,2.982389860800001,-1.54013599,4.54545127,-2.56176825,,,
imu,67.982563,0.2578038568000001,-9.478329268800001,2.9835861664,-1.74201256,4.92677368,-2.34493786,,,
imu,67.991041,0.3038616224,-9.460384684800001,2.963847124,-1.71210492,5.158557889999999,-2.28512258,,,
imu,67.999518,0.3367600264,-9.4244955168,2.9746138744,-1.76444329,5.2408039,-2.26269185,,,
imu,68.007996,0.3786307224000001,-9.410139849600002,2.981791708,-1.68967419,5.30061918,-2.5243837,,,
imu,68.016473,0.4013605288,-9.417915836,2.966239735200001,-1.45041307,5.25575772,-2.66644499,,,
imu,68.024951,0.4240903352000001,-9.404756474400001,2.9746138744,-1.48779762,4.95668132,-2.9729983,,,
imu,68.033428,0.4438293776000001,-9.404756474400001,2.9853806248,-1.45041307,4.837050759999999,-3.00290594,,,
imu,68.041906,0.4581850448000001,-9.405952780000002,2.9853806248,-1.2485365,4.56040509,-3.13001341,,,
imu,68.050383,0.4623721144,-9.410139849600002,2.989567694400001,-1.18124431,4.23142105,-3.27955161,,,
imu,68.058861,0.4779240872000001,-9.4173176832,2.9829880136,-1.14385976,3.79028336,-3.39918217,,,
imu,68.067338,0.4862982264000001,-9.423299211200002,2.982389860800001,-1.16629049,3.47625314,-3.54124346,,,
imu,68.075816,0.4803166984,-9.4203084472,2.999736292,-1.00927538,3.10988455,-3.55619728,,,
imu,68.084293,0.4713444064,-9.419710294400002,3.0045215144,-1.01675229,2.67622377,-3.496382,,,
imu,68.092771,0.4575868920000001,-9.422701058400001,3.0003344448,-1.0242292,2.22760917,-3.59358183,,,
imu,68.101249,0.4504090584,-9.416719530400002,3.001530750400001,-0.84478336,1.97339423,-3.63096638,,,
imu,68.109726,0.4348570856000001,-9.4173176832,3.003325208800001,-0.8672140899999999,1.50982581,-3.69825857,,,
imu,68.118204,0.415716196,-9.437654878400002,3.0099048896,-0.50832241,1.2032725,-3.59358183,,,
imu,68.126666,0.3947808480000001,-9.4424401008,3.0182790288,-0.30644584,0.92662683,-3.48890509,,,
imu,68.135128,0.3666676664,-9.451412392800002,3.008708584,-0.20924601,0.8294269999999999,-3.3468438,,,
imu,68.14359,0.3630787496,-9.4346641144,2.991960305600001,-0.127,0.8294269999999999,-3.28702852,,,
imu,68.152053,0.3505175408000001,-9.4322715032,3.0009325976,0.14964567,0.8518577299999999,-3.17487487,,,
imu,68.160515,0.3397507904000001,-9.458590226400002,3.024260556800001,0.35152224,0.8144731799999998,-3.04029049,,,
imu,68.168977,0.3253951232,-9.4633754488,3.0350273072,0.23189168,0.8593346399999997,-2.99542903,,,
imu,68.177439,0.3212080536,-9.470553282400001,3.0260550152,0.34404533,1.09111885,-3.01038285,,,
imu,68.185902,0.3295821928000001,-9.460982837600001,3.0248587096,0.33656842,1.09111885,-3.18235178,,,
imu,68.194364,0.3313766512,-9.462777296000002,3.0344291544,0.36647606,1.23318014,-3.17487487,,,
imu,68.202826,0.3277877344,-9.457393920800001,3.0529718912,0.25432241,1.47244126,-2.75616791,,,
imu,68.211289,0.320011748,-9.460982837600001,3.038616224000001,0.27675314,1.68927165,-2.60662971,,,
imu,66.891532,,,,,,,86.63448760000001,-44.85538680000001,117.6102832
imu,66.993125,,,,,,,84.00993960000001,-43.98867560000001,118.0741568
imu,67.094596,,,,,,,86.6466948,-44.55020680000001,116.0599688
imu,67.196128,,,,,,,84.29070519999999,-43.8055676,118.7211384
imu,67.297721,,,,,,,84.1808404,-43.89101800000002,117.9276704
imu,67.399284,,,,,,,84.5470564,-44.06191880000001,118.9530752
imu,67.500999,,,,,,,84.52264199999999,-44.07412600000002,119.0385256
imu,67.602378,,,,,,,84.09539,-43.64687400000003,118.4281656
imu,68.219751,0.3271895816000001,-9.4591883792,3.0451959048,0.32909151,1.86124058,-2.46456842,,,
imu,68.228213,0.340947096,-9.454403156800002,3.033831001600001,-0.01484635000000001,1.98087114,-2.41970696,,,
imu,68.236675,0.3702565832000001,-9.4412437952,3.032634696,-0.14943073,2.10797861,-2.39727623,,,
imu,68.245138,0.3738455000000001,-9.4215047528,3.0320365432,-0.07466163,2.16031698,-2.54681443,,,
imu,68.2536,0.3690602776000001,-9.417915836,3.024260556800001,-0.2017691,1.98087114,-2.83841392,,,
imu,68.262062,0.3798270280000001,-9.403560168800002,3.0272513208,-0.11952309,1.94348659,-2.99542903,,,
imu,68.270524,0.3756399584,-9.408345391200001,3.0278494736,0.03001510999999998,2.06311715,-3.15992105,,,
imu,68.278987,0.3882011672000001,-9.419710294400002,3.024260556800001,0.07487657,2.07059406,-3.11505959,,,
imu,68.287449,0.3870048616000001,-9.422102905600001,3.021269792800001,-0.11204618,2.04816333,-3.01785976,,,
imu,68.295911,0.4055475984,-9.440047489600001,3.032634696,-0.15690764,2.04816333,-3.09262886,,,
imu,68.304374,0.4049494456000001,-9.4490197816,3.053570044,-0.17186146,2.0257326,-3.14496723,,,
imu,68.312836,0.4318663216,-9.446627170400001,3.049981127200001,-0.19429219,2.05564024,-3.11505959,,,
imu,68.321298,0.4438293776000001,-9.464571754400001,3.053570044,-0.25410747,1.89114822,-3.06272122,,,
imu,68.329799,0.4282774048000001,-9.460982837600001,3.061944183200001,-0.2017691,1.61450255,-3.06272122,,,
imu,68.338299,0.4097346680000001,-9.46576806,3.059551572000001,-0.24663056,1.39019525,-3.15244414,,,
imu,68.346799,0.4408386136,-9.431075197600002,3.0667294056,-0.54570696,1.2780416,-3.33188998,,,
imu,68.35536,0.4181088072000001,-9.4412437952,3.0529718912,-0.29149202,1.12102649,-3.53376655,,,
imu,68.36386,0.4073420568000001,-9.444832712,3.0392143768,-0.23915365,0.94905756,-3.48142818,,,
imu,68.372361,0.4264829464000001,-9.4346641144,3.0439995992,-0.16438455,0.8892422799999999,-3.42908981,,,
imu,68.380861,0.4210995712,-9.425691822400001,3.041606988,0.04496892999999999,0.86681155,-3.46647436,,,
imu,68.389362,0.4139217376000001,-9.413130613600002,3.0451959048,0.11973803,0.6798887999999996,-3.47395127,,,
imu,68.397862,0.4294737104000001,-9.4137287664,3.0368217656,0.29170696,0.5527813299999997,-3.4216129,,,
imu,68.406362,0.4264829464000001,-9.402962016000002,3.0344291544,0.36647606,0.47801223,-3.45899745,,,
imu,68.414863,0.4312681688,-9.412532460800001,3.0332328488,0.5010604399999999,0.4331507699999997,-3.54124346,,,
imu,68.423363,0.4270810992000001,-9.402363863200002,3.0422051408,0.6132140899999999,0.2836125699999998,-3.7206893,,,
imu,68.431864,0.4187069600000001,-9.402962016000002,3.0302420848,0.51601426,0.02192071999999978,-4.057150249999999,,,
imu,68.440364,0.3971734592000001,-9.406550932800002,3.0320365432,0.63564482,0.01444380999999995,-4.21416536,,,
imu,68.448865,0.3870048616000001,-9.418513988800001,3.0302420848,0.78518302,-0.1276174800000001,-4.3936112,,,
imu,68.457365,0.3714528888,-9.436458572800001,3.030840237600001,0.8449983,-0.1425713000000002,-4.37118047,,,
imu,68.465865,0.3361618736,-9.457393920800001,3.0230642512,0.9646288599999999,-0.1874327600000001,-4.40108811,,,
imu,68.474366,0.3517138464,-9.437056725600002,3.041606988,0.9945364999999999,-0.23229422,-4.244073,,,
imu,68.482866,0.3499193880000001,-9.443636406400001,3.0493829744,0.85995212,-0.1650020300000001,-4.42351884,,,
imu,68.491367,0.3038616224,-9.4526086984,3.0392143768,0.7702292,-0.2622018600000002,-4.65530305,,,
imu,68.499867,0.3044597752,-9.460384684800001,3.03562546,0.7253677399999999,-0.2771556799999999,-4.48333412,,,
imu,68.508367,0.31403022,-9.453805004000001,3.0457940576,0.55339881,-0.1874327600000001,-4.35622665,,,
imu,68.516868,0.2883096496000001,-9.4669643656,3.0523737384,0.3963837,-0.07527911000000032,-4.430995749999999,,,
imu,68.525368,0.2895059552,-9.464571754400001,3.0469903632,0.30666078,0.1864127399999997,-4.16182699,,,
imu,68.533792,0.2823281216,-9.470553282400001,3.0410088352,0.18703022,0.33595094,-4.10948862,,,
imu,68.542217,0.2835244272,-9.4591883792,3.0481866688,0.1720764,0.5079198699999998,-4.13191935,,,
imu,68.550641,0.2853188856,-9.441841948000002,3.0350273072,0.09730729999999999,0.6275504299999999,-4.079580979999999,,,
imu,68.559065,0.2859170384,-9.448421628800002,3.059551572000001,0.02253820000000001,0.62007352,-4.057150249999999,,,
imu,68.567489,0.2930948720000001,-9.4735440464,3.0589534192,-0.04475399000000001,0.8817653699999997,-4.057150249999999,,,
imu,68.575913,0.2883096496000001,-9.4753385048,3.0661312528,-0.07466163,0.9939190199999999,-3.98238115,,,
imu,68.584337,0.2853188856,-9.477731116000001,3.0583552664,-0.09709236,1.06121121,-3.89265823,,,
imu,68.592761,0.3074505392,-9.461580990400002,3.061944183200001,-0.21672292,1.19579559,-3.7954584,,,
imu,68.601185,0.311039456,-9.458590226400002,3.0828795312,-0.21672292,1.5023489,-3.48890509,,,
imu,68.60961,0.305057928,-9.443038253600001,3.0816832256,-0.41859949,1.49487199,-3.47395127,,,
imu,68.618034,0.3253951232,-9.402363863200002,3.0661312528,-0.46346095,1.52477963,-3.54124346,,,
imu,68.626458,0.3307784984000001,-9.394587876800001,3.0691220168,-0.4260764,1.54721036,-3.75059694,,,
imu,68.634882,0.3188154424,-9.408943544000001,3.0882629064,-0.48589168,1.5023489,-3.81041222,,,
imu,68.643306,0.3098431504,-9.417915836,3.1020204208,-0.44850713,1.33037997,-4.034719519999999,,,
imu,68.65173,0.2978800944000001,-9.422701058400001,3.113385324,-0.46346095,1.24813396,-4.21416536,,,
imu,68.660154,0.2984782472,-9.413130613600002,3.0990296568,-0.35878421,1.41262598,-4.22911918,,,
imu,68.668578,0.2907022608000001,-9.404756474400001,3.108001948800001,-0.29149202,1.4275798,-4.18425772,,,
imu,68.677003,0.2913004136,-9.408345391200001,3.1086001016,-0.26906129,1.60702564,-3.92256587,,,
imu,68.685427,0.3086468448,-9.4005694048,3.0972351984,-0.0522309,2.01825569,-3.69078166,,,
imu,68.693851,0.3307784984000001,-9.3868118904,3.1008241152,0.17955331,2.06311715,-3.6459202,,,
imu,68.702275,0.3367600264,-9.374848834400002,3.0912536704,0.3739529699999999,2.16779389,-3.63096638,,,
imu,68.710699,0.3367600264,-9.367072848000001,3.088861059200001,0.6132140899999999,2.11545552,-3.78798149,,,
imu,68.719123,0.3331711096,-9.370063612000001,3.075103544800001,0.97210577,2.07807097,-3.93751969,,,
imu,68.727547,0.3451341656,-9.3868118904,3.0762998504,1.2936129,1.89114822,-4.23659609,,,
imu,68.736441,0.3295821928000001,-9.408345391200001,3.086468448,1.42819728,1.65936401,-4.37865738,,,
imu,68.745335,0.3361618736,-9.408943544000001,3.0786924616,1.43567419,1.62197946,-4.32631901,,,
imu,68.754229,0.3331711096,-9.4113361552,3.0816832256,1.36090509,1.41262598,-4.25902682,,,
imu,68.763123,0.320011748,-9.437056725600002,3.0840758368,1.55530475,1.32290306,-4.07210407,,,
imu,68.772017,0.3301803456000001,-9.427486280800002,3.0798887672,1.62259694,1.26308778,-3.81788913,,,
imu,68.780911,0.3241988176,-9.438851184,3.0810850728,1.63007385,1.2780416,-3.54872037,,,
imu,68.789804,0.3122357616,-9.4424401008,3.0810850728,1.57773548,1.21822632,-3.3468438,,,
imu,68.798698,0.31403022,-9.425691822400001,3.0858702952,1.43567419,1.09859576,-3.28702852,,,
imu,68.807592,0.3038616224,-9.419710294400002,3.0691220168,1.27865908,1.06121121,-3.15992105,,,
imu,68.816486,0.28412258,-9.429280739200001,3.0762998504,1.05435178,0.92662683,-3.18235178,,,
imu,68.82538,0.2913004136,-9.4173176832,3.062542336,1.27865908,1.24813396,-3.07019813,,,
imu,68.834274,0.296085636,-9.4244955168,3.0601497248,1.24127453,1.21822632,-3.1225365,,,
imu,68.843168,0.2847207328,-9.425691822400001,3.065533100000001,1.19641307,1.15841104,-3.21973633,,,
imu,68.852062,0.2984782472,-9.432869656000001,3.0697201696,1.23379762,1.47244126,-3.35432071,,,
imu,68.860955,0.311039456,-9.460384684800001,3.084673989600001,1.31604363,1.66684092,-3.36179762,,,
imu,68.869849,0.2918985664000001,-9.434065961600002,3.059551572000001,1.5179202,1.69674856,-3.41413599,,,
imu,68.878743,0.3241988176,-9.441841948000002,3.0469903632,1.28613599,1.7266562,-3.61601256,,,
imu,68.887637,0.323002512,-9.448421628800002,3.056560808,1.368382,1.93600968,-3.68330475,,,
imu,68.896531,0.3104413032000001,-9.4729458936,3.071514628,1.32352054,1.85376367,-3.67582784,,,
imu,68.905425,0.3044597752,-9.489096019200002,3.0840758368,1.11416706,1.92853277,-3.71321239,,,
imu,68.914319,0.3236006648,-9.444234559200002,3.0721127808,1.11416706,2.01077878,-3.8702275,,,
imu,68.923213,0.3379563320000001,-9.453206851200001,3.0757016976,1.06182869,2.0257326,-4.04219643,,,
imu,68.932107,0.2930948720000001,-9.474740352000001,3.057158960800001,0.79265993,1.98834805,-3.98985806,,,
imu,68.940512,0.3367600264,-9.479525574400002,3.057158960800001,0.7104139199999999,2.2500399,-3.6459202,,,
imu,68.948917,0.34393786,-9.453805004000001,3.0601497248,0.57582954,2.3995781,-3.39170526,,,
imu,68.957322,0.3511156936,-9.4454308648,3.0601497248,0.65807555,2.36967046,-3.10758268,,,
imu,68.965727,0.3774344168000001,-9.4322715032,3.0577571136,0.52349117,2.39210119,-3.15992105,,,
imu,68.974132,0.3774344168000001,-9.441841948000002,3.0511774328,0.49358353,2.45939338,-3.30198234,,,
imu,68.982537,0.3834159448,-9.433467808800001,3.047588516000001,0.7552753799999999,2.30985518,-3.44404363,,,
imu,68.990942,0.3852104032000001,-9.418513988800001,3.0493829744,0.620691,2.05564024,-3.51881273,,,
imu,68.999347,0.3660695136000001,-9.414326919200002,3.0463922104,0.65807555,2.06311715,-3.68330475,,,
imu,69.007752,0.3720510416,-9.403560168800002,3.0344291544,0.73284465,1.96591732,-3.80293531,,,
imu,69.016157,0.3672658192000001,-9.402962016000002,3.0410088352,0.80013684,1.83133294,-3.98985806,,,
imu,69.024562,0.3576953744,-9.402363863200002,3.0368217656,0.9272443100000001,1.91357895,-3.93004278,,,
imu,69.032967,0.3636769024000001,-9.401765710400001,3.0398125296,0.94967504,1.73413311,-4.04967334,,,
imu,67.703941,,,,,,,84.52264199999999,-43.79336040000001,118.0619496
imu,67.805534,,,,,,,84.26629080000001,-43.96426120000001,119.2216336
imu,67.907157,,,,,,,87.0739468,-44.75772920000001,118.0741568
imu,68.008659,,,,,,,84.4127772,-43.61025240000001,118.3183008
imu,68.110221,,,,,,,86.82980280000001,-44.78214360000001,115.9012752
imu,68.211967,,,,,,,84.0465612,-43.65908120000002,118.5380304
imu,68.313346,,,,,,,84.4493988,-43.75673880000002,116.0843832
imu,68.414909,,,,,,,84.1930476,-43.53700920000001,118.7943816
imu,69.041372,0.3636769024000001,-9.4005694048,3.0368217656,1.03939796,1.66684092,-3.96742733,,,
imu,69.049777,0.3523119992,-9.405354627200001,3.040410682400001,1.32352054,1.69674856,-3.72816621,,,
imu,69.058182,0.3547046104000001,-9.417915836,3.047588516000001,1.39828964,1.65936401,-3.81041222,,,
imu,69.066587,0.3523119992,-9.422701058400001,3.0481866688,1.32352054,1.56216418,-3.78050458,,,
imu,69.074992,0.3463304712,-9.436458572800001,3.044597752,1.42819728,1.60702564,-3.66835093,,,
imu,69.083397,0.3385544848000001,-9.440645642400002,3.0439995992,1.48053565,1.53973345,-3.68330475,,,
imu,69.091803,0.3427415544,-9.4412437952,3.053570044,1.53287402,1.577118,-3.53376655,,,
imu,69.100208,0.3415452488,-9.437654878400002,3.0469903632,1.41324346,1.49487199,-3.63844329,,,
imu,69.108613,0.3457323184,-9.440645642400002,3.0493829744,1.5926893,1.62197946,-3.60853565,,,
imu,69.117018,0.3511156936,-9.456197615200002,3.0457940576,1.61512003,1.51730272,-3.60853565,,,
imu,69.125423,0.3343674152,-9.459786532,3.0368217656,1.71979677,1.577118,-3.63844329,,,
imu,69.133828,0.3385544848000001,-9.4591883792,3.0481866688,1.8169966,1.51730272,-3.60105874,,,
imu,69.142352,0.3421434016,-9.460384684800001,3.044597752,1.77961205,1.46496435,-3.72816621,,,
imu,69.150877,0.331974804,-9.467562518400001,3.0374199184,1.65998149,1.45001053,-3.76555076,,,
imu,69.159401,0.3325729568,-9.469356976800002,3.0439995992,1.60016621,1.40514907,-3.83284295,,,
imu,69.167926,0.3325729568,-9.468160671200001,3.0368217656,1.39081273,1.40514907,-3.93751969,,,
imu,69.176451,0.3224043592,-9.477132963200003,3.0463922104,1.33847436,1.41262598,-3.98985806,,,
imu,69.184975,0.3301803456000001,-9.48072188,3.0332328488,1.22632071,1.42010289,-3.86275059,,,
imu,69.1935,0.3367600264,-9.479525574400002,3.038018071200001,0.9646288599999999,1.23318014,-3.98238115,,,
imu,69.202024,0.3367600264,-9.479525574400002,3.0457940576,0.8375213899999999,1.29299542,-3.87770441,,,
imu,69.210549,0.3325729568,-9.450814240000001,3.030840237600001,0.7702292,1.26308778,-3.95247351,,,
imu,69.219074,0.3391526376000001,-9.443636406400001,3.0194753344,0.65807555,1.24065705,-3.95995042,,,
imu,69.227598,0.3361618736,-9.436458572800001,3.0164845704,0.6281679099999999,1.06121121,-3.90013514,,,
imu,69.236123,0.3271895816000001,-9.4346641144,3.0134938064,0.68050628,1.02382666,-3.70573548,,,
imu,69.244647,0.3271895816000001,-9.4346641144,3.0063159728,0.63564482,1.01634975,-3.61601256,,,
imu,69.253172,0.3164228312,-9.426289975200001,3.005717820000001,0.7253677399999999,0.9341037399999998,-3.58610492,,,
imu,69.261696,0.3271895816000001,-9.434065961600002,3.0051196672,0.85995212,0.8369039099999998,-3.51133582,,,
imu,69.270221,0.31403022,-9.4250936696,3.005717820000001,0.97210577,0.9341037399999998,-3.45899745,,,
imu,69.278746,0.3038616224,-9.440047489600001,3.0111011952,0.9646288599999999,0.8742884599999998,-3.45152054,,,
imu,69.28727,0.3080486920000001,-9.457992073600002,3.0272513208,1.08425942,0.8518577299999999,-3.30198234,,,
imu,69.295795,0.2966837888,-9.4621791432,3.0278494736,1.04687487,0.9640113799999996,-3.39918217,,,
imu,69.304319,0.3134320672,-9.483712644000002,3.0230642512,1.08425942,1.21074941,-3.39170526,,,
imu,69.312844,0.3206099008000001,-9.4669643656,3.0218679456,0.9272443100000001,1.15093413,-3.36179762,,,
imu,69.321368,0.3301803456000001,-9.4621791432,3.033831001600001,0.70293701,1.26308778,-3.25712088,,,
imu,69.329893,0.3343674152,-9.422102905600001,3.0248587096,0.7702292,1.32290306,-3.06272122,,,
imu,69.338418,0.3032634696000001,-9.414925072,3.002727056,0.8375213899999999,1.32290306,-3.31693616,,,
imu,69.34682,0.3265914288,-9.440047489600001,2.9913621528,0.76275229,1.24813396,-3.67582784,,,
imu,69.355223,0.3116376088,-9.444832712,3.008708584,0.8749059399999999,1.45748744,-3.83284295,,,
imu,69.363625,0.2996745528,-9.464571754400001,3.029643932,0.9048135799999999,1.43505671,-3.95995042,,,
imu,69.372028,0.3164228312,-9.4699551296,3.0392143768,0.9347212199999999,1.43505671,-4.04967334,,,
imu,69.38043,0.3182172896000001,-9.4801237272,3.0422051408,0.79265993,1.51730272,-4.079580979999999,,,
imu,69.388833,0.2990764,-9.482516338400002,3.041606988,0.71789083,1.76404075,-3.8702275,,,
imu,69.397235,0.3188154424,-9.486703408,3.0583552664,0.5010604399999999,1.85376367,-3.51133582,,,
imu,69.405638,0.3325729568,-9.4843107968,3.0511774328,0.5010604399999999,2.14536316,-3.10758268,,,
imu,69.41404,0.3517138464,-9.456197615200002,3.0332328488,0.45619898,2.35471664,-3.04029049,,,
imu,69.422443,0.3660695136000001,-9.433467808800001,3.0158864176,0.3889067899999999,2.33228591,-3.0477674,,,
imu,69.430845,0.3774344168000001,-9.444234559200002,3.0111011952,0.41133752,2.2500399,-3.30945925,,,
imu,69.439248,0.391790084,-9.429878892000001,3.0122975008,0.5459219,1.9509635,-3.60105874,,,
imu,69.447534,0.382817792,-9.422102905600001,3.010503042400001,0.66555246,1.68179474,-3.92256587,,,
imu,69.455936,0.3714528888,-9.431075197600002,3.002727056,0.77770611,1.50982581,-3.97490424,,,
imu,69.464339,0.382817792,-9.4250936696,3.0045215144,0.83004448,1.38271834,-4.04219643,,,
imu,69.472741,0.3714528888,-9.411934308000001,3.0003344448,0.94219813,1.37524143,-4.06462716,,,
imu,69.481144,0.370854736,-9.4071490856,3.0051196672,0.9945364999999999,1.26308778,-3.96742733,,,
imu,69.489546,0.3702565832000001,-9.4244955168,2.9865769304,1.00201341,1.04625739,-3.85527368,,,
imu,69.497949,0.3582935272000001,-9.4173176832,2.9883713888,1.09921324,0.78456554,-3.69825857,,,
imu,69.506351,0.3535083048,-9.423299211200002,2.999736292,1.23379762,0.7471809899999999,-3.44404363,,,
imu,69.514754,0.3457323184,-9.402363863200002,2.9943529168,1.43567419,0.5677351499999999,-3.30945925,,,
imu,69.523156,0.3212080536,-9.416719530400002,2.9859787776,1.39081273,0.44062768,-3.31693616,,,
imu,69.531559,0.3086468448,-9.429878892000001,2.9943529168,1.30108981,0.4630584099999999,-3.21225942,,,
imu,69.539961,0.2883096496000001,-9.444234559200002,2.999138139200001,1.49548947,0.5527813299999997,-3.15244414,,,
imu,69.548545,0.2763465936,-9.440645642400002,2.999138139200001,1.48053565,0.6873657099999999,-3.20478251,,,
imu,69.557129,0.2763465936,-9.450216087200001,2.991960305600001,1.43567419,0.7770886299999997,-3.21973633,,,
imu,69.565713,0.266177996,-9.474740352000001,2.9973436808,1.54782784,0.92662683,-3.30945925,,,
imu,69.574297,0.272159524,-9.482516338400002,3.0051196672,1.52539711,1.00887284,-3.40665908,,,
imu,69.582881,0.2823281216,-9.471749588000002,2.990764,1.30856672,1.29299542,-3.46647436,,,
imu,69.591465,0.2853188856,-9.458590226400002,3.0063159728,1.34595127,1.58459491,-3.48890509,,,
imu,69.600049,0.2829262744000001,-9.477731116000001,2.999138139200001,1.24875144,1.71917929,-3.52628964,,,
imu,69.608633,0.2978800944000001,-9.4980683112,3.0194753344,1.18893616,1.71917929,-3.6459202,,,
imu,69.617217,0.2948893304,-9.489694172,3.020073487200001,1.36090509,1.76404075,-3.75059694,,,
imu,69.625801,0.2948893304,-9.492684936000002,2.9931566112,1.25622835,1.94348659,-3.98985806,,,
imu,69.634385,0.3247969704000001,-9.499862769600002,3.0045215144,1.19641307,1.98834805,-4.07210407,,,
imu,69.642969,0.3218062064,-9.4962738528,3.021269792800001,0.9272443100000001,2.06311715,-3.9449966,,,
imu,69.651553,0.3128339144,-9.495077547200001,3.0158864176,0.67302937,2.21265535,-3.56367419,,,
imu,69.660137,0.3337692624,-9.489694172,3.0093067368,0.52349117,2.19770153,-3.3468438,,,
imu,69.668721,0.3433397072,-9.471151435200001,3.010503042400001,0.43376825,2.2500399,-3.32441307,,,
imu,69.677305,0.3702565832000001,-9.4496179344,3.0122975008,0.27675314,2.15284007,-3.33936689,,,
imu,69.685889,0.3559009160000001,-9.441841948000002,3.010503042400001,0.25432241,2.24256299,-3.45152054,,,
imu,69.694473,0.3517138464,-9.459786532,3.0045215144,0.2468455,2.03320951,-3.51133582,,,
imu,69.703057,0.3666676664,-9.451412392800002,2.991960305600001,0.26179932,1.89114822,-3.69825857,,,
imu,69.711641,0.3612842912,-9.4280844336,2.989567694400001,0.44124516,1.71917929,-3.78798149,,,
imu,69.720225,0.34393786,-9.412532460800001,2.9913621528,0.4861066199999999,1.65936401,-3.78050458,,,
imu,69.728809,0.3415452488,-9.418513988800001,2.9883713888,0.55339881,1.6518871,-3.89265823,,,
imu,69.737393,0.3397507904000001,-9.434065961600002,2.9835861664,0.80761375,1.59954873,-3.78798149,,,
imu,69.745977,0.3361618736,-9.436458572800001,2.9871750832,0.85995212,1.577118,-3.75807385,,,
imu,69.754561,0.3265914288,-9.437056725600002,2.9883713888,0.79265993,1.55468727,-3.69078166,,,
imu,69.76322,0.3385544848000001,-9.439449336800001,2.9889695416,0.88985976,1.60702564,-3.59358183,,,
imu,69.771879,0.3331711096,-9.458590226400002,3.0093067368,1.00201341,1.65936401,-3.60105874,,,
imu,69.780538,0.3218062064,-9.465169907200002,3.0122975008,0.97210577,1.8014253,-3.46647436,,,
imu,69.789197,0.3236006648,-9.453206851200001,3.0045215144,0.83004448,1.89862513,-3.496382,,,
imu,69.797856,0.3295821928000001,-9.455001309600002,3.0003344448,0.94219813,2.01077878,-3.39170526,,,
imu,69.806515,0.3247969704000001,-9.457992073600002,2.999138139200001,0.7403215599999999,1.97339423,-3.48142818,,,
imu,69.815174,0.334965568,-9.4621791432,2.990764,0.78518302,2.05564024,-3.496382,,,
imu,69.823833,0.3367600264,-9.469356976800002,3.0111011952,0.78518302,2.00330187,-3.60853565,,,
imu,69.832492,0.3535083048,-9.46576806,3.011699348,0.82256757,2.06311715,-3.56367419,,,
imu,69.841151,0.3481249296000001,-9.463973601600001,3.0021289032,0.8674290299999999,2.18274771,-3.66087402,,,
imu,69.84981,0.3576953744,-9.467562518400001,2.997941833600001,0.80761375,2.24256299,-3.85527368,,,
imu,68.516344,,,,,,,84.6080924,-44.06191880000001,118.2328504
imu,68.617876,,,,,,,84.82782200000001,-44.02529720000001,118.6845168
imu,68.719439,,,,,,,84.35174119999999,-43.47597320000001,118.6845168
imu,68.821001,,,,,,,84.2540836,-43.43935160000001,118.8310032
imu,68.922564,,,,,,,84.217462,-43.64687400000003,119.0507328
imu,69.024157,,,,,,,85.9508844,-44.23281960000001,118.5868592
imu,69.12575,,,,,,,84.3151196,-43.53700920000001,118.7089312
imu,69.227282,,,,,,,86.5002084,-44.51358520000002,116.4628064
imu,69.858469,0.3481249296000001,-9.459786532,2.996745528,0.6954601,2.16779389,-3.7954584,,,
imu,69.328844,,,,,,,84.339534,-43.35390120000002,119.2094264
imu,69.430651,,,,,,,84.217462,-43.34169400000001,115.8768608
imu,69.532,,,,,,,83.99773239999999,-43.32948680000002,118.7455528
imu,69.64171,,,,,,,84.5470564,-43.30507240000001,118.2206432
imu,69.742968,,,,,,,84.3883628,-43.5125948,118.879832
imu,69.844439,,,,,,,84.53484920000001,-43.24403640000001,118.7333456
