Type,Timestamp,Data Accelerometer X,Data Accelerometer Y,Data Accelerometer Z,Data Gyroscope X,Data Gyroscope Y,Data Gyroscope Z,Data Magnetometer X,Data Magnetometer Y,Data Magnetometer Z
imu,268.125062,-0.7704208064000001,-9.307855720800001,3.270699510400001,3.55911663,4.98658896,-4.999240909999999,,,
imu,268.133532,-0.8051136688,-9.2899111368,3.279671802400001,3.44696298,5.86138743,-5.305794219999999,,,
imu,268.142002,-0.8421991424,-9.254021968800002,3.2802699552,3.20770186,6.728708989999999,-5.53010152,,,
imu,268.150458,-0.8798827688,-9.232488468000001,3.288045941600001,3.282470959999999,7.59603055,-5.71702427,,,
imu,268.158914,-0.9438851184000001,-9.245049676800003,3.3179535816,3.13293276,8.65027486,-6.031054489999999,,,
imu,268.16737,-1.0718898176,-9.215142036800001,3.296420080800001,2.91610237,9.85405737,-6.50209982,,,
imu,268.175826,-1.262102408,-9.246844135200002,3.2677087464,2.99087147,11.58122358,-6.928283689999999,,,
imu,268.184281,-1.4732503464,-9.322211388000001,3.238399259200001,2.70674889,13.64485074,-7.279698460000001,,,
imu,268.192737,-1.5874975312,-9.3138372488,3.1923414936,2.67684125,16.78515294,-7.735789969999999,,,
imu,268.201193,-1.6174051712,-9.318024318400001,3.1438911168,2.75908726,20.45631575,-8.0572971,,,
imu,268.209649,-1.5623751136,-9.361091320000002,3.1301336024,2.42262631,24.17981693,-8.53581934,,,
imu,268.218105,-1.483418944,-9.404756474400001,3.1558541728,1.98896553,27.32759604,-9.201264329999999,,,
imu,268.226561,-1.3948923296,-9.4412437952,3.164228312,1.48801256,30.01180673,-10.39756993,,,
imu,268.235017,-1.2782525336,-9.4908904776,3.2114823832,0.7253677399999999,32.38946411,-11.56396789,,,
imu,268.243473,-1.1239291112,-9.585398620000001,3.2527549264,-0.24663056,34.26616852,-12.77522731,,,
imu,268.251929,-0.9714001472000001,-9.5740337168,3.217463911200001,-1.7719202,35.50733558,-14.10611729,,,
imu,268.260385,-0.8439936008000001,-9.535153784800002,3.2025100912,-3.03551799,36.26250349,-15.51177637,,,
imu,268.268841,-0.6992406232000001,-9.435262267200002,3.1654246176,-4.26173123,36.47933388,-16.79780489,,,
imu,268.277297,-0.5873860496000001,-9.3204169296,3.1474800336,-5.196344979999999,36.35222641,-18.08383341,,,
imu,268.285752,-0.5305615336,-9.212151272800002,3.1355169776,-5.57019048,35.63444304999999,-18.92124733,,,
imu,268.294208,-0.4761296288000001,-9.1170449776,3.149274492,-5.555236659999999,34.90170587,-19.04087789,,,
imu,268.302664,-0.4300718632,-9.0464629472,3.176191368,-5.03932987,34.13158414,-18.51001728,,,
imu,268.31112,-0.3517138464,-9.008181168000002,3.1666209232,-4.52342308,33.29417022,-17.87447993,,,
imu,268.319576,-0.2996745528,-9.059024156000001,3.194135952000001,-3.52899405,32.25487973,-17.02211219,,,
imu,268.328032,-0.2530186344000001,-9.124222811200001,3.1737987568,-3.09533327,30.8118361,-16.34171338,,,
imu,268.336488,-0.2261017584,-9.150541534400002,3.1355169776,-2.60933412,29.25663882,-15.50429946,,,
imu,268.344944,-0.1979885768,-9.180449174400001,3.112787171200001,-1.85416621,27.63414935,-14.5622088,,,
imu,268.353765,-0.17944584,-9.194804841600002,3.09544074,-1.21862886,25.89950623,-13.65002578,,,
imu,268.362586,-0.1597067976,-9.2139457312,3.0978333512,-0.54570696,24.10504783,-12.64064293,,,
imu,268.371407,-0.1501363528,-9.218132800800001,3.0816832256,0.15712258,22.07880522,-11.54901407,,,
imu,268.380227,-0.1716698536,-9.220525412,3.0882629064,0.81509066,20.08247025,-10.39009302,,,
imu,268.389042,-0.200381188,-9.253423816000002,3.121759463200001,1.41324346,18.27305803,-9.26107961,,,
imu,268.397863,-0.2159331608,-9.2761536224,3.149274492,1.62259694,16.38887671,-8.45357333,,,
imu,268.406684,-0.2296906752000001,-9.280938844800001,3.166022770400001,1.77961205,14.66918741,-7.87785126,,,
imu,268.415505,-0.2739539824000001,-9.3246039992,3.2055008552,1.83195042,13.02426721,-6.928283689999999,,,
imu,268.424326,-0.2984782472,-9.364680236800002,3.237801106400001,1.54035093,11.61113122,-6.046008309999999,,,
imu,268.433147,-0.2895059552,-9.3832229736,3.2623253712,1.21136689,10.34005652,-5.305794219999999,,,
imu,268.441968,-0.3062542336,-9.359895014400001,3.2401937176,0.4711528,8.9792589,-4.8422258,,,
imu,268.450789,-0.3253951232,-9.334174444000002,3.2306232728,-0.17186146,7.87267622,-4.43847266,,,
imu,268.459609,-0.3547046104000001,-9.305463109600002,3.235408495200001,-0.50832241,6.82590882,-4.06462716,,,
imu,268.46843,-0.3774344168000001,-9.251629357600002,3.2342121896,-0.81487572,5.84643361,-3.66087402,,,
imu,268.477251,-0.3935845424,-9.1828417856,3.2264362032,-0.82982954,4.77723548,-3.28702852,,,
imu,268.486072,-0.4055475984,-9.157719368,3.2467733984,-0.7550604399999999,4.05197521,-2.76364482,,,
imu,268.494893,-0.4252866408000001,-9.131998797600001,3.2635216768,-0.64290679,3.26689966,-2.27016876,,,
imu,268.503714,-0.4330626272,-9.13678402,3.3083831368,-0.41112258,2.37714737,-1.69444669,,,
imu,268.512535,-0.4360533912000001,-9.13678402,3.332309248800001,0.05992275,1.78647148,-1.08881698,,,
imu,268.521356,-0.4408386136,-9.137980325600001,3.3353000128,0.1720764,1.06868812,-0.8196482199999999,,,
imu,268.530177,-0.4420349192,-9.1654953544,3.3640113472,0.26179932,0.3209971199999999,-0.79721749,,,
imu,268.538998,-0.4563905864000001,-9.1858325496,3.37956332,0.25432241,-0.25472495,-1.00657097,,,
imu,268.547819,-0.4480164472000001,-9.1654953544,3.3664039584,0.28423005,-0.8753084800000002,-1.13367844,,,
imu,268.556292,-0.4528016696000001,-9.120633894400001,3.354440902400001,0.42629134,-1.34635381,-1.41780102,,,
imu,268.564766,-0.4641665728000001,-9.0805576568,3.3394870824,0.9197674,-1.86973751,-1.78416961,,,
imu,268.57324,-0.4450256832000001,-9.0572296976,3.322738804,1.45062801,-2.42302885,-1.88136944,,,
imu,268.581713,-0.4205014184,-9.031509127200001,3.3119720536,1.93662716,-3.11838148,-2.11315365,,,
imu,268.590187,-0.3941826952,-9.0165553072,3.320944345600001,2.68431816,-4.06047214,-2.3000764,,,
imu,268.598661,-0.3774344168000001,-9.065005684,3.2904385528,3.60397809,-5.211916280000001,-2.35241477,,,
imu,268.607135,-0.4264829464000001,-9.098502240800002,3.2736902744,4.26942308,-6.759636649999999,-2.48699915,,,
imu,268.615608,-0.4569887392,-9.188823313600002,3.2515586208,4.67317622,-8.15781882,-2.3748455,,,
imu,268.624082,-0.4522035168,-9.2761536224,3.2222491336,4.83766824,-9.23449386,-2.06829219,,,
imu,268.632556,-0.4827093096,-9.3269966104,3.167817228800001,4.64326858,-10.34855345,-1.68696978,,,
imu,268.641029,-0.4922797544,-9.411934308000001,3.117572393600001,4.56102257,-11.36541321,-1.35050883,,,
imu,268.649503,-0.5251781584,-9.401765710400001,3.104413032,4.08250033,-12.28507314,-1.22340136,,,
imu,268.657977,-0.5568802568000001,-9.367671000800001,3.0816832256,3.67874719,-13.21220998,-1.0290017,,,
imu,268.666451,-0.5754229936,-9.402962016000002,3.0218679456,3.17779422,-13.8253166,-0.90937114,,,
imu,268.674924,-0.6286585928,-9.425691822400001,2.9835861664,2.88619473,-14.4234694,-0.8046943999999998,,,
imu,268.683398,-0.7004369288000002,-9.419112141600001,2.9752120272,2.66188743,-15.11882203,-0.82712513,,,
imu,268.691872,-0.7638411256000001,-9.4286825864,2.9943529168,2.08616536,-15.43285225,-0.7299252999999999,,,
imu,268.700345,-0.8607418792,-9.474740352000001,3.0248587096,1.71231986,-15.46275989,-0.7000176599999999,,,
imu,268.708819,-0.9450814240000001,-9.461580990400002,3.0081104312,0.9197674,-15.05152984,-0.7598329399999999,,,
imu,268.717293,-1.0455710944,-9.535153784800002,2.999736292,0.20198404,-14.35617721,-0.9018942299999999,,,
imu,268.725767,-1.1317050976,-9.509433214400001,2.9973436808,-0.61299915,-13.20473307,-1.12620153,,,
imu,268.73424,-1.2274095456,-9.4412437952,2.9955492224,-1.37564397,-11.86636618,-1.26078591,,,
imu,268.742714,-1.2453541296,-9.402363863200002,3.005717820000001,-2.00370441,-10.17658452,-1.20844754,,,
imu,268.751188,-1.2417652128,-9.401167557600001,3.0081104312,-2.27287317,-8.531664319999999,-1.24583209,,,
imu,268.759661,-1.2369799904,-9.367671000800001,3.0081104312,-2.53456502,-6.99142086,-1.38041647,,,
imu,268.768135,-1.208268656,-9.348530111200002,3.023662404,-2.72148777,-5.488561949999999,-1.68696978,,,
imu,268.776609,-1.1705850296,-9.334174444000002,3.036223612800001,-2.71401086,-4.1801027,-1.94118472,,,
imu,268.785083,-1.1448644592,-9.298883428800002,3.0457940576,-2.75887232,-3.10342766,-2.33746095,,,
imu,268.793556,-1.1023956104,-9.286920372800001,3.0703183224,-2.87102597,-2.18376773,-2.71878336,,,
imu,268.80203,-1.0718898176,-9.2929019008,3.1068056432,-2.72148777,-1.40616909,-2.96552139,,,
imu,268.810504,-1.0467674,-9.290509289600001,3.112787171200001,-2.66167249,-0.7781086500000001,-3.27955161,,,
imu,268.818977,-1.0150653016,-9.2958926648,3.1091982544,-2.90841052,-0.3070633200000001,-3.35432071,,,
imu,268.827451,-0.9881484256000002,-9.2689757888,3.1295354496,-3.06542563,-0.01546383000000029,-3.44404363,,,
imu,268.835925,-0.9600352440000001,-9.240264454400002,3.146881880800001,-3.31216366,0.2088434699999997,-3.55619728,,,
imu,268.844399,-0.9546518688000002,-9.228301398400001,3.1833692016,-3.14767164,0.1789358299999999,-3.48142818,,,
imu,268.852872,-0.9498666464000002,-9.2486385936,3.2246417448,-3.17010237,0.1191205499999999,-3.38422835,,,
imu,268.861346,-0.9414925072000001,-9.239666301600002,3.218062064,-3.35702512,-0.0603252900000002,-3.11505959,,,
imu,268.86982,-0.9259405344000001,-9.2342829264,3.2306232728,-3.476655679999999,-0.1874327600000001,-2.8234601,,,
imu,268.878293,-0.9109867144000001,-9.220525412,3.230025120000001,-3.16262546,-0.2622018600000002,-2.51690679,,,
imu,268.886767,-0.9151737840000002,-9.242058912800001,3.2527549264,-3.32711748,-0.39678624,-2.35989168,,,
imu,268.895241,-0.9211553120000001,-9.284527761600001,3.291634858400001,-3.40188658,-0.2771556799999999,-1.87389253,,,
imu,268.903715,-0.9187627008000002,-9.286920372800001,3.2832607192,-3.45422495,-0.3369709599999999,-1.44770866,,,
imu,268.912188,-0.9253423816,-9.3269966104,3.2784754968,-3.70096298,-0.6061397200000003,-1.29069355,,,
imu,268.920662,-0.9390998960000001,-9.335968902400001,3.272493968800001,-3.84302427,-0.5538013500000001,-1.47013939,,,
imu,268.929136,-0.9570444800000002,-9.307855720800001,3.249166009600001,-4.03742393,-0.88278539,-1.84398489,,,
imu,268.937609,-0.9696056888000001,-9.255816427200001,3.2515586208,-4.36640797,-0.8678315700000003,-1.94118472,,,
imu,268.946083,-0.9618297024000001,-9.24146076,3.2790736496,-4.515946169999999,-0.6734319100000001,-1.79164652,,,
imu,268.954557,-0.9516611048000001,-9.210954967200001,3.271895816,-4.7626842,-0.45660152,-1.6271545,,,
imu,268.963174,-0.9396980488000001,-9.195402994400002,3.247969704,-4.889791669999999,-0.2696787700000001,-1.41032411,,,
imu,268.971792,-0.9169682424000002,-9.178056563200002,3.2760828856,-4.82997639,-0.20986349,-1.16358608,,,
imu,268.980409,-0.9056033392000001,-9.173271340800001,3.270101357600001,-4.747730379999999,-0.23229422,-0.88694041,,,
imu,268.989026,-0.9091922560000001,-9.150541534400002,3.25993276,-4.50846926,-0.1799558500000003,-0.6775869299999999,,,
imu,268.997644,-0.9343146736000002,-9.1445600064,3.2503623152,-4.59819218,-0.2397711300000003,-0.7897405799999999,,,
imu,269.006261,-0.9462777296000001,-9.121830200000002,3.247371551200001,-4.515946169999999,-0.20986349,-1.04395552,,,
imu,269.014879,-0.9833632032,-9.1026893104,3.268905052,-4.658007459999999,0.01444380999999995,-1.26826282,,,
imu,269.023496,-0.9773816752000002,-9.0961096296,3.2832607192,-4.605669089999999,0.3808123999999999,-1.37293956,,,
imu,269.032113,-0.9755872168000002,-9.098502240800002,3.2671105936,-4.54585381,0.8742884599999998,-1.56733922,,,
imu,269.040731,-0.9899428840000002,-9.0925207128,3.247969704,-4.26920814,1.09111885,-1.81407725,,,
imu,269.049348,-0.9929336480000002,-9.087137337600002,3.25993276,-3.9402241,1.5023489,-1.98604618,,,
imu,269.057966,-0.9941299536000001,-9.0817539624,3.2533530792,-3.55890169,1.83133294,-2.09819983,,,
imu,269.066583,-1.004896704,-9.093717018400001,3.277877344000001,-3.15514855,2.22760917,-2.24026112,,,
imu,269.0752,-0.9911391896000001,-9.097904088000002,3.270101357600001,-2.66167249,2.46687029,-2.48699915,,,
imu,269.083818,-1.049758164,-9.1026893104,3.2712976632,-2.10090424,2.75099287,-2.62158353,,,
imu,269.092435,-1.0312154272,-9.111063449600001,3.2862514832,-1.83921239,3.2220382,-2.46456842,,,
imu,269.101053,-1.0126726904,-9.1170449776,3.302999761600001,-1.40555161,3.71551426,-2.31503022,,,
imu,269.10967,-1.0246357464,-9.126017269600002,3.3083831368,-0.97189083,4.05197521,-2.3748455,,,
imu,269.118287,-1.0306172744,-9.133793256,3.31974804,-0.41112258,4.47068217,-2.42718387,,,
imu,269.126905,-1.0401877192,-9.1272135752,3.3083831368,0.05244583999999999,4.72489711,-2.49447606,,,
imu,269.135522,-1.07667504,-9.118839436000002,3.2886440944,0.6281679099999999,4.95668132,-2.59167589,,,
imu,269.14414,-1.1981000584,-9.103287463200001,3.260530912800001,1.20388998,5.49501884,-2.62906044,,,
imu,269.152757,-1.4421464008,-9.098502240800002,3.2264362032,1.98896553,6.4371095,-2.65896808,,,
imu,269.161374,-1.647910964,-9.1062782272,3.1785839792,2.78151799,8.21661408,-2.59167589,,,
imu,269.169677,-1.7848879552,-9.131998797600001,3.1528634088,3.55911663,10.99054769,-2.71130645,,,
imu,269.177979,-1.8686293472,-9.160111979200002,3.1355169776,4.10493106,14.20561899,-3.17487487,,,
imu,269.186281,-1.9009295984,-9.171476882400002,3.0906555176,4.68813004,17.74967433,-3.63844329,,,
imu,269.194583,-1.9416039888,-9.1511396872,3.0906555176,5.03954481,21.2413913,-4.25902682,,,
imu,269.202885,-2.0791791328,-9.077566892800002,3.0487848216,5.20403683,24.83778501,-4.81979507,,,
imu,269.211187,-2.3950038112,-9.006984862400001,3.023662404,5.71246671,28.91270096,-5.193640569999999,,,
imu,269.219489,-2.667163335200001,-8.936402832,2.918985664,6.84895703,34.39327599,-5.851608649999999,,,
imu,269.227791,-2.8633574536,-8.8550540512,2.7981587984,8.187323919999999,41.204741,-7.578774859999999,,,
imu,269.236093,-2.996147375200001,-8.773107117600002,2.7419324352,9.921967039999998,48.84614302,-9.27603343,,,
imu,269.244395,-2.999138139200001,-8.713291837600002,2.686902377600001,12.0603633,56.86139054,-11.0480611,,,
imu,269.252697,-2.8938632464,-8.710301073600002,2.655798432,14.46792832,64.7570075,-13.49301067,,,
imu,269.260999,-2.628881556000001,-8.750377311200001,2.6845097664,16.98017008,71.91988728,-16.05011389,,,
imu,269.269301,-2.2771677096,-8.7946406184,2.7012580448,19.2381969,78.19301477,-18.56983256,,,
imu,269.277603,-1.976895004,-8.875391246400001,2.692285752800001,21.42893153,82.99319099,-20.94748994,,,
imu,269.285905,-1.6383405192,-8.9387954432,2.713221100800001,23.17852847,86.40266195000001,-22.82419435,,,
imu,269.294207,-1.3954904824,-9.138578478400001,2.7855975896,24.53932609,88.7578886,-24.22237652,,,
imu,269.302509,-1.2662894776,-9.267181330400001,2.7658585472,25.10757125,90.48505481000001,-25.32148229,,,
imu,269.310811,-1.2274095456,-9.389204501600002,2.694678364,25.27954018,91.78603715,-25.54578959,,,
imu,269.319113,-1.1197420416,-9.406550932800002,2.6474242928,24.97298687,93.08701949,-25.35138993,,,
imu,269.327416,-0.9044070336000001,-9.4962738528,2.6970709752,24.28511115,94.30575582,-24.48406837,,,
imu,269.335718,-0.6047324808000001,-9.597361676,2.678528238400001,23.73929672,94.86652407,-23.40739333,,,
imu,268.133932,,,,,,,-89.3567148,184.6399732,112.2147008
imu,268.235434,,,,,,,-92.26202839999999,184.8963244,113.2767272
imu,268.336996,,,,,,,-91.39531720000001,183.9807844,110.1638912
imu,268.43862,,,,,,,-94.8499548,184.8963244,111.5310976
imu,268.540152,,,,,,,-95.472522,183.6145684,108.0886672
imu,269.34402,-0.3636769024000001,-9.654186192000001,2.643835376000001,23.14114392,93.86461813,-23.32514732,,,
imu,269.352322,-0.1842310624,-9.671532623200001,2.6270870976,22.3784991,91.47948384,-23.65413136,,,
imu,269.360624,-0.0514411408,-9.668541859200001,2.5828237904,21.35416243,88.29432018,-23.85600793,,,
imu,269.36966,-0.0221316536,-9.641624983200002,2.5373641776,20.39711795,84.58577282,-23.78123883,,,
imu,269.378695,-0.05562821040000001,-9.637437913600001,2.5074565376,19.92607262,80.98937911,-23.56440844,,,
imu,269.387731,-0.1034804344,-9.633250844,2.454819091200001,19.50736566,77.69953871,-22.92887109,,,
imu,269.396767,-0.1148453376,-9.6326526912,2.42251884,18.87182831,75.00037420000001,-21.88210369,,,
imu,269.405803,-0.0550300576,-9.597361676,2.3979945752,18.13909113,72.58533227000001,-20.37176787,,,
imu,269.414839,-0.04007623760000001,-9.566257730400002,2.3680869352,17.86244546,70.16281343,-18.84647823,,,
imu,269.423875,0.0005981528000000001,-9.606333968000001,2.383040755200001,17.53346142,67.38140291,-17.53801898,,,
imu,269.432911,0.0131593616,-9.6290637744,2.380648144,16.78577042,64.44297728,-16.54358995,,,
imu,269.441946,0.03947808480000001,-9.693066124000001,2.4500338688,15.95583341,61.51202856,-15.86319114,,,
imu,269.450982,0.09211553120000002,-9.7510869456,2.460202466400001,14.84925073,58.60351057,-15.3098998,,,
imu,269.460018,0.1955959656,-9.8300431152,2.4679784528,13.22676126,55.61274657,-14.29304004,,,
imu,269.469054,0.2847207328,-9.8982325344,2.4380708128,10.89396534,52.06121432,-13.47805685,,,
imu,269.47809,0.3008708584000001,-9.946084758400001,2.3662924768,8.628461609999999,48.18069802999999,-12.77522731,,,
imu,269.487018,0.3026653168,-9.914980812800001,2.2825510848,6.46763462,44.12821280999999,-11.90790575,,,
imu,269.496054,0.1609031032,-9.8300431152,2.2735787928,4.15726943,39.94114321,-11.31722986,,,
imu,269.50509,0.080750628,-9.802528086400002,2.2795603208,2.54973378,36.35222641,-10.88356908,,,
imu,269.514126,0.008374139200000002,-9.773218599200002,2.2753732512,1.07678251,33.5035237,-10.30784701,,,
imu,269.523162,-0.1393696024,-9.743310959200002,2.2921215296,0.10478421,30.97632812,-9.37323326,,,
imu,269.532198,-0.2685706072,-9.7361331256,2.3232254752,-0.64290679,28.83793186,-8.53581934,,,
imu,269.541233,-0.3206099008000001,-9.7510869456,2.3944056584,-1.21862886,27.26030385,-7.623636319999999,,,
imu,269.550269,-0.2763465936,-9.713403319200001,2.4488375632,-1.83921239,26.04156752,-6.43480763,,,
imu,269.559305,-0.1698753952,-9.709814402400001,2.450632021600001,-2.33268845,24.56113934,-5.62730135,,,
imu,269.568341,-0.1094619624,-9.699645804800001,2.4368745072,-2.71401086,22.49751218,-5.05905619,,,
imu,269.576615,-0.03349655680000001,-9.652989886400002,2.429696673600001,-3.21496383,20.06003952,-4.42351884,,,
imu,269.584889,0.07656355840000001,-9.550705757600001,2.3842370608,-3.58133242,17.51789012,-3.76555076,,,
imu,269.593163,0.1411640608,-9.4663662128,2.374666616,-3.60376315,14.54955685,-2.93561375,,,
imu,269.601437,0.158510492,-9.440645642400002,2.3668906296,-3.55142478,11.25223954,-1.90380017,,,
imu,269.609711,0.1471455888,-9.408345391200001,2.3549275736,-3.28225602,7.7829533,-0.9243249599999999,,,
imu,269.617985,0.1453511304,-9.3628857784,2.3633017128,-2.9682258,4.32862088,-0.02709575999999991,,,
imu,269.62626,0.1178361016,-9.3108464848,2.3650961712,-2.56447266,1.12102649,0.7579797899999998,,,
imu,269.634534,0.0663949608,-9.337165208000002,2.4261077568,-2.00370441,-2.07161408,1.62530135,,,
imu,269.642808,0.1214250184,-9.419710294400002,2.4512301744,-1.55508981,-4.79320932,2.44028454,,,
imu,269.651082,0.3325729568,-9.4591883792,2.4476412576,-1.19619813,-7.55218911,2.87394532,,,
imu,269.659356,0.5138132552000001,-9.4908904776,2.461398772,-0.91955246,-11.07381372,3.25526773,,,
imu,269.66763,0.5927694248,-9.5118258256,2.488315648,-0.91207555,-15.67959028,3.4571443,,,
imu,269.675904,0.6866794144,-9.5082369088,2.4781470504,-0.94198319,-20.49472032,3.7562207,,,
imu,269.684178,0.6143029256000001,-9.4729458936,2.4512301744,-1.10647521,-25.66874204,4.227266029999999,,,
imu,269.692452,0.439642308,-9.4454308648,2.4398652712,-1.53265908,-30.8726714,4.56372698,,,
imu,269.700726,0.320011748,-9.474142199200001,2.447043104800001,-1.74201256,-35.12703319,5.04224922,,,
imu,269.709,0.206362716,-9.405354627200001,2.3884241304,-1.8466893,-38.70847308,6.066585890000001,,,
imu,269.717274,0.1866236736,-9.422701058400001,2.4171354648,-1.7719202,-42.00579039,7.47972188,,,
imu,269.725548,0.1722680064,-9.433467808800001,2.3997890336,-1.622382,-44.74233945,8.818088770000001,,,
imu,269.733823,0.1459492832,-9.522592576000001,2.3920130472,-1.33825942,-47.73310345,10.31347077,,,
imu,269.742097,0.0017944584,-9.597959828800002,2.4320892848,-1.72705874,-50.70143672,11.91352951,,,
imu,269.750371,-0.2255036056,-9.6284656216,2.471567369600001,-2.15324261,-53.26601685,13.58088044,,,
imu,269.758645,-0.4874945320000001,-9.7702278352,2.473361828,-2.80373378,-54.83616795,14.68746312,,,
imu,269.766919,-0.7566632920000002,-9.9078029792,2.4488375632,-4.231823589999999,-55.41936693,14.82952441,,,
imu,269.775374,-0.9301276040000002,-9.974197940000002,2.4440523408,-5.95151289,-54.52961464,14.49306346,,,
imu,269.783828,-0.9648204664000001,-9.916177118400002,2.4261077568,-7.76092511,-52.79497152,13.87247993,,,
imu,269.792283,-0.9079959504000001,-9.80970592,2.4111539368,-9.480614410000001,-50.81359037,12.93786618,,,
imu,269.800737,-0.8487788232000001,-9.688879054400001,2.3854333664,-10.81150439,-49.08642416,11.92100642,,,
imu,269.809192,-0.804515516,-9.596763523200002,2.371675852,-11.67882595,-47.90507238,11.0835925,,,
imu,269.817647,-0.7829820152,-9.5010590752,2.371675852,-12.21716347,-47.11999683,10.44805515,,,
imu,269.826101,-0.8188711832000002,-9.474740352000001,2.409957631200001,-12.42651695,-46.52932094,10.1863633,,,
imu,269.834556,-1.16639796,-9.420906600000002,2.3944056584,-12.40408622,-45.87135286,9.999440550000001,,,
imu,269.843011,-1.1921185304,-9.388606348800002,2.383638908,-11.9405178,-44.20400193,9.5134414,,,
imu,269.851465,-1.229204004,-9.394587876800001,2.4183317704,-11.85079488,-41.54222197,8.56387383,,,
imu,269.85992,-1.3237121464,-9.373652528800001,2.4350800488,-11.63396449,-39.13465695,6.88904599,,,
imu,269.868375,-1.3195250768,-9.3413522776,2.447043104800001,-11.55919539,-36.24109278,4.840372649999999,,,
imu,269.876829,-1.2226243232,-9.385017432000001,2.485324884000001,-11.48442629,-33.1157444,2.74683785,,,
imu,269.885284,-1.0718898176,-9.4621791432,2.5104473016,-11.57414921,-30.43153371,0.5112417599999999,,,
imu,269.893738,-0.9881484256000002,-9.4412437952,2.4829322728,-11.66387213,-28.46510638,-1.55986231,,,
imu,269.902193,-0.8918458248000001,-9.401765710400001,2.4889138008,-11.77602578,-26.94729365,-3.03281358,,,
imu,269.910648,-0.8146841136000001,-9.3419504304,2.4996805512,-11.69377977,-25.75846496,-4.012288789999999,,,
imu,269.919102,-0.8194693360000002,-9.301276040000001,2.543345705600001,-11.55171848,-25.0406816,-4.50576485,,,
imu,269.927557,-0.9815687448000001,-9.3138372488,2.6085443608,-11.14796534,-24.54720554,-4.47585721,,,
imu,269.936012,-1.0934233184,-9.307257568,2.6055535968,-10.36288979,-23.98643729,-4.49828794,,,
imu,269.944466,-1.1646035016,-9.340155972000002,2.6282834032,-9.96661356,-22.70788568,-4.42351884,,,
imu,269.952921,-1.2100631144,-9.372456223200002,2.685706072000001,-9.547906600000001,-21.24988823,-4.59548777,,,
imu,269.961376,-1.21125942,-9.416719530400002,2.742530588,-9.67501407,-19.75450623,-5.11139456,,,
imu,269.96983,-1.1777628632,-9.471151435200001,2.7329601432,-10.09372103,-18.35632406,-5.76936264,,,
imu,269.978307,-1.16639796,-9.5118258256,2.7221933928,-10.75916602,-17.23478756,-6.7862224,,,
imu,269.986783,-1.1556312096,-9.507638756,2.7090340312,-11.4919032,-16.12820488,-7.93766654,,,
imu,269.995259,-1.1640053488,-9.437056725600002,2.7144174064,-12.15734819,-15.11882203,-8.76012664,,,
imu,270.003735,-1.124527264,-9.378437751200002,2.7341564488,-12.70316262,-13.90756261,-9.18631051,,,
imu,270.012212,-1.1041900688,-9.347333805600002,2.7820086728,-12.837747,-12.74864156,-9.19378742,,,
imu,270.020688,-1.1263217224,-9.323407693600002,2.8364405776,-12.77793172,-11.89627382,-9.26107961,,,
imu,270.029164,-1.1657998072,-9.2899111368,2.8723297456,-12.62839352,-11.17849046,-9.13397214,,,
imu,270.03764,-1.1927166832,-9.304266804000001,2.917789358400001,-12.44147077,-10.57286075,-9.11901832,,,
imu,270.046117,-1.1687905712,-9.3269966104,2.9303505672,-12.74054717,-10.02704632,-9.246125789999999,,,
imu,270.054593,-1.145462612,-9.329389221600001,2.9231727336,-12.68073189,-9.51861644,-9.440525449999999,,,
imu,270.063069,-1.0892362488,-9.306659415200002,2.9088170664,-12.88260846,-9.406462789999999,-9.64987893,,,
imu,270.071545,-1.0336080384,-9.3622876256,2.910013372,-13.25645396,-9.55600099,-9.87418623,,,
imu,270.080022,-1.0342061912,-9.3413522776,2.9112096776,-13.72002238,-9.89246194,-10.03867825,,,
imu,270.088498,-1.0653101368,-9.307855720800001,2.938126553600001,-14.07891406,-10.31864581,-10.03120134,,,
imu,270.096974,-1.1107697496,-9.304864956800001,2.9841843192,-13.92937586,-10.75230659,-9.724648029999999,,,
imu,270.10545,-1.1526404456,-9.3479319584,3.077496156,-13.84712985,-10.82707569,-8.962003209999999,,,
imu,270.113927,-1.16639796,-9.409541696800002,3.154059714400001,-14.01162187,-10.8345526,-8.109635469999999,,,
imu,270.122403,-1.1699868768,-9.4280844336,3.1809765904,-14.11629861,-10.89436788,-7.18249863,,,
imu,270.130879,-1.1687905712,-9.414925072,3.206099008,-14.63968231,-10.92427552,-6.464715269999999,,,
imu,270.139355,-1.1526404456,-9.373652528800001,3.210286077600001,-15.09577382,-11.17101355,-5.72450118,,,
imu,270.147832,-1.148453376,-9.332379985600001,3.2222491336,-15.51448078,-11.59719742,-5.044102369999999,,,
imu,270.156308,-1.1412755424,-9.2785462336,3.2037063968,-15.69392662,-12.12805803,-4.68521069,,,
imu,268.641714,,,,,,,-95.3260356,184.627766,110.9573592
imu,268.743246,,,,,,,-94.7156756,184.0418204,112.1170432
imu,268.844839,,,,,,,-94.068694,184.139478,112.6053312
imu,268.946555,,,,,,,-94.04427960000001,184.078442,112.7274032
imu,269.047934,,,,,,,-93.72689240000001,184.2127212,111.6409624
imu,269.149496,,,,,,,-93.32405480000001,184.444658,112.3245656
imu,269.251059,,,,,,,-91.4319388,183.5779468,111.1526744
imu,269.352621,,,,,,,-95.4603148,183.7244332,111.5921336
imu,270.164784,-1.1927166832,-9.169682424000001,3.180378437600001,-15.91075701,-12.59910336,-4.40108811,,,
imu,270.17326,-1.2746636168,-9.0434721832,3.1690135344,-15.7537419,-13.05519487,-3.89265823,,,
imu,270.181818,-1.336871508,-8.977675375200002,3.219856522400001,-15.02100472,-13.10753324,-3.26459779,,,
imu,270.190376,-1.378742204,-8.9848532088,3.2952237752,-14.26583681,-12.95799504,-2.38979932,,,
imu,270.198933,-1.4098461496,-9.024331293600001,3.275484732800001,-13.9592835,-12.98042577,-1.60472377,,,
imu,270.207491,-1.384723732,-9.090726254400002,3.2766810384,-13.77236075,-12.87574903,-0.9841402399999999,,,
imu,270.216049,-1.3494327168,-9.100296699200001,3.2802699552,-13.59291491,-12.74116465,-0.3560797999999998,,,
imu,270.224606,-1.3326844384,-9.096707782400001,3.296420080800001,-13.39851525,-13.01033341,0.0626271599999999,,,
imu,270.233164,-1.3948923296,-9.098502240800002,3.300607150400001,-13.25645396,-13.4514711,0.1448731699999999,,,
imu,270.241722,-1.4421464008,-9.0991003936,3.3233369568,-13.08448503,-13.62344003,0.2121653600000002,,,
imu,270.250279,-1.489400472,-9.0805576568,3.335898165600001,-12.92746992,-13.39165582,0.4738572100000003,,,
imu,270.258837,-1.5384490016,-9.0339017384,3.341879693600001,-12.6882088,-12.91313358,0.8252719800000001,,,
imu,270.267394,-1.546224988,-8.975282764000001,3.355637208000001,-12.30688639,-12.12058112,1.24397894,,,
imu,270.275952,-1.5809178504,-8.920850859200002,3.3807596256,-11.68630286,-11.37289012,1.56548607,,,
imu,270.28451,-1.5701511,-8.885559844000001,3.413658029600001,-11.17039607,-10.50556856,1.78979337,,,
imu,270.293067,-1.5575898912,-8.8813727744,3.419041404800001,-10.2955976,-9.72049301,1.84213174,,,
imu,270.301625,-1.5384490016,-8.972890152800002,3.5039791024,-9.899321370000001,-9.07000184,1.85708556,,,
imu,270.310183,-1.4612872904,-9.0398832664,3.5482424096,-9.68996789,-8.38212612,2.02157758,,,
imu,270.31874,-1.4690632768,-9.095511476800002,3.5416627288,-9.77969081,-7.94846534,1.89447011,,,
imu,270.327298,-1.4529131512,-9.133793256,3.529699672800001,-9.97409047,-7.634435119999999,1.59539371,,,
imu,270.335856,-1.4289870392,-9.0996985464,3.5267089088,-10.34793597,-7.238158889999999,1.3636095,,,
imu,270.344413,-1.4068553856,-9.053042628,3.5314941312,-10.52738181,-6.85683648,1.14677911,,,
imu,270.352971,-1.3954904824,-9.001003334400002,3.5578128544,-10.43018198,-6.48299098,0.95237945,,,
imu,270.361528,-1.3793403568,-8.9429825128,3.5637943824,-9.95165974,-6.33345278,0.8626565300000002,,,
imu,270.370086,-1.414631372,-8.896326594400001,3.5853278832,-9.00956908,-6.146530029999999,0.89256417,,,
imu,270.378644,-1.4397537896,-8.86761526,3.612244759200001,-8.45627774,-5.795115259999999,0.9673332700000001,,,
imu,270.387481,-1.5019616808,-8.838305772800002,3.626002273600001,-7.544094719999999,-5.33154684,0.9897640000000001,,,
imu,270.396317,-1.5528046688,-8.80779998,3.6080576896,-6.7066808,-4.80068623,1.17668675,,,
imu,270.405154,-1.612021796,-8.870606024,3.6361708712,-5.89917452,-4.02308759,1.26640967,,,
imu,270.413991,-1.6305645328,-8.902906275200001,3.6230115096,-5.18139116,-2.96884328,1.4383786,,,
imu,270.422828,-1.5928809064,-8.921449012000002,3.5996835504,-4.658007459999999,-2.03422953,1.64025517,,,
imu,270.431665,-1.4911949304,-8.938197290400002,3.6194225928,-4.231823589999999,-1.09961578,1.71502427,,,
imu,270.440502,-1.4277907336,-8.981264292,3.623609662400001,-3.95517792,-0.6136166300000001,1.43090169,,,
imu,270.449338,-1.3793403568,-8.990236584000002,3.5960946336,-3.73087062,-0.5538013500000001,1.04210237,,,
imu,270.458175,-1.3619939256,-8.980067986400002,3.5841315776,-3.46170186,-0.4939860700000001,0.6533030499999999,,,
imu,270.467012,-1.3440493416,-8.941188054400001,3.5823371192,-3.08037945,-0.4491246100000001,0.5112417599999999,,,
imu,270.475849,-1.3320862856,-8.904102580800002,3.60387062,-2.72896468,-0.59866281,0.2869344599999999,,,
imu,270.484686,-1.3392641192,-8.8771857048,3.614637370400001,-1.98127368,-0.5463244400000002,0.15982699,,,
imu,270.493523,-1.3302918272,-8.874793093600001,3.626002273600001,-1.06161375,-0.4715553400000001,0.2570268200000001,,,
imu,270.502359,-1.3255066048,-8.893335830400002,3.6409560936,-0.19429219,-0.1350943900000003,0.3467497399999999,,,
imu,270.511196,-1.3255066048,-8.914869331200002,3.6618914416,0.35152224,0.006966899999999665,0.4215188400000001,,,
imu,270.520033,-1.333880744,-8.992629195200001,3.7019676792,1.02444414,0.2013665599999999,0.4888110299999999,,,
imu,270.52887,-1.354816092,-9.040481419200002,3.707351054400001,1.57025857,0.3509047599999997,0.60844159,,,
imu,270.537707,-1.3416567304,-9.087735490400002,3.714528888000001,1.2188438,0.70231953,0.6906876,,,
imu,270.546543,-1.3177306184,-9.093118865600001,3.7043602904,0.88985976,1.03130357,0.7205952400000002,,,
imu,270.55538,-1.3003841872,-9.075772434400001,3.678639720000001,0.45619898,1.19579559,0.4813341200000001,,,
imu,270.564217,-1.2734673112,-9.068594600800001,3.652919149600001,0.22441477,1.25561087,0.1149655300000001,,,
imu,270.573054,-1.247148588,-9.0016014872,3.6200207456,0.03001510999999998,1.28551851,-0.1915877799999999,,,
imu,270.581782,-1.2184372536,-8.919654553600001,3.609852148000001,0.11973803,1.38271834,-0.26635688,,,
imu,270.590138,-1.193314836,-8.8837653856,3.6056650784,0.42629134,1.33037997,-0.40841817,,,
imu,270.598495,-1.1801554744,-8.870606024,3.588916800000001,1.05435178,1.15093413,-0.46075654,,,
imu,270.606852,-1.1777628632,-8.923243470400001,3.593103869600001,1.80204278,1.0537343,-0.68506384,,,
imu,270.615208,-1.184342544,-8.984255056000002,3.5984872448,2.3403803,1.00139593,-0.6701100199999999,,,
imu,270.623565,-1.2076705032,-9.1026893104,3.597290939200001,2.7142258,0.8742884599999998,-0.66263311,,,
imu,270.631922,-1.2070723504,-9.219927259200002,3.594898328000001,2.67684125,0.92662683,-0.8645096799999998,,,
imu,270.640279,-1.208268656,-9.2929019008,3.5787482024,2.25813429,1.06121121,-0.8944173199999998,,,
imu,270.648635,-1.2124557256,-9.3377633608,3.5637943824,1.5926893,1.15841104,-0.93927878,,,
imu,270.656992,-1.2040815864,-9.3443430416,3.562598076800001,0.67302937,1.21822632,-0.96918642,,,
imu,270.665349,-1.2004926696,-9.2970889704,3.5614017712,-0.04475399000000001,1.42010289,-1.04395552,,,
imu,270.673706,-1.1759684048,-9.260601649600002,3.579346355200001,-0.6279529699999999,1.52477963,-1.03647861,,,
imu,270.682062,-1.1675942656,-9.234881079200001,3.60387062,-1.15133667,1.46496435,-1.14115535,,,
imu,270.690419,-1.1586219736,-9.1960011472,3.6152355232,-1.46536689,1.36028761,-1.12620153,,,
imu,270.698776,-1.1436681536,-9.1409710896,3.6200207456,-1.50275144,1.36776452,-1.03647861,,,
imu,270.707132,-1.154434904,-9.119437588800002,3.637367176800001,-1.57004363,1.0537343,-0.91684805,,,
imu,270.715489,-1.175370252,-9.132596950400002,3.646937621600001,-1.34573633,0.7397040799999997,-1.11124771,,,
imu,270.723846,-1.2124557256,-9.121830200000002,3.607459536800001,-1.36069015,0.5453044199999999,-1.23835518,,,
imu,270.732203,-1.2597097968,-9.079361351200001,3.570374063200001,-1.30087487,0.44062768,-1.23087827,,,
imu,270.740559,-1.2985897288,-9.023134988,3.5608036184,-1.24105959,0.50044296,-1.23087827,,,
imu,270.748916,-1.3231139936,-8.9920310424,3.570972216,-1.2485365,0.62007352,-1.08881698,,,
imu,270.757273,-1.3123472432,-8.972890152800002,3.5608036184,-1.06161375,1.0537343,-0.85703277,,,
imu,270.76563,-1.3105527848,-8.9836569032,3.54405534,-0.29896893,1.62945637,-0.5280487299999999,,,
imu,270.773986,-1.2716728528,-8.978871680800001,3.514147700000001,0.07487657,1.95844041,-0.4532796299999999,,,
imu,270.782343,-1.2632987136,-8.9914328896,3.538073812,0.53096808,2.16779389,-0.57291019,,,
imu,270.790907,-1.2250169344,-9.0087793208,3.5548220904,0.6281679099999999,2.40705501,-0.8046943999999998,,,
imu,270.799471,-1.2136520312,-8.9878439728,3.547046104000001,0.7104139199999999,2.4743472,-0.9243249599999999,,,
imu,270.808035,-1.1867351552,-8.95733818,3.536877506400001,0.74779847,2.33228591,-1.26826282,,,
imu,270.816599,-1.2010908224,-8.910682261600002,3.5302978256,0.41881443,2.16031698,-1.7019236,,,
imu,270.825163,-1.2184372536,-8.882569080000001,3.5302978256,0.44124516,2.10797861,-2.01595382,,,
imu,270.833727,-1.2274095456,-8.847876217600001,3.525512603200001,0.26179932,1.79394839,-2.27016876,,,
imu,270.842291,-1.2567190328,-8.8389039256,3.492614199200001,0.4711528,1.55468727,-2.4496146,,,
imu,270.850855,-1.2902155896,-8.881970927200001,3.481249296000001,0.91229049,1.53973345,-2.44213769,,,
imu,270.859419,-1.3003841872,-8.9088878032,3.4824456016,1.17398234,1.50982581,-2.33746095,,,
imu,270.867983,-1.2884211312,-8.884961691200001,3.4531361144,1.73475059,1.56216418,-2.10567674,,,
imu,270.876547,-1.289019284,-8.931617609600002,3.467491781600001,1.92915025,1.70422547,-1.7766927,,,
imu,270.885111,-1.2483448936,-8.987245820000002,3.4878289768,2.05625772,1.62945637,-1.49257012,,,
imu,270.893675,-1.2124557256,-9.053042628,3.497997574400001,2.60954906,1.61450255,-1.02152479,,,
imu,270.902239,-1.145462612,-9.106876380000001,3.491417893600001,3.1628404,1.52477963,-0.7523560299999998,,,
imu,270.910803,-1.1113679024,-9.134989561600001,3.508166172,3.37219388,1.24813396,-0.4308489,,,
imu,270.919367,-1.09162886,-9.0996985464,3.518932922400001,3.02077911,0.6350273399999997,-0.2289723299999999,,,
imu,270.927931,-1.0910307072,-9.0991003936,3.558411007200001,3.06564057,-0.007986920000000008,-0.05700339999999993,,,
imu,270.936495,-1.1299106392,-9.1302043392,3.570374063200001,3.22265568,-0.65847809,0.3093651899999998,,,
imu,270.945059,-1.1646035016,-9.166691660000001,3.550635020800001,3.37967079,-1.144477240000001,0.8402258000000002,,,
imu,270.953623,-1.1861370024,-9.142765548000002,3.556018396000001,3.48434753,-1.570661110000001,1.32622495,,,
imu,270.962187,-1.229204004,-9.146952617600002,3.5984872448,3.89557758,-1.82487605,2.02157758,,,
imu,270.970751,-1.2399707544,-9.1750657992,3.593103869600001,4.33671527,-2.05666026,2.70197639,,,
imu,270.979315,-1.2447559768,-9.1924122304,3.5614017712,5.36105194,-2.34078284,3.44219048,,,
imu,269.454087,,,,,,,-95.9241884,182.7234428,105.5861912
imu,269.555589,,,,,,,-100.111258,183.65119,105.8425424
imu,269.657182,,,,,,,-100.2089156,183.2727668,103.2912376
imu,269.758744,,,,,,,-99.3299972,183.9441628,107.5027216
imu,269.860337,,,,,,,-97.64540360000001,183.7366404,108.869928
imu,269.961869,,,,,,,-97.53553880000001,183.8587124,109.5901528
imu,270.063554,,,,,,,-97.8651332,183.8220908,109.663396
imu,270.165147,,,,,,,-98.06044840000001,184.2249284,110.456864
imu,270.987879,-1.1986982112,-9.225908787200002,3.525512603200001,6.43025007,-2.5351825,4.17492766,,,
imu,270.996241,-1.1508459872,-9.2408626072,3.508166172,6.74428029,-2.81182817,4.623542260000001,,,
imu,271.004603,-1.1149568192,-9.242657065600001,3.4764640736,7.21532562,-3.25296586,4.997387760000001,,,
imu,271.012964,-1.1137605136,-9.242657065600001,3.436387836,7.888247519999999,-3.73896501,5.48338691,,,
imu,271.021326,-1.0898344016,-9.2300958568,3.3849466952,8.2471392,-4.23991798,5.887140049999999,,,
imu,271.029688,-1.1173494304,-9.1720750352,3.347263068800001,8.673323069999999,-4.86050151,6.044155160000001,,,
imu,271.03805,-1.1466589176,-9.1266154224,3.3059905256,8.86024582,-5.35397757,6.111447350000001,,,
imu,271.046412,-1.2076705032,-9.0715853648,3.238399259200001,9.062122389999999,-5.645577060000001,6.283416280000001,,,
imu,271.054773,-1.2399707544,-8.973488305600002,3.1570504784,9.219137499999999,-5.862407449999999,6.26846246,,,
imu,271.063135,-1.28602852,-8.927430540000001,3.152265256000001,9.60045991,-5.84745363,6.20117027,,,
imu,271.071497,-1.3183287712,-8.972292000000001,3.1600412424,9.809813389999999,-5.63810015,5.999293700000001,,,
imu,271.079859,-1.318926924,-9.034499891200001,3.0936462816,10.09393597,-5.39883903,5.73012494,,,
imu,271.088221,-1.3237121464,-9.109867144,3.051775585600001,10.25095108,-5.182008639999999,5.07215686,,,
imu,271.096583,-1.3033749512,-9.194804841600002,3.0392143768,10.36310473,-4.72591713,4.04034328,,,
imu,271.104944,-1.2896174368,-9.228899551200001,2.9829880136,10.13879743,-4.15767197,3.06834498,,,
imu,271.113306,-1.2716728528,-9.255816427200001,2.9656415824,9.660275189999998,-3.70158046,1.99914685,,,
imu,271.121668,-1.2537282688,-9.251629357600002,2.9375284008,9.21166059,-3.11090457,1.00471782,,,
imu,271.13003,-1.2447559768,-9.2366755376,2.9375284008,8.830338179999998,-2.58004396,-0.04204958000000003,,,
imu,271.138392,-1.2178391008,-9.249236746400001,2.943509928800001,8.164893189999999,-1.82487605,-1.0290017,,,
imu,271.146753,-1.1939129888,-9.169682424000001,2.9153967472,7.40224837,-1.06970814,-1.91875399,,,
imu,271.155115,-1.1747720992,-9.039285113600002,2.892068788,6.92372613,-0.31454023,-2.65149117,,,
imu,271.163477,-1.1442663064,-8.920850859200002,2.889078024,6.27323496,0.2462280199999998,-3.21225942,,,
imu,271.171839,-1.1299106392,-8.8640263432,2.939921012000001,5.81714345,0.6499811599999998,-3.73564312,,,
imu,271.180201,-1.1173494304,-8.844885453600002,3.0051196672,5.50311323,1.07616503,-4.23659609,,,
imu,271.188563,-1.1203401944,-8.8329223976,2.9829880136,5.46572868,1.48739508,-4.408565019999999,,,
imu,271.1972,-1.094619624,-8.895728441600001,2.979997249600001,6.09378912,1.98087114,-4.19921154,,,
imu,271.205838,-1.0808621096,-9.032705432800002,3.03562546,6.66203428,2.37714737,-4.04967334,,,
imu,271.214476,-1.0599267616,-9.1272135752,3.087066600800001,7.36486382,2.52668557,-3.69825857,,,
imu,271.223114,-1.07667504,-9.2312921624,3.112787171200001,8.232185379999999,2.76594669,-3.17487487,,,
imu,271.231751,-1.0635156784,-9.405354627200001,3.1666209232,8.785476719999998,3.13231528,-2.30755331,,,
imu,271.240389,-1.0545433864,-9.539939007200001,3.2204546752,9.33876806,3.35662258,-1.56733922,,,
imu,271.249027,-1.0575341504,-9.641026830400001,3.2055008552,9.99673614,3.47625314,-1.05143243,,,
imu,271.257665,-1.0413840248,-9.675719692800001,3.2204546752,10.52011984,3.39400713,-0.63272547,,,
imu,271.266302,-1.0174579128,-9.618297024,3.18516366,10.85658079,3.28933039,-0.3934643499999999,,,
imu,271.27494,-1.0156634544,-9.5423316184,3.1319280608,11.32014921,2.9977309,-0.37851053,,,
imu,271.283578,-1.0186542184,-9.435860420000001,3.077496156,11.55941033,2.5491163,-0.3037414299999999,,,
imu,271.292215,-1.0371969552,-9.372456223200002,3.0667294056,11.58184106,2.22760917,-0.14672632,,,
imu,271.300853,-1.037795108,-9.33118368,3.055962655200001,11.85848673,2.13788625,0.1523500800000002,,,
imu,271.309491,-1.0174579128,-9.379035904000002,3.0469903632,12.06784021,2.00330187,0.6383492300000002,,,
imu,271.318129,-1.0114763848,-9.433467808800001,3.0194753344,12.19494768,1.81637912,0.8177950699999998,,,
imu,271.326766,-1.0330098856,-9.552500216,3.0398125296,12.41177807,1.77151766,1.01967164,,,
imu,271.335404,-1.037795108,-9.641624983200002,2.9447062344,11.93325583,1.90610204,1.40847096,,,
imu,271.344042,-1.0276265104,-9.7128051664,2.8573759256,10.93134989,2.16031698,1.84960865,,,
imu,271.35268,-1.0300191216,-9.7474980288,2.8214867576,9.92944395,2.25751681,2.04400831,,,
imu,271.361317,-1.0336080384,-9.742114653600002,2.7550917968,8.7705229,2.38462428,1.99914685,,,
imu,271.369955,-1.022841288,-9.648204664000001,2.649816904,7.56674039,2.60145467,1.90194702,,,
imu,271.378593,-0.9971207176000002,-9.5249851872,2.5756459568,6.31809642,2.66126995,1.77483955,,,
imu,271.387231,-0.9845595088000001,-9.3622876256,2.5218122048,4.85262206,2.78837742,1.4383786,,,
imu,271.395868,-0.9743909112000002,-9.221123564800001,2.5104473016,3.70117792,2.76594669,0.9673332700000001,,,
imu,271.404504,-0.9498666464000002,-9.194804841600002,2.5050639264,3.12545585,2.50425484,0.50376485,,,
imu,271.413139,-0.9594370912000001,-9.2157401896,2.471567369600001,2.75908726,2.19770153,0.01028879000000016,,,
imu,271.421774,-0.9905410368000002,-9.2761536224,2.437472660000001,2.52730305,2.07059406,-0.23644924,,,
imu,271.430409,-0.9875502728000001,-9.329987374400002,2.4009853392,2.30299575,2.05564024,-0.28878761,,,
imu,271.439044,-0.9761853696000001,-9.3658765424,2.379451838400001,2.00391935,2.2500399,-0.04952648999999987,,,
imu,271.447679,-0.9480721880000001,-9.364680236800002,2.3698813936,1.54782784,2.31733209,0.10001171,,,
imu,271.456314,-0.9235479232000001,-9.411934308000001,2.3704795464,1.22632071,2.43696265,0.3317959200000002,,,
imu,271.46495,-0.8828735328,-9.422102905600001,2.3573201848,0.66555246,2.23508608,0.2271191799999999,,,
imu,271.473585,-0.8828735328,-9.447823476,2.395601964,0.19450713,2.11545552,0.1224424399999999,,,
imu,271.48222,-0.8936402832000001,-9.498666464000001,2.4512301744,-0.40364567,1.81637912,0.02524261000000028,,,
imu,271.490855,-0.8942384360000002,-9.573435564,2.512839912800001,-1.19619813,1.40514907,-0.09438795,,,
imu,271.49949,-0.9079959504000001,-9.619493329600001,2.604955444,-2.09342733,0.9939190199999999,-0.1616801399999999,,,
imu,271.508125,-0.9672130776000001,-9.633848996800001,2.645629834400001,-2.84859524,0.5453044199999999,-0.25887997,,,
imu,271.516761,-0.9911391896000001,-9.669738164800002,2.6665651824,-3.7159168,0.1864127399999997,-0.4308489,,,
imu,271.525396,-1.0461692472,-9.689477207200001,2.6791263912,-4.373884879999999,0.04435144999999974,-0.2289723299999999,,,
imu,271.534031,-1.0485618584,-9.6918698184,2.689893141600001,-5.01689914,0.01444380999999995,0.1448731699999999,,,
imu,271.542666,-1.0808621096,-9.673925234400002,2.657592890400001,-5.413175369999999,0.2312741999999997,0.58601086,,,
imu,271.551301,-1.0832547208,-9.692467971200001,2.6145258888,-5.51785211,0.78456554,1.16173293,,,
imu,271.559936,-1.0342061912,-9.734936820000001,2.557103220000001,-5.764590139999999,1.33037997,1.67016281,,,
imu,271.568571,-1.0330098856,-9.711010708000002,2.588207165600001,-6.145912549999999,1.577118,2.02157758,,,
imu,271.577207,-0.9618297024000001,-9.6284656216,2.613927736,-5.89917452,2.13040934,2.35803853,,,
imu,271.585842,-0.8762938520000002,-9.654186192000001,2.6366575424,-6.108528,2.33976282,2.55243819,,,
imu,271.594477,-0.8667234072000001,-9.697851346400002,2.667163335200001,-6.332835299999999,2.25751681,2.58982274,,,
imu,271.603052,-0.8332268504000001,-9.6733270816,2.6701540992,-6.91603428,1.9509635,2.35803853,,,
imu,271.611628,-0.8146841136000001,-9.675719692800001,2.7078377256,-7.611386909999999,1.65936401,2.12625432,,,
imu,271.620203,-0.8308342392000001,-9.6535880392,2.7497084216,-8.41889319,1.34533379,1.96923921,,,
imu,271.628779,-0.8469843648000001,-9.667345553600002,2.779616061600001,-9.44322986,1.03878048,2.02157758,,,
imu,271.637354,-0.8649289488,-9.671532623200001,2.759877019200001,-10.26568996,0.8294269999999999,2.08139286,,,
imu,271.645929,-0.9211553120000001,-9.655382497600002,2.7120247952,-11.4171341,0.76213481,2.36551544,,,
imu,271.654505,-0.9462777296000001,-9.594370912,2.6683596408,-12.27697875,0.84438082,2.68702257,,,
imu,271.66308,-0.9672130776000001,-9.507040603200002,2.6282834032,-12.93494683,0.9341037399999998,2.99357588,,,
imu,270.266557,,,,,,,-95.13072040000002,183.5169108,108.4060544
imu,270.36815,,,,,,,-97.12049400000001,184.627766,110.8963232
imu,270.469743,,,,,,,-93.78792840000001,184.4080364,109.1262792
imu,270.571244,,,,,,,-95.88756680000002,185.0428108,111.0794312
imu,270.672837,,,,,,,-95.71666599999999,184.9573604,112.1414576
imu,270.77443,,,,,,,-95.43590040000001,184.9451532,111.7630344
imu,270.875901,,,,,,,-95.2772068,184.5789372,111.8851064
imu,270.977952,,,,,,,-95.03306280000001,184.4324508,112.287944
imu,271.671813,-0.9654186192,-9.3993730992,2.587609012800001,-13.72002238,1.1285034,3.38985211,,,
imu,271.680389,-0.9767835224000002,-9.3036686512,2.6073480552,-14.22845226,1.4275798,3.83846671,,,
imu,271.688964,-0.9402962016,-9.2785462336,2.6540039736,-14.4078981,1.66684092,4.21231221,,,
imu,271.69754,-0.9229497704,-9.254021968800002,2.7048469616,-14.46023647,1.86124058,4.61606535,,,
imu,271.706115,-0.8840698384000001,-9.298285276000001,2.763465936,-14.52752866,1.93600968,4.952526300000001,,,
imu,271.71469,-0.8864624496000001,-9.384419279200001,2.798756951200001,-14.7817436,1.92853277,5.46095618,,,
imu,271.723266,-0.8792846160000001,-9.440047489600001,2.823281216,-15.34998876,1.92853277,5.72264803,,,
imu,271.731841,-0.8798827688,-9.4496179344,2.8723297456,-15.83598791,2.07059406,5.797417129999999,,,
imu,271.740417,-0.8577511152000001,-9.441841948000002,2.887283565600001,-16.3518947,2.20517844,6.021724430000001,,,
imu,271.748992,-0.8475825176000001,-9.437056725600002,2.9165930528,-16.68087874,2.10797861,5.94695533,,,
imu,271.757568,-0.8248527112,-9.4286825864,2.947696998400001,-16.71826329,2.13040934,5.83480168,,,
imu,271.766143,-0.7997302936000001,-9.364082084000001,2.9656415824,-16.67340183,2.14536316,5.580586739999999,,,
imu,271.774719,-0.7889635432000001,-9.3138372488,3.020073487200001,-16.64349419,2.41453192,5.19926433,,,
imu,271.783294,-0.7758041816000001,-9.288116678400002,3.1008241152,-16.21731032,2.51173175,4.75812664,,,
imu,271.791869,-0.7614485144,-9.322211388000001,3.204902702400001,-15.87337246,2.6238854,4.354373499999999,,,
imu,271.800445,-0.7530743752000001,-9.325202152000001,3.2407918704,-15.828511,2.82576197,3.85342053,,,
imu,271.808807,-0.7781967928000002,-9.3168280128,3.244978940000001,-16.15001813,2.9229618,3.26274464,,,
imu,271.817168,-0.7793930984000002,-9.243853371200002,3.2096879248,-16.53134054,3.20708438,2.8589915,,,
imu,271.82553,-0.7829820152,-9.218132800800001,3.2234454392,-16.76312475,3.57345297,2.61973038,,,
imu,271.833892,-0.7811875568000001,-9.1619064376,3.2043045496,-16.73321711,3.85757555,1.97671612,,,
imu,271.842254,-0.7829820152,-9.090726254400002,3.184565507200001,-16.44909453,4.26132869,1.4383786,,,
imu,271.850616,-0.7835801680000001,-9.026125752000002,3.212080536000001,-16.00795684,4.4931129,0.9075179900000001,,,
imu,271.858978,-0.7674300424000001,-8.9920310424,3.270101357600001,-15.34998876,4.694989469999999,0.1897346300000002,,,
imu,271.867339,-0.7542706808000001,-9.0398832664,3.337692624000001,-14.36303664,5.2408039,-0.28878761,,,
imu,271.875701,-0.7159889016000002,-9.0596223088,3.3927226816,-13.72749929,5.69689541,-0.6102947399999998,,,
imu,271.884063,-0.6920627896000001,-9.1720750352,3.5165403112,-13.33869997,6.04831018,-0.93927878,,,
imu,271.892425,-0.6561736216000001,-9.264788719200002,3.567981452000001,-13.65273019,6.32495585,-1.44770866,,,
imu,271.900787,-0.6226770648,-9.327594763200002,3.579944508,-14.31817518,6.36981731,-1.93370781,,,
imu,271.909148,-0.5897786608000001,-9.279144386400002,3.565588840800001,-15.17054292,6.49692478,-2.59167589,,,
imu,271.91751,-0.5945638832000001,-9.173869493600002,3.560205465600001,-16.00795684,6.68384753,-3.05524431,,,
imu,271.925872,-0.5837971328000001,-9.0991003936,3.5673832992,-16.32198706,6.706278259999999,-3.22721324,,,
imu,271.934234,-0.5843952856000001,-9.031509127200001,3.597889092,-16.17992577,6.59412461,-3.51881273,,,
imu,271.942596,-0.6125084672000001,-8.9848532088,3.6499283856,-15.85094173,6.489447869999999,-3.74312003,,,
imu,271.950958,-0.6406216488000002,-8.95733818,3.6983787624,-15.07334309,6.3623404,-3.78050458,,,
imu,271.959319,-0.6717255944000001,-8.986647667200002,3.7336697776,-14.39294428,6.182894559999999,-3.93751969,,,
imu,271.967681,-0.6830904976000001,-9.029116516000002,3.7857090712,-13.64525328,6.205325289999999,-4.04219643,,,
imu,271.976043,-0.6687348304,-9.084146573600002,3.8144204056,-13.23402323,6.19037147,-4.363703559999999,,,
imu,271.984405,-0.6615569968000001,-9.063211225600002,3.7928869048,-13.0620543,6.272617479999999,-4.6179185,,,
imu,271.992767,-0.61310662,-9.052444475200002,3.800064738400001,-13.12934649,6.24270984,-4.78241052,,,
imu,272.001128,-0.6059287864000001,-9.040481419200002,3.7898961408,-13.18168486,6.04083327,-5.17868675,,,
imu,272.009596,-0.5867878968000001,-8.989040278400001,3.722903027200001,-13.03962357,5.74175687,-5.32074804,,,
imu,272.018063,-0.5993491056000001,-8.8771857048,3.699575068000001,-12.84522391,5.45015738,-5.41794787,,,
imu,272.026531,-0.5951620360000001,-8.796435076800002,3.7270900968,-12.37417858,5.23332699,-5.41047096,,,
imu,272.034998,-0.5921712720000001,-8.746788394400001,3.732473472000001,-11.52928775,5.046404239999999,-5.328224949999999,,,
imu,272.043465,-0.5927694248,-8.7497791584,3.743838375200001,-10.81150439,4.72489711,-5.18616366,,,
imu,272.051933,-0.6065269392000001,-8.741405019200002,3.746230986400001,-9.86941373,4.388436159999999,-4.81979507,,,
imu,272.0604,-0.5939657304000001,-8.764732978400001,3.788699835200001,-9.01704599,4.18655959,-4.47585721,,,
imu,272.068867,-0.5748248408000001,-8.823351952800001,3.795279516000001,-8.22449353,3.9697292,-4.034719519999999,,,
imu,272.077335,-0.5329541448,-8.9298231512,3.832963142400001,-7.514187079999999,3.50616078,-3.50385891,,,
imu,272.085802,-0.4898871432,-8.965114166400001,3.8215982392,-7.110433939999999,3.04259236,-2.9729983,,,
imu,272.094269,-0.4402404608,-8.954945568800001,3.8174111696,-6.923511189999999,2.28742445,-2.61410662,,,
imu,272.102737,-0.4414367664,-8.926832387200001,3.8239908504,-7.01323411,1.07616503,-2.50195297,,,
imu,272.111204,-0.4761296288000001,-8.878980163200001,3.8353557536,-6.594527149999999,-0.2771556799999999,-2.49447606,,,
imu,272.119671,-0.517402172,-8.865222648800001,3.858085560000001,-6.17582019,-1.66038403,-2.44213769,,,
imu,272.128139,-0.5628617848,-8.844287300800001,3.8772264496,-5.74963632,-2.52770559,-2.06081528,,,
imu,272.136606,-0.6005454112,-8.829931633600001,3.913713770400001,-4.92717622,-3.32773496,-1.48509321,,,
imu,272.145073,-0.6633514552,-8.777892340000001,3.9107230064,-3.97760865,-4.1801027,-0.8944173199999998,,,
imu,272.153541,-0.6986424704000002,-8.7384142552,3.923882368,-3.05047181,-4.50908674,-0.29626452,,,
imu,272.162008,-0.7554669864000001,-8.7288438104,3.938836188000001,-1.83173548,-4.68853258,0.5112417599999999,,,
imu,272.170476,-0.7758041816000001,-8.691758336800001,3.9460140216,-0.74758353,-4.68105567,1.15425602,,,
imu,272.178943,-0.7967395296000002,-8.706114004000002,3.962762300000001,0.51601426,-4.48665601,1.75988573,,,
imu,272.18741,-0.8003284464,-8.702525087200002,3.964556758400001,1.62259694,-4.41936382,2.32813089,,,
imu,272.195878,-0.8069081272,-8.658859932800002,3.938836188000001,2.75161035,-4.09785669,2.88889914,,,
imu,272.204345,-0.7907580016000001,-8.6271578344,3.944219563200001,3.947915950000001,-3.76139574,3.3076061,,,
imu,272.213023,-0.7740097232000002,-8.592464972000002,3.927471284800001,5.3311443,-3.51465771,3.66649778,,,
imu,272.221702,-0.7680281952000001,-8.5511924288,3.886198741600001,6.51997299,-3.26044277,3.86089744,,,
imu,272.23038,-0.7793930984000002,-8.472834412000001,3.853300337600001,8.142462459999999,-3.09595075,4.08520474,,,
imu,272.239059,-0.7877672376000001,-8.484797468000002,3.923284215200001,10.14627434,-2.69219761,4.399234959999999,,,
imu,272.247737,-0.7799912512000001,-8.679197128,4.008221912800001,11.78371763,-2.19872155,4.84784956,,,
imu,272.256416,-0.7949450712000001,-8.903504428000002,3.9920717872,12.89777722,-1.60804566,5.318894889999999,,,
imu,272.265094,-0.7811875568000001,-9.088931796,3.934649118400001,13.11460761,-0.8902623000000003,5.90209387,,,
imu,272.273772,-0.7841783208,-9.188823313600002,3.890385811200001,12.83048503,-0.17247894,6.021724430000001,,,
imu,272.282451,-0.7680281952000001,-9.2480404408,3.8455243512,11.92577892,0.5378275100000001,5.872186230000001,,,
imu,272.291129,-0.7476910000000001,-9.286920372800001,3.809635183200001,10.81171933,1.33037997,5.603017469999999,,,
imu,272.299808,-0.7171852072000001,-9.249236746400001,3.757595889600001,9.989259229999998,2.13788625,5.42357163,,,
imu,272.308486,-0.6944554008000001,-9.1684861184,3.7169214992,9.38362952,2.7734236,5.15440287,,,
imu,272.317165,-0.6687348304,-9.108072685600002,3.699575068000001,8.9200611,3.39400713,4.75812664,,,
imu,272.325843,-0.6274622872000001,-9.0805576568,3.6672748168,8.994830199999999,4.03702139,4.32446586,,,
imu,272.334522,-0.5879842024,-9.055435239200001,3.675050803200001,9.15932222,4.60526655,3.77865143,,,
imu,272.3432,-0.5473098120000001,-9.021938682400002,3.6612932888,9.27147587,5.091265699999999,3.36742138,,,
imu,272.351878,-0.5449172008000001,-9.0596223088,3.634974565600001,9.33876806,5.43520356,3.01600661,,,
imu,272.360557,-0.5580765624000001,-9.039285113600002,3.593702022400001,9.607936819999999,5.77166451,2.74683785,,,
imu,272.369235,-0.5526931872,-9.089529948800001,3.5398682704,9.83972103,6.160463829999999,2.7094533,,,
imu,272.377914,-0.4910834488,-9.137980325600001,3.5267089088,9.877105579999998,6.48197096,2.68702257,,,
imu,272.386592,-0.46356842,-9.1499433816,3.4836419072,10.13132052,6.64646298,2.46271527,,,
imu,272.395271,-0.4510072112,-9.133793256,3.435789683200001,9.981782319999999,6.64646298,2.29074634,,,
imu,272.403949,-0.4318663216,-9.094913324,3.419041404800001,10.07898215,6.65393989,2.44776145,,,
imu,272.412627,-0.3935845424,-9.006386709600001,3.4082746544,10.48273529,6.5866477,2.57486892,,,
imu,272.421231,-0.3720510416,-8.9848532088,3.409470960000001,10.99116517,6.37729422,2.54496128,,,
imu,272.429834,-0.3570972216000001,-9.0255275992,3.3670021112,11.836056,6.02587945,2.64216111,,,
imu,272.438437,-0.3612842912,-9.079959504000001,3.3640113472,12.70337756,5.659510859999999,2.80665313,,,
imu,272.447041,-0.3606861384,-9.194206688800001,3.323935109600001,13.20433053,5.21089626,2.88142223,,,
imu,272.455644,-0.3654713608,-9.340155972000002,3.252156773600001,13.35386873,4.672558739999999,3.18049863,,,
imu,272.464247,-0.3642750552,-9.472347740800002,3.172004298400001,13.32396109,4.194036499999999,3.46462121,,,
imu,272.472851,-0.3648732080000001,-9.477731116000001,3.1020204208,12.75571593,3.73046808,3.76369761,,,
imu,272.481454,-0.3852104032000001,-9.46576806,3.1062074904,12.16504004,3.31176112,4.077727830000001,,,
imu,271.079198,,,,,,,-94.3006308,184.200514,112.6663672
imu,271.18076,,,,,,,-91.45635320000001,183.3338028,112.6053312
imu,271.282353,,,,,,,-93.0432892,183.4314604,114.0213664
imu,271.385289,,,,,,,-90.74833559999999,182.2595692,112.5198808
imu,271.485448,,,,,,,-93.03108200000001,182.674614,115.2420864
imu,271.587102,,,,,,,-93.1043252,182.1374972,111.8362776
imu,271.688573,,,,,,,-92.79914520000001,183.0164156,114.6317264
imu,271.790135,,,,,,,-92.55500119999999,183.7610548,113.9115016
imu,272.490057,-0.3983697648000001,-9.489096019200002,3.112787171200001,11.69399471,2.75099287,4.354373499999999,,,
imu,272.49866,-0.4037531400000001,-9.5172092008,3.0768980032,11.29771848,2.63883922,4.817941919999999,,,
imu,272.507264,-0.3989679176000001,-9.506442450400002,3.059551572000001,10.28085872,2.52668557,5.13197214,,,
imu,272.515867,-0.4216977240000001,-9.4944793944,3.1091982544,9.548121539999999,2.56407012,5.39366399,,,
imu,272.52447,-0.406743904,-9.5501076048,3.2204546752,8.55369251,2.6986545,5.797417129999999,,,
imu,272.533074,-0.3947808480000001,-9.61530626,3.2611290656,7.10317197,2.87062343,5.9245246,,,
imu,272.541677,-0.3923882368,-9.6709344704,3.297616386400001,5.45825177,3.06502309,6.126401170000001,,,
imu,272.55028,-0.35889168,-9.689477207200001,3.2826625664,3.62640882,3.22951511,6.066585890000001,,,
imu,272.558884,-0.3301803456000001,-9.6428212888,3.280868108,1.65250458,3.23699202,5.7749864,,,
imu,272.567487,-0.3236006648,-9.588987536800001,3.270101357600001,-0.28401511,3.35662258,5.251602699999999,,,
imu,272.57609,-0.3080486920000001,-9.51062952,3.256343843200001,-1.62985891,3.49868387,4.668403720000001,,,
imu,272.584694,-0.2924967192,-9.420906600000002,3.270699510400001,-2.82616451,3.58092988,4.00295873,,,
imu,272.593297,-0.2578038568000001,-9.349128264,3.2904385528,-3.57385551,3.84262173,3.47957503,,,
imu,272.6019,-0.2578038568000001,-9.277948080800002,3.310177595200001,-3.98508556,4.13422122,2.83656077,,,
imu,272.610503,-0.230288828,-9.2707702472,3.3873393064,-4.43370016,4.478159079999999,2.27579252,,,
imu,272.618971,-0.2075590216,-9.239666301600002,3.3897319176,-4.867360939999999,4.837050759999999,1.737455,,,
imu,272.627438,-0.2249054528,-9.226506940000002,3.426219238400001,-5.03932987,4.94920441,1.07201001,,,
imu,272.635906,-0.2057645632,-9.230694009600002,3.4489490448,-5.084191329999999,5.397819009999999,0.4140419300000002,,,
imu,272.644373,-0.188418132,-9.2271050928,3.446556433600001,-5.413175369999999,5.80157215,-0.31869525,,,
imu,272.65284,-0.1800439928,-9.214543884000001,3.4381822944,-5.674867219999999,6.14551001,-0.8046943999999998,,,
imu,272.661308,-0.1561178808,-9.1708787296,3.390330070400001,-5.6599134,6.54926315,-1.1037708,,,
imu,272.669775,-0.1100601152,-9.103287463200001,3.3711891808,-5.54028284,6.885724099999999,-1.52247776,,,
imu,272.678242,-0.1040785872,-9.066800142400002,3.3711891808,-5.32345245,6.810955,-2.24026112,,,
imu,272.68671,-0.1028822816,-9.0817539624,3.3807596256,-4.90474549,6.87077028,-2.62158353,,,
imu,272.695177,-0.0693857248,-9.110465296800001,3.386143000800001,-4.40379252,6.97544702,-2.65149117,,,
imu,272.703644,-0.05203929360000001,-9.132596950400002,3.37956332,-4.231823589999999,6.92310865,-2.78607555,,,
imu,272.712112,-0.04127254320000001,-9.150541534400002,3.3831522368,-4.209392859999999,6.840862639999999,-3.03281358,,,
imu,272.720579,-0.0125612088,-9.179851021600001,3.373581792,-4.231823589999999,6.80347809,-2.79355246,,,
imu,272.729046,0.0011963056,-9.214543884000001,3.3693947224,-4.59071527,6.624032249999999,-2.68887572,,,
imu,272.737514,0.0221316536,-9.252825663200001,3.3394870824,-4.97203768,6.295048209999999,-2.64401426,,,
imu,272.745981,0.0221316536,-9.267181330400001,3.3155609704,-5.38326773,6.10064855,-2.45709151,,,
imu,272.754448,0.03588916800000001,-9.256414580000001,3.296420080800001,-5.787020869999999,5.659510859999999,-2.31503022,,,
imu,272.762846,0.05443190480000001,-9.249834899200001,3.2832607192,-5.794497779999999,5.12865025,-2.14306129,,,
imu,272.771314,0.0502448352,-9.220525412,3.3095794424,-5.77954396,4.37348234,-1.9262309,,,
imu,272.779781,0.08733030880000002,-9.1924122304,3.3191498872,-5.87674379,3.58840679,-1.76921579,,,
imu,272.788249,0.1172379488,-9.1720750352,3.3245332624,-5.66739031,2.82576197,-1.67949287,,,
imu,272.796716,0.113649032,-9.124222811200001,3.3203461928,-5.30102172,1.92853277,-1.57481613,,,
imu,272.805183,0.1088638096,-9.104483768800002,3.349655680000001,-4.89726858,0.8144731799999998,-1.44023175,,,
imu,272.813651,0.05802082160000001,-9.096707782400001,3.3490575272,-4.605669089999999,-0.17247894,-1.34303192,,,
imu,272.822113,-0.0101685976,-9.0913244072,3.3424778464,-4.00003938,-1.10709269,-1.02152479,,,
imu,272.830575,-0.05682451600000001,-9.0542389336,3.3233369568,-3.24487147,-1.69776858,-0.6925407499999998,,,
imu,272.839037,-0.08194693360000001,-9.053640780800002,3.3341037072,-2.54951884,-2.13890627,-0.62524856,,,
imu,272.8475,-0.0903210728,-9.105081921600002,3.370591028000001,-2.0709966,-2.43798267,-0.7224483899999998,,,
imu,272.855962,-0.05443190480000001,-9.111661602400002,3.361020583200001,-1.61490509,-2.77444362,-0.8495558599999999,,,
imu,272.864424,-0.0137575144,-9.13678402,3.381955931200001,-1.25601341,-3.44736552,-1.03647861,,,
imu,272.872886,-0.0017944584,-9.094913324,3.373581792,-1.10647521,-4.35207163,-1.53743158,,,
imu,272.881349,0.009570444800000001,-9.059024156000001,3.372983639200001,-0.47841477,-5.24182392,-1.76173888,,,
imu,272.889811,0.04845037680000001,-9.038088808000001,3.370591028000001,-0.06718472,-6.33345278,-1.79164652,,,
imu,272.898273,0.2009793408,-9.021340529600002,3.37956332,0.5982602699999999,-7.529758380000001,-1.60472377,,,
imu,272.906736,0.4492127528000001,-8.973488305600002,3.322738804,1.63007385,-9.1896324,-0.99909406,,,
imu,272.915198,0.6406216488000002,-8.956740027200002,3.3269258736,3.13293276,-11.94113528,0.04019642999999995,,,
imu,272.92366,0.8158804192000001,-8.928028692800002,3.3353000128,4.00773123,-15.70949792,1.72997809,,,
imu,272.932122,0.8960328944000001,-8.9399917488,3.3191498872,5.59283615,-20.09844409,4.339419680000001,,,
imu,272.940585,0.900219964,-8.95733818,3.277877344000001,6.61717282,-25.09301997,7.12830711,,,
imu,272.949047,0.8996218112000001,-8.978871680800001,3.241988176,7.43963292,-29.87824237,9.90971763,,,
imu,272.957509,0.885266144,-8.982460597600001,3.218062064,8.493877229999999,-34.55878803,12.98272764,,,
imu,272.965971,0.9277349928000002,-9.0093774736,3.18516366,9.308860419999998,-39.00754948,15.93610709,,,
imu,272.974434,0.9145756312000002,-8.960328944,3.1086001016,10.09393597,-43.59089531,18.71751761,,,
imu,272.982896,0.8451899064,-8.968703083200001,3.073309086400001,10.98368826,-48.25648715,21.21480555,,,
imu,272.991358,0.7997302936000001,-8.9914328896,3.0649349472,11.90334819,-52.5557104,23.41301709,,,
imu,272.999821,0.6633514552,-8.996218112000001,3.029643932,13.29405345,-56.82502601,25.27476768,,,
imu,273.008283,0.4677554896000001,-9.060220461600002,3.0374199184,14.31091321,-60.6307732,26.54584238,,,
imu,273.016745,0.1638938672,-9.048257405600001,2.9859787776,15.37263443,-63.30750698000001,27.17390282,,,
imu,273.025207,-0.1800439928,-9.060220461600002,2.9423136232,16.74090896,-64.45147420999999,27.52531759,,,
imu,273.03367,-0.5012520464000001,-9.118839436000002,2.949491456800001,17.90730692,-64.08510562,27.45054849,,,
imu,273.042132,-0.7967395296000002,-9.1852343968,2.9704268048,18.76715157,-62.13363211,27.18137973,,,
imu,273.050594,-1.0216449824,-9.280938844800001,3.0009325976,19.18585853,-58.85126862,26.5607962,,,
imu,273.059056,-1.1945111416,-9.4496179344,3.070916475200001,19.47745802,-54.47727627,25.57384408,,,
imu,273.067519,-1.3871163432,-9.614109954400002,3.0906555176,19.02136651,-49.45279275,24.07098517,,,
imu,273.075981,-1.4947838472,-9.752283251200002,3.096637045600001,17.92226074,-43.96474081,22.17932694,,,
imu,273.084443,-1.5390471544,-9.835426490400001,3.098431504000001,16.15023307,-37.99068972,19.59979299,,,
imu,273.092905,-1.5516083632,-9.862343366400001,3.0607478776,13.82491406,-31.89700807,16.3921986,,,
imu,273.101368,-1.5378508488,-9.833632032,2.9853806248,11.62670252,-25.76594187,12.94534309,,,
imu,273.10983,-1.4756429576,-9.801929933600002,2.9363320952,9.525690809999999,-19.60496803,9.5134414,,,
imu,273.118292,-1.3948923296,-9.703234721600001,2.853188856,7.82843224,-13.54867093,6.350708470000001,,,
imu,271.891728,,,,,,,-92.2254068,184.5301084,112.9105112
imu,271.99326,,,,,,,-91.7737404,185.4090268,112.0438
imu,272.094853,,,,,,,-91.8225692,186.1170444,110.9573592
imu,272.196385,,,,,,,-92.359686,186.8616836,110.9695664
imu,272.297948,,,,,,,-89.55203,185.4456484,109.5169096
imu,272.404698,,,,,,,-91.1877948,185.9949724,112.4832592
imu,272.501042,,,,,,,-88.64869719999999,185.5677204,110.5545216
imu,272.602788,,,,,,,-90.17459720000001,185.2869548,113.2767272
imu,272.704171,,,,,,,-90.46757000000001,185.6897924,112.3856016
imu,272.805672,,,,,,,-90.3210836,186.3611884,112.4466376
imu,272.907204,,,,,,,-89.674102,185.9949724,113.2523128
imu,273.008797,,,,,,,-87.06176119999999,185.9583508,114.1678528
imu,273.112221,,,,,,,-82.349782,184.8597028,115.2298792
